Timestamp(ms),AccelX(g),AccelY(g),AccelZ(g),GyroX(deg/s),GyroY(deg/s),GyroZ(deg/s),DistanceLeft(cm),DistanceRight(cm)
365982,-0.782,2.000,-0.467,-114.366,25.969,-7.046,52.0,0.0
366030,-0.767,-0.099,0.123,-250.137,44.198,-71.099,77.0,71.0
366075,-0.860,-2.000,1.427,42.786,-25.458,-68.145,17.0,70.0
366134,-0.950,-1.134,0.038,250.130,-96.618,-13.412,50.0,0.0
366180,-0.398,2.000,-1.796,250.130,-60.145,44.992,51.0,57.0
366234,-0.985,2.000,-1.943,-250.137,111.244,-72.962,52.0,0.0
366280,-1.380,-2.000,1.600,-250.137,-4.099,-71.855,26.0,69.0
366337,-0.789,-1.178,0.420,250.130,-72.763,47.038,72.0,0.0
366391,-0.694,2.000,-0.960,105.023,29.916,62.557,51.0,0.0
366446,-0.876,0.085,-0.230,-250.137,60.672,-4.336,58.0,0.0
366492,-0.743,-1.322,1.208,151.374,-31.504,9.802,24.0,71.0
366550,-0.597,0.354,0.002,250.130,-7.588,55.000,51.0,0.0
366605,-0.895,1.614,-0.326,-198.389,47.603,7.115,52.0,0.0
366650,-0.897,-0.143,0.348,-250.137,54.397,-24.969,20.0,72.0
366696,-0.816,-1.133,1.185,-124.847,-10.542,-20.855,19.0,71.0
366745,-0.867,-0.992,0.909,250.130,-73.870,-21.122,80.0,72.0
366799,-0.750,-0.110,-0.023,250.130,-102.954,-10.771,55.0,0.0
366855,-0.670,2.000,-1.058,-216.122,57.351,-35.626,56.0,0.0
366911,-0.877,-0.432,-0.428,-250.137,68.450,-53.435,0.0,67.0
366956,-0.598,-2.000,1.705,250.130,-64.794,-59.427,22.0,66.0
367014,-0.555,0.057,-0.737,250.130,-32.473,45.053,58.0,0.0
367070,-1.161,2.000,-1.213,-250.137,69.947,-11.405,58.0,0.0
367116,-0.784,-2.000,0.591,-250.137,-13.122,-102.985,22.0,64.0
367161,-0.863,-1.760,1.056,250.130,-85.794,-23.244,24.0,64.0
367216,0.118,0.685,-0.361,250.130,33.771,104.153,59.0,0.0
367265,-1.015,2.000,-0.615,-250.137,79.160,4.397,59.0,95.0
367314,-0.700,-1.492,0.673,-250.137,-35.763,-117.153,89.0,64.0
367363,-0.558,-1.196,1.130,250.130,-20.565,-16.840,68.0,64.0
367416,-1.031,1.341,-0.059,157.947,23.802,68.969,60.0,94.0
367463,-0.689,0.343,0.840,-201.153,-46.962,-16.275,58.0,65.0
367510,-0.862,-0.807,1.334,74.656,-78.435,-38.618,57.0,64.0
367559,-0.771,0.065,0.907,247.847,-99.282,16.221,61.0,91.0
367614,-0.668,0.032,0.635,250.130,-112.214,21.099,58.0,0.0
367663,0.257,2.000,-0.595,149.092,79.046,46.626,58.0,71.0
367711,-1.018,1.308,-1.116,-250.137,103.626,-19.092,57.0,78.0
367758,-0.785,-2.000,0.979,-250.137,-61.595,-120.443,62.0,56.0
367809,-0.370,-1.027,0.551,250.130,-60.008,36.756,71.0,58.0
367868,-0.270,1.802,-0.924,250.130,29.206,95.252,133.0,0.0
367918,-0.524,1.029,-0.051,-250.137,67.695,-18.863,59.0,80.0
367971,-1.109,-0.216,0.507,-250.137,82.840,50.092,171.0,61.0
368027,-0.641,-0.575,1.327,65.061,28.634,155.863,0.0,65.0
368081,-0.431,0.346,0.950,175.756,13.221,106.137,166.0,69.0
368136,-0.589,0.774,0.885,78.137,6.084,61.336,177.0,72.0
368192,-0.713,0.724,0.839,-51.191,5.473,63.634,187.0,87.0
368248,-0.750,0.665,0.779,-73.481,-27.893,83.397,0.0,74.0
368309,-0.750,0.744,0.744,-86.412,-66.542,118.794,0.0,75.0
368365,-0.548,0.648,0.810,-84.511,-95.641,161.618,0.0,78.0
368421,0.030,0.311,0.722,39.924,-79.886,215.939,0.0,82.0
368468,0.556,0.191,0.592,51.359,-11.878,199.458,46.0,64.0
368516,0.544,0.277,0.689,53.962,20.756,125.985,38.0,67.0
368605,0.191,0.855,0.614,52.221,35.550,250.130,33.0,72.0
368665,0.472,0.140,0.672,-49.702,60.168,214.137,0.0,42.0
368709,0.905,0.392,1.260,114.053,42.802,7.435,30.0,41.0
368754,-0.374,1.957,-0.288,84.924,13.435,114.198,30.0,67.0
368812,0.509,0.524,0.563,-57.924,35.924,217.023,0.0,67.0
368866,1.059,-0.675,0.925,-41.160,50.374,18.885,0.0,66.0
368911,-0.696,1.936,-0.404,174.824,29.191,-29.702,30.0,60.0
368965,0.445,0.653,0.646,-42.733,41.008,116.099,0.0,60.0
369020,0.912,-0.000,1.141,-27.504,68.695,8.176,0.0,63.0
369064,-0.313,1.553,0.175,38.824,36.679,31.649,27.0,57.0
369119,0.405,0.062,0.679,-86.489,18.550,103.550,0.0,57.0
369173,0.766,0.543,1.215,75.443,-10.718,-98.695,0.0,57.0
369220,0.529,0.701,0.880,-53.076,-24.573,45.328,23.0,57.0
369274,0.917,-0.029,0.855,-45.847,36.427,32.092,0.0,57.0
369319,-0.127,1.496,0.294,-9.198,31.168,-18.229,21.0,65.0
369366,0.438,-0.350,0.773,-109.710,-2.618,52.221,23.0,93.0
369411,0.045,0.528,0.768,147.496,-40.458,-25.527,23.0,66.0
369467,0.561,0.629,0.647,-43.664,-67.481,41.206,0.0,100.0
369522,1.043,0.193,1.076,48.076,20.435,-21.824,0.0,59.0
369576,0.321,0.642,0.649,-61.969,33.649,3.809,0.0,59.0
369634,0.791,-0.278,0.967,-4.092,22.779,-22.481,0.0,101.0
369679,-0.186,1.323,0.192,34.275,-28.137,-30.687,25.0,20.0
369728,0.544,-0.084,0.775,-37.679,-40.412,20.321,23.0,145.0
369783,0.327,1.281,0.597,136.198,-14.359,-62.183,0.0,65.0
369828,0.505,0.172,0.812,-154.206,1.046,46.641,22.0,67.0
369872,0.947,-0.230,1.198,28.076,17.718,-18.481,21.0,59.0
369927,-0.076,1.186,0.367,81.832,-6.069,-54.206,0.0,59.0
369971,0.567,-0.170,0.822,-75.702,-36.954,-22.084,22.0,53.0
370016,-0.195,0.978,0.935,121.626,-44.511,-94.313,31.0,52.0
370058,0.160,0.953,0.691,-125.298,-65.000,13.412,30.0,18.0
370115,0.603,-0.451,1.001,-133.168,-48.817,-44.214,0.0,50.0
370159,0.204,0.216,0.873,-58.618,-30.771,-250.137,31.0,49.0
370206,0.025,0.133,0.683,-147.412,-23.718,-250.137,35.0,82.0
370252,-0.004,0.028,0.753,-82.466,11.229,-250.137,42.0,77.0
370308,-0.591,0.113,0.633,124.603,25.908,-250.137,0.0,70.0
370364,-0.355,1.306,0.110,25.084,78.565,-250.137,0.0,84.0
370415,-0.584,0.879,-0.061,-230.924,233.863,-232.702,113.0,79.0
370460,-1.100,0.171,0.440,-250.137,222.618,-168.908,16.0,76.0
370508,-1.173,-1.063,1.419,117.832,77.336,-147.473,16.0,74.0
370553,-1.193,-0.887,0.548,250.130,23.229,-67.641,17.0,71.0
370609,-1.247,-0.106,-0.973,250.130,-37.779,-25.710,77.0,0.0
370665,-0.471,2.000,-1.311,-250.137,107.924,-84.550,79.0,0.0
370721,-1.446,-1.133,-1.285,-250.137,103.359,-64.718,23.0,0.0
370766,-0.766,-2.000,1.969,250.130,-73.328,19.832,18.0,75.0
370816,-0.661,-0.526,-0.746,250.130,-55.878,78.153,23.0,126.0
370872,-0.220,2.000,-1.209,-8.740,20.893,49.382,82.0,0.0
370920,-0.886,-0.859,-0.523,-250.137,66.359,-68.137,20.0,81.0
370965,-0.858,-2.000,1.706,250.130,-46.473,-30.809,19.0,76.0
371028,-0.670,0.748,-0.968,250.130,-23.229,51.458,0.0,0.0
371085,-0.997,0.670,-0.185,-250.137,40.198,-10.725,23.0,0.0
371191,-0.908,0.393,0.112,250.130,-58.473,74.466,0.0,0.0
371248,-0.562,0.668,0.081,249.458,-10.580,42.443,82.0,0.0
371304,-0.668,1.408,-0.152,-55.679,27.809,-4.718,81.0,0.0
371360,-0.851,0.103,0.250,-229.405,80.076,-7.634,88.0,0.0
371423,-1.089,-0.142,0.531,94.710,-7.168,13.870,0.0,0.0
371482,-0.160,1.542,-0.050,118.656,21.305,8.817,84.0,0.0
371538,-0.967,0.882,-0.385,-250.137,97.504,-94.405,22.0,0.0
371586,-0.967,-1.835,1.526,91.153,-77.695,-87.771,19.0,92.0
371642,-0.797,0.087,-0.247,250.130,-85.031,12.550,85.0,0.0
371698,-1.048,2.000,-0.689,-250.137,9.282,-20.954,83.0,0.0
371755,-0.621,-1.412,0.878,-250.137,-14.366,-23.000,21.0,0.0
371813,-1.190,-0.248,0.306,250.130,-55.672,-50.924,117.0,0.0
371869,-0.958,1.316,-0.148,-33.061,-27.458,47.908,82.0,0.0
371923,-0.483,0.453,0.263,-250.137,56.504,-23.763,89.0,98.0
371982,-1.457,-0.338,0.478,-191.893,-17.496,-43.664,0.0,124.0
372045,-0.160,-0.525,0.560,250.130,-46.870,71.901,0.0,0.0
372104,-0.911,1.911,-0.325,-182.397,15.954,-37.176,0.0,123.0
372150,-1.011,-1.470,1.235,-7.954,-32.473,5.794,23.0,89.0
372208,-0.567,0.166,0.354,250.130,-61.031,70.298,116.0,0.0
372265,-0.366,2.000,-0.366,-85.260,54.427,6.573,87.0,0.0
372321,-0.925,-0.237,0.114,-250.137,67.076,-38.115,0.0,81.0
372378,-0.807,-1.677,1.001,250.130,-90.450,-42.580,170.0,122.0
372439,-0.317,2.000,-1.176,250.130,14.038,36.840,87.0,0.0
372494,-0.898,0.735,-0.880,-250.137,95.992,-60.427,171.0,95.0
372549,-0.782,-2.000,1.446,250.130,-64.527,-3.756,170.0,98.0
372606,-0.270,2.000,-0.760,250.130,4.878,71.740,89.0,0.0
372661,-0.855,0.717,-0.486,-250.137,68.473,-40.305,160.0,96.0
372716,-0.733,-1.614,1.296,250.130,-69.382,0.405,157.0,97.0
372777,-0.485,2.000,-0.496,235.282,-12.221,46.580,163.0,0.0
372837,-0.689,-0.704,1.045,-123.511,-53.244,-89.542,137.0,0.0
372889,-0.548,0.575,-0.303,250.130,-36.244,46.145,89.0,62.0
372937,-0.516,2.000,-0.700,-250.137,73.908,-21.496,90.0,57.0
372998,-0.826,-1.371,0.796,-250.137,24.252,-77.618,138.0,0.0
373046,-0.466,0.961,-0.080,250.130,-3.214,60.702,91.0,57.0
373103,-0.712,2.000,-1.075,-250.137,125.168,-38.015,92.0,0.0
373149,-1.197,-2.000,1.987,-210.137,-20.214,-82.542,17.0,88.0
373210,-0.708,-0.445,-0.049,250.130,-68.664,57.298,137.0,0.0
373263,-0.923,2.000,-0.943,-250.137,70.099,-20.053,142.0,95.0
373317,-1.130,-2.000,1.282,-250.137,-1.924,-63.191,140.0,87.0
373388,-0.439,1.546,-0.174,250.130,-14.534,64.489,140.0,0.0
373440,-0.737,0.757,0.655,-250.137,30.099,-34.313,138.0,86.0
373486,-1.307,-0.970,1.519,-138.893,-67.153,-25.847,19.0,84.0
373538,-1.234,-0.096,1.156,92.405,-158.221,8.489,137.0,80.0
373591,-0.949,0.497,0.727,1.359,-201.206,21.061,138.0,78.0
373642,-0.702,-0.686,0.905,250.130,-250.137,0.611,142.0,75.0
373696,-0.003,-0.428,-0.165,250.130,-203.305,131.550,187.0,66.0
373751,0.486,1.603,-2.000,250.130,58.267,236.382,0.0,67.0
373810,-0.134,1.303,-0.856,-250.137,31.214,49.519,0.0,77.0
373866,-0.253,-1.275,1.402,-33.443,-92.595,86.305,0.0,91.0
373922,1.292,0.012,-0.107,250.130,-76.802,195.489,0.0,84.0
374023,-0.424,0.945,-0.587,-250.137,87.382,43.855,0.0,107.0
374079,0.920,-1.100,0.982,-70.405,-7.160,89.229,0.0,74.0
374136,0.157,1.150,0.028,250.130,-14.305,40.183,0.0,111.0
374192,1.075,0.501,0.387,-124.656,1.443,49.260,0.0,76.0
374247,-0.076,1.494,-0.073,118.053,44.282,25.305,0.0,82.0
374306,1.089,-0.105,0.456,-204.641,2.809,100.115,0.0,82.0
374364,0.181,0.260,0.727,250.130,-22.664,-41.389,0.0,117.0
374422,0.909,0.999,0.112,-242.412,39.053,140.458,0.0,114.0
374471,1.280,-0.535,1.052,-15.328,35.695,-3.695,43.0,122.0
374521,-0.326,2.000,-0.127,96.122,18.008,140.290,47.0,138.0
374571,1.316,-0.830,0.489,-245.511,-14.962,135.855,39.0,138.0
374621,0.685,-0.325,1.040,199.794,-9.725,-113.664,38.0,140.0
374669,0.580,1.544,0.187,-21.099,38.344,150.855,37.0,110.0
374717,1.465,-1.418,0.650,-148.405,20.687,65.863,34.0,113.0
374768,-0.618,-0.125,0.384,250.130,-4.038,-100.260,36.0,110.0
374816,0.987,1.009,0.263,-40.282,23.336,85.366,36.0,110.0
374864,1.503,-0.753,0.849,-117.321,10.885,-30.977,34.0,110.0
374913,-0.195,0.880,0.163,250.130,7.267,-55.687,37.0,110.0
374961,0.928,0.370,0.387,-98.573,38.847,104.313,35.0,110.0
375009,1.414,-0.669,0.836,-112.573,32.244,6.618,33.0,114.0
375057,-0.559,0.716,0.213,250.130,2.191,-59.313,35.0,109.0
375105,0.982,0.198,0.419,-112.740,2.290,130.534,32.0,110.0
375155,1.715,-1.197,1.177,-11.802,-14.053,-57.282,31.0,111.0
375203,-0.770,1.638,-0.718,241.786,1.756,-17.145,37.0,107.0
375251,1.106,0.146,0.123,-210.481,64.489,78.290,33.0,108.0
375300,1.418,-0.987,0.682,-24.366,99.145,-45.435,30.0,113.0
375348,0.303,0.099,0.373,192.710,121.748,-101.504,38.0,108.0
375395,0.386,0.849,0.122,2.450,123.198,-42.481,33.0,86.0
375442,0.971,0.273,0.562,-2.053,93.817,-14.725,32.0,95.0
375489,1.199,0.294,0.714,67.763,85.901,-12.756,32.0,102.0
375536,0.139,1.698,0.487,161.817,133.786,17.779,33.0,90.0
375584,-0.154,1.235,0.841,-178.412,166.886,192.344,34.0,72.0
375630,0.306,-0.729,1.032,-245.977,115.924,177.924,30.0,60.0
375686,1.007,-1.467,1.342,72.603,98.389,-26.504,0.0,73.0
375741,-0.841,1.121,1.392,74.634,78.519,-204.229,0.0,73.0
375797,-1.586,-0.095,1.100,-230.901,-28.550,105.168,0.0,78.0
375844,1.061,-1.220,1.435,2.466,50.580,108.252,33.0,94.0
375900,-0.377,0.754,0.847,-11.046,77.573,-82.794,0.0,77.0
375957,-1.070,-0.280,1.458,-144.687,-58.336,92.603,0.0,96.0
376014,1.357,-1.417,1.438,197.351,-10.145,64.092,0.0,52.0
376072,-0.024,1.114,0.799,-56.000,23.817,-159.038,0.0,96.0
376129,-1.061,0.025,1.715,-144.656,-99.061,129.321,0.0,97.0
376174,1.508,-1.341,0.993,166.489,-41.618,118.092,30.0,55.0
376228,1.286,0.347,0.498,95.794,64.542,-129.092,0.0,53.0
376283,-2.000,1.277,-0.069,-238.588,8.351,-15.489,0.0,54.0
376328,0.934,-1.007,0.977,-2.794,-31.687,115.947,28.0,55.0
376382,0.923,-0.100,0.785,185.611,24.931,-35.412,0.0,54.0
376436,-1.396,0.687,0.810,-48.405,-34.305,-118.863,0.0,53.0
376495,-0.280,-0.364,1.007,136.397,-68.710,29.053,0.0,53.0
376551,0.159,0.184,0.576,85.053,11.519,-36.695,0.0,96.0
376651,-0.037,-0.378,0.730,-136.626,90.321,-250.137,0.0,81.0
376708,-0.294,-0.729,0.943,132.420,140.000,-250.137,0.0,79.0
376764,-2.000,0.647,0.092,250.130,98.176,-250.137,0.0,87.0
376820,-1.015,1.716,0.206,-250.137,87.954,-111.985,0.0,81.0
376877,-0.822,-0.782,1.283,-250.137,60.031,-74.450,0.0,78.0
376932,-0.914,-1.220,1.206,250.130,-71.962,-90.649,0.0,72.0
376989,-0.505,1.355,-0.901,250.130,-71.641,-19.107,131.0,102.0
377041,-0.588,2.000,-1.200,-250.137,71.519,-109.328,132.0,84.0
377088,-0.525,-2.000,1.028,-250.137,47.534,-112.786,22.0,68.0
377140,-0.911,-1.824,0.872,250.130,-90.443,-20.809,135.0,81.0
377203,0.172,2.000,-1.711,250.130,1.824,118.740,199.0,0.0
377255,-0.512,0.617,-1.253,-250.137,143.198,-41.901,138.0,81.0
377312,-0.590,-2.000,2.000,205.519,-47.908,-101.672,194.0,82.0
377366,-0.046,1.552,-1.207,250.130,13.168,84.901,141.0,93.0
377418,-0.767,1.949,-0.827,-250.137,88.969,-24.183,139.0,81.0
377468,-0.771,-2.000,2.000,157.557,-60.115,-51.397,25.0,81.0
377522,-0.394,0.282,-0.308,250.130,-42.664,85.557,140.0,96.0
377575,-0.851,2.000,-0.651,-250.137,56.229,14.557,139.0,80.0
377627,-0.628,-2.000,2.000,-163.557,-24.573,-68.855,136.0,81.0
377680,-0.276,0.766,-0.160,250.130,7.710,10.893,137.0,85.0
377734,-0.713,1.415,-0.119,-250.137,34.527,-43.053,136.0,81.0
377786,-0.669,-1.883,1.665,65.542,23.038,-46.901,136.0,80.0
377839,-1.098,1.083,0.050,243.748,-58.275,23.924,133.0,82.0
377894,0.050,0.365,0.573,-94.198,15.618,34.992,137.0,81.0
377948,-0.728,0.203,0.570,-46.145,51.679,-84.618,137.0,81.0
378001,-0.864,-0.203,0.857,76.718,36.748,-26.763,138.0,85.0
378053,-0.926,0.763,0.706,-59.855,3.756,25.985,138.0,81.0
378106,-0.784,-0.003,1.269,-168.298,-24.466,14.405,138.0,80.0
378160,-1.041,-0.395,1.422,48.878,-109.771,8.122,137.0,78.0
378212,-1.446,0.042,1.052,250.130,-216.450,109.939,140.0,78.0
378268,-0.681,0.615,0.052,250.130,-237.466,250.130,0.0,64.0
378327,1.063,1.561,-0.298,75.588,-65.817,250.130,0.0,71.0
378383,0.790,0.980,0.200,-233.832,34.115,35.931,0.0,79.0
378439,-1.218,0.497,-0.059,-250.137,39.008,170.656,0.0,71.0
378486,0.430,-0.250,0.375,-186.886,-71.992,215.855,51.0,68.0
378533,1.342,-1.079,1.083,34.527,-121.756,5.160,44.0,68.0
378580,-0.490,1.401,-0.460,250.130,-65.802,115.756,46.0,75.0
378628,0.844,0.855,0.120,-166.649,-23.603,216.069,37.0,86.0
378675,1.771,-1.927,0.903,-223.573,-1.809,23.153,33.0,74.0
378721,-0.124,-0.394,1.654,250.130,31.061,-137.168,35.0,73.0
378772,0.611,2.000,0.096,54.985,1.420,147.710,36.0,89.0
378819,1.142,-0.840,0.404,-250.137,11.221,85.160,37.0,80.0
378875,1.396,-1.360,0.962,-11.763,63.832,-106.672,0.0,78.0
378923,-0.747,2.000,-0.097,225.099,11.947,115.588,34.0,93.0
378974,1.033,0.296,0.205,-186.969,-7.954,114.618,36.0,142.0
379021,1.681,-1.449,1.030,-77.008,10.450,-98.557,34.0,83.0
379068,-0.763,0.511,0.385,250.130,4.458,-37.748,34.0,86.0
379115,0.682,1.297,0.253,-25.595,-9.542,106.115,34.0,92.0
379165,1.584,-1.183,0.592,-167.496,-17.702,-19.565,31.0,82.0
379212,0.589,-0.291,1.218,147.855,-10.550,-137.756,33.0,83.0
379313,1.470,-0.087,0.213,-189.794,5.786,87.473,0.0,90.0
379361,1.251,-1.008,1.024,20.206,58.206,-116.023,30.0,91.0
379409,-0.950,1.918,-0.114,178.977,-1.260,67.557,34.0,111.0
379457,1.175,0.309,0.254,-161.641,-6.427,92.534,31.0,97.0
379504,1.603,-1.133,0.979,-85.176,27.817,-65.733,31.0,94.0
379552,0.038,0.078,1.085,175.298,45.908,-127.282,35.0,95.0
379603,0.231,1.095,0.580,90.664,27.779,28.832,37.0,136.0
379654,1.099,-0.158,0.691,-123.160,9.107,-3.794,35.0,87.0
379701,0.430,0.330,1.267,53.557,5.092,-134.565,36.0,84.0
379749,-0.021,1.526,0.213,-71.542,-5.328,85.954,36.0,88.0
379796,1.375,-0.285,0.274,-201.359,17.137,86.053,34.0,81.0
379843,1.647,-1.059,0.874,-39.840,59.466,-85.015,34.0,83.0
379890,-0.322,0.318,0.888,240.374,66.718,-150.847,37.0,80.0
379937,0.206,1.783,0.273,-67.397,53.244,52.076,37.0,83.0
379985,1.220,-0.231,0.514,-210.779,69.641,43.137,35.0,90.0
380037,1.177,-0.860,1.000,-10.374,92.229,-34.885,35.0,91.0
380090,0.215,0.526,0.764,174.496,72.695,-52.229,45.0,84.0
380136,-0.013,1.266,0.594,-31.053,61.435,40.015,40.0,78.0
380183,0.427,0.454,0.846,-58.481,82.313,107.580,50.0,81.0
380241,0.669,-0.084,0.992,-28.504,99.504,110.756,0.0,141.0
380298,0.458,-0.001,0.994,-12.786,117.450,45.511,0.0,94.0
380346,-0.967,0.844,1.159,62.664,75.328,41.206,50.0,87.0
380401,-0.507,0.588,1.254,-62.748,11.382,183.168,0.0,77.0
380447,0.166,-0.587,1.024,-84.534,-5.924,178.878,34.0,74.0
380495,0.858,-1.218,1.310,85.618,58.336,11.290,32.0,82.0
380542,-0.987,0.699,1.207,20.947,49.954,-92.420,36.0,93.0
380589,-1.273,0.447,1.363,-34.389,-61.656,130.947,36.0,75.0
380643,0.491,-0.270,0.710,78.542,-52.534,151.405,0.0,52.0
380697,0.760,-0.235,0.797,33.344,33.168,-61.679,0.0,51.0
380743,-2.000,1.096,0.246,34.763,-18.901,15.191,33.0,76.0
380796,0.114,0.167,0.929,37.733,-56.878,157.740,0.0,54.0
380851,1.209,-0.553,1.043,14.458,9.924,27.718,0.0,55.0
380905,-1.427,0.994,0.404,48.260,-9.397,72.313,0.0,56.0
380953,0.695,-0.178,0.769,-61.649,-13.031,130.168,29.0,58.0
380997,1.215,-1.159,0.957,-85.985,29.137,-59.687,19.0,58.0
381041,-1.061,-0.188,1.487,81.771,35.122,-167.282,26.0,57.0
381095,0.052,1.034,1.252,78.145,-53.626,98.702,0.0,57.0
381151,0.694,-0.532,0.781,-78.099,-25.450,24.580,0.0,58.0
381205,-0.308,-0.068,1.051,-11.954,26.794,-111.069,0.0,58.0
381259,0.005,0.122,0.961,-15.847,1.725,15.427,0.0,58.0
381315,0.093,-0.091,0.745,-6.191,16.954,-30.099,0.0,57.0
381372,-0.040,-0.280,0.707,-43.847,55.870,-108.954,0.0,56.0
381428,-0.117,-0.306,0.676,-29.748,95.252,-170.496,0.0,87.0
381474,-0.143,-0.302,0.728,4.969,124.641,-222.237,42.0,79.0
381532,-0.227,-0.491,0.968,94.229,138.649,-250.137,0.0,97.0
381579,-1.210,0.981,0.308,181.817,64.702,-250.137,45.0,89.0
381635,-0.620,1.318,0.347,-250.137,189.435,-143.802,0.0,85.0
381680,-1.089,-1.526,1.434,-193.603,126.702,-15.901,8.0,84.0
381725,-0.744,-1.212,1.221,250.130,8.779,-44.786,11.0,81.0
381770,-0.869,-0.403,0.360,250.130,-68.580,-95.817,17.0,75.0
381873,-0.685,1.282,-0.287,-250.137,160.710,-55.466,0.0,72.0
381917,-0.843,-2.000,1.916,-68.748,79.740,-93.275,14.0,72.0
381962,-1.042,-1.047,0.353,250.130,10.840,-79.557,17.0,71.0
382014,-0.436,2.000,-0.485,250.130,81.252,-4.145,134.0,84.0
382060,-1.104,0.733,-0.325,-250.137,73.153,-63.115,16.0,84.0
382105,-1.266,-2.000,2.000,22.443,-54.099,-32.672,14.0,72.0
382151,-0.952,-0.897,-0.138,250.130,-81.565,63.794,18.0,84.0
382203,-0.525,2.000,-0.776,207.580,-10.840,107.725,138.0,85.0
382253,-0.721,0.067,-0.025,-250.137,35.931,24.855,23.0,86.0
382297,-0.262,-2.000,1.998,87.443,-66.198,3.183,16.0,52.0
382349,-0.347,-0.111,0.228,250.130,-51.214,-4.595,136.0,81.0
382402,-0.652,2.000,-0.416,-250.137,70.015,-44.939,137.0,85.0
382447,-0.834,-2.000,1.975,-201.313,-36.939,-131.382,18.0,80.0
382500,-1.088,-0.470,0.194,250.130,-100.031,-36.176,136.0,83.0
382553,-0.778,2.000,-0.670,-250.137,51.191,43.008,138.0,80.0
382599,-0.708,-2.000,1.304,-250.137,-13.885,-61.260,23.0,83.0
382654,-0.642,-0.405,0.499,250.130,-44.771,11.115,128.0,83.0
382706,-0.610,2.000,-0.233,-147.527,47.267,38.786,129.0,83.0
382758,-0.688,-1.740,1.459,-168.886,-18.679,-61.718,134.0,84.0
382812,-0.651,-0.037,0.448,250.130,-60.847,-13.603,135.0,83.0
382864,-0.823,2.000,-0.131,-250.137,81.901,40.244,135.0,84.0
382916,-0.919,-1.983,1.498,-250.137,10.366,-48.427,134.0,69.0
382968,-0.842,-0.782,1.411,212.954,-77.015,-18.802,134.0,81.0
383022,-0.811,0.221,0.924,64.649,-121.573,-37.107,136.0,78.0
383074,-1.033,-1.177,1.281,250.130,-234.382,-108.878,141.0,75.0
383131,-0.363,-0.561,-0.981,250.130,-200.977,74.886,188.0,64.0
383186,-0.112,2.000,-1.335,-250.137,61.809,70.725,187.0,67.0
383242,-0.176,-0.160,-0.528,-250.137,30.527,-88.275,0.0,68.0
383297,-0.303,-2.000,1.552,250.130,-92.817,-36.351,0.0,66.0
383354,0.197,2.000,-0.688,250.130,28.618,68.802,0.0,96.0
383411,-0.257,-0.013,0.736,-250.137,-58.229,-68.840,0.0,82.0
383467,0.072,-0.434,0.762,250.130,-76.588,54.870,189.0,98.0
383524,-0.089,2.000,-0.307,-250.137,84.275,51.389,0.0,98.0
383585,-0.057,-1.554,1.822,14.168,-74.855,-90.603,0.0,90.0
383641,0.737,1.539,-0.088,250.130,34.168,82.588,0.0,86.0
383698,-0.215,0.749,0.485,-250.137,4.389,-42.511,0.0,100.0
383755,-0.105,-0.921,0.770,250.130,-79.282,27.198,0.0,78.0
383811,0.951,2.000,-1.568,250.130,52.122,98.435,0.0,73.0
383867,-0.130,1.282,-1.350,-250.137,128.260,-59.092,0.0,88.0
383925,-0.177,-2.000,1.836,-5.947,-22.580,-8.679,0.0,91.0
383980,0.478,0.591,-0.564,250.130,-0.771,128.527,0.0,74.0
384039,0.359,1.972,-0.741,-250.137,122.099,-77.290,0.0,73.0
384095,-0.039,-0.006,-0.085,-250.137,198.260,-72.985,0.0,74.0
384151,-0.533,-1.147,1.465,22.405,130.977,23.718,0.0,75.0
384207,-0.297,0.398,0.764,250.130,42.336,22.244,0.0,79.0
384264,-0.124,2.000,0.108,-72.809,72.939,-9.313,0.0,81.0
384317,-0.546,0.459,0.559,-250.137,125.702,23.252,134.0,85.0
384372,-0.822,-0.962,1.647,-71.389,23.870,115.321,0.0,72.0
384430,-0.263,-0.104,1.213,250.130,-49.718,179.969,0.0,83.0
384484,0.117,0.163,-0.137,250.130,13.000,250.130,0.0,57.0
384579,-0.078,-0.019,0.145,-250.137,74.260,123.366,51.0,81.0
384635,-0.432,-1.226,1.804,38.977,11.519,121.649,0.0,84.0
384683,0.507,0.322,0.343,250.130,24.000,233.603,39.0,84.0
384731,0.573,1.388,0.228,107.863,15.840,101.336,39.0,88.0
384778,-0.058,0.885,0.732,-35.618,1.649,-24.382,43.0,88.0
384825,0.079,0.515,0.563,-31.198,17.725,85.733,36.0,90.0
384873,0.687,0.457,0.674,-29.450,20.443,42.672,35.0,97.0
384921,-0.125,1.047,0.598,25.427,11.908,-32.351,34.0,111.0
384969,0.397,0.512,0.668,-30.206,6.672,81.122,32.0,94.0
385019,0.620,0.534,0.716,-5.214,13.725,12.916,32.0,95.0
385068,-0.002,1.099,0.192,-113.580,10.298,1.389,31.0,95.0
385115,0.812,-0.581,0.993,-93.160,1.031,12.527,30.0,95.0
385160,-0.217,0.752,0.565,182.771,-15.031,-56.756,33.0,57.0
385206,0.543,0.846,0.605,-63.221,-18.237,17.885,33.0,57.0
385253,0.764,0.277,1.059,-4.008,18.511,-22.076,31.0,99.0
385299,-0.291,1.614,0.081,-18.305,4.435,18.435,32.0,57.0
385344,0.888,-0.008,0.828,-108.420,-12.924,42.076,31.0,57.0
385392,0.517,0.292,0.977,70.710,4.076,-49.084,31.0,57.0
385442,0.050,0.563,0.483,56.313,-7.656,-28.168,50.0,111.0
385499,0.350,0.263,0.703,18.771,-18.336,-62.481,0.0,92.0
385556,0.074,0.375,0.605,-73.076,-22.588,-205.267,0.0,88.0
385612,-0.308,0.296,0.744,16.038,5.618,-233.794,0.0,81.0
385669,-0.407,0.677,0.461,58.321,3.534,-224.336,0.0,66.0
385726,-0.031,1.216,0.252,-164.420,61.466,-250.137,0.0,99.0
385782,-0.705,0.478,0.359,-250.137,203.977,-250.137,0.0,80.0
385828,-1.666,-2.000,1.578,111.198,69.000,-219.931,17.0,77.0
385885,-1.181,-0.789,-0.162,250.130,0.603,19.405,123.0,98.0
385942,-0.541,2.000,-1.010,-7.496,19.237,42.427,0.0,101.0
385995,-0.387,0.207,-0.143,-250.137,122.321,-119.229,131.0,89.0
386042,-0.912,-2.000,2.000,207.153,-12.695,-103.160,15.0,86.0
386096,-0.766,-0.775,-0.397,250.130,-48.519,-5.122,132.0,98.0
386153,-0.829,2.000,-0.956,-44.687,4.588,-19.145,87.0,0.0
386206,-0.660,-0.946,0.785,-250.137,34.870,-108.374,140.0,83.0
386259,-0.935,-0.881,0.469,250.130,-59.405,58.496,124.0,94.0
386320,-0.656,2.000,-0.594,10.092,14.634,73.183,88.0,0.0
386374,-0.782,-0.300,0.358,-250.137,36.603,5.023,139.0,85.0
386427,-0.874,-1.444,0.971,250.130,-111.122,45.221,138.0,95.0
386485,0.195,2.000,-0.742,229.107,25.504,87.046,88.0,0.0
386538,-0.705,0.156,-0.651,-250.137,118.099,-45.496,138.0,84.0
386592,-0.856,-2.000,1.500,250.130,-76.725,-48.229,137.0,85.0
386641,-0.174,1.538,-1.117,250.130,-20.786,68.160,88.0,58.0
386693,-0.636,2.000,-0.863,-250.137,113.733,-51.160,91.0,95.0
386746,-0.948,-0.889,0.612,-250.137,89.046,-90.641,137.0,85.0
386800,-1.042,-1.442,1.676,44.611,-46.893,-21.656,18.0,83.0
386845,-1.109,-0.095,1.046,167.542,-78.382,-7.565,23.0,82.0
386897,-0.911,0.310,0.919,30.015,-127.038,-47.473,141.0,77.0
386950,-0.939,-0.136,1.028,12.893,-188.099,-104.908,144.0,73.0
387004,-1.459,-0.974,0.885,250.130,-250.137,-125.344,151.0,96.0
387059,-0.484,-1.015,-1.234,250.130,-250.137,140.977,0.0,68.0
387115,1.332,2.000,-1.909,0.435,38.947,221.725,0.0,71.0
387214,-0.777,-2.000,1.316,-147.756,-150.000,-28.672,0.0,86.0
387272,1.052,-0.609,-0.568,250.130,-118.977,120.412,0.0,84.0
387330,-0.680,2.000,-1.778,48.107,17.046,56.786,0.0,102.0
387385,1.495,-0.699,0.585,-250.137,44.840,101.443,0.0,68.0
387441,0.271,-0.146,0.683,232.733,14.496,-19.473,0.0,97.0
387499,0.601,1.177,-0.086,250.130,-35.969,109.702,0.0,109.0
387555,1.104,0.539,0.213,122.305,-62.359,-21.023,0.0,90.0
387611,0.134,2.000,-0.883,-76.733,58.366,37.206,0.0,92.0
387666,1.699,-0.553,0.602,-250.137,-10.069,82.122,0.0,70.0
387727,-0.018,0.893,0.111,250.130,-10.031,-77.015,0.0,112.0
387782,1.021,0.679,-0.232,-250.137,-1.809,116.023,0.0,71.0
387838,0.762,-0.029,0.487,104.023,-3.229,-48.977,0.0,79.0
387894,0.450,1.156,-0.506,-104.939,30.901,56.504,0.0,75.0
387949,1.179,-0.409,0.507,-64.664,-20.115,-14.870,0.0,74.0
388004,0.436,1.531,-0.355,108.695,29.908,13.000,0.0,71.0
388060,1.506,0.009,0.493,-130.580,28.916,8.557,0.0,69.0
388116,-0.240,1.567,-0.395,110.321,36.489,-4.985,0.0,79.0
388171,1.780,-0.393,0.324,-163.740,-17.176,59.878,0.0,71.0
388238,-0.275,2.000,-0.516,142.397,23.947,48.908,0.0,74.0
388285,1.390,-0.428,0.417,-215.779,3.458,73.527,50.0,72.0
388331,0.560,0.263,0.382,139.260,28.840,-4.992,49.0,72.0
388378,0.387,1.262,-0.093,-80.382,40.992,102.664,46.0,75.0
388424,1.560,-0.872,0.367,-178.817,42.275,62.634,43.0,72.0
388470,1.148,-0.576,0.307,110.855,91.168,-56.519,44.0,66.0
388516,0.509,1.072,-0.277,122.824,156.344,-75.931,45.0,70.0
388563,0.331,0.775,-0.129,-140.481,194.794,-35.374,46.0,77.0
388620,0.375,0.450,0.326,-126.527,213.344,20.237,0.0,80.0
388671,0.370,0.120,0.612,-45.298,217.916,71.305,78.0,70.0
388717,0.184,0.228,0.808,17.015,223.282,65.000,46.0,74.0
388765,-0.102,0.129,0.989,-2.092,187.443,48.031,45.0,92.0
388820,-0.123,0.053,1.078,25.611,178.733,13.779,0.0,80.0
388870,-0.297,0.047,1.032,-6.649,131.634,-52.557,55.0,90.0
388925,-0.407,-0.455,1.247,153.664,46.626,-131.137,0.0,79.0
388981,-0.639,0.719,0.564,250.130,-20.450,-154.092,0.0,84.0
389038,-0.467,2.000,-0.086,-250.137,166.580,-127.237,0.0,76.0
389086,-1.339,-2.000,1.179,-250.137,78.107,-59.214,12.0,80.0
389131,-0.743,-1.379,1.182,250.130,-49.756,-34.748,10.0,78.0
389176,-0.583,1.231,0.114,250.130,-67.794,-16.382,15.0,76.0
389221,-0.439,1.531,0.017,-250.137,42.977,11.153,16.0,76.0
389266,-0.439,-0.825,1.264,-250.137,43.244,-10.664,10.0,78.0
389311,-0.810,-1.537,1.451,250.130,-60.695,-67.496,11.0,77.0
389358,-1.050,-0.227,-0.212,250.130,-140.405,31.672,45.0,78.0
389415,0.590,2.000,-0.683,149.992,48.466,105.893,0.0,95.0
389474,-0.548,0.091,0.409,-250.137,38.374,-53.878,0.0,78.0
389530,-0.732,-1.773,1.588,250.130,-109.466,-22.916,0.0,78.0
389585,0.265,2.000,-0.791,250.130,14.244,101.695,0.0,62.0
389641,-0.401,1.176,-0.274,-250.137,64.863,-36.198,0.0,78.0
389688,-0.489,-2.000,1.878,159.282,-68.519,-32.977,38.0,77.0
389743,-0.134,0.166,0.208,250.130,-41.031,44.863,0.0,58.0
389797,-0.733,0.929,-0.029,250.130,-63.412,77.618,0.0,55.0
389896,0.377,1.147,0.163,-145.351,1.107,37.176,0.0,57.0
389951,-0.255,0.988,0.157,-228.008,89.328,-32.015,0.0,59.0
390008,-0.581,0.387,0.638,-115.672,-3.321,47.443,0.0,61.0
390064,-0.074,0.351,0.609,227.298,-41.824,139.908,0.0,60.0
390119,0.539,-0.134,0.482,250.130,-107.099,123.290,0.0,59.0
390174,0.481,1.370,-0.856,250.130,-200.229,47.794,0.0,57.0
390228,0.626,2.000,-1.360,-250.137,106.183,-101.092,0.0,58.0
390284,-0.141,0.286,0.085,-250.137,250.130,17.053,0.0,63.0
390339,0.053,-1.173,1.421,145.626,-116.481,-118.389,0.0,64.0
390394,1.113,2.000,-0.683,250.130,7.473,108.595,0.0,59.0
390450,-0.305,2.000,-1.608,-250.137,250.130,-38.916,0.0,64.0
390505,-1.153,-0.672,0.533,-250.137,38.511,-13.000,0.0,94.0
390560,-0.165,-0.799,0.867,250.130,-202.229,49.947,0.0,67.0
390616,1.412,1.232,-0.519,250.130,-4.969,132.710,0.0,59.0
390671,-0.632,2.000,-0.797,-203.679,139.725,-67.626,0.0,59.0
390733,-0.107,-0.298,0.920,-250.137,20.679,-5.489,0.0,0.0
390789,1.497,-0.416,0.772,250.130,-20.076,-67.313,0.0,61.0
390844,-2.000,2.000,-1.712,-250.137,141.069,-3.336,0.0,64.0
390901,2.000,-2.000,1.020,-250.137,31.359,19.305,0.0,93.0
390963,-2.000,1.566,0.355,250.130,16.412,-108.748,0.0,118.0
391012,2.000,0.202,0.130,67.107,-37.893,106.328,58.0,92.0
391067,1.346,0.854,0.574,148.969,52.595,-77.412,0.0,68.0
391123,-1.952,0.768,-0.280,-211.947,-52.168,13.374,0.0,72.0
391181,2.000,-0.706,1.599,37.397,-4.359,25.710,0.0,103.0
391236,-1.503,1.813,0.204,250.130,4.313,-77.008,0.0,63.0
391291,-0.089,0.885,0.784,-61.214,-11.313,98.198,0.0,67.0
391348,2.000,0.253,0.702,117.962,-15.176,38.229,0.0,67.0
391410,-1.603,2.000,-0.191,-97.069,-15.084,-23.115,0.0,0.0
391472,1.050,-0.412,0.841,-111.069,50.076,138.244,0.0,97.0
391534,1.300,0.190,0.515,215.817,25.115,-46.000,0.0,0.0
391591,-2.000,2.000,-0.421,-132.687,-0.122,43.344,0.0,96.0
391641,0.789,0.166,0.634,-24.237,35.191,105.443,45.0,97.0
391688,1.567,0.208,0.469,1.641,27.321,-81.122,44.0,89.0
391736,-2.000,2.000,-0.392,-121.908,4.084,50.664,44.0,91.0
391784,0.411,0.149,0.459,-63.565,-10.397,147.725,36.0,92.0
391832,1.362,-1.044,0.952,-26.618,36.229,-71.252,44.0,93.0
391883,-1.304,1.250,0.611,125.931,10.756,-135.183,44.0,89.0
391930,-0.530,1.167,0.665,-41.863,-55.160,14.855,44.0,87.0
391979,0.670,-0.482,1.131,-57.145,-96.237,-34.267,47.0,88.0
392035,0.653,-0.346,0.650,234.321,-176.099,-150.679,0.0,69.0
392090,-0.226,2.000,-1.808,-226.756,44.122,-170.611,0.0,69.0
392150,-0.199,-0.025,-0.406,-250.137,98.779,-34.038,0.0,121.0
392198,1.239,-2.000,1.158,250.130,-51.191,-74.405,19.0,107.0
392253,0.140,2.000,-1.550,250.130,-58.832,43.802,0.0,67.0
392301,-0.843,1.648,0.063,-250.137,117.252,80.832,58.0,70.0
392361,-0.423,-1.210,0.548,-250.137,30.290,97.267,0.0,103.0
392409,1.264,-1.389,1.150,250.130,-12.420,-100.450,21.0,94.0
392465,-1.759,2.000,-0.039,250.130,-89.802,-43.260,0.0,67.0
392513,-0.147,1.580,0.373,-119.008,36.183,150.130,58.0,69.0
392561,1.342,-0.431,0.478,-250.137,54.649,67.603,43.0,91.0
392651,-1.096,1.861,0.921,250.130,-36.924,-50.191,53.0,70.0
392699,-0.709,1.456,0.562,-24.374,47.069,128.779,52.0,71.0
392750,0.799,0.047,0.548,-222.542,70.260,38.046,42.0,127.0
392803,1.139,-0.521,0.858,-66.481,62.687,-142.008,44.0,125.0
392852,-1.644,1.742,0.596,123.427,35.237,-67.168,45.0,99.0
392902,0.094,0.841,0.845,-37.229,23.107,70.565,58.0,124.0
392951,1.325,0.021,0.959,-2.687,12.275,-6.618,42.0,98.0
392998,-0.709,0.792,1.215,74.405,-32.137,-66.664,45.0,84.0
393048,-1.160,0.952,0.744,88.489,-50.901,69.008,57.0,97.0
393095,0.958,0.107,0.529,-23.084,6.145,43.198,42.0,72.0
393142,1.313,0.135,0.410,44.786,-3.901,-103.168,43.0,70.0
393190,-1.021,1.808,0.600,69.374,-10.252,-73.481,57.0,69.0
393240,-0.703,1.005,0.764,-82.198,17.336,97.626,45.0,69.0
393297,0.388,-0.064,0.707,-180.015,-17.443,19.519,0.0,97.0
393355,0.924,-0.491,0.824,85.344,-28.160,-144.176,0.0,93.0
393403,-1.623,1.667,0.129,250.130,-14.435,-78.695,59.0,63.0
393458,-0.593,1.430,0.387,-43.046,48.626,-7.855,0.0,64.0
393507,0.136,0.615,0.589,-250.137,83.603,-80.664,51.0,91.0
393570,0.670,-0.441,1.044,-185.817,33.023,-217.427,0.0,86.0
393618,-0.548,-0.560,0.891,250.130,-42.015,-210.710,59.0,82.0
393676,-0.526,2.000,-0.859,250.130,-7.099,-35.656,0.0,81.0
393733,-0.585,1.396,-0.516,-250.137,180.420,-39.679,0.0,86.0
393788,-0.746,-1.645,1.001,-250.137,81.969,-40.626,0.0,73.0
393832,-0.485,-1.225,1.089,250.130,-40.985,-77.947,17.0,57.0
393884,-0.740,0.080,-0.138,250.130,-42.221,-69.603,135.0,80.0
393936,-0.524,2.000,-0.466,-208.137,119.511,-67.420,137.0,89.0
393980,-1.091,-0.223,0.074,-250.137,140.374,-21.137,16.0,57.0
394024,-1.160,-2.000,1.478,-120.076,-10.122,-31.099,13.0,55.0
394071,-1.028,-0.143,0.714,250.130,-86.053,19.313,16.0,54.0
394116,-0.758,0.907,0.486,-11.954,-101.840,36.817,17.0,76.0
394160,-0.686,-0.159,0.906,-111.344,-108.756,18.260,17.0,63.0
394205,-0.691,0.038,0.927,20.076,-126.481,36.023,16.0,69.0
394260,-0.569,0.295,0.789,-29.214,-139.672,54.710,0.0,76.0
394305,-0.406,0.021,0.893,-40.885,-139.412,55.832,18.0,78.0
394360,-0.126,0.052,0.856,-15.458,-122.573,60.511,0.0,78.0
394417,0.026,-0.031,0.861,-45.351,-92.153,49.504,0.0,81.0
394473,0.093,-0.146,0.892,-30.374,-56.611,39.664,0.0,81.0
394531,0.094,-0.127,0.911,-18.412,-29.847,18.267,0.0,88.0
394588,-0.004,0.027,0.942,3.099,-19.588,5.626,0.0,87.0
394644,0.011,-0.048,1.010,-19.550,-30.076,0.954,0.0,82.0
394699,0.097,-0.051,0.986,3.405,-34.702,-1.336,0.0,82.0
394756,0.164,-0.106,0.972,-1.099,-31.992,-5.305,0.0,86.0
394812,0.171,-0.090,0.971,6.740,-26.107,-6.679,0.0,83.0
394867,0.189,-0.063,0.971,1.504,-23.863,-7.779,0.0,82.0
394924,0.183,-0.024,0.970,7.634,-20.099,-6.908,0.0,82.0
394980,0.227,-0.036,0.934,11.756,-11.473,-3.916,0.0,82.0
395038,0.214,-0.265,1.061,54.015,3.282,-16.992,0.0,81.0
395095,-0.185,-1.302,1.083,250.130,-19.878,-1.328,0.0,89.0
395141,-0.043,-0.032,-0.869,250.130,-147.321,59.908,38.0,67.0
395195,1.240,1.203,-0.671,250.130,-78.527,22.824,0.0,60.0
395295,0.219,0.321,-0.914,-250.137,197.840,-250.137,0.0,84.0
395351,-0.698,-2.000,2.000,-42.450,44.626,-195.397,0.0,84.0
395406,-0.373,-0.932,-0.882,250.130,-39.962,-27.267,0.0,50.0
395459,-0.253,2.000,-1.612,-140.664,34.336,-163.420,0.0,46.0
395518,-0.285,-0.221,-0.651,-250.137,153.237,-228.947,0.0,85.0
395576,-0.993,-2.000,1.854,250.130,-1.725,-50.878,0.0,98.0
395638,-0.227,2.000,-1.631,250.130,10.450,81.893,192.0,0.0
395696,-0.503,0.658,-0.479,-250.137,107.298,-109.092,0.0,98.0
395757,-0.889,-1.581,1.425,250.130,-54.214,-25.374,177.0,0.0
395814,-0.227,2.000,-0.785,148.771,17.580,13.015,97.0,0.0
395869,-0.762,0.338,0.066,-250.137,62.282,-66.427,179.0,77.0
395925,-0.931,-1.262,1.029,250.130,-80.664,3.275,178.0,97.0
395973,-0.517,0.533,-0.762,250.130,-90.786,69.588,97.0,57.0
396034,-0.249,2.000,-1.001,-250.137,79.000,-59.748,98.0,0.0
396089,-1.104,-1.066,0.096,-250.137,31.962,-51.931,180.0,94.0
396146,-0.584,-0.721,0.326,250.130,-91.450,52.145,99.0,0.0
396195,-0.218,2.000,-0.871,175.763,-44.015,9.496,100.0,57.0
396253,-0.424,0.914,-0.469,-250.137,66.420,-79.107,98.0,0.0
396314,-0.734,-0.052,0.090,-250.137,121.405,-50.634,179.0,0.0
396378,-0.943,-0.069,0.322,-27.847,68.366,-26.908,0.0,0.0
396435,-0.700,0.223,0.406,192.672,52.733,-26.344,109.0,0.0
396494,-1.064,0.989,0.083,72.382,57.863,-47.908,101.0,181.0
396546,-0.989,0.724,0.183,-250.137,57.557,-52.771,17.0,181.0
396603,-1.179,0.035,0.334,-250.137,39.473,-25.924,0.0,98.0
396650,-1.147,-0.518,0.758,-16.160,-30.130,16.847,17.0,96.0
396712,-0.905,-0.324,0.573,250.130,-71.786,43.847,0.0,0.0
396763,-0.844,0.411,-0.138,250.130,-87.672,47.489,102.0,75.0
396812,-0.686,1.434,-0.470,153.450,-72.305,18.214,85.0,68.0
396868,-0.768,1.231,-0.571,-250.137,23.626,-50.191,102.0,178.0
396918,-1.064,-0.824,0.518,-250.137,-43.672,-60.733,25.0,95.0
396975,-0.746,-0.963,0.524,250.130,-89.244,16.305,103.0,179.0
397024,-0.455,1.835,-1.029,250.130,9.137,75.886,85.0,79.0
397074,-0.879,1.290,-0.470,-250.137,34.817,-23.763,86.0,80.0
397130,-0.887,-1.123,0.997,-172.015,-36.466,-44.565,102.0,181.0
397179,-0.698,0.112,0.013,250.130,-36.336,59.252,86.0,78.0
397230,-0.817,2.000,-0.782,-240.260,34.450,26.130,101.0,78.0
397287,-0.885,-0.332,0.186,-250.137,21.969,-24.023,102.0,0.0
397345,-0.610,-0.878,0.732,250.130,-67.557,45.137,100.0,0.0
397406,-0.441,2.000,-0.841,81.511,2.702,30.198,100.0,0.0
397463,-0.823,0.239,-0.301,-250.137,71.046,-33.137,101.0,0.0
397524,-0.688,-1.128,0.994,193.802,-27.336,14.939,180.0,0.0
397582,-0.651,1.158,-0.323,250.130,-34.298,33.107,98.0,0.0
397640,-0.606,1.219,-0.096,-174.588,28.992,-40.824,99.0,0.0
397703,-0.717,0.312,0.095,-250.137,77.840,-43.595,0.0,0.0
397760,-0.845,0.129,0.297,-146.893,84.420,-17.504,0.0,98.0
397813,-0.766,-0.130,0.541,140.870,45.229,-26.099,20.0,0.0
397873,-0.900,0.874,0.017,215.611,54.198,-26.527,102.0,180.0
397924,-1.058,1.043,0.004,-250.137,71.214,-56.031,18.0,179.0
397971,-1.091,-0.259,0.366,-250.137,51.969,-33.046,16.0,96.0
398020,-1.034,-0.345,0.551,-42.985,22.153,16.718,60.0,96.0