Timestamp(ms),AccelX(g),AccelY(g),AccelZ(g),GyroX(deg/s),GyroY(deg/s),GyroZ(deg/s),DistanceLeft(cm),DistanceRight(cm)
334318,0.288,0.145,0.348,250.130,-27.771,69.794,46.0,62.0
334371,0.356,2.000,-0.868,250.130,-50.695,63.489,0.0,17.0
334418,0.554,1.459,-0.562,-250.137,22.397,-54.672,50.0,62.0
334469,0.234,-0.599,0.945,-250.137,47.611,-36.557,42.0,76.0
334517,0.038,-1.030,1.196,250.130,19.985,43.779,44.0,76.0
334572,0.312,0.923,-0.460,250.130,-21.130,83.679,0.0,60.0
334618,0.537,2.000,-0.424,-250.137,-20.214,-50.771,50.0,61.0
334666,0.157,-0.583,0.766,-250.137,28.290,-46.824,47.0,76.0
334713,0.183,-0.470,1.073,228.962,25.992,39.931,46.0,76.0
334760,0.215,1.408,-0.042,250.130,-12.099,44.748,49.0,61.0
334808,0.366,1.745,0.130,-169.115,-30.527,-38.115,49.0,62.0
334858,0.155,-0.170,0.994,-103.496,-5.710,-14.466,46.0,78.0
334905,0.283,0.267,0.615,250.130,1.718,47.260,48.0,62.0
334952,0.310,1.048,0.061,250.130,-18.084,30.595,50.0,59.0
335007,0.342,1.989,-0.400,56.550,-35.809,4.031,0.0,58.0
335053,0.390,1.143,-0.308,-250.137,11.137,-39.847,49.0,61.0
335101,0.132,-0.454,1.059,-219.321,23.916,4.237,47.0,70.0
335149,0.331,-0.097,0.722,250.130,4.580,71.481,45.0,68.0
335201,0.435,2.000,-0.317,124.168,-31.496,33.817,49.0,62.0
335247,0.429,1.162,0.024,-250.137,-8.542,-53.870,46.0,67.0
335296,0.259,0.483,0.539,-250.137,17.298,6.290,45.0,80.0
335351,0.224,-0.010,0.933,-137.626,29.565,7.847,0.0,83.0
335398,0.274,-0.002,0.921,204.832,3.244,18.221,37.0,81.0
335443,0.298,0.436,0.575,250.130,-20.611,3.573,44.0,69.0
335490,0.307,1.954,-0.015,125.397,-41.885,-18.076,46.0,65.0
335536,0.406,1.486,0.022,-250.137,-3.489,-54.992,39.0,68.0
335582,0.293,0.456,0.482,-250.137,51.733,-50.702,37.0,80.0
335637,0.037,-0.579,1.233,-207.725,76.481,-0.863,0.0,81.0
335693,0.338,-0.563,1.179,183.595,60.634,22.924,0.0,80.0
335742,0.456,-0.291,0.952,250.130,20.542,-73.405,43.0,71.0
335797,-0.534,0.830,-1.106,250.130,-73.863,-22.275,0.0,64.0
335852,-0.015,1.839,-1.650,-250.137,71.481,10.817,0.0,72.0
335908,0.229,-1.778,0.644,-250.137,121.954,32.061,0.0,88.0
335966,-0.287,-0.694,1.198,149.580,56.061,-56.481,0.0,113.0
336022,-1.070,-0.062,0.314,250.130,-113.511,-47.641,0.0,79.0
336069,-0.128,0.113,0.659,250.130,-125.420,-51.084,56.0,69.0
336123,-0.010,1.496,0.377,250.130,-13.809,-113.855,0.0,62.0
336183,0.481,1.392,-0.705,-250.137,119.290,-176.687,0.0,87.0
336238,0.340,-0.773,0.776,-250.137,188.580,-125.450,0.0,77.0
336294,-1.409,-1.524,1.538,250.130,39.481,-122.634,0.0,75.0
336351,-1.077,-0.356,-0.404,250.130,-102.992,42.687,0.0,95.0
336405,0.513,1.849,-1.043,250.130,-0.252,104.893,192.0,51.0
336461,-0.307,2.000,-1.140,-250.137,79.740,-216.244,0.0,89.0
336517,-1.803,-1.252,-0.883,-250.137,-13.359,-148.092,0.0,75.0
336561,0.612,-2.000,1.801,250.130,-61.229,24.466,16.0,59.0
336620,0.676,-0.353,0.054,250.130,35.863,-3.099,0.0,91.0
336672,-1.391,2.000,-1.069,16.137,88.664,-80.863,131.0,90.0
336729,-1.531,-0.011,-1.470,-250.137,115.817,-65.206,0.0,71.0
336773,0.095,-2.000,1.862,-34.359,5.015,16.366,16.0,60.0
336819,-0.421,-0.857,0.526,250.130,6.519,-31.870,39.0,69.0
336914,-0.443,1.918,-0.221,78.221,4.412,33.046,134.0,84.0
336960,-0.612,0.738,0.306,-250.137,129.336,80.985,22.0,84.0
337005,-0.485,-0.722,1.081,-204.305,47.863,-57.191,17.0,71.0
337051,-0.762,-1.187,1.159,250.130,-17.771,-87.893,18.0,85.0
337107,-0.976,0.622,-0.167,250.130,60.244,-6.496,155.0,83.0
337159,-1.274,1.638,-0.401,-250.137,89.397,29.565,116.0,80.0
337205,-0.964,-0.208,0.259,-250.137,14.725,-8.840,16.0,88.0
337250,-0.681,-1.676,1.455,9.679,-63.382,-68.916,16.0,87.0
337296,-0.645,-0.738,0.460,250.130,-63.145,-13.115,17.0,85.0
337356,-0.757,1.258,-0.652,250.130,-14.427,30.313,169.0,0.0
337412,-1.144,1.081,-0.816,-250.137,96.595,14.634,169.0,85.0
337457,-1.017,-2.000,1.194,-250.137,-40.885,-39.634,13.0,74.0
337505,-0.671,-1.397,0.720,250.130,-89.557,3.832,17.0,83.0
337566,-0.504,0.757,-0.780,250.130,-39.137,65.206,169.0,0.0
337620,-0.886,1.682,-0.887,-250.137,76.809,-52.702,169.0,80.0
337667,-0.938,-1.934,0.955,-250.137,5.313,-83.863,16.0,87.0
337712,-0.829,-1.085,0.695,250.130,-49.595,-4.328,18.0,80.0
337773,-0.627,1.445,-0.729,250.130,-30.931,40.931,171.0,0.0
337827,-0.897,1.057,-0.508,-250.137,69.206,-33.191,170.0,79.0
337873,-0.974,-1.507,1.020,-247.069,-3.550,-45.061,17.0,83.0
337922,-0.751,-0.718,0.708,250.130,-50.855,-14.267,19.0,78.0
337983,-0.698,1.704,-0.424,250.130,-21.832,15.458,171.0,0.0
338039,-0.848,0.808,-0.201,-250.137,49.771,-23.298,0.0,77.0
338084,-0.861,-1.232,1.062,-135.160,20.802,-4.832,16.0,81.0
338141,-0.718,-0.494,0.625,250.130,-22.870,21.023,0.0,79.0
338198,-0.736,1.588,-0.346,250.130,-22.939,15.260,93.0,0.0
338256,-0.856,0.900,-0.159,-250.137,49.305,-29.382,0.0,122.0
338301,-0.962,-1.079,0.983,-168.840,23.985,-10.695,17.0,79.0
338361,-0.820,-0.588,0.670,250.130,-27.527,30.107,0.0,123.0
338420,-0.756,1.938,-0.445,195.863,-8.260,27.924,93.0,0.0
338477,-0.802,0.589,-0.115,-250.137,38.687,-33.198,19.0,0.0
338523,-0.970,-1.504,1.203,23.496,-9.382,-26.656,18.0,79.0
338585,-0.790,-0.361,0.304,250.130,-31.336,24.168,0.0,0.0
338641,-0.799,2.000,-0.511,64.168,1.725,8.802,88.0,196.0
338700,-0.782,0.341,0.210,-250.137,17.992,-45.672,0.0,123.0
338753,-0.944,-1.133,1.073,192.985,-42.473,-17.076,93.0,121.0
338809,-0.795,0.722,-0.348,250.130,-43.878,47.443,86.0,195.0
338869,-0.736,1.616,-0.505,-250.137,25.282,-10.382,87.0,0.0
338925,-0.840,-0.724,0.603,-250.137,23.855,-31.229,0.0,77.0
338977,-0.775,-0.765,0.760,250.130,-50.031,17.954,95.0,119.0
339035,-0.564,2.000,-0.602,250.130,-13.725,40.252,86.0,0.0
339096,-0.795,0.829,-0.228,-250.137,48.137,-25.252,171.0,0.0
339142,-0.876,-1.296,1.171,33.107,-10.420,0.824,20.0,77.0
339198,-0.723,0.045,0.223,250.130,-25.908,31.580,92.0,0.0
339260,-0.728,1.664,-0.156,-84.092,14.282,-11.000,171.0,0.0
339316,-0.865,-0.397,0.643,-229.244,27.092,-23.573,0.0,77.0
339377,-0.799,-0.217,0.615,250.130,-17.214,17.130,94.0,0.0
339433,-0.823,0.942,-0.052,250.130,-11.427,10.863,87.0,0.0
339490,-0.788,0.988,0.039,-194.336,9.374,-27.427,87.0,0.0
339547,-0.918,-0.811,0.917,61.748,-19.779,-13.740,90.0,0.0
339647,-0.700,1.940,-0.449,-192.878,12.397,-12.893,88.0,194.0
339705,-0.767,0.067,0.140,-250.137,47.618,-44.046,0.0,119.0
339752,-0.879,-0.978,0.977,10.565,6.519,-16.931,23.0,89.0
339809,-0.756,-0.141,0.416,250.130,-9.977,11.229,94.0,0.0
339868,-0.824,1.959,-0.471,102.237,10.382,4.183,88.0,192.0
339928,-0.864,0.468,-0.006,-250.137,35.198,-28.260,0.0,119.0
339984,-0.869,-0.935,1.007,-59.695,-1.260,-13.504,0.0,89.0
340041,-0.823,-0.134,0.351,250.130,-20.305,22.092,93.0,0.0
340098,-0.829,1.446,-0.245,196.939,-16.412,13.038,88.0,191.0
340154,-0.856,0.533,0.188,-191.687,-8.473,-8.855,88.0,193.0
340211,-0.827,-0.168,0.617,7.069,-9.939,-2.221,89.0,0.0
340268,-0.800,0.453,0.168,193.954,-4.809,20.687,87.0,191.0
340324,-0.832,1.232,-0.186,-215.656,23.237,-1.053,88.0,194.0
340380,-0.853,-0.296,0.559,-250.137,5.802,-15.702,96.0,119.0
340438,-0.813,-0.502,0.796,226.588,-21.053,8.718,94.0,0.0
340494,-0.823,1.139,-0.289,250.130,-17.847,36.641,87.0,193.0
340551,-0.823,1.156,-0.253,-250.137,26.618,-11.069,87.0,0.0
340610,-0.892,-0.568,0.631,-250.137,15.519,-13.824,0.0,120.0
340667,-0.781,-0.454,0.697,250.130,-22.267,13.092,93.0,0.0
340723,-0.750,1.673,-0.384,231.137,-4.504,32.672,87.0,194.0
340782,-0.830,0.775,-0.104,-250.137,29.191,-25.374,95.0,0.0
340838,-0.888,-1.097,1.083,6.847,-10.183,-5.229,102.0,119.0
340895,-0.840,0.315,0.074,250.130,-26.878,17.542,90.0,0.0
340952,-0.803,1.511,-0.212,-249.908,9.893,-19.924,88.0,0.0
341009,-0.842,-0.449,0.583,-250.137,17.221,-25.046,0.0,88.0
341067,-0.808,-0.581,0.792,224.427,-21.542,1.282,0.0,118.0
341125,-0.844,1.061,-0.256,250.130,-23.679,21.992,88.0,0.0
341182,-0.835,1.155,-0.200,-250.137,22.863,-11.229,174.0,117.0
341229,-0.877,-0.945,0.969,-184.939,1.511,-5.267,20.0,86.0
341280,-0.736,-0.502,0.749,250.130,-25.191,28.870,94.0,98.0
341341,-0.781,1.398,-0.238,250.130,-25.374,34.374,89.0,0.0
341396,-0.820,0.805,0.079,-250.137,14.855,-7.237,173.0,97.0
341452,-0.836,-0.604,0.890,-102.206,-1.832,8.046,0.0,76.0
341510,-0.709,-0.024,0.545,250.130,-21.756,29.321,171.0,120.0
341567,-0.714,0.651,0.161,250.130,-14.580,13.122,86.0,0.0
341624,-0.776,1.410,-0.156,-53.893,-9.947,-10.153,85.0,0.0
341681,-0.774,0.287,0.274,-250.137,18.863,-25.565,89.0,0.0
341738,-0.783,-0.261,0.724,-21.580,13.664,-7.740,171.0,119.0
341799,-0.760,0.380,0.318,191.435,1.557,-0.939,91.0,0.0
341857,-0.755,1.322,-0.010,-242.595,27.718,-28.763,173.0,120.0
341904,-0.897,-0.491,0.746,-250.137,27.214,-25.634,23.0,87.0
341950,-0.830,-0.684,0.958,193.496,-10.176,8.733,23.0,87.0
342008,-0.778,0.442,0.099,250.130,-15.313,31.015,94.0,0.0
342066,-0.839,1.426,-0.156,-250.137,17.282,-11.710,172.0,120.0
342122,-0.900,-0.774,0.765,-250.137,9.557,-11.443,0.0,77.0
342185,-0.753,-0.374,0.617,250.130,-28.763,39.656,0.0,122.0
342245,-0.628,1.771,-0.192,104.466,-20.947,28.023,95.0,0.0
342295,-0.792,0.469,0.127,-250.137,32.397,-17.107,92.0,78.0
342340,-0.834,-0.674,0.860,-118.427,11.244,-5.313,16.0,87.0
342395,-0.751,-0.367,0.743,221.153,-8.557,9.824,0.0,78.0
342502,-0.741,1.791,-0.194,-62.695,-4.008,-8.817,0.0,0.0
342557,-0.773,-0.099,0.432,-250.137,30.527,-30.672,19.0,0.0
342603,-0.796,-0.676,0.995,88.267,-4.817,-3.695,19.0,88.0
342666,-0.714,-0.113,0.459,250.130,-13.008,14.137,0.0,0.0
342721,-0.648,2.000,-0.502,141.183,53.565,-0.718,84.0,0.0
342770,-0.935,0.467,-0.677,-250.137,94.756,-55.084,23.0,78.0
342814,-0.938,-1.244,0.675,-250.137,20.382,-57.420,16.0,73.0
342859,-0.840,-1.465,1.161,250.130,-48.580,-16.412,17.0,73.0
342907,-0.671,-0.074,-0.253,250.130,-27.863,36.389,23.0,126.0
342963,-0.899,2.000,-0.712,-26.206,20.092,10.901,79.0,0.0
343019,-0.872,-0.055,0.069,-250.137,21.382,-32.901,22.0,0.0
343064,-0.976,-1.378,1.135,129.435,-28.527,6.206,17.0,72.0
343112,-0.675,0.435,-0.076,250.130,3.634,76.137,23.0,133.0
343171,-0.981,1.881,-0.641,-250.137,29.191,24.603,0.0,74.0
343216,-1.063,-1.908,0.968,-250.137,-20.435,-20.359,9.0,76.0
343261,-0.716,-0.924,0.699,250.130,-50.382,54.916,9.0,76.0
343310,-0.560,1.572,-0.367,250.130,-30.496,48.473,90.0,85.0
343359,-0.734,1.009,-0.041,-250.137,27.832,-36.336,83.0,77.0
343403,-1.015,-1.141,0.894,-165.855,18.809,-35.695,9.0,77.0
343448,-0.867,-0.405,0.614,250.130,-15.977,2.985,16.0,77.0
343494,-0.764,0.859,-0.001,246.992,-18.076,6.412,17.0,79.0
343539,-0.786,0.947,0.116,-93.191,14.641,-28.031,17.0,86.0
343587,-0.845,0.006,0.515,-139.237,22.084,-35.756,17.0,76.0
343632,-0.887,-0.117,0.645,26.832,4.962,-25.557,17.0,75.0
343677,-0.832,-0.050,0.605,203.015,-15.099,-24.198,20.0,77.0
343733,-0.883,0.135,0.293,250.130,-25.397,-17.779,61.0,0.0
343787,-0.898,1.066,-0.253,212.031,-11.672,-7.420,57.0,0.0
343841,-0.805,1.287,-0.382,-250.137,16.931,-37.794,59.0,0.0
343898,-0.913,-0.550,0.543,-250.137,16.229,-34.145,21.0,0.0
343949,-0.843,-0.606,0.647,250.130,-24.366,37.275,51.0,147.0
344007,-0.672,1.678,-0.482,250.130,-10.321,52.069,58.0,0.0
344056,-0.918,0.931,-0.367,-250.137,32.611,-12.366,50.0,106.0
344104,-1.021,-1.218,0.877,-216.214,5.237,-8.168,73.0,74.0
344159,-0.826,-0.114,0.347,250.130,-28.916,56.466,65.0,0.0
344209,-0.741,1.557,-0.117,-135.168,0.328,18.603,58.0,110.0
344256,-0.917,-0.168,0.452,-250.137,21.099,1.603,57.0,75.0
344301,-0.777,-0.725,0.894,102.565,-16.252,15.229,17.0,75.0
344347,-0.738,-0.068,0.372,250.130,-27.992,17.053,24.0,78.0
344401,-0.829,1.615,-0.454,216.977,-8.489,5.420,49.0,0.0
344450,-0.987,0.621,-0.609,-250.137,57.992,-44.794,19.0,75.0
344495,-0.987,-1.620,0.897,-250.137,17.405,-41.275,16.0,75.0
344540,-0.843,-1.234,0.808,250.130,-41.244,13.947,16.0,75.0
344592,-0.911,0.518,-0.575,250.130,-42.191,42.160,19.0,0.0
344648,-0.839,1.963,-0.569,-250.137,22.099,-15.336,22.0,0.0
344694,-0.931,-1.081,0.646,-250.137,18.954,-25.695,17.0,74.0
344739,-0.811,-1.175,0.956,250.130,-45.282,9.420,16.0,74.0
344792,-0.753,0.488,-0.221,250.130,-40.313,39.977,21.0,0.0
344841,-0.886,1.862,-0.570,-250.137,24.649,-7.977,22.0,85.0
344886,-0.865,-0.604,0.209,-250.137,29.099,-27.496,14.0,74.0
344931,-0.769,-1.832,1.359,160.137,-37.038,2.023,11.0,73.0
345028,-0.619,2.000,-0.793,250.130,-31.611,36.992,51.0,0.0
345076,-0.738,0.836,-0.235,-250.137,35.313,-39.267,58.0,77.0
345121,-0.822,-0.924,0.891,-250.137,37.160,-26.191,16.0,73.0
345166,-0.777,-0.698,0.864,250.130,-1.992,13.611,18.0,73.0
345222,-0.831,0.635,-0.057,250.130,-17.855,16.466,61.0,0.0
345278,-0.765,1.461,-0.173,-250.137,20.008,-27.817,0.0,74.0
345326,-0.880,-1.023,0.960,-233.824,19.733,-33.534,17.0,73.0
345371,-0.792,-0.809,0.869,250.130,-9.008,19.885,18.0,73.0
345425,-0.791,0.586,-0.173,250.130,-5.130,36.840,53.0,0.0
345474,-0.765,1.556,-0.264,-250.137,28.244,-28.847,66.0,75.0
345520,-0.840,-0.618,0.533,-250.137,31.046,-52.603,19.0,72.0
345565,-0.880,-1.174,1.107,174.023,-16.557,1.725,20.0,73.0
345613,-0.724,0.046,0.113,250.130,-20.092,36.206,66.0,76.0
345668,-0.757,2.000,-0.329,-13.802,9.588,6.748,64.0,0.0
345717,-0.887,-0.010,0.270,-250.137,21.725,-38.519,23.0,72.0
345762,-0.946,-0.788,0.865,-33.656,-12.328,-8.626,20.0,72.0
345811,-0.740,-0.295,0.531,250.130,-19.733,27.901,88.0,73.0
345861,-0.633,1.526,-0.167,182.427,11.305,32.771,68.0,84.0
345910,-0.760,0.930,0.069,-250.137,27.679,-30.748,89.0,75.0
345959,-0.864,-0.704,0.925,-193.870,14.924,-39.015,85.0,73.0
346008,-0.910,-0.510,0.731,250.130,-11.237,18.107,87.0,74.0
346063,-0.865,1.360,-0.209,250.130,-25.053,41.756,58.0,0.0
346116,-0.777,0.791,0.095,-250.137,7.000,-11.603,72.0,75.0
346161,-0.806,-0.440,0.729,-184.023,-0.038,-18.992,19.0,73.0
346210,-0.803,-0.229,0.711,98.626,-14.931,12.015,87.0,73.0
346256,-0.801,0.430,0.299,178.061,-14.931,31.542,19.0,74.0
346311,-0.734,0.812,0.282,7.908,-5.885,18.244,0.0,75.0
346357,-0.750,0.252,0.520,-75.313,4.992,-3.450,19.0,75.0
346402,-0.757,0.116,0.600,4.099,7.603,-5.099,21.0,75.0
346447,-0.842,0.471,0.416,14.443,0.779,-5.687,18.0,74.0
346493,-0.870,0.391,0.457,-34.931,-0.954,0.931,17.0,74.0
346542,-0.820,0.290,0.538,-49.122,-2.855,7.023,22.0,74.0
346587,-0.754,0.149,0.632,8.061,-6.115,8.145,16.0,75.0
346633,-0.795,0.072,0.625,123.878,-6.053,13.519,18.0,75.0
346683,-0.787,0.177,0.426,225.420,-9.855,23.664,94.0,86.0
346738,-0.781,1.282,-0.164,117.275,-12.702,22.191,70.0,0.0
346784,-0.739,0.907,-0.182,-250.137,17.679,-36.061,23.0,75.0
346830,-0.871,-1.014,0.871,-250.137,20.389,-20.885,17.0,74.0
346875,-0.761,-0.584,0.819,205.641,-12.275,30.374,13.0,74.0
346921,-0.719,0.814,0.089,250.130,-25.489,21.107,17.0,76.0
346970,-0.709,0.957,0.240,-82.443,-2.687,-20.649,16.0,77.0
347016,-0.817,0.090,0.515,-138.748,19.656,-22.870,16.0,75.0
347061,-0.857,-0.111,0.641,7.992,13.198,-3.519,17.0,75.0
347107,-0.812,0.227,0.503,95.397,3.038,1.008,16.0,77.0
347154,-0.790,0.423,0.449,54.527,3.542,-2.359,16.0,101.0
347206,-0.840,0.214,0.529,49.511,-1.382,-9.687,17.0,0.0
347259,-0.827,0.200,0.509,128.878,-4.229,-5.588,19.0,0.0
347313,-0.849,0.669,0.194,112.802,-8.878,-4.412,20.0,0.0
347365,-0.794,0.959,0.112,-178.817,-4.084,-22.511,20.0,0.0
347416,-0.822,-0.126,0.582,-170.931,16.282,-17.389,17.0,101.0
347508,-0.751,0.135,0.488,227.374,-10.656,13.641,19.0,127.0
347567,-0.795,0.520,0.295,220.015,-13.275,3.000,106.0,0.0
347623,-0.839,0.921,0.070,65.916,-6.939,-10.000,83.0,198.0
347679,-0.841,0.693,0.154,-202.870,8.374,-18.412,86.0,0.0
347732,-0.859,-0.292,0.766,-44.160,-6.344,-5.359,22.0,0.0
347790,-0.737,0.186,0.473,245.206,-28.733,12.855,88.0,0.0
347847,-0.727,1.771,-0.233,-42.901,1.672,-0.939,87.0,0.0
347904,-0.814,0.184,0.306,-250.137,18.466,-25.267,94.0,121.0
347952,-0.874,-0.463,0.837,-33.137,-10.084,5.618,23.0,120.0
348005,-0.855,0.275,0.503,176.229,-30.206,33.740,94.0,121.0
348062,-0.837,0.923,0.395,17.107,-27.550,40.450,95.0,0.0
348120,-0.830,0.438,0.671,-112.237,-39.496,34.237,0.0,98.0
348175,-0.921,0.272,0.818,-71.771,-85.740,45.786,169.0,80.0
348228,-0.863,0.137,0.895,81.664,-141.771,73.473,136.0,81.0
348281,-0.443,0.059,0.722,250.130,-158.832,120.382,136.0,82.0
348336,0.090,-0.036,0.015,250.130,-79.336,176.443,195.0,51.0
348394,-0.091,2.000,-1.496,189.130,34.336,131.611,195.0,51.0
348449,-0.298,1.011,-0.588,-250.137,61.466,17.115,0.0,57.0
348505,-0.550,-1.372,1.477,-51.542,-128.229,65.748,0.0,62.0
348561,0.571,0.152,-0.458,250.130,-153.344,186.740,0.0,61.0
348616,0.659,2.000,-1.080,-157.336,107.527,4.588,0.0,63.0
348673,-0.281,-0.210,-0.014,-250.137,117.305,1.198,0.0,69.0
348734,0.422,-0.432,0.632,250.130,-158.328,116.481,0.0,69.0
348789,0.875,2.000,-1.334,250.130,-110.252,143.718,0.0,72.0
348848,0.777,1.032,-0.580,-250.137,162.740,-62.298,0.0,74.0
348904,-0.419,0.472,0.078,-250.137,83.779,8.031,0.0,101.0
348961,0.220,-0.414,0.740,165.656,-187.687,86.107,0.0,108.0
349018,1.439,1.894,-0.508,124.092,-4.298,62.634,0.0,89.0
349075,0.398,0.955,0.109,-250.137,160.565,-65.382,0.0,101.0
349124,-0.144,-0.347,0.981,-58.015,-105.076,35.481,58.0,105.0
349180,0.658,0.215,0.011,250.130,-178.893,84.954,0.0,100.0
349238,1.305,1.655,-0.576,-82.160,156.344,-29.794,0.0,100.0
349289,0.038,0.541,0.057,-250.137,169.519,-47.397,57.0,104.0
349338,-0.057,-0.518,1.215,26.687,-99.733,32.084,58.0,108.0
349386,0.816,0.481,-0.019,250.130,-124.511,74.344,47.0,99.0
349434,1.003,1.350,-0.358,55.008,60.069,11.603,50.0,99.0
349481,0.803,0.609,-0.060,-129.985,169.893,-62.840,46.0,87.0
349530,0.509,0.395,0.361,-62.176,245.886,-69.580,44.0,92.0
349577,0.060,0.729,0.357,-96.069,219.481,-25.145,39.0,96.0
349624,0.006,0.889,0.810,-158.282,148.947,11.206,38.0,99.0
349671,0.153,0.218,1.277,-105.878,21.908,13.908,36.0,85.0
349721,0.218,0.125,1.355,222.336,-34.298,53.817,38.0,96.0
349767,0.381,1.282,0.446,250.130,10.420,149.275,37.0,90.0
349814,0.724,1.391,0.323,82.031,105.954,161.313,36.0,84.0
349869,0.736,0.463,0.632,-177.924,131.977,101.237,0.0,57.0
349914,0.579,-0.100,1.035,-205.145,91.031,-27.130,33.0,56.0
349959,-1.062,1.112,0.422,250.130,31.321,-5.985,33.0,57.0
350013,0.455,1.235,0.422,87.580,71.725,218.473,0.0,56.0
350067,0.454,-0.079,0.681,-144.649,97.198,125.702,0.0,56.0
350112,0.293,0.091,1.178,57.947,48.641,-67.832,27.0,56.0
350203,0.413,0.720,0.781,-17.870,23.748,73.130,36.0,57.0
350248,0.505,-0.081,1.172,-83.786,34.382,-46.023,36.0,56.0
350294,-0.916,0.698,0.740,180.443,8.298,-113.214,27.0,56.0
350339,0.134,1.448,0.484,-17.656,3.939,89.405,37.0,57.0
350383,0.723,-0.080,0.580,-132.817,17.580,40.809,30.0,58.0
350428,0.918,-0.456,0.890,-63.748,30.137,-78.191,30.0,58.0
350473,-0.252,0.587,0.727,148.275,11.397,-95.473,29.0,56.0
350518,0.124,1.399,0.531,15.015,-4.305,80.511,37.0,57.0
350565,0.303,0.386,0.644,-67.183,-14.008,61.603,28.0,57.0
350610,0.475,-0.073,0.945,-38.641,-5.053,-24.840,30.0,57.0
350655,0.019,0.375,0.927,70.061,9.405,-71.664,28.0,56.0
350699,-0.039,1.027,0.778,23.000,-2.962,-11.366,28.0,56.0
350744,0.091,0.745,0.763,-18.786,-13.313,5.626,28.0,56.0
350789,0.112,0.480,0.876,-27.267,-19.595,-20.702,30.0,57.0
350843,0.093,0.394,0.907,-24.473,-28.511,-51.878,0.0,56.0
350888,0.066,0.481,0.847,-20.489,-48.053,-97.191,36.0,56.0
350934,0.033,0.543,0.754,-36.313,-81.840,-132.886,31.0,56.0
350982,0.117,0.272,0.743,-18.046,-107.710,-163.427,33.0,57.0
351028,0.103,0.262,0.705,80.267,-112.466,-198.153,36.0,83.0
351075,0.064,0.521,0.491,143.756,-101.702,-209.053,44.0,71.0
351122,-0.077,0.971,0.273,122.031,-83.786,-211.779,58.0,64.0
351176,0.018,1.032,0.180,5.710,-62.725,-223.298,0.0,61.0
351233,0.041,1.222,0.284,-207.099,47.710,-246.756,0.0,81.0
351289,-0.487,0.301,0.752,-250.137,133.679,-189.405,0.0,88.0
351342,-1.106,-0.969,1.264,250.130,-12.916,-167.832,132.0,87.0
351393,-0.810,1.194,-1.406,250.130,-75.656,-10.962,85.0,51.0
351441,-0.502,2.000,-1.257,-250.137,131.237,-141.160,86.0,58.0
351488,-0.979,-0.341,-0.676,-250.137,186.290,-90.092,23.0,79.0
351532,-0.693,-2.000,1.823,-22.481,-12.802,-99.321,16.0,53.0
351578,-0.716,-0.919,0.538,250.130,-47.550,-21.145,25.0,86.0
351634,-0.551,2.000,-1.011,250.130,41.924,34.603,88.0,0.0
351689,-1.076,0.994,-0.547,-250.137,96.931,-16.412,172.0,89.0
351735,-1.073,-2.000,1.476,-133.328,-41.656,-26.992,13.0,88.0
351785,-0.631,-0.734,0.380,250.130,-54.802,44.328,17.0,99.0
351842,-0.417,2.000,-0.737,250.130,47.687,54.527,95.0,0.0
351898,-0.986,0.522,-0.199,-250.137,73.565,-29.702,0.0,80.0
351944,-0.846,-1.838,1.477,162.794,-53.107,-40.168,14.0,82.0
352008,-0.588,0.379,-0.082,250.130,-25.565,45.962,0.0,0.0
352064,-0.898,1.377,-0.356,-250.137,50.031,-25.672,0.0,90.0
352110,-1.042,-1.632,1.076,-148.802,-13.145,-27.740,14.0,82.0
352166,-0.775,-0.525,0.529,250.130,-57.046,15.282,0.0,93.0
352224,-0.542,1.372,-0.091,202.618,-22.626,7.817,91.0,0.0
352290,-0.813,0.354,0.415,-44.664,15.092,-34.763,0.0,0.0
352353,-0.721,0.762,0.268,-26.481,18.198,-5.130,0.0,0.0
352410,-0.918,0.417,0.286,-250.137,60.336,-1.221,0.0,92.0
352457,-0.914,-1.171,1.151,196.145,-42.947,0.977,17.0,101.0
352513,-0.752,0.086,-0.073,250.130,-51.359,45.389,88.0,194.0
352570,-0.663,2.000,-0.557,-250.137,35.214,-17.901,88.0,195.0
352626,-0.921,-0.541,0.332,-250.137,42.359,-35.122,0.0,91.0
352690,-0.774,-0.973,0.870,250.130,-55.084,10.580,0.0,0.0
352793,-0.825,0.785,-0.296,-250.137,57.458,-36.099,95.0,0.0
352849,-0.989,-1.548,1.298,21.099,-33.725,-25.435,16.0,0.0
352907,-0.751,-0.079,-0.061,250.130,-60.641,50.260,89.0,0.0
352963,-0.415,2.000,-0.402,7.786,8.107,15.573,86.0,196.0
353020,-0.791,0.421,-0.109,-250.137,76.473,-22.176,94.0,0.0
353078,-0.971,-0.961,1.112,-119.092,-3.901,-14.901,0.0,89.0
353140,-0.858,-0.298,0.635,250.130,-65.656,10.550,0.0,0.0
353198,-0.756,2.000,-0.221,163.504,-67.183,36.969,87.0,0.0
353250,-0.730,0.788,0.159,-250.137,-12.305,-10.527,121.0,97.0
353307,-0.918,-0.554,0.969,-223.023,-50.878,-7.359,138.0,84.0
353360,-0.874,-0.602,0.838,250.130,-178.176,1.008,139.0,95.0
353415,-0.430,0.102,-0.576,250.130,-159.740,106.809,181.0,50.0
353468,0.105,2.000,-1.090,-250.137,88.481,10.496,177.0,51.0
353521,-0.689,-0.130,-0.442,-250.137,106.015,-43.519,141.0,80.0
353574,-0.658,-2.000,1.733,200.053,-113.969,-81.809,140.0,79.0
353630,-0.211,0.548,-0.255,250.130,-80.466,78.771,193.0,64.0
353685,-0.330,2.000,-0.446,-250.137,53.740,8.382,191.0,78.0
353741,-0.504,-0.706,0.888,-250.137,-13.634,-58.305,142.0,76.0
353805,-0.478,-0.740,0.997,250.130,-88.046,6.748,0.0,0.0
353859,0.049,2.000,-0.903,21.832,159.611,16.237,188.0,59.0
353912,-0.771,0.471,-0.120,-250.137,72.618,-54.397,141.0,74.0
353966,-0.549,-2.000,2.000,248.748,-115.588,-63.359,140.0,75.0
354020,0.369,1.137,-0.167,250.130,53.985,97.886,189.0,61.0
354076,-0.472,1.909,-0.278,-250.137,59.756,-35.130,0.0,76.0
354129,-0.567,-1.668,1.586,-118.443,-67.893,-99.908,141.0,74.0
354189,0.382,0.537,0.509,250.130,61.763,61.313,0.0,78.0
354245,-0.732,2.000,-0.187,-250.137,89.450,-40.542,0.0,75.0
354298,-0.332,-1.199,1.440,-127.244,-55.969,-105.382,140.0,74.0
354352,-0.449,0.038,0.571,250.130,40.756,20.237,143.0,77.0
354409,-0.626,1.149,0.210,124.817,38.427,20.779,0.0,94.0
354465,-0.478,0.417,0.638,24.336,-38.588,-11.443,0.0,81.0
354522,-0.393,0.728,0.211,131.733,35.794,16.115,177.0,95.0
354576,-0.495,1.143,-0.120,-250.137,101.939,-10.405,143.0,95.0
354629,-0.686,0.111,0.379,-250.137,112.695,-8.107,136.0,81.0
354685,-0.708,-0.338,0.894,-89.344,79.389,22.733,133.0,83.0
354739,-0.613,-0.187,0.867,206.122,58.924,-5.519,133.0,86.0
354800,-0.746,0.359,0.467,250.130,58.595,-36.061,169.0,0.0
354857,-0.676,2.000,-0.083,-125.145,93.573,-89.092,88.0,0.0
354904,-1.379,0.113,-0.216,-250.137,129.237,-42.008,16.0,80.0
354950,-1.123,-1.945,1.403,-173.450,-4.550,-19.473,16.0,80.0
354999,-0.867,-0.857,0.645,250.130,-43.779,29.206,60.0,91.0
355056,-0.737,1.257,-0.578,250.130,-39.298,44.519,98.0,0.0
355118,-0.914,1.126,-0.497,-250.137,74.802,-21.832,0.0,93.0
355165,-0.997,-1.300,0.774,-250.137,37.931,-16.000,16.0,93.0
355211,-0.778,-0.848,0.831,250.130,-13.275,9.023,16.0,95.0
355274,-0.908,0.212,-0.164,250.130,-13.565,16.878,0.0,0.0
355328,-0.896,1.481,-0.292,-227.641,16.924,-24.908,17.0,0.0
355386,-1.000,-0.595,0.589,-250.137,20.763,-31.366,0.0,95.0
355443,-0.926,-0.399,0.575,241.931,-22.191,18.130,0.0,98.0
355495,-0.821,1.276,-0.109,50.718,-11.695,7.267,17.0,106.0
355596,-0.897,-0.266,0.581,30.947,-14.145,-6.282,0.0,101.0
355645,-0.736,1.208,-0.087,-35.885,25.328,3.916,16.0,101.0
355701,-0.946,0.381,0.080,-250.137,39.748,-8.282,0.0,93.0
355747,-0.960,-0.928,0.881,69.252,-32.748,-14.061,16.0,86.0
355793,-0.836,-0.355,0.286,250.130,-50.893,5.008,16.0,99.0
355849,-0.816,0.686,-0.312,250.130,-16.412,11.229,91.0,189.0
355905,-0.858,1.423,-0.388,-250.137,5.313,-31.649,93.0,191.0
355962,-1.038,-1.085,0.781,-174.969,-6.710,-32.969,0.0,99.0
356018,-0.837,-0.066,0.017,250.130,-38.618,47.725,91.0,190.0
356077,-0.802,2.000,-0.632,-250.137,7.603,-2.092,90.0,193.0
356123,-0.893,-0.339,0.157,-250.137,34.183,-38.664,17.0,93.0
356168,-0.913,-1.278,0.972,74.267,-8.000,4.290,18.0,91.0
356214,-0.779,0.310,-0.011,250.130,-17.672,40.176,18.0,98.0
356261,-0.796,1.827,-0.251,-168.023,12.107,1.496,18.0,99.0
356306,-0.904,-0.160,0.340,-250.137,34.450,-21.267,17.0,83.0
356352,-0.983,-1.112,1.115,-1.008,-10.053,-11.740,19.0,80.0
356400,-0.967,-0.255,0.676,250.130,-49.191,23.809,58.0,82.0
356459,-1.073,0.806,0.317,250.130,-90.786,42.282,94.0,0.0
356521,-1.040,1.204,0.288,-63.916,-108.969,69.099,0.0,0.0
356576,-0.986,0.477,0.660,-116.702,-114.420,121.695,169.0,84.0
356629,-0.598,0.527,0.563,25.137,-91.115,195.046,132.0,92.0
356684,-0.002,0.677,0.422,26.000,-24.649,200.183,0.0,79.0
356740,-1.136,1.830,0.437,64.603,-0.069,177.481,0.0,63.0
356796,-0.213,0.920,0.553,-76.214,-28.580,250.130,0.0,91.0
356843,0.372,0.007,0.489,-92.802,2.198,250.130,38.0,84.0
356889,0.796,-0.311,1.055,-21.786,36.878,154.435,36.0,86.0
356939,-0.163,0.973,0.154,97.847,56.733,128.351,33.0,88.0
356983,0.311,0.307,0.581,-68.557,61.992,154.298,28.0,57.0
357028,0.747,0.012,1.101,-55.878,53.786,27.290,29.0,57.0
357072,-1.059,1.522,-0.038,227.809,18.298,61.420,29.0,58.0
357117,0.333,0.722,0.653,-8.344,11.977,202.702,28.0,58.0
357163,0.658,-0.596,0.917,-120.534,10.534,114.153,25.0,67.0
357208,0.540,0.102,1.176,28.191,16.351,-124.962,25.0,65.0
357253,-0.144,1.200,0.617,48.832,-20.389,21.282,26.0,63.0
357297,0.622,0.457,0.678,-6.588,15.718,75.664,24.0,64.0
357345,0.696,0.614,1.122,7.031,21.076,-59.412,24.0,64.0
357390,-0.023,0.719,0.558,59.023,-6.733,-5.298,26.0,64.0
357435,0.463,0.323,0.753,26.840,-4.588,45.611,23.0,65.0
357479,0.612,0.262,0.971,50.847,-12.931,-37.855,25.0,58.0
357524,0.084,1.469,0.177,108.748,-13.664,-43.557,30.0,57.0
357569,0.572,0.615,0.720,-117.237,5.702,36.466,29.0,57.0
357613,0.629,0.017,1.039,-94.725,12.885,-18.168,25.0,57.0
357657,0.006,0.472,0.759,120.237,-2.626,-60.992,25.0,57.0
357702,0.294,0.789,0.687,1.962,-10.534,-0.878,27.0,57.0
357744,0.332,0.505,0.733,-55.168,-13.321,-25.092,27.0,57.0
357789,0.276,0.243,0.758,-82.672,-27.305,-86.107,29.0,56.0
357834,0.272,0.169,0.741,-72.878,-22.550,-159.695,30.0,55.0
357880,0.111,0.189,0.733,-60.763,-6.473,-213.176,35.0,85.0
357937,-0.061,0.160,0.755,-13.130,4.099,-247.290,0.0,80.0
357994,-0.375,0.246,0.705,167.198,-3.832,-244.733,0.0,107.0
358092,-1.147,1.462,-1.400,250.130,-109.695,-117.527,0.0,50.0
358147,0.048,2.000,-0.697,-250.137,-43.954,-174.198,0.0,50.0
358203,-0.390,0.425,-0.150,-250.137,148.061,-223.656,128.0,102.0
358259,-1.062,-0.477,0.722,-250.137,124.305,-149.046,0.0,83.0
358305,-0.914,-0.809,1.160,250.130,25.786,-88.466,16.0,83.0
358369,-1.134,-0.019,-0.183,250.130,-11.672,-34.634,0.0,0.0
358425,-0.614,2.000,-0.493,-228.313,41.328,-57.580,90.0,0.0
358481,-0.918,-0.168,0.185,-250.137,86.198,-56.450,19.0,0.0
358528,-0.890,-1.715,1.372,218.542,-33.924,-19.847,17.0,89.0
358585,-0.809,-0.393,-0.080,250.130,-51.389,34.733,95.0,0.0
358644,-0.690,2.000,-0.866,-87.954,26.901,7.053,90.0,189.0
358691,-0.910,-0.141,-0.167,-250.137,56.130,-23.603,23.0,94.0
358737,-1.006,-1.843,1.286,2.305,-52.824,-3.901,19.0,88.0
358794,-0.687,-0.551,0.118,250.130,-61.893,51.832,94.0,0.0
358850,-0.726,2.000,-0.796,-38.252,38.672,23.038,89.0,193.0
358896,-0.902,-0.158,-0.105,-250.137,44.122,-38.580,19.0,82.0
358942,-0.860,-1.980,1.438,88.695,-47.145,-21.924,16.0,79.0
358999,-0.734,-0.406,-0.049,250.130,-51.504,36.924,93.0,0.0
359056,-0.732,2.000,-0.716,-186.069,34.626,-9.443,89.0,0.0
359105,-0.910,-0.544,0.089,-250.137,51.221,-40.740,17.0,80.0
359151,-0.848,-1.940,1.308,161.794,-40.282,-24.969,16.0,90.0
359208,-0.654,-0.348,-0.026,250.130,-38.382,37.664,95.0,0.0
359265,-0.779,2.000,-0.598,-131.466,26.969,-8.267,90.0,0.0
359321,-0.780,-0.423,0.373,-250.137,49.061,-60.397,0.0,80.0
359368,-0.913,-1.251,1.083,250.130,-27.809,-21.344,17.0,90.0
359425,-0.844,0.858,-0.306,250.130,-30.855,38.099,91.0,0.0
359476,-0.958,1.355,-0.362,-250.137,31.450,-0.473,93.0,98.0
359544,-0.991,-1.480,0.962,-181.137,-19.198,-8.435,0.0,89.0
359602,-0.671,-0.461,0.298,250.130,-49.458,35.046,93.0,0.0
359665,-0.751,2.000,-0.446,-78.718,31.924,11.176,0.0,0.0
359721,-0.834,-0.605,0.482,-250.137,39.748,-42.611,16.0,0.0
359768,-0.874,-1.036,0.900,250.130,-36.771,-8.840,17.0,89.0
359825,-0.647,1.231,-0.352,250.130,-5.855,38.412,93.0,0.0
359881,-0.873,1.089,-0.197,-250.137,50.084,-22.519,0.0,80.0
359927,-0.960,-1.557,1.230,-56.458,-20.481,-33.244,16.0,85.0
359980,-0.766,-0.415,0.426,250.130,-34.366,11.504,93.0,121.0
360040,-0.906,2.000,-0.341,-56.573,20.038,11.397,91.0,0.0
360097,-0.846,-0.141,0.420,-250.137,35.748,-13.740,0.0,89.0
360143,-1.154,-0.759,0.984,-59.947,-16.702,14.107,16.0,80.0
360189,-0.964,-0.316,0.857,143.160,-55.397,13.412,20.0,79.0
360235,-1.011,0.727,0.344,-33.092,-9.908,34.885,16.0,79.0
360280,-0.834,0.320,0.377,-250.137,-13.221,-15.489,18.0,51.0
360324,-0.643,-0.799,0.934,-184.237,-78.908,-109.809,19.0,50.0
360371,-1.069,-1.234,1.076,250.130,-172.672,-154.580,28.0,78.0
360427,-1.269,-0.428,-0.647,250.130,-248.237,-21.137,147.0,91.0
360484,0.169,2.000,-0.999,-122.092,14.656,64.924,200.0,77.0
360537,-0.499,-0.287,0.071,-250.137,14.305,-48.443,145.0,72.0
360589,-0.640,-2.000,1.554,245.504,-131.305,-53.794,126.0,72.0
360646,0.543,1.051,-0.170,250.130,11.122,103.832,0.0,79.0
360698,-0.307,1.819,-0.165,-250.137,60.420,13.336,149.0,73.0
360799,-0.419,-0.875,0.566,250.130,-56.153,33.885,0.0,75.0
360853,0.142,2.000,-1.253,228.679,111.664,67.817,189.0,59.0
360910,-0.378,0.633,-0.281,-250.137,135.580,-53.290,144.0,80.0
360963,-0.614,-1.135,1.186,-250.137,52.076,-49.046,136.0,78.0
361016,-0.448,-0.799,0.891,250.130,8.244,27.649,136.0,83.0
361071,-0.321,1.188,-0.390,250.130,48.000,27.366,195.0,57.0
361128,-0.323,1.964,-0.270,-250.137,123.710,-91.870,198.0,96.0
361186,-0.830,-0.392,0.459,-250.137,171.214,-61.534,0.0,85.0
361233,-0.879,-1.403,1.526,165.389,20.427,-25.687,17.0,92.0
361296,-0.845,-0.436,0.328,250.130,-23.496,-6.969,0.0,0.0
361356,-0.573,2.000,-0.626,-250.137,83.511,-23.794,81.0,0.0
361402,-0.930,-0.479,-0.095,-250.137,104.977,-32.466,16.0,72.0
361447,-0.767,-2.000,1.730,-41.817,-4.336,-28.115,12.0,71.0
361492,-0.657,-0.975,0.545,250.130,-49.412,-6.557,16.0,71.0
361548,-0.851,0.228,-0.637,250.130,-69.420,4.748,72.0,0.0
361605,-0.599,2.000,-0.840,-250.137,27.901,-73.183,69.0,0.0
361651,-1.006,-0.311,-0.240,-250.137,86.038,-40.122,23.0,70.0
361697,-1.076,-1.677,1.094,-147.740,12.443,6.550,16.0,71.0
361744,-0.809,-0.863,0.655,250.130,-36.405,46.893,60.0,72.0
361803,-0.753,1.203,-0.380,250.130,-36.397,61.794,63.0,0.0
361852,-0.805,1.277,-0.258,-250.137,62.519,-17.053,61.0,84.0
361899,-0.987,-0.754,0.476,-250.137,60.458,-21.137,16.0,74.0
361945,-0.889,-1.561,1.208,161.405,-20.015,-12.191,18.0,74.0
361993,-0.837,-0.427,0.139,250.130,-48.771,10.481,67.0,76.0
362054,-0.625,2.000,-0.749,53.092,15.298,5.496,59.0,0.0
362109,-1.063,0.209,-0.500,-250.137,72.107,-43.939,18.0,0.0
362152,-1.077,-2.000,1.583,76.191,-66.359,-33.588,13.0,46.0
362203,-0.885,-1.240,-0.036,250.130,-131.130,13.527,59.0,74.0
362257,-0.657,0.622,-1.379,250.130,-107.840,83.015,52.0,0.0
362311,-0.771,2.000,-1.687,-250.137,95.580,-109.237,51.0,0.0
362366,-1.292,-2.000,1.017,-250.137,57.053,-142.718,18.0,0.0
362416,-1.107,-0.747,-0.165,250.130,-94.244,37.939,50.0,107.0
362470,-0.686,1.867,-0.451,250.130,-66.756,80.298,47.0,0.0
362523,-0.675,0.425,0.395,-120.160,-45.473,14.908,47.0,0.0
362577,-0.435,0.898,0.299,-25.099,21.672,7.290,45.0,0.0
362626,-0.767,0.659,0.004,-250.137,52.649,-25.626,51.0,101.0
362676,-0.870,-2.000,1.514,78.122,-62.779,-29.435,57.0,65.0
362729,-0.621,0.023,-0.014,250.130,-70.947,45.863,46.0,0.0
362783,-0.578,2.000,-0.439,-250.137,53.229,5.031,46.0,0.0
362829,-0.833,-1.221,0.776,-250.137,16.931,-49.626,53.0,64.0
362875,-0.717,-1.177,1.031,250.130,-74.344,13.328,38.0,67.0
362929,-0.186,1.721,-0.323,250.130,-8.901,64.641,46.0,0.0
362978,-0.716,1.275,-0.264,-250.137,103.931,-11.824,50.0,102.0
363023,-0.945,-1.171,0.739,-250.137,61.527,-11.252,27.0,66.0
363071,-0.734,-1.233,1.110,250.130,-69.992,-1.183,30.0,66.0
363119,-0.572,0.333,-0.339,250.130,-77.656,31.641,45.0,105.0
363173,-0.286,2.000,-0.546,-103.115,77.336,-17.191,45.0,0.0
363230,-1.029,0.103,-0.436,-250.137,145.466,-17.908,25.0,0.0
363275,-0.860,-1.908,1.408,-6.840,15.870,22.008,17.0,70.0
363319,-0.715,-0.511,0.483,250.130,-17.237,33.504,17.0,71.0
363417,-0.689,1.464,0.165,-11.641,32.237,-22.282,55.0,0.0
363473,-1.026,0.460,0.048,-250.137,94.031,-29.260,22.0,0.0
363521,-1.046,-0.877,0.829,-244.733,17.092,-29.847,16.0,73.0
363567,-0.863,-1.247,1.083,250.130,-75.794,-53.809,21.0,73.0
363620,-0.760,-0.442,-0.093,250.130,-76.496,2.366,51.0,0.0
363674,-0.481,2.000,-1.055,18.366,43.710,-10.489,48.0,0.0
363721,-1.013,0.028,-1.086,-250.137,112.779,-44.481,57.0,71.0
363766,-0.973,-2.000,1.901,-86.107,-33.115,-62.718,17.0,71.0
363812,-0.790,-1.075,-0.033,250.130,-69.450,22.931,24.0,71.0
363867,-0.589,2.000,-1.050,204.649,19.573,55.557,50.0,0.0
363914,-0.902,0.226,-0.060,-250.137,62.160,-26.115,57.0,71.0
363962,-0.833,-1.823,1.385,161.519,-43.099,7.466,17.0,72.0
364016,-0.432,-0.151,0.219,250.130,-10.252,56.702,55.0,0.0
364062,-1.067,1.248,-0.282,80.053,64.344,38.733,48.0,57.0
364116,-0.965,0.760,0.167,-235.771,-11.573,-38.817,53.0,0.0
364171,-0.908,-1.394,1.107,225.847,-81.534,-45.336,57.0,0.0
364225,-0.457,1.963,-0.693,250.130,45.931,14.160,50.0,0.0
364279,-0.849,0.871,-0.926,-250.137,47.305,-50.214,50.0,0.0
364327,-1.094,-2.000,1.534,-137.817,-33.244,-79.473,57.0,71.0
364385,-0.699,-0.367,-0.244,250.130,-37.237,70.198,56.0,0.0
364434,-0.716,2.000,-0.718,-250.137,34.634,3.321,54.0,107.0
364479,-0.754,-1.221,0.652,-250.137,29.695,-57.374,18.0,70.0
364527,-0.740,-1.346,0.980,250.130,-62.863,3.557,68.0,71.0
364581,-0.397,1.870,-0.484,250.130,13.542,44.122,52.0,0.0
364628,-0.991,0.645,0.041,-250.137,42.626,-18.305,55.0,72.0
364677,-1.009,-1.656,1.254,23.672,-60.954,-41.573,63.0,71.0
364726,-0.777,-0.359,0.346,250.130,-67.000,12.962,50.0,109.0
364780,-0.738,0.817,-0.153,250.130,7.977,17.863,49.0,0.0
364837,-0.684,1.600,-0.470,-250.137,21.153,-62.153,50.0,0.0
364886,-0.811,-0.452,0.170,-250.137,3.023,-81.099,73.0,68.0
364931,-0.937,-1.617,1.239,81.718,-22.435,-26.412,22.0,67.0
364980,-0.677,-0.048,0.194,250.130,-20.939,46.855,52.0,102.0
365028,-0.661,2.000,-0.333,-116.267,10.733,15.702,52.0,103.0
365074,-0.784,-0.183,0.252,-250.137,50.885,-25.573,21.0,68.0
365119,-0.804,-1.831,1.424,34.916,1.267,10.786,18.0,68.0
365164,-0.661,-0.481,0.480,250.130,-28.382,33.634,29.0,70.0
365221,-0.826,1.324,-0.384,250.130,-38.031,45.649,51.0,0.0
365277,-0.677,1.099,-0.065,-250.137,47.687,-19.763,52.0,0.0
365333,-0.963,-0.686,0.635,-250.137,55.534,14.954,19.0,0.0
365378,-0.886,-0.999,1.012,233.443,-37.931,15.229,19.0,70.0
365432,-0.767,-0.370,0.260,250.130,-68.725,29.336,51.0,0.0
365487,-0.646,0.602,-0.610,250.130,-33.824,67.176,50.0,0.0
365542,-0.633,2.000,-0.893,-250.137,87.924,-60.687,50.0,0.0
365589,-0.980,-0.542,-0.096,-250.137,79.374,-54.802,58.0,70.0
365634,-0.981,-2.000,1.530,92.244,-48.298,-24.855,19.0,70.0
365686,-0.631,-0.511,0.067,250.130,-51.115,55.191,58.0,87.0
365741,-0.559,2.000,-0.702,158.740,18.603,41.542,51.0,0.0
365790,-0.773,0.571,-0.177,-250.137,59.985,-46.901,57.0,107.0
365836,-0.928,-0.927,0.846,-247.260,12.832,-37.237,22.0,71.0
365884,-0.818,-0.715,0.874,227.511,-24.191,3.275,63.0,72.0