Timestamp(ms),AccelX(g),AccelY(g),AccelZ(g),GyroX(deg/s),GyroY(deg/s),GyroZ(deg/s),DistanceLeft(cm),DistanceRight(cm)
176825,0.839,-0.472,0.413,-250.137,165.389,40.458,42.0,77.0
176880,0.261,-0.661,1.107,-185.198,114.519,-139.229,0.0,76.0
176928,-0.606,2.000,-0.339,250.130,53.679,250.130,51.0,78.0
176974,0.590,0.356,0.334,-146.779,106.466,246.580,36.0,85.0
177021,2.000,-1.404,0.973,-178.840,105.221,-37.275,35.0,96.0
177072,-2.000,2.000,-0.840,250.130,114.626,-70.038,37.0,85.0
177119,0.373,0.823,0.325,-79.221,118.351,250.130,32.0,95.0
177166,2.000,-1.505,0.757,-44.168,98.130,172.252,28.0,100.0
177228,-2.000,1.549,0.405,250.130,74.099,-87.511,0.0,0.0
177286,0.628,0.398,1.219,-58.137,84.344,161.244,0.0,108.0
177348,-0.687,1.461,0.589,50.527,43.107,-81.382,0.0,0.0
177404,0.742,-0.803,0.573,-67.099,-31.565,71.519,25.0,0.0
177467,0.151,1.619,0.263,250.130,14.443,-102.489,0.0,0.0
177530,0.289,0.215,0.978,-165.565,18.664,89.221,0.0,0.0
177596,0.589,1.031,1.603,61.191,28.817,-105.672,0.0,0.0
177655,0.092,0.834,0.857,-55.443,-53.763,121.107,0.0,156.0
177715,1.682,-1.292,0.743,-62.565,-8.962,25.641,0.0,137.0
177764,-2.000,2.000,-0.235,194.359,-1.084,-158.588,26.0,132.0
177817,0.593,0.515,0.673,-38.916,-27.260,135.176,24.0,0.0
177873,1.370,-0.385,0.869,-40.504,42.878,12.931,25.0,0.0
177932,-1.305,2.000,-0.515,9.656,-29.763,-16.038,0.0,134.0
177989,0.633,-0.395,0.595,-55.489,-42.084,92.008,0.0,106.0
178040,0.176,1.050,1.008,193.687,-1.099,-250.137,43.0,102.0
178091,0.063,2.000,0.340,-199.244,40.962,140.733,36.0,133.0
178151,0.849,-1.111,0.656,-193.565,67.427,117.710,0.0,156.0
178198,-0.322,-0.085,1.789,111.519,34.298,-244.145,23.0,105.0
178260,0.208,2.000,0.777,7.038,-51.588,122.412,0.0,0.0
178317,0.787,-0.898,0.824,-141.901,7.038,29.244,22.0,0.0
178374,-1.056,0.965,0.374,116.901,-2.015,-86.847,0.0,103.0
178421,0.039,0.751,0.767,63.779,-48.275,-3.076,26.0,104.0
178470,-0.279,0.443,0.980,87.580,-126.939,-64.977,29.0,129.0
178537,-0.408,0.352,0.359,250.130,-250.137,-1.977,0.0,0.0
178589,0.748,1.379,-0.484,146.160,-250.137,42.947,0.0,23.0
178646,1.213,1.528,-0.789,-250.137,-77.229,-171.908,0.0,74.0
178693,0.840,0.016,-0.245,-250.137,122.511,-250.137,44.0,75.0
178741,0.073,0.509,0.204,-250.137,180.359,-250.137,43.0,103.0
178796,0.018,-0.377,0.834,-250.137,123.427,-213.878,0.0,72.0
178851,-0.531,-1.516,1.570,250.130,51.336,-230.145,0.0,66.0
178907,-1.133,-0.222,-1.039,250.130,-47.763,-88.183,0.0,57.0
178962,-0.206,2.000,-1.150,-27.985,-66.046,-94.267,160.0,61.0
179014,-0.357,0.602,-1.438,-250.137,117.122,-232.908,137.0,72.0
179059,-1.005,-1.310,0.586,-250.137,70.061,-89.427,22.0,60.0
179104,-0.809,-2.000,1.791,136.290,-1.153,-18.992,19.0,60.0
179155,-0.565,-0.602,0.547,250.130,-26.053,13.252,138.0,61.0
179209,-0.422,0.569,-0.015,250.130,-2.893,6.229,144.0,89.0
179262,-0.332,2.000,-0.467,-241.321,39.130,-87.420,146.0,74.0
179313,-0.738,-0.006,-0.469,-250.137,96.405,-140.122,138.0,57.0
179361,-0.996,-2.000,1.700,56.214,-48.573,-118.603,23.0,57.0
179414,-0.817,-0.751,0.162,250.130,-45.504,29.771,144.0,69.0
179467,-0.781,2.000,-0.876,77.053,26.763,80.328,146.0,71.0
179555,-0.763,-1.296,1.039,-250.137,15.321,-13.191,29.0,56.0
179600,-0.689,-1.360,1.168,250.130,-71.550,9.137,28.0,57.0
179653,-0.674,-0.169,-0.187,250.130,-64.939,48.443,143.0,78.0
179706,-0.580,2.000,-0.717,-161.504,69.153,22.344,145.0,92.0
179762,-1.017,0.000,-0.302,-250.137,83.489,-15.038,0.0,58.0
179807,-0.958,-2.000,1.624,-61.214,-59.160,-24.489,22.0,58.0
179861,-1.002,-1.231,0.619,250.130,-141.763,17.076,136.0,57.0
179917,-0.677,0.352,-0.543,250.130,-158.786,70.427,0.0,76.0
179974,-0.210,2.000,-0.664,-250.137,55.008,-39.313,0.0,75.0
180025,-0.771,-0.224,-0.143,-250.137,78.168,-58.595,134.0,54.0
180070,-0.775,-2.000,1.638,184.092,-96.336,-79.840,30.0,54.0
180121,-0.396,0.119,0.105,250.130,-71.611,57.527,137.0,54.0
180175,-0.327,2.000,-0.273,-142.664,66.824,51.305,0.0,55.0
180227,-0.623,-0.267,0.792,-250.137,6.191,-36.321,133.0,55.0
180281,-0.608,-1.031,1.689,250.130,-110.046,1.061,132.0,55.0
180336,-0.482,0.456,0.609,250.130,-124.939,104.008,0.0,57.0
180391,-0.168,1.205,0.371,250.130,-120.084,159.160,0.0,66.0
180447,-0.153,2.000,-0.086,-146.321,-106.687,165.351,0.0,71.0
180502,0.178,0.436,0.432,-250.137,-116.344,120.168,0.0,57.0
180557,0.402,-0.674,1.273,-149.298,-116.779,82.542,0.0,58.0
180613,0.466,-0.719,1.023,250.130,-106.450,146.130,0.0,60.0
180662,1.017,1.862,-0.927,250.130,-15.771,220.901,47.0,110.0
180713,0.796,1.207,-0.370,-250.137,45.718,67.107,51.0,66.0
180759,0.305,-0.788,0.574,-250.137,21.405,14.214,39.0,64.0
180805,0.138,-1.587,1.451,118.565,-73.275,51.763,36.0,67.0
180851,0.580,-0.318,0.175,250.130,-121.779,107.534,36.0,68.0
180899,1.314,1.742,-0.441,75.511,-33.656,89.397,37.0,107.0
180946,0.842,0.518,-0.058,-250.137,92.176,-14.153,36.0,71.0
180993,-0.113,-0.933,0.729,-250.137,-3.702,-15.206,36.0,74.0
181040,-0.139,-1.539,1.197,180.588,-216.137,-37.313,32.0,74.0
181086,0.643,-0.889,-0.356,250.130,-250.137,29.107,33.0,74.0
181135,2.000,1.626,-0.634,108.092,69.916,74.527,35.0,61.0
181182,1.028,0.436,-0.059,-250.137,250.130,-32.809,33.0,78.0
181228,-0.309,-0.350,0.132,-250.137,111.031,-21.511,30.0,79.0
181284,0.347,-1.845,1.340,-40.183,-132.672,-99.580,195.0,79.0
181331,0.807,-1.047,-0.249,250.130,-169.229,12.168,30.0,79.0
181387,1.859,1.754,-1.103,229.702,47.725,75.771,0.0,56.0
181432,1.007,0.403,-0.100,-250.137,217.878,-72.870,30.0,57.0
181479,0.078,-0.729,0.227,-250.137,100.580,-47.954,30.0,82.0
181529,0.358,-2.000,1.802,245.069,-81.611,-56.817,30.0,82.0
181574,0.792,-1.718,-0.551,250.130,-105.908,75.214,32.0,57.0
181629,1.646,0.360,-2.000,250.130,-10.183,190.420,0.0,46.0
181684,1.709,1.858,-1.350,-250.137,143.137,-213.137,0.0,50.0
181731,0.198,-2.000,-0.072,-250.137,133.229,-148.847,30.0,82.0
181778,0.344,-2.000,1.773,250.130,-25.031,40.084,29.0,82.0
181823,0.982,0.856,-0.610,250.130,-78.099,119.168,32.0,51.0
181868,1.229,1.866,-0.250,-250.137,17.893,-5.626,33.0,51.0
181918,0.472,-0.830,0.578,-250.137,79.275,-29.710,28.0,82.0
181971,0.462,-0.569,0.800,14.534,60.779,71.908,28.0,84.0
182017,0.575,0.003,0.443,72.344,96.809,82.702,26.0,85.0
182110,0.103,-0.333,0.328,-250.137,187.412,87.313,59.0,116.0
182161,-0.008,-1.219,0.461,-250.137,188.847,128.565,44.0,154.0
182212,0.243,-2.000,1.063,48.809,110.443,24.641,41.0,157.0
182259,0.197,-1.453,1.013,250.130,-29.542,-198.015,44.0,87.0
182304,-0.413,-1.017,0.727,250.130,-178.763,-188.832,32.0,77.0
182350,1.101,0.171,-0.083,250.130,-109.015,7.855,36.0,66.0
182397,1.143,2.000,-0.768,47.817,23.282,54.588,40.0,59.0
182444,0.888,1.153,-0.646,-250.137,72.382,-114.275,36.0,72.0
182490,0.412,-2.000,0.807,-250.137,-45.489,-166.191,36.0,74.0
182536,0.360,-2.000,1.484,250.130,-101.122,21.321,35.0,73.0
182581,1.317,0.680,-1.111,250.130,-27.496,172.153,39.0,71.0
182627,1.002,2.000,0.075,-250.137,66.809,-12.641,36.0,72.0
182673,0.192,-0.732,0.787,-250.137,37.435,-78.214,36.0,73.0
182718,0.289,-0.748,1.190,90.450,-15.053,32.412,36.0,73.0
182767,0.554,0.611,0.570,4.634,-19.435,44.351,34.0,73.0
182813,0.408,-0.263,0.942,-113.855,-50.733,1.275,37.0,74.0
182858,0.499,-0.597,0.961,73.901,-92.115,-9.893,36.0,73.0
182904,0.924,0.248,0.415,62.000,-28.733,-10.427,37.0,72.0
182950,0.696,0.451,0.199,-106.206,93.290,-20.275,38.0,71.0
182995,0.155,0.276,0.237,-219.481,158.817,-4.160,38.0,72.0
183042,-0.091,-0.338,0.726,-109.718,135.328,26.863,35.0,73.0
183088,-0.063,-0.469,0.790,70.832,76.359,50.611,34.0,74.0
183134,0.288,-0.424,0.779,249.183,45.702,13.565,40.0,73.0
183182,0.517,-0.182,0.615,250.130,100.626,-17.359,36.0,73.0
183228,0.390,0.200,0.513,250.130,107.824,-84.305,40.0,74.0
183276,0.428,0.374,0.629,232.420,136.916,-170.954,43.0,103.0
183324,0.251,1.240,0.476,32.244,207.267,-250.137,51.0,84.0
183378,-0.266,1.226,-0.312,-250.137,250.130,-250.137,0.0,70.0
183424,-1.922,-1.562,-0.120,-250.137,250.130,-171.168,18.0,72.0
183469,-1.471,-2.000,1.717,250.130,154.618,-119.550,18.0,69.0
183514,-1.806,-1.487,-0.980,250.130,37.863,-83.962,24.0,64.0
183567,-0.575,2.000,-2.000,250.130,101.137,88.977,56.0,131.0
183612,-1.282,1.124,-0.796,-250.137,112.115,33.939,26.0,65.0
183655,-1.039,-2.000,0.579,-250.137,2.618,-54.733,17.0,36.0
183698,-0.781,-2.000,1.474,250.130,-64.992,-26.550,17.0,39.0
183743,-0.744,0.753,-0.344,250.130,-15.611,60.397,24.0,66.0
183788,-1.132,2.000,-0.936,-250.137,57.351,37.733,25.0,66.0
183832,-0.850,-0.836,-0.117,-250.137,38.519,-1.344,16.0,66.0
183876,-0.620,-2.000,1.512,119.092,-49.473,-29.885,16.0,51.0
183923,-0.871,-0.747,-0.216,250.130,-70.771,-8.908,21.0,65.0
183969,-0.556,2.000,-0.833,193.107,18.947,35.389,24.0,82.0
184014,-1.094,0.825,-0.618,-250.137,88.160,5.198,22.0,65.0
184058,-0.946,-2.000,0.776,-250.137,22.275,-50.969,16.0,67.0
184102,-0.930,-1.635,0.947,250.130,-66.244,-46.260,17.0,50.0
184148,-0.704,0.399,-0.632,250.130,-48.298,19.817,25.0,80.0
184203,-0.783,2.000,-0.776,-221.107,75.008,8.710,170.0,80.0
184246,-1.024,-0.650,-0.124,-250.137,91.191,-63.779,17.0,47.0
184290,-1.108,-1.897,0.960,-125.023,30.466,-16.115,13.0,50.0
184336,-0.824,-1.323,0.457,250.130,-17.748,-8.947,16.0,47.0
184382,-1.007,-0.720,-0.042,250.130,-72.458,-35.168,23.0,79.0
184480,-0.739,0.226,-1.240,250.130,-177.023,36.382,78.0,186.0
184536,-0.517,2.000,-1.706,-250.137,32.267,-151.260,82.0,177.0
184587,-0.908,-1.211,-1.901,-250.137,95.763,-129.046,127.0,71.0
184642,-1.117,-2.000,2.000,102.794,-72.443,-55.053,0.0,57.0
184693,-0.831,-0.977,-0.871,250.130,-83.908,78.397,98.0,97.0
184741,-0.224,0.967,-1.540,250.130,-54.626,137.641,83.0,57.0
184799,-0.565,2.000,-0.747,-250.137,63.702,-91.145,84.0,178.0
184849,-1.408,-1.044,0.045,-250.137,-10.221,-67.679,81.0,93.0
184903,-0.658,-1.906,1.155,250.130,-105.336,77.305,81.0,173.0
184952,-0.254,2.000,-1.624,250.130,1.427,146.886,102.0,57.0
185008,-0.397,1.498,-0.646,-250.137,69.618,-92.718,82.0,180.0
185059,-1.294,-2.000,1.506,-131.931,-65.557,-65.221,97.0,92.0
185110,-0.176,0.416,0.104,250.130,-46.534,66.321,82.0,108.0
185164,-0.527,2.000,-0.249,-235.855,28.053,-61.679,83.0,175.0
185223,-0.948,-0.663,1.144,-166.008,0.573,-47.443,81.0,174.0
185277,-0.893,0.667,0.730,163.351,-64.374,61.290,81.0,175.0
185333,-0.649,0.877,0.655,86.473,-70.649,96.382,97.0,186.0
185394,-0.797,0.460,0.595,172.565,-76.611,161.718,159.0,0.0
185449,-0.031,0.521,-0.217,250.130,4.038,250.130,192.0,60.0
185504,0.159,2.000,-0.939,72.221,122.130,172.855,0.0,64.0
185561,-0.428,1.913,-1.677,-250.137,200.122,81.725,0.0,83.0
185615,-0.912,-0.801,-0.431,-250.137,65.122,121.878,0.0,57.0
185673,-0.185,-2.000,1.732,250.130,-101.229,230.977,0.0,59.0
185719,0.660,-0.336,0.145,250.130,-9.336,250.130,36.0,67.0
185767,0.751,1.898,-0.715,250.130,69.725,250.130,36.0,102.0
185817,0.051,2.000,-0.555,-250.137,112.374,103.527,33.0,125.0
185874,-0.594,-0.892,-0.250,-250.137,29.176,130.969,0.0,96.0
185931,0.117,-2.000,1.661,250.130,-99.023,250.130,0.0,110.0
185987,0.569,-0.292,0.091,250.130,4.908,248.855,0.0,62.0
186042,0.310,2.000,0.095,-26.443,18.038,105.023,0.0,61.0
186098,0.002,-0.293,0.464,-250.137,26.160,5.718,0.0,86.0
186147,0.036,-2.000,1.774,115.939,-38.107,-28.130,16.0,88.0
186193,-0.106,0.060,0.554,250.130,-89.153,61.534,17.0,74.0
186248,0.624,1.887,0.240,122.389,-17.115,132.084,0.0,62.0
186294,0.436,-0.643,0.662,-250.137,26.817,11.412,17.0,84.0
186339,0.599,-1.584,1.090,-169.863,42.947,-162.344,17.0,68.0
186385,-0.284,0.173,1.743,215.626,27.718,-111.634,17.0,72.0
186430,0.304,1.625,0.727,169.794,-29.740,169.557,25.0,59.0
186476,0.511,0.304,0.515,-83.840,13.405,164.427,18.0,83.0
186524,0.676,-1.457,0.841,-117.031,19.160,-27.672,17.0,85.0
186570,0.464,-1.000,1.243,13.908,34.634,-186.221,21.0,64.0
186615,-1.385,1.909,0.544,250.130,-53.931,48.786,24.0,61.0
186661,0.743,1.302,0.159,-18.557,-11.550,171.084,23.0,82.0
186706,0.600,-1.479,0.686,-250.137,26.779,44.061,23.0,63.0
186752,0.601,-1.513,1.026,-53.260,49.611,-188.160,25.0,61.0
186797,-0.881,0.549,1.189,202.588,30.870,-174.496,24.0,60.0
186842,0.223,1.213,0.870,43.206,-6.435,45.565,25.0,59.0
186887,0.396,0.100,0.569,-23.847,22.969,24.809,22.0,61.0
186935,0.328,-0.629,0.668,23.458,59.847,-89.618,26.0,59.0
186980,0.100,-0.544,0.638,104.015,118.550,-202.527,28.0,57.0
187071,-0.608,0.285,0.577,247.427,141.634,-250.137,45.0,83.0
187127,-1.024,0.234,0.944,250.130,31.901,-250.137,0.0,77.0
187184,-1.255,0.826,0.344,250.130,-151.779,-250.137,0.0,78.0
187241,-1.289,0.798,-0.188,250.130,-196.740,-210.397,0.0,97.0
187294,-0.675,2.000,-1.069,-250.137,196.038,-183.107,138.0,80.0
187350,-0.935,-0.721,-0.307,-250.137,135.061,-133.618,0.0,61.0
187398,-0.992,-2.000,1.948,250.130,-25.550,-81.641,21.0,43.0
187450,-1.009,-1.103,-0.559,250.130,-45.924,19.511,140.0,75.0
187502,-0.185,2.000,-1.868,240.748,40.069,87.695,114.0,87.0
187555,-0.599,0.542,-1.026,-250.137,146.832,-101.802,146.0,73.0
187599,-0.969,-2.000,1.658,-250.137,-27.053,-105.191,20.0,43.0
187644,-0.714,-1.528,0.778,250.130,-45.626,9.664,25.0,62.0
187698,-0.654,2.000,-0.887,250.130,-1.847,80.412,148.0,74.0
187744,-0.783,0.736,-0.427,-250.137,62.137,-44.046,29.0,62.0
187793,-1.139,-2.000,1.272,-250.137,-21.916,-27.679,22.0,75.0
187838,-0.820,-1.136,0.786,250.130,-63.069,31.573,24.0,61.0
187885,-0.613,0.033,0.001,250.130,-38.542,73.992,30.0,74.0
187938,-0.664,2.000,-0.298,-162.672,46.450,54.489,147.0,75.0
187983,-1.128,-0.552,-0.193,-250.137,41.244,-77.802,26.0,61.0
188029,-1.263,-2.000,1.722,-136.672,-126.130,-88.214,25.0,62.0
188075,-1.121,-1.194,0.912,250.130,-195.198,-23.656,30.0,58.0
188128,-0.936,0.028,0.427,250.130,-250.137,8.779,146.0,69.0
188183,-0.423,0.284,0.315,250.130,-250.137,42.939,0.0,68.0
188243,0.504,2.000,-0.663,250.130,-34.397,124.870,0.0,78.0
188299,-0.236,1.679,-0.610,-250.137,150.733,30.641,0.0,65.0
188360,-0.764,-0.602,0.237,-250.137,-73.389,26.023,0.0,57.0
188414,-0.171,-2.000,1.704,48.664,-250.137,-138.511,190.0,71.0
188470,-0.054,-0.823,-0.100,250.130,-250.137,26.603,0.0,68.0
188517,1.582,2.000,-1.052,250.130,-40.443,225.962,58.0,68.0
188562,0.862,1.230,-0.056,-250.137,195.771,116.313,42.0,60.0
188607,-0.346,-0.207,0.185,-250.137,114.542,133.840,37.0,64.0
188665,0.384,-2.000,1.289,-250.137,-198.542,-79.366,0.0,86.0
188711,0.570,-1.179,0.391,250.130,-246.756,-58.992,36.0,68.0
188758,1.721,1.533,-0.728,250.130,46.771,147.229,36.0,69.0
188803,0.733,0.767,0.356,-193.985,240.305,147.641,31.0,74.0
188850,-0.597,-0.745,0.306,-250.137,50.817,66.298,29.0,99.0
188898,0.490,-2.000,1.361,-67.832,-171.328,-102.053,65.0,88.0
188954,0.375,-0.871,0.222,250.130,-229.038,-129.527,0.0,85.0
189003,1.511,1.502,-0.792,127.908,-32.305,51.008,30.0,148.0
189065,0.559,-0.281,0.026,-182.023,250.130,118.817,27.0,150.0
189114,0.073,-0.744,0.569,-34.672,235.702,171.649,59.0,111.0
189164,0.114,-0.811,1.069,-122.580,76.313,35.244,51.0,126.0
189220,0.394,-1.687,1.208,18.130,-80.664,-159.107,0.0,95.0
189276,0.549,-0.841,0.537,250.130,-87.206,-150.847,0.0,81.0
189323,1.059,1.104,-0.144,93.664,166.305,30.718,30.0,91.0
189369,0.272,0.436,0.390,-250.137,250.130,37.702,31.0,89.0
189416,-0.285,-1.203,1.053,-250.137,117.183,-6.595,37.0,95.0
189464,0.155,-1.954,1.585,173.878,-48.908,-156.893,44.0,93.0
189513,0.144,-0.824,0.470,250.130,-131.718,-155.351,36.0,73.0
189559,1.245,1.833,-0.618,250.130,6.802,25.061,38.0,89.0
189649,-0.143,-0.866,0.776,-250.137,101.794,-29.672,37.0,74.0
189705,0.092,-1.895,1.811,204.511,-75.947,-51.550,0.0,73.0
189754,1.274,1.146,0.080,250.130,54.359,89.969,36.0,131.0
189800,0.458,1.440,0.288,-250.137,141.725,49.412,34.0,82.0
189850,-0.293,-0.758,0.807,-250.137,8.573,-41.756,46.0,138.0
189897,-0.061,-1.916,1.643,250.130,-163.832,-85.863,46.0,77.0
189947,0.927,1.128,0.022,250.130,-114.122,30.168,30.0,105.0
190005,0.784,1.367,0.052,-250.137,27.252,20.702,0.0,93.0
190060,0.323,-0.861,0.812,-250.137,36.802,3.031,0.0,80.0
190107,0.368,-0.875,1.168,-26.931,-28.015,29.282,45.0,87.0
190154,0.462,-0.224,0.845,-15.473,-50.351,5.305,45.0,83.0
190201,0.468,-0.420,0.837,-27.725,-56.015,-4.092,43.0,84.0
190248,0.476,-0.352,0.743,13.947,-41.725,14.511,44.0,86.0
190296,0.467,-0.336,0.727,-14.206,-21.023,32.740,45.0,86.0
190344,0.487,-0.478,0.770,7.595,-15.977,25.939,45.0,101.0
190394,0.497,-0.417,0.734,9.641,-19.435,4.863,44.0,89.0
190442,0.486,-0.431,0.730,18.252,-17.130,-3.061,46.0,90.0
190498,0.515,-0.369,0.705,7.511,-6.916,3.229,0.0,89.0
190555,0.542,-0.398,0.725,6.389,1.137,8.809,0.0,102.0
190603,0.533,-0.404,0.740,-8.008,0.756,3.908,44.0,91.0
190650,0.567,-0.435,0.750,0.679,-1.908,-1.168,44.0,91.0
190698,0.562,-0.392,0.736,3.122,-3.000,-5.023,44.0,102.0
190745,0.561,-0.382,0.740,5.328,-1.802,-3.573,44.0,90.0
190792,0.572,-0.342,0.727,-0.267,-0.672,-0.916,43.0,90.0
190843,0.580,-0.373,0.735,-2.313,0.733,-1.496,43.0,100.0
190892,0.591,-0.357,0.723,1.084,2.092,-1.725,46.0,100.0
190939,0.573,-0.381,0.744,-1.748,1.031,-2.336,46.0,90.0
190987,0.596,-0.365,0.750,2.702,0.099,-0.290,45.0,90.0
191035,0.568,-0.350,0.744,0.756,0.000,0.023,45.0,100.0
191091,0.572,-0.379,0.767,-0.237,-0.443,1.832,0.0,90.0
191139,0.571,-0.366,0.747,-0.656,-1.832,2.053,43.0,100.0
191196,0.570,-0.387,0.749,-0.145,-2.260,0.374,0.0,90.0
191252,0.574,-0.347,0.729,-0.878,-2.718,0.870,0.0,100.0
191315,0.566,-0.386,0.750,1.634,-1.878,-0.015,0.0,144.0
191372,0.584,-0.378,0.740,-2.191,-0.191,-0.176,0.0,102.0
191429,0.571,-0.370,0.718,0.519,-0.191,-1.458,0.0,101.0
191486,0.566,-0.408,0.728,6.328,2.344,-1.618,0.0,100.0
191543,0.488,-0.407,0.660,14.969,7.046,-11.015,0.0,89.0
191591,0.361,-0.629,0.633,87.496,23.053,-35.336,45.0,87.0
191647,0.189,-0.605,0.488,241.550,33.527,-63.489,0.0,85.0
191706,0.136,-0.390,0.211,250.130,50.855,-105.107,0.0,134.0
191754,0.296,0.319,-0.033,250.130,99.939,-151.374,44.0,83.0
191812,0.049,0.843,0.119,187.198,126.115,-250.137,0.0,74.0
191867,-0.528,0.942,0.416,52.649,95.924,-250.137,0.0,62.0
191922,-1.010,0.960,0.395,89.962,37.969,-250.137,0.0,55.0
191985,-0.745,1.327,0.226,123.595,53.626,-220.435,196.0,0.0
192038,-0.941,1.498,0.068,-186.916,86.405,-223.229,134.0,97.0
192093,-0.997,0.475,0.360,-250.137,131.191,-179.527,170.0,77.0
192139,-1.338,-0.387,0.756,-223.542,81.763,-58.573,17.0,77.0
192185,-1.340,-1.899,1.236,250.130,-21.802,35.588,18.0,86.0
192278,-0.077,2.000,-2.000,250.130,-103.481,177.947,85.0,37.0
192335,-0.361,2.000,-1.381,-250.137,94.580,-46.870,90.0,0.0
192390,-1.176,-0.360,-1.753,-250.137,133.321,-40.076,174.0,73.0
192436,-1.198,-2.000,1.564,-71.053,-78.863,-54.687,20.0,76.0
192497,-0.699,-1.125,-0.297,250.130,-110.153,108.191,171.0,0.0
192545,0.078,2.000,-1.285,-156.191,83.466,73.947,85.0,53.0
192598,-0.882,0.169,-1.056,-250.137,124.046,-46.573,138.0,78.0
192654,-0.904,-2.000,1.883,77.008,-90.542,-49.206,0.0,76.0
192711,-0.073,1.092,-0.568,250.130,-33.756,93.863,192.0,57.0
192765,-0.940,1.981,-0.920,-250.137,104.588,-51.573,139.0,94.0
192818,-1.015,-1.730,0.750,-250.137,-21.489,-122.038,136.0,77.0
192871,-0.859,-0.957,0.438,250.130,-117.679,-1.519,136.0,94.0
192928,-0.193,2.000,-1.273,250.130,-2.641,58.534,84.0,0.0
192980,-0.916,0.863,-0.926,-250.137,102.229,-57.321,138.0,77.0
193027,-0.918,-1.841,1.178,-250.137,-9.603,-60.305,19.0,70.0
193079,-0.885,-1.395,1.087,250.130,-133.656,-19.542,135.0,78.0
193137,-0.710,0.126,-0.679,250.130,-172.603,57.206,200.0,57.0
193189,-0.057,2.000,-1.153,-209.046,80.809,-0.511,167.0,51.0
193243,-1.012,0.146,-1.146,-250.137,143.481,-9.115,138.0,78.0
193289,-0.182,-2.000,1.721,-215.122,-129.695,-163.656,27.0,62.0
193341,-0.667,-1.359,0.801,250.130,-162.267,-91.496,137.0,78.0
193396,-0.246,2.000,-1.300,250.130,2.405,77.931,189.0,60.0
193453,-0.484,1.685,-0.148,-250.137,90.817,91.275,0.0,79.0
193509,0.490,-2.000,2.000,-15.313,-139.916,-68.130,0.0,76.0
193564,-1.230,-0.609,-1.030,250.130,-250.137,42.038,0.0,70.0
193624,0.302,2.000,-1.311,-250.137,163.504,192.076,0.0,74.0
193679,0.761,-1.734,0.330,-250.137,214.466,-52.802,0.0,60.0
193734,-2.000,-0.589,1.297,250.130,-106.542,21.260,0.0,62.0
193790,1.846,0.424,0.049,225.046,-65.176,189.443,0.0,74.0
193847,0.471,1.300,0.657,-100.992,97.405,-117.939,0.0,83.0
193903,-0.620,0.741,0.853,-204.382,39.221,142.351,0.0,66.0
193958,1.085,-1.135,1.004,49.427,-20.466,7.153,0.0,69.0
194016,-1.481,1.925,-0.178,250.130,-0.969,41.863,0.0,86.0
194075,1.005,-0.425,0.796,-158.092,-6.679,89.351,0.0,86.0
194132,-0.838,0.602,1.504,225.252,32.038,-140.412,0.0,85.0
194190,0.433,0.732,0.493,-108.779,2.832,105.969,0.0,88.0
194246,0.551,0.460,1.619,11.458,4.458,-97.916,0.0,85.0
194302,0.184,0.747,0.779,-22.038,-29.992,46.977,0.0,79.0
194359,1.312,-0.060,0.391,108.786,3.855,-82.221,0.0,84.0
194417,-0.438,1.547,-0.165,-42.084,49.389,51.710,0.0,104.0
194475,0.855,0.005,1.107,76.626,110.084,-43.260,0.0,91.0
194532,-1.635,2.000,0.300,-39.885,97.076,64.557,0.0,93.0
194592,0.525,-1.142,1.603,-160.412,6.359,45.046,0.0,96.0
194649,-1.890,1.279,0.999,250.130,-22.084,-106.374,0.0,74.0
194706,0.310,0.269,0.491,-138.481,-43.641,47.053,0.0,94.0
194763,0.881,-0.300,0.618,70.718,44.939,-191.382,0.0,89.0
194820,-2.000,2.000,-0.068,-137.886,-48.687,-68.176,0.0,87.0
194877,1.531,-0.886,0.977,-87.634,11.611,-76.702,0.0,86.0
194933,-0.497,1.467,0.590,51.511,50.290,-247.336,0.0,82.0
194982,-1.096,0.782,0.941,-250.137,-54.641,125.435,61.0,87.0
195086,0.134,0.577,0.481,194.061,29.092,-236.908,0.0,82.0
195148,-1.298,1.256,0.933,-227.076,-41.832,211.443,0.0,80.0
195204,2.000,-2.000,1.508,23.847,8.389,78.427,0.0,82.0
195260,-1.423,1.418,1.013,131.588,33.618,-170.969,0.0,89.0
195315,-0.317,0.617,0.919,-102.496,-20.176,156.305,0.0,86.0
195372,1.368,-0.638,1.204,19.107,35.092,-36.145,0.0,87.0
195428,-2.000,2.000,-0.557,120.137,-38.435,-8.702,0.0,83.0
195483,0.749,0.151,0.433,5.893,-31.290,133.725,0.0,90.0
195539,0.751,-0.093,0.649,33.786,57.542,-154.038,0.0,83.0
195598,-1.496,1.241,0.894,-78.550,-28.878,59.611,0.0,83.0
195654,1.094,-0.500,0.865,10.206,24.702,-6.687,0.0,83.0
195709,-0.878,1.138,0.769,5.794,75.779,-124.947,0.0,82.0
195765,-0.639,0.346,0.737,-200.366,115.282,49.992,0.0,66.0
195811,-0.114,0.305,0.508,-167.870,250.130,42.992,58.0,67.0
195858,-0.914,0.680,0.171,-250.137,208.893,-46.634,60.0,67.0
195903,-1.094,-1.955,1.510,-35.901,-137.786,-193.099,22.0,66.0
195950,-1.004,-1.374,0.071,250.130,-162.260,-78.183,71.0,65.0
196002,-0.057,2.000,-1.557,77.198,144.298,-28.313,135.0,83.0
196052,-1.021,-0.218,-1.162,-250.137,169.374,-134.748,69.0,65.0
196098,-1.143,-2.000,2.000,212.298,-35.130,-52.634,21.0,63.0
196144,-0.905,-0.284,-0.392,250.130,-58.725,-21.229,29.0,81.0
196195,-0.871,2.000,-0.392,158.924,5.756,-14.534,135.0,82.0
196247,-0.046,0.103,0.259,-250.137,100.595,-5.252,134.0,67.0
196291,-0.858,-1.448,1.244,-29.443,-58.893,-37.954,25.0,64.0
196343,-2.000,-1.170,0.084,250.130,-144.252,41.183,128.0,82.0
196406,0.222,-0.196,-0.674,250.130,-65.977,216.397,0.0,0.0
196464,0.651,2.000,-0.960,-250.137,152.595,-243.450,190.0,85.0
196509,-2.000,-1.256,-1.417,-250.137,121.573,-56.237,25.0,66.0
196554,-0.664,-2.000,2.000,230.886,-133.649,-6.046,19.0,67.0
196602,-0.276,-0.295,-0.118,250.130,-92.328,49.229,58.0,85.0
196665,-0.580,1.796,-0.553,250.130,-87.031,79.634,0.0,0.0
196716,-1.979,0.768,-1.226,-250.137,-46.916,135.374,134.0,68.0
196763,-0.487,-1.883,1.221,-250.137,-126.679,127.481,51.0,68.0
196818,0.395,-1.334,0.613,250.130,-83.008,122.496,0.0,78.0
196877,-0.139,2.000,-0.821,250.130,-70.046,72.198,0.0,67.0
196933,-0.090,0.746,-0.127,-250.137,47.504,-61.687,0.0,80.0
196980,-0.604,-2.000,1.668,53.824,36.573,-47.679,51.0,71.0
197036,-0.397,-0.168,-0.134,250.130,-4.771,-31.771,0.0,88.0
197093,0.028,2.000,-0.852,-250.137,222.634,-169.847,0.0,88.0
197140,-1.347,-1.266,0.084,-250.137,170.023,-111.855,66.0,68.0
197185,-0.828,-1.572,1.418,241.748,-58.069,-131.115,19.0,67.0
197237,-0.785,0.399,-0.014,250.130,-8.931,-20.588,138.0,78.0
197293,-1.130,1.855,-0.637,-250.137,114.870,-11.252,139.0,78.0
197338,-0.894,-1.128,0.834,-250.137,8.382,-63.817,21.0,64.0
197390,-0.902,-1.315,1.105,250.130,-105.237,-47.344,140.0,78.0
197442,-0.230,0.765,-0.170,250.130,-10.985,43.924,141.0,75.0
197495,-0.949,1.997,-0.610,-250.137,127.260,2.740,142.0,75.0
197539,-0.989,-0.540,0.573,-250.137,52.366,-62.466,19.0,64.0
197583,-1.078,-1.817,1.552,250.130,-92.878,-23.779,19.0,48.0
197639,-0.393,-0.348,-0.119,250.130,-49.977,65.328,0.0,73.0
197738,-0.786,0.439,-0.146,-250.137,94.718,-63.977,0.0,76.0
197780,-0.855,-2.000,1.645,25.115,-63.183,-89.496,17.0,51.0
197825,-0.652,-0.684,0.343,250.130,-50.015,34.374,25.0,76.0
197881,-0.632,1.763,-0.735,250.130,34.481,88.069,0.0,74.0
197937,-0.699,1.220,0.115,-250.137,44.076,-37.176,0.0,75.0
197993,-0.899,-0.688,1.064,-96.580,-49.947,-59.252,0.0,75.0
198045,-0.883,0.347,0.374,250.130,-67.046,46.534,140.0,75.0
198097,-0.874,2.000,-0.319,73.267,-29.740,96.595,141.0,76.0
198151,-0.977,0.938,0.174,-250.137,-1.061,131.847,139.0,85.0
198209,-0.454,-0.383,1.026,-113.038,-81.649,135.237,0.0,77.0
198264,0.234,-0.167,0.853,250.130,-85.191,75.664,0.0,57.0
198320,-1.047,2.000,-0.330,187.802,-50.069,74.145,0.0,57.0
198374,-0.590,1.346,0.119,-82.084,37.237,250.130,0.0,61.0
198420,0.171,0.620,0.328,-0.947,87.191,250.130,36.0,66.0
198466,0.552,0.131,0.550,-122.382,71.305,247.458,31.0,71.0
198512,0.437,0.384,0.800,-85.282,18.282,68.275,29.0,81.0
198559,-1.123,1.131,0.380,82.382,-25.718,118.328,27.0,92.0
198605,0.416,0.847,0.328,76.809,21.282,234.618,24.0,94.0
198656,1.029,-0.153,0.698,-52.931,82.901,108.916,21.0,100.0
198703,0.432,0.736,1.266,116.641,80.176,-77.626,21.0,101.0
198750,0.195,1.677,0.219,-40.489,70.931,248.573,21.0,102.0
198795,0.638,-0.477,0.429,-167.023,76.618,220.427,16.0,61.0
198849,1.341,-0.948,1.037,-56.458,72.038,-40.092,0.0,62.0
198895,-1.396,1.856,-0.157,245.817,12.656,-5.489,17.0,76.0
198940,0.424,1.032,0.311,-36.649,8.527,168.344,16.0,79.0
198985,0.973,-0.891,0.907,-150.031,19.802,61.687,17.0,70.0
199033,0.583,0.013,1.433,89.847,34.504,-183.435,17.0,64.0
199080,-0.281,2.000,0.872,62.603,-14.977,147.221,17.0,106.0
199128,0.878,0.167,0.431,-107.573,-12.908,153.519,16.0,107.0
199175,1.114,-1.146,0.915,-70.878,-1.748,-75.237,17.0,106.0
199222,-0.655,0.257,0.762,150.878,5.229,-194.145,17.0,108.0
199268,-0.073,1.186,0.746,-43.901,-15.939,10.176,16.0,76.0
199315,0.246,0.326,0.701,-61.611,-27.740,-48.305,19.0,107.0
199362,0.212,0.262,0.642,-14.351,-49.992,-186.519,17.0,106.0
199406,0.255,0.245,0.676,-6.015,-71.557,-250.137,19.0,57.0
199456,-0.153,0.685,0.658,164.511,-111.168,-250.137,24.0,84.0
199502,-0.094,2.000,0.038,4.473,-125.886,-178.908,30.0,67.0
199547,0.472,1.070,0.343,-80.908,-72.221,-142.298,31.0,66.0
199593,0.987,0.070,0.724,-34.237,-25.824,-188.351,31.0,64.0
199640,0.058,1.003,0.845,128.672,2.336,-250.137,36.0,59.0
199685,-0.948,2.000,0.593,5.405,-33.733,-9.038,41.0,57.0
199731,0.429,1.061,0.333,-90.481,-35.221,24.382,38.0,59.0
199776,0.826,-0.787,0.678,-65.435,-24.809,-76.992,36.0,60.0
199825,0.082,0.253,0.495,106.214,2.092,-207.817,43.0,57.0
199880,-2.000,2.000,-0.027,-24.076,0.542,30.244,0.0,57.0
199926,0.647,-0.174,0.357,-104.969,19.611,49.695,46.0,57.0
199982,0.638,-0.640,0.720,57.496,63.809,-169.550,0.0,57.0
200039,-1.675,1.727,-0.028,-37.695,91.511,-250.137,0.0,96.0
200091,-1.039,0.149,0.248,-250.137,105.435,-69.969,139.0,81.0
200138,-0.275,-1.604,1.118,122.687,94.916,-189.176,21.0,80.0
200233,-1.535,2.000,-0.655,8.511,28.756,-46.115,91.0,108.0
200290,-1.148,0.171,-0.214,-250.137,78.557,78.840,0.0,76.0
200331,-0.491,-2.000,1.178,-171.740,80.107,-20.794,17.0,45.0
200376,-1.337,-1.371,0.561,250.130,-36.794,-131.908,20.0,61.0
200424,-1.484,0.044,-0.662,250.130,-84.962,-9.756,38.0,97.0
200472,-1.067,2.000,-1.151,-250.137,109.588,36.458,38.0,95.0
200517,-0.367,-0.884,-0.321,-250.137,116.809,-70.809,31.0,57.0
200562,-0.523,-2.000,1.637,163.504,-14.733,-162.702,21.0,56.0
200608,-1.610,-1.847,-0.522,250.130,-112.756,-81.115,36.0,57.0
200660,0.177,2.000,-2.000,250.130,46.000,125.802,89.0,108.0
200719,-0.943,0.464,-1.958,-250.137,185.924,-77.656,0.0,55.0
200764,-0.933,-2.000,2.000,90.916,-47.832,-141.656,22.0,55.0
200811,-0.879,-1.001,-0.914,250.130,-53.519,63.504,37.0,90.0
200861,-1.171,2.000,-1.512,-250.137,68.000,74.977,79.0,91.0
200909,-1.298,-1.606,-0.060,-250.137,10.328,-33.771,65.0,57.0
200954,-0.922,-2.000,0.871,250.130,-138.542,19.420,31.0,57.0
201009,-0.017,2.000,-1.266,250.130,-17.863,96.802,135.0,99.0
201055,-1.119,0.510,-0.244,-250.137,41.298,5.008,29.0,61.0
201102,-1.025,-2.000,1.797,246.794,-149.725,48.252,22.0,46.0
201155,-0.860,-0.001,-0.140,250.130,-153.886,133.771,140.0,78.0
201205,-0.412,1.159,-0.288,250.130,59.031,152.855,80.0,97.0
201259,-0.925,2.000,-0.940,-250.137,134.298,100.267,131.0,85.0
201315,-1.262,-1.491,-0.093,-250.137,-26.397,-2.870,0.0,72.0
201367,-1.063,-2.000,0.958,250.130,-226.779,-6.359,120.0,72.0
201421,0.916,2.000,-1.856,250.130,46.565,176.458,191.0,58.0
201478,-0.938,1.087,-1.442,-250.137,164.275,5.519,0.0,76.0
201538,-0.850,-2.000,1.727,-2.588,-96.298,-50.053,0.0,78.0
201594,-0.424,0.294,-0.098,250.130,-102.725,93.153,0.0,78.0
201656,-0.427,1.922,-0.020,-243.153,34.137,71.634,0.0,79.0
201712,0.070,-1.166,1.402,-232.550,-82.473,24.282,0.0,80.0
201768,-0.030,-0.750,1.201,250.130,-109.962,-16.130,0.0,92.0
201823,-0.400,2.000,-1.345,250.130,-2.534,97.237,0.0,69.0
201880,-0.154,1.148,-0.034,-250.137,115.519,113.687,0.0,109.0
201927,-0.222,-1.139,1.107,-250.137,27.725,112.153,41.0,83.0
201982,-0.128,-1.280,1.615,48.382,-158.321,-52.588,0.0,81.0
202035,-0.130,-0.130,0.388,250.130,-250.137,-53.053,45.0,114.0
202091,1.390,2.000,-0.662,-60.084,113.740,27.954,0.0,92.0
202138,-0.089,0.814,0.160,-250.137,236.405,8.137,47.0,77.0
202184,-0.635,-1.098,1.354,-250.137,-102.511,-63.786,44.0,78.0
202240,-0.015,-1.626,1.390,224.336,-250.137,-169.542,0.0,74.0
202289,1.056,0.440,-0.935,250.130,-63.038,78.733,38.0,128.0
202336,1.246,2.000,-0.472,-197.489,250.130,-20.740,41.0,87.0
202391,-0.623,0.857,-0.382,-250.137,250.130,-38.466,0.0,78.0
202449,-0.006,-2.000,2.000,-133.519,-188.191,-250.137,0.0,78.0
202497,0.237,-1.396,-0.330,250.130,-178.145,-68.443,37.0,73.0
202545,2.000,2.000,-1.131,250.130,155.344,69.794,43.0,106.0
202593,0.342,2.000,-0.387,-250.137,250.130,-47.267,37.0,125.0
202649,-1.021,-0.563,-0.616,-250.137,92.595,-106.740,0.0,80.0
202697,-0.114,-2.000,2.000,216.252,-144.641,-181.832,59.0,79.0
202743,0.510,-1.788,-0.599,250.130,-104.565,-20.824,37.0,75.0
202832,0.384,2.000,-0.734,-250.137,250.130,-68.550,36.0,80.0
202884,-0.806,-2.000,-0.348,-250.137,34.458,-206.481,58.0,82.0
202939,-0.090,-2.000,2.000,250.130,-145.145,-116.886,0.0,79.0
202986,1.145,-0.230,-1.024,250.130,-29.527,89.237,36.0,79.0
203033,0.445,2.000,-0.695,-187.221,166.580,50.962,36.0,96.0
203079,-0.132,0.108,-0.412,-250.137,166.947,-42.191,38.0,82.0
203127,-0.255,-2.000,1.956,-86.069,-81.374,-172.145,58.0,83.0
203184,0.196,-1.345,0.398,250.130,-123.527,-36.794,0.0,79.0
203231,1.442,2.000,-1.347,227.626,129.771,77.641,36.0,95.0
203289,0.266,0.909,-0.356,-250.137,199.550,-15.595,0.0,82.0
203337,-0.224,-2.000,2.000,-77.756,-48.947,-105.924,57.0,83.0
203394,0.063,-1.168,0.419,250.130,-153.191,-36.443,0.0,80.0
203443,1.679,2.000,-1.024,238.344,53.634,53.603,40.0,127.0
203490,0.422,0.916,-0.250,-250.137,209.183,-12.962,36.0,82.0
203537,-1.093,-2.000,1.951,-250.137,4.573,-39.198,58.0,84.0
203593,-0.270,-1.467,1.222,250.130,-211.924,-85.969,0.0,80.0
203642,1.537,1.945,-0.570,250.130,-54.023,57.160,37.0,131.0
203689,0.550,1.035,-0.205,-250.137,219.298,33.702,37.0,81.0
203748,-0.422,-1.893,0.929,-250.137,111.359,-13.344,0.0,84.0
203804,-0.194,-2.000,1.338,250.130,-175.076,-86.290,0.0,80.0
203860,1.645,2.000,-1.443,250.130,-42.802,58.237,0.0,84.0
203911,0.314,1.233,-0.697,-250.137,238.252,-70.886,39.0,128.0
203966,-0.734,-1.833,0.325,-250.137,83.252,-54.405,0.0,82.0
204022,-0.275,-2.000,1.455,250.130,-202.191,-115.435,0.0,78.0
204079,2.000,2.000,-1.598,250.130,60.969,114.366,0.0,84.0
204126,0.440,1.298,-0.583,-250.137,245.191,-45.336,39.0,80.0
204184,-0.689,-2.000,1.298,-250.137,-12.321,-144.901,0.0,81.0
204240,-0.203,-1.476,0.072,250.130,-187.771,-64.565,0.0,76.0
204299,1.154,2.000,-1.193,38.458,100.038,36.763,0.0,125.0
204355,-0.136,0.010,0.131,-250.137,179.687,-36.260,0.0,79.0
204410,-0.058,-2.000,2.000,233.664,-118.359,-108.519,0.0,77.0
204457,0.963,0.951,-0.339,250.130,-50.389,58.550,44.0,77.0
204505,0.489,2.000,-0.467,-250.137,145.092,24.420,41.0,77.0
204561,0.195,-1.008,0.772,-250.137,146.069,-15.771,0.0,79.0
204619,-0.173,-2.000,1.735,250.130,-144.069,-78.000,0.0,76.0
204677,1.074,1.226,-0.678,250.130,-80.351,65.878,0.0,92.0
204732,0.537,1.722,-0.598,-250.137,214.290,-28.962,0.0,78.0
204788,-0.348,-1.664,0.430,-250.137,118.450,-42.443,0.0,80.0
204845,-0.139,-2.000,1.608,250.130,-165.947,-83.321,0.0,77.0
204902,1.429,2.000,-1.093,250.130,-6.809,122.496,0.0,97.0
204957,0.417,1.247,-0.370,-250.137,234.046,-29.977,0.0,78.0
205014,-0.681,-2.000,1.241,-250.137,22.832,-63.328,0.0,81.0
205070,-0.141,-1.616,0.982,250.130,-202.687,-68.641,0.0,78.0
205120,1.848,2.000,-1.459,250.130,27.443,127.321,44.0,82.0
205176,0.558,1.775,-0.783,-250.137,217.779,-72.550,0.0,80.0
205233,-0.264,-1.757,0.203,-250.137,133.450,-55.679,0.0,83.0
205289,0.042,-2.000,1.821,250.130,-51.053,-56.275,0.0,80.0
205345,0.968,1.758,-0.071,250.130,60.641,71.542,0.0,79.0
205402,-0.234,0.182,-0.022,-250.137,179.725,54.840,0.0,85.0
205454,-0.406,-2.000,1.630,-11.702,-10.885,-38.344,36.0,172.0
205553,0.805,2.000,-0.301,-41.328,44.015,35.962,0.0,80.0
205617,-0.359,-1.374,0.909,-250.137,82.313,24.092,0.0,140.0
205673,-0.294,-1.118,0.748,250.130,-92.550,-45.733,0.0,82.0
205729,0.195,1.088,0.099,-134.084,35.687,43.038,0.0,83.0
205786,-0.272,-1.691,1.292,-51.656,-13.405,-5.351,0.0,84.0
205842,0.034,-0.363,0.769,250.130,-11.580,41.664,0.0,83.0
205898,-0.121,-0.418,0.862,116.573,23.183,61.015,0.0,82.0
205955,-0.191,-0.300,0.896,250.130,-9.458,21.099,0.0,81.0
206011,-0.346,1.336,0.269,133.679,-16.924,63.038,0.0,82.0
206061,-0.031,-0.197,1.225,173.985,34.573,174.527,36.0,136.0
206124,0.629,0.210,0.956,35.954,-48.534,147.061,0.0,137.0
206172,-0.676,1.021,0.548,162.298,-95.527,-58.290,40.0,89.0
206219,0.648,0.482,0.660,-19.397,-20.092,213.351,32.0,95.0
206266,0.844,-0.882,0.921,-146.046,20.305,95.260,29.0,95.0
206313,0.656,-0.573,1.353,3.153,38.084,-126.573,30.0,97.0
206360,-0.562,2.000,0.701,223.168,-20.107,120.695,28.0,91.0
206415,0.546,0.547,0.487,-113.893,-14.198,167.336,0.0,61.0
206460,0.996,-1.262,0.997,-117.954,-11.473,-101.405,26.0,62.0
206510,-1.503,0.829,0.548,250.130,-22.183,-108.130,28.0,59.0
206565,0.639,2.000,-0.034,14.870,13.298,239.252,0.0,59.0
206609,0.544,-1.458,1.039,-209.420,44.740,107.420,16.0,62.0
206654,0.667,-0.725,1.346,1.504,49.931,-169.374,25.0,60.0
206709,-1.846,2.000,0.145,250.130,-31.244,34.504,0.0,59.0
206765,0.961,0.491,0.383,-182.015,20.992,194.069,0.0,62.0
206820,0.814,-1.658,1.220,-43.305,29.931,-178.122,0.0,60.0
206865,-0.439,2.000,0.764,204.206,-29.771,78.573,23.0,58.0
206920,0.958,0.582,0.417,-146.794,19.542,113.252,0.0,60.0
206968,0.771,-1.067,1.300,8.321,26.366,-168.740,25.0,59.0
207013,-0.713,2.000,0.859,198.504,-53.275,33.374,26.0,58.0
207069,0.975,1.059,0.331,-108.038,-14.924,160.473,0.0,61.0
207124,0.916,-1.401,1.004,-51.481,27.725,-54.504,0.0,60.0
207169,-1.509,1.625,0.983,202.061,-29.198,-45.458,23.0,59.0
207215,0.832,1.726,0.250,-70.802,-7.962,178.725,25.0,59.0
207270,0.561,-1.194,0.765,-123.511,21.748,69.168,0.0,63.0
207326,0.326,-0.394,0.671,-22.504,37.725,-164.000,0.0,60.0
207374,-0.793,0.824,1.161,156.336,4.298,-137.802,25.0,59.0
207421,-0.052,2.000,0.247,116.687,-42.344,44.977,30.0,84.0
207478,0.593,0.573,0.602,-129.870,-38.298,70.015,0.0,94.0
207535,0.724,-0.599,0.917,-27.092,-17.122,-28.725,0.0,91.0
207591,0.656,-0.227,0.756,7.351,7.092,-190.023,0.0,65.0
207648,0.335,0.302,0.797,4.099,34.924,-248.008,0.0,90.0
207695,0.046,0.400,0.915,47.397,53.908,-234.435,34.0,97.0
207744,-0.420,0.411,0.572,144.458,36.450,-186.359,39.0,89.0
207800,-0.244,0.680,0.486,154.565,26.191,-187.496,0.0,84.0
207859,-0.464,0.814,0.237,99.061,27.870,-197.496,0.0,63.0
207916,-0.782,0.856,0.239,69.015,47.237,-193.076,0.0,83.0
207973,-0.784,0.621,0.222,59.450,69.481,-192.099,0.0,84.0
208028,-1.077,0.726,0.168,24.832,76.244,-167.672,173.0,96.0
208081,-0.998,0.569,0.454,-42.489,67.634,-134.702,19.0,0.0
208135,-1.169,0.466,0.514,-79.733,56.809,-102.519,20.0,0.0