Timestamp(ms),AccelX(g),AccelY(g),AccelZ(g),GyroX(deg/s),GyroY(deg/s),GyroZ(deg/s),DistanceLeft(cm),DistanceRight(cm)
462261,-0.569,1.039,-0.291,250.130,55.435,-23.573,105.0,0.0
462319,-0.793,2.000,-0.342,-250.137,109.206,-124.595,107.0,0.0
462375,-1.148,-1.259,0.831,-250.137,41.664,-121.427,0.0,89.0
462434,-0.852,-1.016,0.724,250.130,-29.244,13.618,136.0,172.0
462487,-0.662,2.000,-1.265,73.099,29.191,44.023,109.0,71.0
462551,-0.745,0.565,-0.594,-250.137,61.710,-53.718,0.0,0.0
462607,-0.938,-1.916,1.328,132.260,-43.878,-11.634,17.0,0.0
462664,-0.585,0.656,-0.461,250.130,-32.679,78.878,110.0,0.0
462723,-0.769,1.649,-0.337,-198.748,21.450,-5.664,110.0,0.0
462786,-0.880,-0.528,0.635,-150.588,-2.985,-32.489,0.0,0.0
462836,-0.840,-0.374,0.313,250.130,-35.817,19.427,109.0,75.0
462887,-0.692,1.254,-0.656,250.130,-15.748,46.092,111.0,77.0
462941,-0.766,1.681,-0.746,-250.137,63.718,-33.244,111.0,73.0
463004,-0.953,-0.856,0.457,-250.137,20.374,-48.626,0.0,0.0
463055,-0.739,-0.253,0.296,250.130,-29.702,33.595,110.0,74.0
463106,-0.679,2.000,-0.639,131.855,-11.435,16.870,111.0,74.0
463164,-0.803,0.776,-0.289,-250.137,43.565,-39.672,110.0,0.0
463223,-1.029,-1.183,0.981,-29.137,-15.695,-15.794,139.0,0.0
463275,-0.750,0.562,-0.235,250.130,-39.550,35.443,110.0,72.0
463325,-0.638,1.876,-0.323,-129.435,16.893,-14.130,111.0,72.0
463386,-0.922,-0.035,0.237,-250.137,37.153,-30.924,112.0,0.0
463444,-0.760,-0.476,0.716,231.305,-23.824,-0.664,111.0,0.0
463496,-0.714,1.746,-0.323,123.046,3.580,10.817,111.0,71.0
463553,-0.857,0.749,-0.109,-250.137,44.198,-35.145,112.0,0.0
463612,-1.027,-1.156,1.008,50.382,-17.878,-13.031,118.0,0.0
463663,-0.807,0.647,-0.275,250.130,-32.298,37.626,111.0,67.0
463713,-0.704,1.955,-0.393,-190.092,16.313,-15.420,111.0,69.0
463772,-0.883,-0.009,0.118,-250.137,38.344,-36.153,117.0,0.0
463831,-0.853,-0.824,0.785,241.282,-24.985,12.618,116.0,0.0
463884,-0.703,1.631,-0.404,237.870,-20.275,29.122,111.0,69.0
463935,-0.833,0.962,-0.204,-250.137,32.931,-29.145,111.0,78.0
463998,-0.969,-0.506,0.601,-208.886,24.618,-14.160,0.0,0.0
464056,-0.805,-0.141,0.468,250.130,-17.748,20.878,117.0,169.0
464106,-0.715,1.714,-0.240,91.840,-11.573,9.000,112.0,69.0
464164,-0.875,0.645,-0.087,-250.137,32.282,-33.901,119.0,195.0
464218,-0.962,-0.941,0.909,-39.695,2.496,-6.473,17.0,0.0
464269,-0.804,-0.059,0.163,250.130,-34.336,28.221,113.0,75.0
464323,-0.769,1.468,-0.115,94.168,-10.672,2.260,112.0,71.0
464373,-1.000,-0.096,0.482,11.481,-24.023,-4.916,112.0,72.0
464423,-0.792,0.445,0.074,250.130,-31.702,22.260,96.0,64.0
464473,-0.709,1.785,-0.457,-127.176,23.046,-2.542,96.0,70.0
464529,-0.864,0.247,0.024,-250.137,36.947,-30.176,112.0,167.0
464586,-0.802,-0.654,0.741,191.718,-35.855,8.916,112.0,167.0
464636,-0.536,1.833,-0.366,149.198,16.611,21.557,97.0,71.0
464693,-0.891,0.923,-0.243,-250.137,45.779,-31.565,112.0,168.0
464759,-1.005,-0.777,0.924,-81.763,-21.656,-24.229,0.0,0.0
464811,-0.728,-0.028,0.305,250.130,-23.137,42.458,111.0,74.0
464860,-0.834,0.822,-0.266,250.130,-13.756,38.855,96.0,64.0
464911,-0.672,1.464,-0.328,-19.313,0.328,2.130,112.0,71.0
464962,-0.804,0.771,-0.141,-250.137,22.183,-27.000,110.0,75.0
465069,-0.983,0.105,0.546,-193.481,-38.313,7.000,0.0,0.0
465129,-0.811,0.064,0.781,110.695,-80.244,59.115,139.0,0.0
465187,-0.562,0.944,0.388,175.122,-71.679,90.992,109.0,0.0
465238,-0.585,0.923,0.410,55.756,-52.794,78.137,108.0,57.0
465298,-0.616,1.109,0.280,-11.290,-27.763,110.450,0.0,94.0
465355,-0.597,1.603,0.119,-244.992,53.191,149.916,0.0,94.0
465412,-0.866,0.396,0.510,-250.137,44.794,184.260,0.0,82.0
465469,-0.539,-0.443,1.141,-26.458,-84.634,162.588,0.0,88.0
465526,-0.035,0.345,0.670,224.282,-83.275,206.191,0.0,97.0
465576,-0.030,1.566,0.168,47.015,-18.183,201.969,50.0,110.0
465626,-0.114,0.906,0.206,-250.137,14.176,211.023,46.0,104.0
465684,0.140,-0.255,0.820,-191.489,42.740,238.725,0.0,103.0
465734,0.469,-0.668,0.916,-63.771,10.008,151.382,37.0,75.0
465779,0.221,-0.095,2.000,146.344,-0.771,7.046,17.0,74.0
465826,-0.104,0.998,0.760,155.198,-42.824,177.763,29.0,74.0
465872,0.351,0.445,0.612,-73.557,29.435,223.618,27.0,76.0
465929,0.901,-0.664,0.952,-135.725,38.145,87.908,0.0,78.0
465985,-0.271,-0.115,1.594,121.099,50.443,-110.061,0.0,76.0
466042,0.294,0.964,0.770,72.397,-23.992,149.290,0.0,77.0
466088,0.712,-0.658,0.761,-149.344,18.855,93.534,24.0,80.0
466145,0.634,-0.297,1.263,10.840,44.534,-146.344,0.0,79.0
466208,0.093,0.823,1.031,28.214,-30.870,59.863,0.0,123.0
466267,0.791,-0.372,0.855,-68.626,-9.626,45.237,0.0,124.0
466319,-0.106,0.936,0.541,31.412,-31.794,-24.588,23.0,79.0
466365,0.505,-0.101,0.875,-38.634,-19.053,22.763,30.0,79.0
466410,1.004,0.084,1.111,-22.008,15.542,-86.481,26.0,77.0
466456,-0.513,1.245,0.556,114.344,-21.687,-31.038,25.0,76.0
466501,0.508,0.339,0.799,-27.786,-30.595,76.229,27.0,78.0
466547,0.905,-0.580,0.837,-67.565,-2.794,-0.282,26.0,78.0
466595,-0.627,0.176,0.813,131.435,0.885,-133.863,29.0,76.0
466641,0.447,0.709,0.943,-43.458,-25.412,61.870,30.0,77.0
466686,0.882,-0.638,0.807,-73.389,0.748,40.672,27.0,78.0
466733,0.392,0.295,1.331,109.427,20.718,-153.954,25.0,77.0
466778,0.282,0.903,0.943,-58.389,-19.916,39.634,24.0,77.0
466824,1.394,-0.944,1.019,27.328,-18.939,5.550,31.0,77.0
466869,0.057,0.638,0.593,121.740,-16.832,-75.115,28.0,75.0
466915,0.555,0.581,0.854,-16.878,-21.107,53.221,30.0,75.0
466960,1.088,-0.202,1.055,-5.084,28.695,-5.305,30.0,74.0
467008,-0.644,2.000,0.045,117.954,44.443,26.863,27.0,73.0
467054,0.318,0.422,0.866,-122.824,18.962,121.008,30.0,75.0
467099,1.063,-0.902,1.220,-35.756,-5.908,-5.069,26.0,76.0
467145,-0.808,0.784,0.697,197.519,-21.588,-56.779,23.0,75.0
467190,0.429,0.749,0.648,-84.824,-15.275,55.321,23.0,75.0
467235,1.046,-0.538,0.998,-35.023,8.313,-20.702,24.0,75.0
467281,-0.376,1.245,0.386,115.618,0.588,-22.603,27.0,74.0
467326,0.715,0.235,0.689,-63.053,-4.496,51.252,25.0,75.0
467372,0.979,-0.232,0.933,44.504,9.458,-108.374,24.0,75.0
467420,-0.064,1.174,0.682,73.176,-12.687,-9.099,25.0,73.0
467466,0.481,0.606,0.625,-15.115,-19.534,-2.069,28.0,73.0
467512,0.317,0.363,0.973,-47.153,-8.290,-46.458,34.0,73.0
467601,0.128,0.493,0.856,-19.885,-32.542,-85.046,32.0,72.0
467647,0.277,0.413,0.782,-71.817,-41.092,-118.954,34.0,72.0
467694,0.371,0.164,0.792,-76.916,-36.756,-179.947,37.0,98.0
467743,0.321,0.055,0.808,-20.947,-14.397,-240.061,36.0,127.0
467801,-0.130,-0.040,0.865,153.237,-0.733,-250.137,0.0,95.0
467858,-0.570,2.000,-0.346,125.130,28.947,-169.588,0.0,61.0
467914,-0.180,1.198,0.287,-250.137,103.031,-142.725,0.0,91.0
467961,-0.195,-1.266,1.651,-162.069,20.664,-179.397,17.0,89.0
468017,-0.619,-0.923,0.963,250.130,-35.588,-171.664,0.0,81.0
468074,-0.323,2.000,-0.893,250.130,-34.588,-76.443,0.0,95.0
468130,-0.559,1.748,-0.512,-250.137,117.221,-93.489,0.0,81.0
468176,-0.613,-1.596,1.458,-250.137,4.168,-117.962,20.0,82.0
468222,-0.522,-1.000,1.010,250.130,-47.450,-82.198,23.0,83.0
468285,-0.580,1.015,-0.535,250.130,-21.038,-6.260,0.0,0.0
468345,-0.556,1.633,-0.120,-209.405,76.275,-86.847,105.0,0.0
468397,-0.799,0.077,0.487,-250.137,36.153,-96.252,106.0,92.0
468454,-0.873,-0.425,0.933,73.847,4.229,-89.275,106.0,191.0
468510,-0.945,0.154,0.210,250.130,-5.473,-66.573,106.0,171.0
468561,-0.769,1.515,-0.380,202.664,-12.626,-39.053,107.0,97.0
468613,-0.718,1.002,-0.118,-250.137,8.351,-52.107,106.0,79.0
468669,-1.063,0.139,0.319,-250.137,18.695,11.412,107.0,171.0
468725,-1.059,0.114,0.600,-102.802,-28.344,113.916,104.0,190.0
468787,-0.802,0.981,0.479,21.992,-39.817,153.206,104.0,0.0
468843,-0.692,1.115,0.373,-81.206,-5.214,165.115,0.0,94.0
468899,-0.867,1.117,0.296,-54.542,-10.519,231.656,0.0,81.0
468955,-0.238,0.635,0.595,-38.191,2.565,250.130,0.0,57.0
469009,0.363,0.909,0.784,-64.389,62.260,177.886,0.0,60.0
469068,-2.000,1.338,-0.230,-250.137,46.214,250.130,0.0,124.0
469115,0.245,-0.699,0.584,-250.137,-66.038,250.130,34.0,98.0
469161,1.360,-0.695,0.727,22.176,-5.550,204.916,26.0,74.0
469211,-1.233,1.340,0.741,21.763,39.847,92.221,26.0,75.0
469258,-0.924,-0.098,0.670,-250.137,-51.542,136.115,21.0,98.0
469313,2.000,-1.188,0.512,67.580,-74.214,114.672,0.0,81.0
469368,0.131,0.751,0.814,120.046,109.260,120.511,184.0,80.0
469426,-1.143,0.449,1.002,-250.137,17.176,-24.321,0.0,83.0
469482,2.000,-1.050,0.587,146.053,-90.046,26.679,0.0,83.0
469537,-0.276,0.927,1.096,93.588,67.794,123.076,184.0,84.0
469594,-0.502,0.250,0.874,-189.153,9.527,-67.557,0.0,85.0
469650,2.000,-0.931,0.488,150.702,-77.901,37.679,0.0,85.0
469710,-0.903,1.460,0.997,5.565,89.840,112.420,0.0,86.0
469767,0.333,-0.647,1.146,-132.405,23.893,-88.809,0.0,87.0
469823,1.307,-0.455,0.278,217.977,-77.450,120.191,0.0,87.0
469880,-1.753,2.000,0.801,-53.053,84.061,54.557,0.0,89.0
469937,0.854,-1.075,1.087,-109.298,-14.466,-164.878,0.0,87.0
469996,1.356,-0.152,0.366,195.267,-33.145,88.649,0.0,130.0
470053,-1.429,1.753,0.725,-175.458,106.458,19.237,0.0,90.0
470110,0.926,-1.376,1.113,-41.748,-26.824,-135.244,0.0,89.0
470172,1.092,0.067,0.695,229.321,-13.878,95.649,0.0,131.0
470232,-1.465,1.590,0.910,-243.344,50.603,-31.130,0.0,131.0
470291,2.000,-1.808,1.053,123.756,-88.298,-94.031,0.0,131.0
470381,-1.894,2.000,0.856,-230.290,63.733,-34.229,17.0,89.0
470440,1.322,-1.404,1.208,-100.832,-29.557,-176.420,0.0,131.0
470500,0.840,-0.158,0.615,179.718,-38.321,39.076,0.0,130.0
470559,-0.178,0.766,0.708,-113.786,5.366,9.947,0.0,130.0
470618,-0.080,-0.195,0.924,-100.710,-7.595,-154.015,0.0,128.0
470675,0.140,-0.281,0.845,-4.779,14.115,-234.168,0.0,81.0
470734,0.161,-0.099,0.681,59.947,8.420,-250.137,0.0,78.0
470782,0.202,0.177,0.606,109.473,9.061,-250.137,31.0,103.0
470839,-0.157,0.790,0.528,127.122,21.260,-250.137,0.0,96.0
470896,-0.061,0.709,0.614,86.191,73.000,-244.450,0.0,90.0
470952,-0.417,1.320,0.287,-114.023,140.740,-245.809,0.0,80.0
470998,-0.887,0.278,0.649,-250.137,201.954,-170.328,16.0,59.0
471042,-1.083,-1.480,1.592,174.939,88.267,-188.450,17.0,50.0
471089,-1.558,-0.991,0.206,250.130,-59.939,-151.595,21.0,91.0
471150,-0.723,2.000,-1.285,250.130,-78.092,6.198,109.0,0.0
471208,-0.615,1.924,-0.656,-250.137,99.969,-76.252,111.0,0.0
471271,-0.831,-0.564,0.597,-250.137,90.802,-84.359,193.0,0.0
471328,-0.883,-0.566,0.729,250.130,15.695,-31.748,112.0,171.0
471387,-1.406,2.000,-1.282,-250.137,114.985,5.824,118.0,192.0
471432,-1.092,-2.000,0.611,-250.137,-46.840,-43.450,17.0,71.0
471480,-0.624,-1.618,1.164,250.130,-114.817,7.893,61.0,70.0
471526,-0.555,0.858,-0.590,250.130,-101.565,39.092,23.0,83.0
471573,-0.311,1.856,-0.248,-30.634,-14.443,-30.748,26.0,89.0
471623,-0.895,0.291,-0.043,-250.137,93.595,-38.672,23.0,82.0
471671,-1.081,-1.229,0.879,-166.863,27.649,-12.168,58.0,70.0
471717,-0.880,-0.747,0.653,250.130,-32.870,-9.733,16.0,83.0
471777,-0.533,0.846,-0.433,250.130,30.321,47.985,136.0,199.0
471834,-0.894,1.185,-0.196,-250.137,70.237,-12.183,0.0,87.0
471879,-1.040,-1.154,0.888,-219.115,2.809,-25.290,17.0,73.0
471925,-0.827,-0.933,0.888,250.130,-10.557,2.527,16.0,75.0
471979,-0.810,0.247,-0.219,250.130,7.542,19.939,16.0,0.0
472035,-0.894,1.745,-0.518,-250.137,54.489,-49.137,18.0,0.0
472079,-1.131,-1.123,0.725,-250.137,43.313,-35.519,14.0,58.0
472125,-0.981,-1.170,1.072,250.130,-36.527,13.206,14.0,79.0
472178,-0.841,-0.122,-0.031,250.130,-51.344,55.427,16.0,0.0
472229,-0.854,0.899,-0.564,250.130,-45.092,74.267,111.0,71.0
472286,-0.487,1.948,-0.501,-38.740,6.000,8.763,104.0,169.0
472344,-0.962,0.570,-0.590,-250.137,67.450,-39.023,110.0,0.0
472391,-0.982,-1.245,1.185,-158.977,-65.603,-87.557,17.0,93.0
472444,-0.930,-1.716,-0.205,250.130,-119.756,44.695,109.0,69.0
472494,-1.357,2.000,-2.000,250.130,5.969,114.282,104.0,43.0
472551,-0.723,0.808,-2.000,-250.137,114.458,-146.550,109.0,170.0
472610,-0.294,-2.000,2.000,-19.359,-68.221,19.985,138.0,192.0
472668,-1.692,0.396,-1.211,250.130,-10.969,52.679,107.0,175.0
472726,-0.706,0.579,-0.341,-250.137,11.962,206.313,105.0,0.0
472784,-0.425,-0.107,0.534,196.275,-4.496,-108.344,104.0,0.0
472834,-1.398,1.250,-0.403,-250.137,14.702,56.863,103.0,58.0
472895,-0.932,-1.197,1.120,27.977,-108.954,75.840,105.0,0.0
472945,0.557,1.425,-0.968,250.130,-18.573,17.863,106.0,46.0
473003,-1.451,1.995,-1.395,-250.137,124.748,-105.511,104.0,0.0
473110,0.726,0.292,-0.385,250.130,-16.641,75.718,107.0,0.0
473159,-1.409,2.000,-1.144,-250.137,53.611,-63.145,107.0,57.0
473217,-0.737,-1.079,0.876,-250.137,-69.924,-43.802,107.0,0.0
473274,0.003,0.857,0.182,250.130,28.634,8.214,107.0,0.0
473331,-1.030,1.549,-0.419,-250.137,28.328,27.656,106.0,0.0
473388,-0.617,0.022,0.627,-157.595,64.618,97.260,0.0,97.0
473447,-0.498,0.800,0.360,-123.160,109.855,73.099,0.0,95.0
473501,-0.971,-0.690,0.947,149.679,-169.969,-30.298,0.0,57.0
473555,0.538,1.187,-0.355,250.130,-103.443,1.176,0.0,43.0
473613,-0.802,2.000,-1.686,-250.137,219.252,-156.443,108.0,0.0
473669,-1.811,-2.000,0.943,-250.137,-73.168,-145.107,20.0,0.0
473726,-0.207,-0.421,-0.346,250.130,-74.008,103.756,107.0,0.0
473789,-1.285,2.000,-0.947,-250.137,98.710,15.580,0.0,0.0
473845,-0.344,-1.594,1.631,-33.679,-77.595,-72.527,0.0,95.0
473912,-0.531,1.340,-0.219,250.130,78.221,73.611,0.0,0.0
473974,-1.032,0.403,0.560,-34.878,-98.893,42.351,0.0,0.0
474028,0.505,1.626,-0.485,250.130,70.221,54.198,0.0,45.0
474090,-0.963,1.429,-0.303,-250.137,104.160,-54.519,0.0,0.0
474153,-0.637,-1.096,1.321,169.115,-150.053,37.244,0.0,0.0
474207,0.536,2.000,-0.912,24.611,122.664,-7.893,0.0,44.0
474263,-0.977,0.549,-0.388,-250.137,89.702,-46.282,0.0,81.0
474320,-0.555,-1.449,1.718,227.855,-149.595,5.000,0.0,99.0
474374,0.358,1.592,-1.009,250.130,-31.878,92.847,0.0,45.0
474431,-0.451,1.783,-0.802,-250.137,182.153,-100.664,0.0,47.0
474487,-1.156,-1.412,0.997,-250.137,-51.107,-78.450,0.0,80.0
474542,-0.367,-0.584,0.164,250.130,-127.672,37.466,0.0,47.0
474595,-0.110,2.000,-1.196,-54.084,87.282,-35.305,0.0,46.0
474651,-0.628,0.209,-0.324,-250.137,58.557,-61.534,0.0,77.0
474707,-0.482,-1.351,1.435,250.130,-122.954,-26.947,0.0,96.0
474762,0.189,2.000,-1.126,250.130,-21.489,81.496,0.0,44.0
474816,-0.449,1.447,-0.603,-250.137,113.634,-51.000,0.0,50.0
474875,-0.746,-1.428,1.451,-109.519,-69.786,-63.244,0.0,76.0
474929,-0.254,-0.136,-0.213,250.130,-112.359,46.191,0.0,44.0
474983,-0.326,2.000,-1.158,-250.137,148.137,-71.626,0.0,43.0
475039,-0.792,-0.356,-0.335,-250.137,57.076,-80.229,0.0,79.0
475094,-0.502,-1.146,0.976,250.130,-105.008,-9.771,0.0,57.0
475148,0.159,2.000,-1.291,250.130,28.565,48.649,0.0,43.0
475203,-0.528,1.170,-0.538,-250.137,116.275,-72.481,0.0,60.0
475259,-0.756,-1.300,1.323,-106.282,-23.954,-58.748,0.0,95.0
475315,-0.490,0.210,0.059,250.130,-63.519,32.229,0.0,58.0
475371,-0.294,2.000,-0.473,14.046,10.481,-15.198,0.0,43.0
475426,-0.320,0.963,0.022,-250.137,114.489,-52.366,0.0,57.0
475483,-0.903,-0.002,0.516,-250.137,67.176,-16.344,0.0,95.0
475540,-0.719,-0.602,1.083,243.702,-138.489,-18.076,0.0,94.0
475594,-0.373,-0.072,-0.317,250.130,-154.908,80.794,0.0,40.0
475643,-0.218,2.000,-1.551,250.130,-54.328,86.840,128.0,39.0
475695,-0.182,1.444,-0.934,-250.137,33.977,-51.023,146.0,37.0
475748,-0.326,0.398,-0.393,-250.137,165.305,-68.573,0.0,39.0
475813,-1.156,0.347,0.070,-145.580,50.122,-16.076,0.0,39.0
475867,-0.443,-0.160,0.418,250.130,-108.313,23.313,0.0,35.0
475964,-0.597,1.788,-0.720,-250.137,157.802,-120.649,0.0,38.0
476018,-0.953,-0.546,0.734,-218.916,-23.802,-94.183,0.0,37.0
476077,-0.700,-0.118,0.104,250.130,-92.824,10.321,113.0,0.0
476134,-0.055,2.000,-0.913,62.374,45.427,-13.893,113.0,0.0
476192,-0.766,0.853,-0.422,-250.137,150.664,-71.282,113.0,0.0
476247,-1.186,-0.742,0.670,24.023,-127.023,-12.336,0.0,43.0
476308,-0.314,0.594,-0.696,250.130,-144.473,84.374,113.0,0.0
476370,-0.027,2.000,-1.040,-61.687,27.397,-7.641,194.0,0.0
476429,-0.605,0.498,-0.277,-250.137,221.832,-69.939,111.0,0.0
476487,-1.051,-0.141,0.364,-78.687,-66.832,1.863,111.0,0.0
476545,-0.520,-0.083,-0.150,250.130,-178.504,53.939,110.0,0.0
476603,-0.116,2.000,-1.254,179.481,-35.328,55.710,109.0,0.0
476661,-0.322,0.946,-0.815,-250.137,181.160,-65.275,110.0,0.0
476724,-0.987,0.255,-0.216,-250.137,136.053,-8.382,0.0,0.0
476787,-0.881,-0.381,0.559,250.130,-120.855,-8.626,0.0,0.0
476849,-0.238,1.516,-1.323,250.130,-71.275,95.634,112.0,0.0
476907,-0.032,1.562,-0.986,-250.137,117.252,-70.710,109.0,0.0
476969,-0.548,0.085,-0.103,-250.137,188.092,-76.076,0.0,0.0
477033,-0.972,-0.129,0.452,138.198,-88.893,-8.763,0.0,0.0
477095,-0.443,0.391,-0.593,250.130,-151.153,112.137,189.0,0.0
477154,-0.094,2.000,-1.037,-22.969,-4.954,30.771,115.0,0.0
477215,-0.347,0.900,-0.652,-250.137,176.565,-53.977,172.0,0.0
477279,-1.135,0.675,-0.256,-246.443,145.969,13.267,0.0,0.0
477345,-0.790,-0.198,0.490,177.824,-191.519,64.328,0.0,0.0
477406,-0.141,0.986,-0.787,250.130,-156.718,148.855,140.0,0.0
477463,-0.280,1.598,-1.295,-121.290,-58.160,30.992,109.0,0.0
477513,0.003,0.563,-0.392,-222.092,218.809,-54.802,143.0,29.0
477568,-0.817,0.691,-0.007,-55.176,86.435,-6.015,0.0,29.0
477621,-0.261,0.697,-0.175,86.748,-250.137,16.702,195.0,28.0
477670,0.395,1.087,-0.587,135.832,-98.023,6.817,136.0,30.0
477729,0.453,1.608,-0.802,-15.954,250.130,21.885,133.0,0.0
477786,-1.223,0.942,-0.773,-195.886,118.206,-1.176,182.0,30.0
477839,-0.037,-0.256,0.177,62.779,-126.450,-15.115,0.0,30.0
477889,0.076,0.980,-0.489,196.282,-40.908,-47.557,140.0,28.0
477949,-0.183,0.925,-0.532,-31.069,106.901,-132.198,143.0,0.0
478021,-0.800,0.646,-0.443,-62.252,50.466,-117.824,190.0,0.0
478078,-0.863,0.522,-0.197,114.466,-65.084,-93.504,111.0,0.0
478137,-0.570,1.006,-0.450,71.023,-72.023,-79.916,113.0,0.0
478193,-0.579,0.649,-0.320,-10.542,-21.198,-105.038,102.0,0.0
478252,-0.807,0.869,-0.512,-61.122,15.557,-102.321,115.0,0.0
478313,-0.901,0.514,-0.336,-106.015,6.748,-103.473,118.0,0.0
478370,-0.867,0.238,-0.140,22.771,-14.588,-66.489,120.0,188.0
478427,-0.774,0.448,-0.272,85.855,-25.412,-34.656,105.0,185.0
478483,-0.741,0.535,-0.365,47.954,-29.832,-17.878,106.0,184.0
478539,-0.706,0.758,-0.634,19.397,9.809,-7.298,101.0,184.0
478596,-0.818,0.518,-0.460,-61.527,9.206,8.550,105.0,184.0
478651,-0.799,0.278,-0.263,-77.679,6.031,0.366,105.0,165.0
478706,-0.977,0.103,-0.343,21.718,-8.588,7.252,107.0,166.0
478766,-0.942,0.639,-0.488,9.725,12.351,29.511,105.0,187.0
478823,-1.030,0.674,-0.521,6.183,16.672,77.008,103.0,0.0
478923,-0.597,0.874,-0.644,108.366,81.893,182.893,113.0,0.0
478982,-0.358,0.725,-0.504,44.634,65.282,150.328,112.0,0.0
479039,-0.544,1.431,-0.766,-144.450,36.336,62.817,108.0,0.0
479101,-0.880,0.550,-0.356,-250.137,39.313,49.176,0.0,0.0
479155,-0.304,0.209,0.027,134.038,51.969,164.153,0.0,28.0
479204,0.126,0.561,-0.413,237.733,18.824,78.275,138.0,30.0
479254,-0.201,2.000,-1.239,-110.771,-16.122,-31.244,156.0,32.0
479305,-0.827,0.615,-0.847,-250.137,38.092,-19.985,0.0,36.0
479360,-0.150,-0.317,0.337,181.664,56.328,148.069,0.0,38.0
479410,0.133,1.468,-0.728,228.916,-2.901,45.366,153.0,43.0
479464,0.209,1.788,-1.024,-250.137,-37.443,-110.763,0.0,43.0
479518,-0.618,-0.597,0.741,-250.137,31.191,-32.084,0.0,49.0
479572,-0.182,0.377,0.266,239.382,-1.466,73.107,0.0,50.0
479627,-0.013,0.960,-0.251,250.130,-59.130,31.511,0.0,48.0
479679,0.047,1.393,-0.526,94.656,-73.962,4.061,170.0,50.0
479736,-0.007,1.714,-0.718,-250.137,-12.931,-26.702,0.0,52.0
479792,-0.084,0.969,-0.194,-250.137,45.443,-9.916,0.0,57.0
479847,-0.198,0.541,0.366,-250.137,15.725,6.321,0.0,66.0
479894,-0.058,-0.049,0.884,-206.718,-62.038,4.893,46.0,90.0
479942,0.006,-0.216,0.876,121.374,-114.229,19.443,44.0,91.0
479997,0.129,-0.203,0.428,250.130,-124.244,56.466,0.0,67.0
480052,0.659,0.881,-0.575,250.130,-65.412,95.374,0.0,63.0
480107,0.452,2.000,-0.893,-250.137,50.809,-36.779,0.0,64.0
480158,0.053,-0.071,0.393,-250.137,81.076,-23.733,47.0,91.0
480216,-0.164,-1.489,1.621,233.870,-1.061,0.298,0.0,107.0
480271,0.537,1.115,-0.591,250.130,-33.802,71.710,0.0,61.0
480325,0.578,2.000,-0.428,-250.137,94.313,-98.573,0.0,62.0
480380,-0.194,-1.112,1.304,-204.557,72.290,-57.076,0.0,69.0
480436,-0.278,-0.177,0.315,250.130,-116.702,13.427,0.0,59.0
480491,0.522,2.000,-0.949,147.740,-79.710,20.229,0.0,57.0
480545,0.223,1.155,-0.445,-250.137,134.901,-75.908,0.0,59.0
480601,-0.426,-0.501,1.150,-178.412,52.618,-21.053,0.0,62.0
480659,-0.024,0.139,0.357,250.130,-127.290,53.901,0.0,58.0
480713,0.699,2.000,-0.649,50.412,12.939,8.298,0.0,57.0
480769,-0.096,0.715,0.004,-250.137,130.336,-23.725,0.0,60.0
480816,-0.142,0.070,1.008,-8.298,-3.519,44.618,58.0,63.0
480870,0.274,0.392,0.673,212.374,-109.359,48.038,0.0,61.0
480925,0.626,1.705,-0.300,213.069,-59.504,45.679,0.0,60.0
480980,0.367,1.396,-0.334,-113.031,108.366,44.679,0.0,63.0
481028,0.320,0.847,0.254,-90.886,228.473,79.008,58.0,65.0
481074,-0.095,0.745,0.710,-164.756,129.061,72.794,49.0,67.0
481124,0.136,-0.840,1.312,146.962,-186.710,-19.664,49.0,70.0
481179,0.614,2.000,-0.960,250.130,-98.725,107.855,0.0,63.0
481234,0.216,1.900,-0.847,-250.137,250.130,-2.863,0.0,71.0
481284,-0.854,-1.065,1.050,-250.137,48.809,-39.573,42.0,106.0
481339,-0.361,-1.225,1.380,250.130,-234.260,-12.397,0.0,76.0
481392,1.541,2.000,-1.441,250.130,34.427,72.687,0.0,17.0
481452,0.146,1.298,-0.699,-250.137,250.130,-85.191,0.0,139.0
481508,-0.454,-1.802,2.000,-183.740,-81.878,-17.511,0.0,70.0
481573,0.246,-0.141,-0.380,250.130,-250.137,73.649,0.0,0.0
481676,-0.320,0.341,-0.108,-250.137,207.962,0.824,0.0,119.0
481738,0.490,-1.452,1.772,250.130,-167.122,17.115,0.0,0.0
481802,0.937,2.000,-0.771,173.511,1.710,40.267,0.0,0.0
481858,-0.095,0.164,0.433,-250.137,117.122,-2.313,0.0,78.0
481921,0.331,-0.952,1.254,250.130,-177.809,-0.855,0.0,0.0
481984,1.021,2.000,-0.721,102.221,-40.176,31.031,0.0,0.0
482048,0.440,0.443,0.226,-215.168,150.191,-20.710,0.0,0.0
482110,0.460,-0.362,1.166,104.718,-126.252,8.466,0.0,0.0
482177,1.082,2.000,-0.477,70.382,-69.985,-7.084,0.0,0.0
482237,0.412,0.807,-0.351,-250.137,193.053,-76.924,0.0,143.0
482283,0.011,0.235,0.492,-250.137,154.954,-17.855,37.0,71.0
482339,0.268,-0.504,1.030,-250.137,97.863,-48.183,0.0,73.0
482397,0.258,-0.946,1.296,-121.779,102.183,-69.061,0.0,100.0
482454,0.251,0.216,0.629,-142.664,210.038,-58.252,0.0,95.0
482514,-0.288,-0.815,0.720,-250.137,230.389,-150.290,0.0,161.0
482563,-1.097,-2.000,1.534,250.130,15.634,-250.137,38.0,99.0
482623,-1.968,-1.161,-1.071,250.130,-210.924,-209.221,0.0,98.0
482681,-0.007,2.000,-1.235,-250.137,166.748,43.611,0.0,96.0
482729,0.334,-0.453,-0.481,-250.137,163.740,-66.893,51.0,81.0
482775,-0.593,-2.000,2.000,167.153,-31.206,-144.221,23.0,59.0
482831,-0.672,-0.992,-0.314,250.130,-94.267,-89.107,0.0,90.0
482888,0.017,2.000,-1.202,-197.679,101.237,-26.076,0.0,88.0
482945,-0.041,-1.384,1.212,-250.137,80.847,-133.748,0.0,74.0
483001,-0.422,-1.551,0.907,250.130,-59.412,-43.305,0.0,86.0
483061,-0.428,2.000,-0.658,-250.137,111.031,55.473,0.0,86.0
483118,-0.447,-2.000,1.493,-250.137,-35.511,-171.718,0.0,72.0
483174,0.119,-0.274,0.518,250.130,-35.389,42.298,0.0,84.0
483230,-0.219,2.000,-0.016,-230.076,34.611,4.260,0.0,83.0
483287,-0.170,-1.028,1.000,-250.137,40.527,-47.832,0.0,70.0
483342,-0.183,-0.805,1.383,27.809,34.634,-6.046,0.0,68.0
483399,-0.549,-0.233,0.989,250.130,-74.038,-67.977,0.0,79.0
483456,-0.517,-0.406,0.380,250.130,-145.886,-24.817,0.0,80.0
483511,0.223,2.000,-0.924,198.763,32.878,95.344,0.0,69.0
483571,0.233,1.219,0.047,-250.137,95.542,-3.489,0.0,79.0
483627,-0.524,-0.915,0.871,-250.137,18.053,-5.939,0.0,67.0
483683,-0.262,-1.440,1.841,236.336,-131.481,-26.275,0.0,79.0
483739,0.106,0.779,0.643,250.130,-119.382,73.206,0.0,78.0
483796,0.378,0.979,0.737,140.969,-100.076,62.985,0.0,78.0
483853,0.060,0.899,0.701,-66.328,-81.893,67.374,0.0,77.0
483909,0.165,-0.032,0.970,140.153,-169.198,77.130,0.0,75.0
483968,1.274,0.340,0.227,250.130,-76.191,128.573,0.0,119.0
484030,0.854,1.270,-0.576,87.649,126.092,51.595,0.0,125.0
484086,-0.123,1.260,-0.497,-250.137,97.519,-31.458,0.0,78.0
484143,-0.069,-1.330,0.767,-250.137,-203.435,-43.672,0.0,77.0
484200,1.353,-0.502,0.309,250.130,-136.145,72.908,0.0,78.0
484260,1.107,1.799,-0.555,-34.397,161.931,68.901,0.0,151.0
484317,0.100,0.278,0.103,-250.137,115.786,-5.992,0.0,73.0
484373,0.357,-1.762,1.377,-106.229,-142.886,-92.618,0.0,82.0
484430,1.674,-0.873,0.388,250.130,-63.046,44.489,0.0,80.0
484493,1.409,1.238,-0.818,250.130,194.221,54.885,0.0,179.0
484596,0.326,-0.982,-0.325,-250.137,-23.954,-133.427,0.0,86.0
484654,0.289,-2.000,1.650,250.130,-55.679,-43.023,0.0,87.0
484711,1.147,0.205,-0.806,250.130,60.939,122.031,0.0,91.0
484759,0.598,2.000,-1.052,-250.137,136.947,-12.802,43.0,89.0
484816,0.318,-1.616,-0.137,-250.137,139.672,-28.053,0.0,97.0
484866,0.823,-1.850,1.432,250.130,17.191,113.855,38.0,99.0
484913,0.541,0.857,0.298,208.794,-37.855,19.649,36.0,93.0
484962,0.633,-0.240,0.959,-76.611,-34.779,-19.595,33.0,101.0
485013,0.491,-0.644,1.041,110.588,-23.542,42.260,30.0,103.0
485061,0.502,0.111,0.757,78.328,-16.710,46.427,30.0,97.0
485109,0.498,-0.415,0.973,9.908,-19.069,31.489,28.0,114.0
485168,0.535,-0.419,0.945,75.603,-20.901,27.802,0.0,114.0
485232,0.575,-0.258,0.891,29.412,-15.130,18.885,0.0,112.0
485289,0.573,-0.269,0.900,33.076,-7.870,23.214,0.0,117.0
485347,0.505,-0.259,0.903,7.763,-2.885,23.824,0.0,116.0
485405,0.485,-0.216,0.857,7.046,-0.015,21.053,0.0,115.0
485463,0.492,-0.232,0.857,8.053,-3.893,8.756,0.0,116.0
485523,0.497,-0.180,0.842,2.947,-4.115,5.542,0.0,115.0
485580,0.509,-0.179,0.857,1.939,-4.557,4.336,0.0,117.0
485639,0.531,-0.207,0.840,0.725,-3.176,2.756,0.0,118.0
485696,0.555,-0.171,0.817,-0.977,1.099,0.786,0.0,119.0
485754,0.547,-0.191,0.835,0.893,3.282,-1.611,0.0,117.0
485812,0.530,-0.165,0.861,-1.733,2.015,-1.977,0.0,115.0
485869,0.531,-0.139,0.841,0.137,-0.374,-2.084,0.0,115.0
485927,0.549,-0.149,0.849,4.145,-0.786,-1.122,0.0,115.0
485985,0.539,-0.145,0.827,-3.473,0.061,1.504,0.0,115.0
486045,0.531,-0.175,0.853,3.580,2.015,0.840,0.0,115.0
486103,0.536,-0.165,0.852,0.351,2.473,-0.115,0.0,115.0
486164,0.504,-0.192,0.855,10.061,2.794,0.969,0.0,168.0
486224,0.403,-0.535,1.150,126.954,6.702,3.092,0.0,167.0
486282,0.193,-1.184,0.942,250.130,-0.412,78.496,0.0,103.0
486328,0.677,0.508,-0.624,250.130,-19.496,160.565,31.0,82.0
486390,0.831,1.908,-0.568,162.649,-61.687,81.382,0.0,0.0
486446,1.126,1.038,-1.364,-250.137,34.725,-164.397,0.0,78.0
486504,0.318,-1.846,0.995,-250.137,60.557,-130.130,0.0,110.0
486564,0.567,-0.786,0.723,250.130,9.191,33.763,0.0,110.0
486610,0.486,0.845,0.103,250.130,-55.809,-29.931,30.0,78.0
486658,0.653,0.908,0.453,22.634,-88.099,-124.351,31.0,105.0
486706,0.341,0.584,0.744,96.450,-67.588,-121.870,43.0,101.0
486763,0.446,1.093,0.285,94.008,-36.649,-38.412,0.0,102.0
486810,0.606,0.938,0.306,-55.855,-7.031,-46.809,48.0,83.0
486859,0.556,0.497,0.424,-102.832,-21.626,-104.359,45.0,115.0
486908,0.134,2.000,-0.102,-196.832,-1.977,-101.115,47.0,113.0
486961,0.338,0.438,0.953,-169.725,61.008,59.740,51.0,105.0
487018,0.697,0.394,0.863,15.573,131.542,116.290,0.0,105.0
487075,0.206,0.317,0.825,-101.389,15.985,27.786,0.0,116.0
487123,0.441,-0.519,1.156,123.542,-145.847,-89.916,37.0,105.0
487172,0.563,1.065,0.037,250.130,-93.656,-7.931,40.0,104.0
487221,0.560,1.326,0.027,-17.214,138.962,18.977,45.0,115.0
487268,0.156,0.802,0.653,-118.962,191.924,1.206,46.0,72.0
487360,0.168,-0.219,1.099,92.550,-212.420,-70.626,47.0,114.0
487407,0.607,0.781,0.066,250.130,-169.382,-43.397,48.0,69.0
487464,0.796,1.416,0.011,-7.679,188.244,-58.481,0.0,67.0
487521,-0.442,0.729,0.334,-238.939,151.847,-25.031,0.0,68.0
487576,-0.088,-0.354,1.305,147.809,-192.313,-71.198,0.0,67.0
487622,0.919,2.000,-0.260,250.130,-50.595,42.405,53.0,63.0
487677,0.463,1.646,-0.040,-192.000,228.290,-8.634,0.0,63.0
487727,-0.444,0.314,0.561,-250.137,61.489,-11.321,46.0,112.0
487774,0.011,-0.668,1.386,223.947,-213.412,-48.588,50.0,68.0
487828,0.917,1.347,-0.385,250.130,-101.794,63.229,0.0,63.0
487886,0.330,1.780,-0.175,-250.137,250.130,-38.466,0.0,64.0
487945,-0.752,0.057,0.604,-250.137,-26.771,-31.573,0.0,108.0
488000,0.225,-0.223,0.510,250.130,-250.137,15.405,0.0,66.0
488047,1.231,1.879,-0.340,73.947,135.160,22.160,58.0,65.0
488102,-0.088,1.477,-0.023,-250.137,211.023,-51.450,0.0,67.0
488152,-0.334,-0.481,0.988,-124.466,-137.565,-52.130,51.0,109.0
488199,0.359,0.352,0.534,250.130,-180.779,4.191,51.0,69.0
488246,0.817,1.522,-0.180,38.023,31.733,-17.687,58.0,66.0
488301,0.378,1.055,-0.007,-250.137,160.107,-116.198,0.0,66.0
488360,-0.106,0.131,0.637,-250.137,115.221,-114.931,0.0,92.0
488418,-0.071,0.008,1.049,-34.756,44.420,-130.092,0.0,90.0
488474,-0.208,0.416,0.818,132.901,18.198,-121.183,0.0,83.0
488521,-0.268,0.832,0.653,128.069,31.282,-105.947,37.0,87.0
488577,-0.352,0.851,0.509,91.321,41.405,-99.427,0.0,60.0
488632,-0.491,0.779,0.595,-1.588,4.038,-131.183,0.0,57.0
488688,-0.425,0.704,0.627,72.122,26.321,-109.519,0.0,94.0
488745,-0.666,1.074,0.313,-127.527,110.321,-68.534,0.0,93.0
488805,-0.866,-0.024,0.721,-171.557,35.198,-90.107,0.0,85.0
488868,-0.922,-1.272,0.852,250.130,-106.687,-122.527,0.0,0.0
488927,-0.707,1.733,-2.000,250.130,-6.481,22.931,114.0,0.0
488984,-0.644,1.399,-1.826,-250.137,105.229,-98.748,111.0,0.0
489033,-1.088,-2.000,1.261,-250.137,-2.031,-111.901,55.0,84.0
489086,-0.779,-0.832,0.323,250.130,-26.771,14.870,57.0,170.0
489138,-0.754,2.000,-1.276,125.916,41.649,49.305,113.0,74.0
489192,-0.717,0.498,-0.388,-250.137,53.611,-54.069,57.0,190.0
489246,-0.938,-1.992,1.422,122.771,-50.084,-18.702,56.0,0.0
489307,-0.701,1.740,-0.499,250.130,-5.771,67.252,111.0,170.0
489362,-0.758,0.549,0.233,-250.137,9.328,-29.656,58.0,0.0
489416,-0.802,-0.409,0.669,106.840,-22.626,8.527,59.0,0.0
489473,-0.672,0.918,0.096,141.038,-2.298,13.183,111.0,170.0
489530,-0.695,0.531,0.307,-40.618,26.870,-16.359,111.0,170.0
489585,-0.813,0.199,0.438,73.427,10.260,-13.435,59.0,0.0
489635,-0.782,0.516,0.154,129.221,15.290,-10.794,111.0,73.0
489687,-0.786,0.679,0.015,56.481,28.733,-25.725,111.0,73.0
489740,-0.801,0.675,0.001,-60.977,47.244,-32.435,113.0,71.0
489788,-0.891,0.612,0.070,-144.626,64.618,-37.053,57.0,73.0
489841,-0.938,0.469,0.162,-198.260,66.351,-31.450,55.0,167.0
489893,-0.994,0.268,0.310,-197.664,54.718,-10.832,17.0,0.0
489951,-1.068,0.119,0.450,-135.092,29.130,12.160,16.0,0.0
489997,-0.924,0.118,0.485,-27.145,5.145,24.405,14.0,94.0
490087,-0.847,0.293,0.285,56.840,-16.305,8.908,15.0,97.0
490134,-0.867,0.371,0.184,66.916,-18.626,0.977,17.0,98.0
490186,-0.881,0.426,0.120,55.679,-14.389,-6.084,17.0,0.0
490243,-0.885,0.442,0.096,23.710,-0.779,-4.321,16.0,0.0
490299,-0.879,0.435,0.106,-17.962,10.305,0.924,17.0,0.0
490346,-0.878,0.375,0.177,-34.748,18.382,4.076,17.0,97.0
490392,-0.876,0.364,0.206,-30.443,21.298,2.420,14.0,98.0
490445,-0.897,0.380,0.214,-27.405,20.885,-1.198,14.0,0.0
490502,-0.917,0.382,0.232,-28.748,16.893,-5.466,15.0,0.0
490548,-0.951,0.345,0.261,-27.656,10.573,-2.023,13.0,98.0
490595,-0.953,0.327,0.257,-16.252,3.756,1.206,12.0,97.0
490641,-0.936,0.324,0.247,-2.771,-2.389,5.511,12.0,97.0
490691,-0.916,0.344,0.218,6.527,-6.435,5.901,13.0,97.0
490737,-0.891,0.350,0.204,8.542,-7.359,5.733,11.0,97.0
490784,-0.889,0.367,0.173,8.557,-5.756,2.031,11.0,98.0
490830,-0.874,0.364,0.169,3.412,-4.023,0.427,13.0,98.0
490877,-0.887,0.371,0.176,0.947,-1.145,-1.962,13.0,98.0
490924,-0.896,0.365,0.172,-1.298,1.893,-4.092,12.0,98.0
490971,-0.899,0.368,0.193,-3.908,3.160,-4.069,12.0,98.0
491017,-0.896,0.365,0.211,-3.122,3.542,-3.824,12.0,97.0
491064,-0.907,0.361,0.222,-2.519,2.557,-2.908,13.0,97.0
491114,-0.916,0.363,0.212,0.458,0.840,-2.053,13.0,97.0
491160,-0.905,0.367,0.209,1.046,-0.756,-0.145,13.0,97.0
491207,-0.920,0.369,0.203,0.740,-1.412,-0.359,13.0,97.0
491253,-0.897,0.362,0.193,-0.908,-2.214,1.626,13.0,97.0
491300,-0.900,0.357,0.191,0.870,-1.198,2.076,13.0,97.0
491346,-0.898,0.367,0.180,-1.092,-0.153,0.901,12.0,97.0
491394,-0.890,0.360,0.192,-2.992,0.626,2.359,12.0,98.0
491440,-0.904,0.360,0.182,-1.229,1.252,0.863,12.0,97.0
491487,-0.894,0.357,0.204,-3.382,1.252,0.664,14.0,97.0
491537,-0.914,0.355,0.202,-1.435,0.931,-0.908,12.0,97.0
491583,-0.897,0.355,0.196,-1.718,0.321,-0.244,12.0,97.0
491630,-0.912,0.359,0.200,-0.298,-0.046,-1.099,12.0,97.0
491677,-0.908,0.359,0.197,-0.542,-0.550,-1.069,14.0,98.0
491723,-0.910,0.353,0.198,0.305,-0.626,-0.053,12.0,97.0
491770,-0.897,0.362,0.196,0.366,-0.298,-0.237,12.0,97.0
491817,-0.895,0.364,0.200,-1.489,0.099,-0.725,12.0,97.0
491864,-0.908,0.365,0.196,-0.901,0.672,-2.107,12.0,97.0
491911,-0.889,0.358,0.198,-2.000,0.534,0.260,12.0,97.0
491965,-0.906,0.367,0.202,0.763,0.344,-0.176,12.0,97.0
492011,-0.891,0.364,0.191,-1.527,0.107,0.336,12.0,97.0
492056,-0.911,0.365,0.188,-1.191,0.145,-0.466,12.0,97.0
492102,-0.888,0.351,0.201,-1.855,-0.504,0.916,12.0,97.0
492148,-0.909,0.356,0.186,0.756,0.084,0.244,12.0,97.0
492193,-0.900,0.360,0.193,-2.710,-0.038,0.038,12.0,97.0
492239,-0.907,0.353,0.202,-0.672,0.344,-0.221,12.0,97.0
492285,-0.908,0.364,0.192,-0.870,0.084,-0.565,12.0,98.0
492331,-0.899,0.356,0.204,-1.603,0.183,0.275,12.0,97.0
492380,-0.917,0.365,0.190,-0.366,-0.183,-0.466,12.0,97.0
492425,-0.900,0.350,0.204,-1.305,-0.053,0.756,14.0,97.0
492515,-0.895,0.359,0.204,-0.916,-0.626,0.290,12.0,97.0
492560,-0.911,0.358,0.201,0.244,-0.305,-0.611,12.0,97.0
492606,-0.900,0.353,0.186,-1.298,-0.504,0.489,12.0,97.0
492652,-0.894,0.360,0.203,-0.733,-0.389,0.542,12.0,97.0
492698,-0.904,0.361,0.197,-0.069,-0.534,-0.321,12.0,97.0
492743,-0.893,0.354,0.200,-0.641,-0.275,1.092,12.0,98.0
492789,-0.912,0.368,0.195,-0.298,0.198,-0.794,12.0,97.0
492838,-0.897,0.354,0.203,-2.237,0.137,0.611,12.0,97.0
492884,-0.907,0.355,0.206,0.092,-0.672,1.221,12.0,97.0
492930,-0.902,0.372,0.211,0.221,-1.321,-0.145,12.0,97.0
492976,-0.925,0.365,0.256,-4.962,-3.099,2.344,12.0,98.0
493022,-0.958,0.377,0.305,-3.733,-8.718,9.718,12.0,98.0
493066,-0.968,0.393,0.334,9.176,-17.649,22.695,14.0,60.0
493112,-0.959,0.446,0.292,21.695,-24.206,32.794,13.0,96.0
493158,-0.815,0.562,0.229,3.954,-13.313,33.099,18.0,99.0
493220,-0.850,0.560,0.203,-54.710,-5.481,37.832,0.0,0.0
493281,-0.983,-0.188,0.668,160.298,-129.252,49.481,0.0,100.0
493343,-0.690,-0.309,-0.015,250.130,-211.244,119.550,0.0,0.0
493392,0.066,2.000,-1.554,-28.893,134.840,88.740,111.0,52.0
493450,-1.295,0.820,-0.895,-250.137,140.954,55.084,0.0,100.0
493504,-0.677,-1.767,1.812,205.496,-202.603,127.511,0.0,48.0
493556,0.648,0.273,-1.863,250.130,-85.672,250.130,161.0,48.0
493608,0.439,2.000,-1.565,-250.137,250.107,14.863,161.0,51.0
493663,-1.084,-0.164,-0.770,-250.137,103.718,54.351,0.0,59.0
493721,0.328,-1.047,0.197,250.130,-232.985,220.153,0.0,63.0
493776,1.259,2.000,-0.891,-16.107,198.336,48.603,0.0,66.0
493824,-0.491,0.788,-0.719,-250.137,129.908,-17.718,47.0,71.0
493873,-0.083,-1.316,1.043,-23.115,-250.137,34.710,43.0,118.0
493919,2.000,2.000,0.015,250.130,147.947,93.267,44.0,76.0
493976,-0.387,2.000,-0.717,-250.137,250.130,-11.076,0.0,97.0
494025,0.192,-2.000,1.609,-53.237,-247.046,-113.031,40.0,125.0
494080,2.000,0.233,0.279,250.130,91.824,106.290,40.0,0.0
494139,-1.272,0.933,0.140,110.519,-28.084,-9.435,0.0,90.0
494201,0.506,-1.566,-0.715,250.130,-177.450,163.092,0.0,0.0
494256,1.109,1.850,-0.974,-250.137,125.481,-193.053,167.0,82.0
494313,-0.103,1.179,-1.396,-250.137,23.198,-118.359,0.0,98.0
494370,0.260,-2.000,1.929,-52.405,-116.145,-79.740,0.0,97.0
494427,1.488,1.282,-0.587,250.130,185.015,22.618,0.0,76.0
494484,-0.126,0.686,-0.651,-250.137,-31.939,-97.000,0.0,102.0
494540,2.000,-0.091,-0.094,250.130,-98.908,90.298,0.0,76.0
494596,-0.211,2.000,-0.790,-233.649,188.336,-53.099,0.0,75.0
494655,0.351,-0.885,1.347,250.130,-189.221,15.985,0.0,71.0
494707,0.531,1.259,-1.311,250.130,48.321,43.794,0.0,20.0
494764,0.795,1.624,-0.289,81.366,-30.351,0.450,0.0,16.0
494813,0.573,1.238,-0.387,-19.008,-29.321,21.977,148.0,16.0
494862,0.429,0.672,-0.464,-148.496,4.344,-88.969,150.0,16.0
494915,0.335,0.912,-0.604,-135.023,97.771,-66.855,0.0,16.0
494970,1.451,0.825,0.358,-136.321,108.641,-83.847,0.0,60.0
495025,-1.110,-0.503,0.359,13.336,-114.886,13.641,0.0,61.0
495088,1.107,1.779,-0.934,250.130,-151.244,91.664,156.0,0.0