Timestamp(ms),AccelX(g),AccelY(g),AccelZ(g),GyroX(deg/s),GyroY(deg/s),GyroZ(deg/s),DistanceLeft(cm),DistanceRight(cm)
146452,0.357,0.617,0.540,250.130,-43.443,-115.092,0.0,83.0
146506,0.113,1.068,-0.148,-250.137,21.008,59.122,0.0,64.0
146552,0.887,-0.868,1.431,59.313,9.344,-56.626,36.0,63.0
146608,-0.230,2.000,-0.721,124.947,-5.206,-70.061,0.0,87.0
146656,0.994,-0.754,0.856,-217.008,36.290,-41.466,33.0,62.0
146702,0.341,0.375,0.434,100.824,106.191,-250.137,37.0,73.0
146748,-0.442,2.000,-0.488,-250.137,107.321,-250.137,39.0,69.0
146794,-0.158,0.229,0.616,-250.137,23.740,-103.214,39.0,78.0
146850,0.450,-0.482,1.580,-247.595,37.649,-180.725,0.0,75.0
146906,-0.421,-0.340,0.958,207.382,72.267,-24.931,0.0,74.0
146961,-0.292,-0.180,0.907,250.130,-14.061,-30.656,0.0,73.0
147017,0.602,2.000,-0.898,98.832,151.794,-50.870,192.0,91.0
147073,-1.150,0.416,0.325,-250.137,170.099,-35.214,0.0,73.0
147131,-0.802,-2.000,1.559,250.130,-159.969,-96.756,0.0,71.0
147186,0.803,2.000,-0.812,250.130,117.702,74.557,194.0,74.0
147241,-1.274,1.016,0.276,-250.137,108.565,-14.794,0.0,73.0
147297,-0.598,-1.644,1.395,250.130,-169.229,-107.504,0.0,72.0
147352,0.931,1.236,0.125,250.130,179.573,22.389,197.0,72.0
147408,-1.436,0.974,-0.021,-250.137,23.374,-90.366,0.0,71.0
147459,-0.017,-1.173,1.251,250.130,-110.511,-37.183,115.0,70.0
147514,-0.130,2.000,-0.628,60.145,213.351,12.504,198.0,71.0
147572,-1.280,0.011,-0.307,-250.137,-11.908,-74.939,0.0,70.0
147622,-0.306,-1.270,1.342,250.130,-83.817,-36.374,112.0,70.0
147678,-0.388,1.583,-0.431,70.481,166.679,72.748,0.0,70.0
147734,-1.421,0.244,0.158,-250.137,-41.176,-61.252,0.0,71.0
147784,-0.134,-0.785,1.363,250.130,-24.962,-40.733,113.0,70.0
147835,-1.230,1.203,-0.360,-126.733,185.809,58.420,131.0,70.0
147880,-1.146,-0.414,0.690,-250.137,-75.237,-132.740,20.0,71.0
147931,-0.407,-1.249,1.155,250.130,-79.031,-61.481,112.0,69.0
147980,-0.864,1.900,-0.455,-178.916,177.954,66.198,22.0,69.0
148035,-0.940,0.070,0.309,-250.137,15.145,-119.618,0.0,70.0
148090,-0.833,-1.927,1.126,250.130,-83.382,-85.511,0.0,68.0
148141,-0.550,1.969,-0.761,-62.153,155.634,97.084,115.0,68.0
148184,-0.760,-0.197,0.477,-250.137,30.634,-105.725,18.0,39.0
148228,-0.914,-1.986,1.252,169.092,-76.237,-117.824,19.0,37.0
148273,-0.199,0.548,0.167,250.130,60.969,81.405,18.0,69.0
148317,-1.136,1.520,-0.096,-250.137,81.908,53.855,19.0,69.0
148362,-1.101,-1.788,0.966,-177.908,-29.878,-115.076,17.0,72.0
148410,-0.894,-1.081,0.418,250.130,-54.611,2.313,18.0,70.0
148455,-0.446,2.000,-0.674,54.252,88.603,90.000,20.0,69.0
148500,-0.707,0.110,0.322,-250.137,62.496,-35.847,16.0,71.0
148543,-1.045,-2.000,1.436,180.802,-65.015,-92.443,16.0,39.0
148588,-0.588,0.383,0.191,250.130,-5.473,49.695,19.0,69.0
148633,-0.927,1.741,-0.191,-250.137,76.878,60.443,21.0,69.0
148678,-1.083,-0.727,0.584,-250.137,16.931,-52.366,19.0,71.0
148723,-0.860,-1.173,0.968,212.496,-44.695,-9.756,16.0,70.0
148771,-0.558,0.562,0.065,208.336,54.611,79.107,17.0,69.0
148816,-0.768,0.668,0.351,-116.229,72.031,29.183,17.0,69.0
148861,-0.883,-0.550,0.747,-85.702,-31.679,-67.336,23.0,69.0
148917,-0.653,-0.496,0.765,241.443,-47.695,-86.939,0.0,66.0
149006,-1.413,0.050,0.241,-250.137,49.351,-31.985,19.0,65.0
149052,-1.530,-2.000,1.424,-98.229,-59.534,-34.924,33.0,67.0
149097,-1.112,-0.956,0.840,250.130,-153.420,-1.214,24.0,63.0
149142,-1.007,0.308,0.058,250.130,-217.824,11.015,31.0,59.0
149200,-0.151,2.000,0.070,-21.840,-132.382,11.053,0.0,57.0
149245,-0.689,0.098,0.215,-250.137,30.115,27.511,36.0,58.0
149292,-0.400,-1.620,1.115,-250.137,-44.321,-63.939,36.0,62.0
149338,-0.568,-2.000,1.637,30.977,-131.397,-202.473,37.0,63.0
149384,-0.978,-0.714,0.579,250.130,-243.618,-200.664,45.0,59.0
149438,-0.757,0.034,-0.059,250.130,-250.137,-126.641,0.0,55.0
149493,0.894,1.844,-0.252,-48.328,-67.985,40.916,0.0,56.0
149540,-0.108,0.279,0.048,-250.137,85.122,88.023,57.0,61.0
149587,-0.240,-2.000,1.167,-244.985,-126.053,-40.038,55.0,67.0
149646,-0.086,-1.582,0.617,250.130,-247.603,-89.969,0.0,65.0
149695,1.657,1.143,-0.129,250.130,47.748,138.878,79.0,64.0
149743,0.248,0.858,0.127,-250.137,154.489,102.107,77.0,68.0
149791,-0.222,-1.748,0.487,-250.137,-111.840,-154.847,59.0,74.0
149839,0.329,-2.000,1.073,250.130,-215.481,-159.519,71.0,72.0
149888,1.609,0.590,-0.490,250.130,34.824,84.046,67.0,69.0
149943,-0.108,1.812,-0.399,-218.153,170.565,57.908,0.0,71.0
149991,-0.608,-1.306,0.567,-250.137,-120.855,-42.305,60.0,77.0
150043,1.241,-2.000,0.717,250.130,-196.664,23.939,60.0,76.0
150091,1.350,-0.079,-0.931,250.130,-46.412,52.756,71.0,73.0
150137,-0.429,2.000,-0.485,-204.954,-19.939,-31.863,31.0,73.0
150187,0.397,-1.929,0.295,-250.137,-81.412,119.397,76.0,76.0
150243,1.688,-2.000,0.591,250.130,-85.405,60.344,0.0,77.0
150289,-0.073,0.826,0.444,250.130,-71.565,-104.725,30.0,77.0
150338,0.744,0.637,0.419,-143.756,-86.122,146.962,29.0,124.0
150387,1.753,-2.000,0.861,-50.458,-51.969,95.214,30.0,126.0
150439,0.082,0.246,0.855,250.130,52.328,-138.611,30.0,122.0
150489,0.197,0.600,0.486,-126.405,-10.924,81.870,29.0,126.0
150538,1.397,-1.674,1.063,-55.855,-14.611,51.198,30.0,127.0
150587,-0.347,0.709,0.518,168.489,6.557,-60.435,30.0,127.0
150637,0.796,-0.239,0.607,-173.527,-24.725,121.298,36.0,127.0
150696,1.906,-1.985,0.807,89.557,16.611,-8.916,0.0,127.0
150746,-0.799,1.671,-0.294,215.168,11.000,-75.695,29.0,125.0
150795,1.133,-0.629,0.296,-233.366,-31.771,137.084,28.0,127.0
150854,2.000,-1.394,0.570,123.496,44.275,-57.855,0.0,126.0
150906,-1.057,1.577,-0.640,-11.618,15.366,-75.740,30.0,124.0
150956,1.832,-1.234,0.430,-239.763,42.817,132.435,29.0,126.0
151005,2.000,-0.819,0.293,250.130,250.130,3.733,30.0,127.0
151055,-0.720,1.549,-0.017,-230.641,250.130,-158.908,31.0,126.0
151115,-1.236,-0.729,0.444,-250.137,-47.641,-2.992,0.0,155.0
151176,1.712,-2.000,0.862,250.130,-3.260,46.359,0.0,144.0
151235,-0.200,1.338,-0.153,-250.137,178.336,-1.771,0.0,131.0
151288,-0.249,-2.000,1.821,-32.626,-157.115,-250.137,70.0,153.0
151349,0.597,-1.241,-0.591,250.130,-135.038,-49.366,0.0,84.0
151398,0.368,2.000,-1.676,-164.977,193.870,35.237,36.0,120.0
151459,-0.302,-0.169,-1.539,-250.137,137.794,-24.863,0.0,161.0
151517,0.047,-2.000,1.613,250.130,-118.794,-78.473,0.0,88.0
151620,0.178,0.839,-0.406,-250.137,142.237,20.893,0.0,136.0
151682,0.002,-2.000,1.562,96.733,-102.496,-150.580,0.0,164.0
151739,1.404,0.840,-0.479,250.130,50.870,49.466,0.0,86.0
151795,0.175,0.010,0.262,-250.137,99.588,22.634,0.0,89.0
151861,-0.032,-2.000,1.098,250.130,-102.313,-130.786,0.0,83.0
151918,-0.028,-1.511,-0.664,250.130,-124.359,-39.985,0.0,120.0
151964,1.388,2.000,-1.119,132.618,139.550,-45.679,46.0,57.0
152019,0.386,0.836,-0.867,-250.137,250.130,-250.137,0.0,77.0
152075,-1.400,-1.685,1.064,-250.137,167.542,-62.954,0.0,76.0
152130,-0.201,-1.353,1.192,250.130,-89.603,-45.282,0.0,72.0
152178,1.513,1.328,-0.253,250.130,44.794,-48.954,45.0,108.0
152225,0.594,1.730,-0.132,-199.992,250.130,-218.443,51.0,74.0
152281,-0.511,0.022,0.672,-250.137,250.130,-205.992,0.0,69.0
152334,-1.021,-2.000,2.000,250.130,-28.244,-146.168,131.0,67.0
152389,0.018,-0.404,-0.449,250.130,2.382,-34.496,197.0,61.0
152440,-0.190,2.000,-0.785,-132.099,72.221,-196.542,126.0,83.0
152491,-0.547,0.156,-2.000,-250.137,222.168,-250.137,115.0,64.0
152535,-1.527,-2.000,2.000,-249.023,-26.557,-197.206,19.0,66.0
152580,-0.828,-1.672,0.334,250.130,5.618,22.176,24.0,63.0
152627,-0.673,2.000,-1.630,250.130,127.260,83.756,66.0,63.0
152672,-1.157,1.526,-0.949,-250.137,124.237,-12.603,30.0,63.0
152719,-1.093,-2.000,0.447,-250.137,-24.962,-132.641,18.0,60.0
152763,-0.823,-1.748,1.034,250.130,-74.366,-26.603,21.0,64.0
152808,-0.469,1.679,-0.692,250.130,48.947,81.756,26.0,63.0
152852,-1.179,1.210,-0.704,-250.137,92.038,42.427,21.0,58.0
152895,-0.820,-1.898,0.550,-250.137,27.863,-73.733,18.0,36.0
152937,-0.971,-2.000,1.142,250.130,-75.153,-69.626,18.0,34.0
152982,-0.561,0.250,-0.325,250.130,-24.046,26.023,21.0,65.0
153027,-1.006,2.000,-0.943,-250.137,111.137,42.763,23.0,65.0
153074,-0.977,-1.336,0.292,-250.137,61.076,-39.290,19.0,57.0
153118,-0.906,-2.000,1.250,250.130,-71.962,-70.298,21.0,57.0
153162,-0.341,0.640,-0.126,250.130,24.527,65.947,19.0,67.0
153205,-1.359,1.523,-0.674,-250.137,77.779,71.405,18.0,36.0
153249,-0.574,-1.140,0.566,-250.137,32.542,-23.588,19.0,57.0
153293,-0.802,-1.960,1.160,250.130,-68.412,-82.947,17.0,60.0
153338,-0.952,-0.003,-0.280,250.130,-68.489,-8.115,18.0,67.0
153382,-0.837,1.925,-0.877,-250.137,68.740,64.092,18.0,68.0
153431,-1.122,-0.764,0.502,-250.137,62.908,34.718,16.0,72.0
153477,-0.898,-2.000,1.192,250.130,-97.305,-94.244,31.0,73.0
153521,-1.833,-0.393,-0.665,250.130,-159.855,-106.191,21.0,68.0
153572,0.926,2.000,-0.772,209.504,80.947,20.137,113.0,67.0
153616,-1.297,0.312,-0.532,-250.137,159.084,83.588,18.0,70.0
153661,0.376,-2.000,1.733,-88.427,-119.420,-133.443,17.0,72.0
153706,-0.651,-0.819,0.422,250.130,-145.641,-115.443,20.0,67.0
153751,-1.265,2.000,-0.987,97.229,24.626,58.053,25.0,66.0
153796,-0.785,0.118,-0.034,-250.137,23.130,81.557,22.0,67.0
153843,-0.061,-2.000,1.813,68.847,-19.618,-165.863,20.0,68.0
153888,-2.000,0.545,-0.292,250.130,42.786,16.244,23.0,64.0
153933,-0.432,1.630,-0.206,-250.137,83.580,177.351,24.0,66.0
153978,-0.140,-0.981,0.813,-250.137,133.824,12.252,19.0,68.0
154066,-0.966,0.553,-0.003,-27.588,141.580,57.511,20.0,62.0
154112,-1.282,0.610,0.127,-250.137,122.947,19.626,19.0,67.0
154156,-0.405,-2.000,1.391,-2.962,-2.595,-52.534,20.0,57.0
154200,-0.907,-0.764,0.407,250.130,-43.580,-93.069,22.0,59.0
154248,-1.791,1.809,-0.818,250.130,-112.290,14.115,26.0,61.0
154293,-0.134,-0.202,0.385,-236.389,56.847,202.397,27.0,65.0
154338,-0.709,-0.280,0.591,-88.649,16.137,29.687,18.0,67.0
154383,-1.106,-1.698,1.036,201.260,-120.954,-36.763,19.0,68.0
154428,-0.699,-0.223,0.629,250.130,-100.191,56.389,19.0,68.0
154473,-1.355,1.057,0.301,134.954,-97.649,54.504,21.0,68.0
154518,-1.219,0.204,0.972,-80.130,-123.298,50.931,19.0,69.0
154573,-1.106,0.182,1.137,-91.863,-165.443,81.344,0.0,71.0
154632,-0.549,0.150,1.021,-220.527,-221.229,97.198,0.0,74.0
154688,-0.082,-0.748,1.058,-198.924,-250.137,61.107,0.0,77.0
154744,0.189,-0.967,0.863,-8.214,-250.137,-25.084,0.0,77.0
154790,0.235,-1.040,0.758,249.038,-250.137,-97.725,30.0,74.0
154839,0.420,-0.420,0.757,250.130,-155.145,22.473,29.0,119.0
154885,0.892,2.000,-1.109,122.580,87.641,184.786,39.0,61.0
154931,0.540,0.676,0.261,-250.137,115.405,169.252,35.0,77.0
154989,0.609,-0.357,0.246,-250.137,-18.237,6.595,0.0,126.0
155035,0.057,-2.000,1.930,250.130,-92.023,-157.397,24.0,75.0
155084,0.522,0.884,-0.656,250.130,5.450,140.221,34.0,79.0
155131,1.051,1.388,-0.216,-115.473,71.886,134.702,36.0,76.0
155180,1.271,-0.600,0.229,-250.137,37.550,-173.824,27.0,114.0
155226,-0.552,-1.806,1.906,244.565,-8.176,-127.809,28.0,77.0
155281,0.486,0.072,0.022,250.130,-12.656,200.267,0.0,76.0
155337,1.239,0.916,0.668,-63.145,-66.450,100.542,0.0,76.0
155383,0.890,0.143,0.217,-250.137,-3.985,-216.290,31.0,78.0
155430,-0.874,0.039,0.205,-250.137,15.908,-24.328,37.0,75.0
155479,1.288,-1.337,0.723,-87.908,-13.176,121.863,26.0,76.0
155525,1.728,-1.207,0.583,210.924,20.885,-32.298,24.0,77.0
155571,0.436,-0.368,0.857,230.954,23.069,-164.137,29.0,75.0
155627,-0.139,1.481,-0.098,250.130,34.740,-48.740,0.0,88.0
155683,0.671,1.599,-0.287,-178.656,59.855,136.847,0.0,80.0
155729,1.177,-0.545,-0.243,-250.137,69.191,30.870,26.0,78.0
155786,0.697,-1.978,0.471,-250.137,50.901,-61.626,0.0,81.0
155832,0.625,-1.958,0.961,250.130,-1.878,59.855,25.0,79.0
155880,0.493,-0.277,-0.349,250.130,-32.550,74.618,25.0,116.0
155932,1.105,2.000,-0.526,-250.137,-15.748,36.618,27.0,121.0
155978,0.708,-1.077,0.052,-250.137,44.351,-105.595,25.0,80.0
156035,0.164,-2.000,1.608,123.985,5.603,32.641,0.0,81.0
156084,0.616,0.570,-0.097,250.130,-11.893,97.298,26.0,127.0
156133,0.678,0.264,0.168,-142.740,43.481,9.550,30.0,126.0
156192,0.380,-0.714,0.401,-111.366,143.435,34.901,0.0,131.0
156241,0.302,-0.615,0.265,119.763,250.130,84.519,30.0,129.0
156291,0.071,-0.227,0.022,12.992,250.130,41.588,33.0,128.0
156353,-0.291,-1.084,0.662,-250.137,250.130,-102.160,0.0,126.0
156399,-0.969,-2.000,1.989,250.130,97.282,-217.794,32.0,78.0
156455,-0.837,-1.489,-0.243,250.130,43.939,-44.153,0.0,68.0
156511,-0.250,2.000,-0.769,-234.817,250.130,-18.435,0.0,67.0
156600,-1.016,-2.000,2.000,140.450,19.939,-174.031,26.0,71.0
156646,-1.333,-1.130,-0.723,250.130,-44.893,-72.275,30.0,63.0
156697,0.685,2.000,-1.270,30.450,139.863,33.145,121.0,62.0
156742,-1.187,0.073,-0.506,-250.137,219.725,25.595,25.0,67.0
156791,-0.913,-2.000,1.939,35.191,-14.466,-16.954,20.0,71.0
156836,-0.666,-1.213,0.318,250.130,-62.634,-18.061,21.0,67.0
156888,-0.293,2.000,-0.688,250.130,26.244,38.939,115.0,64.0
156933,-0.970,0.894,-0.554,-250.137,164.771,8.260,20.0,66.0
156978,-1.192,-2.000,0.800,-250.137,54.344,-5.756,18.0,70.0
157023,-0.707,-2.000,1.036,250.130,-43.145,-53.412,18.0,69.0
157068,-0.978,0.615,-0.532,250.130,-61.817,-21.595,21.0,65.0
157114,-0.768,2.000,-0.736,-250.137,67.763,22.641,23.0,65.0
157159,-0.931,-0.947,0.146,-250.137,79.305,28.679,18.0,70.0
157208,-0.623,-2.000,1.497,140.901,-24.550,-17.511,18.0,71.0
157253,-0.973,-1.002,0.066,250.130,-95.366,-73.198,20.0,67.0
157303,-0.796,2.000,-0.758,250.130,-42.252,28.069,113.0,65.0
157349,-1.192,0.722,-0.895,-250.137,119.069,61.366,21.0,68.0
157394,-0.815,-2.000,0.719,-250.137,50.969,19.099,17.0,62.0
157440,-0.758,-2.000,1.065,250.130,-80.893,-88.412,16.0,71.0
157486,-1.161,0.856,-0.797,250.130,-148.084,-34.267,20.0,68.0
157536,0.042,2.000,-0.604,-87.595,96.000,49.405,114.0,68.0
157585,-1.193,-0.147,-0.289,-250.137,144.069,44.351,15.0,73.0
157631,-0.920,-2.000,1.337,-113.137,-29.695,-8.863,13.0,77.0
157676,-1.076,-0.984,0.637,250.130,-86.496,2.405,12.0,75.0
157721,-1.374,1.002,0.329,203.351,-113.290,47.443,15.0,64.0
157767,-1.574,1.050,0.690,-250.137,-184.198,89.260,16.0,75.0
157812,-1.133,-0.612,1.954,-139.489,-250.137,88.779,17.0,78.0
157870,-0.546,-0.211,0.956,96.771,-250.137,168.710,0.0,81.0
157917,0.600,-0.528,0.386,8.336,-250.137,145.328,37.0,85.0
157966,0.943,-0.415,0.369,65.580,-175.557,17.496,34.0,52.0
158012,-0.631,1.081,0.676,115.069,-60.992,-5.496,36.0,57.0
158062,0.205,0.267,0.644,-144.794,14.664,196.107,30.0,57.0
158106,0.428,-0.423,0.683,-183.221,23.725,168.450,23.0,59.0
158151,0.344,-0.845,0.997,28.802,-73.832,-19.305,30.0,79.0
158195,0.168,-0.775,0.687,250.130,-109.267,-61.427,19.0,57.0
158239,1.004,1.790,-0.297,192.756,90.015,15.366,21.0,53.0
158283,0.062,0.941,-0.040,-250.137,226.046,29.763,19.0,57.0
158342,-0.896,-0.053,-0.070,-250.137,133.603,66.267,0.0,132.0
158403,-0.025,-2.000,2.000,22.794,-90.939,-163.702,0.0,134.0
158448,0.504,-1.044,-0.069,250.130,-71.084,-23.649,23.0,75.0
158493,0.907,1.584,-0.375,203.000,96.466,38.740,31.0,56.0
158536,0.124,1.219,0.290,-250.137,113.237,-19.893,20.0,57.0
158595,0.023,-1.981,0.912,-250.137,-34.702,-137.244,0.0,128.0
158641,0.220,-2.000,0.887,250.130,-102.542,-83.084,21.0,85.0
158685,1.040,-0.046,-0.825,250.130,4.672,67.107,22.0,51.0
158729,0.453,2.000,-0.378,-250.137,95.565,-3.702,26.0,51.0
158777,0.305,0.155,-0.268,-250.137,136.901,-109.588,23.0,71.0
158832,-0.169,-2.000,1.682,-250.137,-9.221,-128.496,0.0,86.0
158877,0.343,-0.697,0.523,250.130,-65.237,58.740,22.0,72.0
158921,0.676,1.774,-0.171,34.137,-42.313,52.908,21.0,57.0
159024,0.314,-1.558,0.804,-250.137,16.366,-15.618,0.0,129.0
159082,0.234,-1.675,1.163,250.130,-32.656,-36.405,0.0,125.0
159127,0.556,-0.632,0.303,250.130,-41.534,-6.695,23.0,73.0
159171,0.771,1.746,-0.563,210.908,5.641,20.298,28.0,55.0
159227,0.529,1.432,-0.600,-250.137,109.183,-68.634,0.0,85.0
159289,-0.155,-2.000,1.672,-250.137,48.534,-19.069,0.0,136.0
159345,0.195,-0.945,0.435,250.130,-59.099,-28.092,0.0,83.0
159390,0.746,1.639,-0.304,189.344,19.679,27.794,27.0,71.0
159447,0.320,0.432,0.262,-250.137,120.420,17.053,0.0,85.0
159505,-0.108,-2.000,1.536,-148.382,13.725,-19.389,0.0,124.0
159561,0.174,-1.087,0.830,250.130,-76.374,-33.687,0.0,82.0
159605,0.964,0.530,-0.127,250.130,39.221,71.916,30.0,52.0
159649,0.606,2.000,-0.356,-250.137,142.565,5.832,27.0,52.0
159711,-0.042,-0.635,0.053,-250.137,170.290,-23.015,0.0,122.0
159769,-0.257,-2.000,2.000,145.412,-49.908,-54.046,0.0,125.0
159817,0.451,0.124,0.073,250.130,-89.435,3.298,25.0,116.0
159862,0.667,1.667,-0.033,-169.771,65.779,6.527,26.0,80.0
159919,-0.002,-0.428,0.745,-250.137,127.359,1.908,0.0,87.0
159977,-0.354,-1.320,1.469,153.740,-21.580,-18.992,0.0,118.0
160033,-0.283,0.501,0.452,163.542,-66.542,-34.870,0.0,82.0
160090,0.032,-0.097,0.507,81.527,29.725,-9.901,0.0,83.0
160138,0.394,-0.379,0.331,156.733,191.641,-15.542,30.0,117.0
160187,0.535,-0.151,0.384,172.420,250.130,-124.229,33.0,77.0
160242,-0.470,0.992,0.303,-106.893,250.130,-221.481,0.0,73.0
160297,-1.732,-0.309,0.921,-250.137,149.786,-132.191,0.0,73.0
160353,-0.399,-1.555,1.620,250.130,35.038,-5.840,0.0,71.0
160398,-0.190,0.854,-0.262,250.130,160.496,17.947,22.0,68.0
160443,-1.446,2.000,-1.103,-250.137,201.122,-61.237,23.0,69.0
160488,-1.103,-1.782,-0.321,-250.137,76.053,-76.687,16.0,73.0
160533,-0.778,-2.000,1.621,250.130,-47.748,-109.252,16.0,72.0
160591,-1.073,0.784,-0.776,250.130,-23.099,17.290,0.0,68.0
160636,-1.524,1.539,-0.931,-250.137,80.374,83.076,17.0,65.0
160681,-0.252,-2.000,1.271,-250.137,5.496,-71.076,19.0,74.0
160727,-0.837,-1.606,0.914,250.130,-45.099,-68.947,16.0,71.0
160772,-1.278,1.972,-0.668,250.130,-18.595,38.672,20.0,69.0
160817,-1.065,0.883,-0.388,-250.137,37.962,92.733,16.0,71.0
160862,-0.306,-1.441,0.916,-250.137,49.725,-8.344,16.0,74.0
160906,-1.090,-1.411,0.877,250.130,-13.763,-110.153,15.0,72.0
160954,-1.144,0.895,-0.529,250.130,-18.405,24.351,18.0,69.0
160999,-0.731,1.433,-0.429,-250.137,142.977,117.466,17.0,67.0
161044,-0.847,-0.112,0.116,-250.137,163.656,58.137,19.0,62.0
161088,-0.740,-2.000,1.277,4.542,-22.191,-112.756,12.0,61.0
161133,-1.218,-1.002,0.188,250.130,-128.977,-146.473,16.0,65.0
161178,-0.630,2.000,-0.813,250.130,32.534,17.702,17.0,69.0
161222,-1.410,0.844,-0.499,-250.137,110.611,52.061,16.0,65.0
161266,-0.662,-2.000,1.281,-250.137,-26.542,-81.206,12.0,61.0
161311,-1.003,-1.698,0.656,250.130,-84.794,-113.985,18.0,71.0
161359,-0.532,2.000,-0.860,250.130,92.115,72.198,16.0,68.0
161404,-1.624,0.818,-0.838,-250.137,120.099,90.359,16.0,64.0
161448,-0.591,-2.000,0.959,-250.137,-9.664,-92.565,13.0,58.0
161537,-0.881,0.941,-0.925,250.130,-9.924,47.969,18.0,68.0
161582,-1.106,1.451,-0.814,-250.137,66.366,65.939,18.0,69.0
161627,-0.379,-1.125,0.448,-250.137,69.718,-57.221,16.0,57.0
161671,-0.771,-2.000,1.240,182.389,-12.565,-97.344,16.0,57.0
161715,-1.474,0.521,-0.183,250.130,-60.244,-65.252,17.0,62.0
161772,-0.611,0.896,-0.130,-250.137,34.824,64.954,16.0,70.0
161817,-1.180,-0.848,0.690,-250.137,4.481,41.534,17.0,74.0
161863,-0.912,-1.239,0.699,250.130,-133.756,-38.519,18.0,73.0
161908,0.077,-1.145,0.208,250.130,-83.229,21.489,17.0,70.0
161953,-0.570,0.239,-0.411,250.130,8.374,1.595,23.0,68.0
162003,-0.948,2.000,-0.468,-93.794,-3.611,-54.962,113.0,68.0
162049,-0.820,0.204,0.228,-250.137,37.466,-38.481,19.0,68.0
162094,-1.022,-1.961,1.535,-107.275,3.099,-18.145,17.0,69.0
162148,-0.950,-0.664,0.498,250.130,-129.733,24.802,116.0,67.0
162198,-0.461,0.976,-0.167,250.130,-112.511,55.275,117.0,67.0
162249,-0.430,2.000,-0.864,-250.137,90.008,-50.420,114.0,65.0
162294,-0.723,-1.353,-0.189,-250.137,90.947,-59.023,19.0,69.0
162338,-0.977,-2.000,2.000,250.130,-88.389,-86.977,19.0,38.0
162383,-1.137,-1.038,-0.034,250.130,-174.275,-16.702,30.0,64.0
162438,-0.757,0.791,-0.412,250.130,-183.443,99.710,170.0,66.0
162493,-0.226,2.000,0.033,58.977,-118.931,171.435,196.0,66.0
162551,-0.549,1.314,0.468,-250.137,-112.679,166.061,192.0,62.0
162607,-0.180,-0.346,1.222,-250.137,-250.137,110.527,0.0,61.0
162662,0.316,-0.627,0.671,250.130,-250.137,96.519,0.0,61.0
162711,1.358,0.901,-0.585,250.130,-49.908,177.649,44.0,109.0
162768,0.898,1.624,-0.523,-245.336,241.397,23.672,0.0,106.0
162816,-0.769,-0.114,0.366,-250.137,141.710,54.710,37.0,64.0
162862,-0.607,-0.883,1.396,-107.130,-250.137,33.511,36.0,65.0
162908,-0.019,-0.747,0.155,250.130,-250.137,20.137,35.0,64.0
162955,2.000,1.334,-0.789,192.496,-73.328,151.641,39.0,88.0
163004,1.575,0.476,-0.211,-250.137,250.130,3.519,34.0,69.0
163050,-1.044,0.127,0.389,-250.137,250.130,74.740,30.0,71.0
163097,-0.243,-1.134,1.731,-250.137,-227.557,-6.031,37.0,73.0
163143,-0.019,-1.457,0.634,250.130,-250.137,-103.397,27.0,71.0
163190,1.248,-0.412,-1.364,250.130,-250.137,92.855,30.0,87.0
163237,2.000,1.029,-0.843,-103.954,207.046,60.031,30.0,86.0
163287,0.600,-0.693,0.402,-240.046,250.130,15.015,25.0,127.0
163335,-0.826,-0.329,0.376,-250.137,94.076,19.366,71.0,79.0
163395,0.236,-1.904,1.199,-18.160,-250.137,-220.725,0.0,75.0
163441,0.422,-1.211,-1.044,250.130,-250.137,-65.878,30.0,73.0
163488,2.000,1.316,-0.932,25.832,206.290,82.809,28.0,88.0
163537,0.578,0.081,0.499,-250.137,250.130,16.954,26.0,124.0
163586,-0.417,-1.578,0.922,-250.137,-19.282,-70.031,67.0,80.0
163633,0.166,-2.000,1.010,250.130,-250.137,-242.427,29.0,76.0
163682,2.000,0.226,-1.238,250.130,-56.031,91.221,31.0,124.0
163729,1.621,1.167,-0.188,-29.679,250.130,43.924,29.0,93.0
163782,-1.105,0.578,-0.317,-250.137,167.427,0.962,36.0,127.0
163831,0.308,-2.000,1.309,-172.489,-241.878,-199.023,71.0,78.0
163877,0.806,-1.186,-0.486,250.130,-220.740,-56.481,26.0,77.0
163927,2.000,1.385,-1.037,34.924,248.366,126.649,26.0,126.0
164024,-0.509,-2.000,0.994,-250.137,-41.229,-78.641,64.0,163.0
164071,-0.156,-1.356,0.497,250.130,-250.137,-161.870,27.0,81.0
164120,0.714,0.275,-1.723,250.130,-250.137,-14.748,26.0,126.0
164167,1.740,0.274,-0.696,-199.687,204.115,-65.656,28.0,87.0
164219,0.244,-1.036,-0.289,-71.725,250.130,-52.595,28.0,127.0
164269,-0.041,-0.476,-0.271,157.947,250.130,-9.466,31.0,119.0
164331,-0.901,0.574,0.213,23.809,250.130,-46.031,0.0,80.0
164387,-0.999,-0.339,1.273,-250.137,250.130,-143.160,0.0,79.0
164432,-1.477,-2.000,2.000,250.130,72.641,-86.901,24.0,75.0
164477,-1.101,-0.419,0.558,250.130,-54.817,-86.511,29.0,70.0
164528,-1.050,0.536,-0.401,250.130,-76.420,-60.870,118.0,66.0
164578,-0.578,2.000,-1.028,-250.137,249.824,-21.641,113.0,67.0
164622,-1.308,-1.153,-0.380,-250.137,184.374,26.305,18.0,72.0
164670,-0.762,-2.000,2.000,250.130,-85.847,-143.855,18.0,73.0
164719,-1.246,-1.098,-1.086,250.130,-104.221,-69.313,110.0,67.0
164769,-0.631,2.000,-1.682,-245.702,184.573,19.885,112.0,67.0
164820,-0.903,-1.121,-0.455,-250.137,124.053,-103.137,119.0,72.0
164865,-1.111,-2.000,1.772,250.130,-97.504,-77.931,18.0,63.0
164915,0.462,2.000,-1.732,250.130,112.916,146.733,113.0,68.0
164969,-0.815,1.194,-0.816,-250.137,95.198,-55.511,0.0,71.0
165014,-0.841,-2.000,2.000,250.130,-72.153,-79.481,18.0,70.0
165067,-0.317,2.000,-0.852,250.130,79.656,73.847,114.0,69.0
165111,-0.817,0.734,-0.553,-250.137,74.519,-12.603,20.0,59.0
165155,-0.830,-2.000,1.664,155.916,-51.824,-146.031,16.0,63.0
165200,-0.396,1.076,-0.099,250.130,63.611,84.344,23.0,68.0
165256,-1.156,1.608,-0.792,-250.137,95.069,97.374,0.0,71.0
165300,-1.155,-2.000,1.518,231.725,-76.718,-107.534,17.0,63.0
165355,-0.742,0.439,-0.537,250.130,-40.809,53.656,0.0,69.0
165410,-0.705,1.829,-0.285,-250.137,122.321,72.687,0.0,72.0
165458,-1.252,-2.000,1.423,98.275,-33.038,-88.198,17.0,74.0
165502,-0.797,-0.439,0.555,250.130,-6.939,36.038,17.0,73.0
165558,-1.124,2.000,-0.383,51.221,55.786,43.779,0.0,72.0
165603,-0.639,-0.347,0.657,-250.137,4.351,-42.130,16.0,74.0
165648,-0.925,-2.000,1.140,250.130,-177.351,-107.519,17.0,72.0
165703,0.764,0.845,-1.283,250.130,-26.977,63.542,176.0,91.0
165758,-1.540,2.000,-1.181,-250.137,228.473,-4.191,0.0,72.0
165804,-0.758,-2.000,0.979,-250.137,-146.336,-250.137,14.0,73.0
165859,-0.689,-1.346,0.287,250.130,-90.038,13.458,0.0,70.0
165915,-0.807,2.000,-1.377,131.023,117.282,50.237,0.0,72.0
165965,-1.003,-0.532,0.205,-250.137,-39.015,-36.931,118.0,71.0
166017,0.675,-1.262,1.467,250.130,-51.695,-94.893,119.0,71.0
166069,-0.832,2.000,-0.895,250.130,115.710,-34.115,123.0,89.0
166120,-2.000,0.126,-0.450,-250.137,-58.802,204.351,121.0,74.0
166170,2.000,-0.386,1.404,-35.725,-24.519,-65.137,121.0,71.0
166222,-1.572,1.008,-0.011,250.130,27.588,-76.794,121.0,89.0
166274,-1.482,0.406,0.163,-162.183,12.061,133.145,120.0,88.0
166328,1.173,0.203,0.774,-21.870,-43.603,-101.252,120.0,73.0
166379,-2.000,0.726,0.232,72.366,65.229,-87.977,119.0,73.0
166429,-0.359,0.152,0.149,-188.664,-49.901,82.122,120.0,72.0
166480,0.258,0.384,0.824,218.420,33.389,-48.511,120.0,73.0
166575,-0.256,0.165,0.389,-134.206,-72.099,93.733,122.0,73.0
166626,0.272,1.318,0.663,71.115,62.588,-123.824,124.0,72.0
166676,-2.000,0.059,-0.212,-250.137,39.351,-52.183,119.0,68.0
166727,1.498,-0.672,2.000,-214.405,-21.481,-44.863,124.0,66.0
166782,-1.721,0.290,0.254,250.130,-8.695,-214.977,128.0,88.0
166835,-2.000,0.990,-1.091,-250.137,-2.672,250.130,128.0,86.0
166886,2.000,-1.827,2.000,-248.947,6.947,101.718,124.0,67.0
166936,-0.860,-0.013,0.313,66.443,67.786,-139.748,123.0,67.0
166987,-1.813,0.226,-0.088,-34.771,-14.374,21.985,123.0,67.0
167038,0.567,-0.130,0.881,-76.893,63.008,58.939,122.0,68.0
167089,-0.382,0.255,0.538,68.031,106.183,-156.084,123.0,67.0
167140,-1.894,-0.280,0.500,250.130,18.641,-93.153,126.0,68.0
167198,-0.876,1.581,-0.347,213.817,54.710,47.305,71.0,0.0
167254,-0.800,1.075,-0.391,-250.137,86.038,-13.893,0.0,68.0
167299,-0.649,-0.826,0.623,-250.137,82.534,-56.664,16.0,69.0
167344,-0.781,-1.219,1.175,104.824,54.099,-31.198,13.0,69.0
167399,-1.052,-0.469,0.402,250.130,10.557,-40.183,0.0,70.0
167452,-1.070,0.456,-0.206,250.130,-52.015,-40.496,102.0,128.0
167503,-0.568,2.000,-0.780,-200.855,45.252,-34.519,69.0,130.0
167553,-1.181,-0.098,-0.608,-250.137,85.595,-2.656,91.0,69.0
167598,-1.156,-1.380,0.659,-250.137,-15.183,-6.481,16.0,71.0
167646,-1.126,-1.104,0.847,216.435,-69.527,10.908,10.0,71.0
167701,-1.072,-0.586,0.165,250.130,-108.053,43.038,0.0,70.0
167752,-0.644,0.190,-0.237,250.130,-99.550,77.550,90.0,100.0
167801,-0.302,2.000,-0.789,-55.481,57.939,9.313,55.0,102.0
167853,-1.082,0.456,-1.065,-250.137,121.359,-86.000,118.0,69.0
167898,-1.290,-1.810,0.200,-250.137,-14.763,-116.412,16.0,71.0
167943,-1.177,-1.767,0.916,250.130,-102.901,-59.305,17.0,68.0
167993,-0.839,-0.597,-0.747,250.130,-64.160,58.763,115.0,69.0
168045,-0.637,2.000,-1.106,-143.328,89.389,46.130,71.0,86.0
168095,-0.914,0.209,-0.575,-250.137,112.595,-34.046,110.0,70.0
168140,-0.976,-2.000,1.268,-173.443,-45.489,-86.710,16.0,61.0
168185,-0.926,-1.186,0.543,250.130,-72.718,-24.603,16.0,70.0
168233,-0.520,1.329,-0.827,250.130,18.214,48.427,65.0,70.0
168284,-0.894,1.627,-0.616,-250.137,107.206,-15.153,123.0,70.0
168329,-1.148,-1.571,0.374,-250.137,58.237,-62.244,15.0,59.0
168373,-1.038,-1.906,1.145,250.130,-62.282,-67.260,15.0,60.0
168425,-0.931,-0.244,-0.420,250.130,-55.908,-1.855,77.0,69.0
168472,-0.699,2.000,-0.976,-197.458,50.565,-0.015,54.0,70.0
168518,-0.985,-0.139,-0.388,-250.137,83.099,-55.847,22.0,69.0
168563,-1.016,-2.000,1.507,30.481,-48.061,-47.687,16.0,70.0
168608,-0.932,-0.830,-0.159,250.130,-66.275,21.771,19.0,68.0
168658,-0.602,2.000,-1.001,146.886,9.893,66.427,111.0,69.0
168705,-1.143,0.389,-0.283,-250.137,52.351,-7.840,23.0,69.0
168758,-1.217,-1.649,0.852,-189.649,-54.687,-8.405,17.0,72.0
168805,-1.068,-0.482,0.531,179.511,-106.031,38.305,16.0,72.0
168855,-0.851,0.308,0.333,143.298,-103.718,58.046,103.0,72.0
168904,-0.777,0.406,0.486,0.924,-97.130,55.885,104.0,72.0
168953,-0.665,0.323,0.734,-62.366,-103.115,79.305,106.0,73.0
169004,-0.532,0.217,0.826,-59.664,-123.435,118.542,105.0,75.0
169095,0.210,0.010,0.767,106.840,-113.244,192.443,53.0,81.0
169141,0.589,0.586,0.769,167.962,-55.511,208.122,38.0,85.0
169186,-0.784,1.698,1.245,149.893,-14.504,226.962,35.0,55.0
169230,-1.500,1.041,0.966,20.550,23.817,250.130,30.0,59.0
169278,-0.605,0.272,0.435,-160.725,3.794,250.130,26.0,64.0
169321,2.000,-0.389,0.152,19.626,-114.626,120.565,22.0,45.0
169375,0.970,0.898,0.770,90.000,-51.718,167.069,0.0,48.0
169428,-2.000,0.750,1.501,26.504,163.824,204.473,0.0,50.0
169483,0.912,0.252,0.647,-15.702,10.634,-11.206,0.0,60.0
169537,1.645,0.051,0.454,18.084,-102.420,-4.366,0.0,50.0
169591,-1.812,1.650,0.491,-6.756,100.237,143.344,0.0,54.0
169646,0.606,-0.091,0.635,-155.573,82.733,58.939,0.0,57.0
169690,0.950,-0.399,1.003,-54.679,36.198,-54.366,16.0,58.0
169731,-2.000,1.464,1.114,212.389,0.992,-74.641,18.0,57.0
169775,-0.262,0.432,0.443,-16.053,-21.649,127.145,18.0,58.0
169830,2.000,-1.756,0.454,32.878,-20.527,122.023,0.0,61.0
169884,0.565,0.887,0.878,-100.550,82.519,-24.802,0.0,62.0
169928,-2.000,0.957,1.062,-241.466,100.313,-77.580,16.0,59.0
169984,0.500,-1.088,1.469,77.817,-6.435,-14.519,0.0,64.0
170038,2.000,0.097,-0.080,250.130,-91.214,183.519,0.0,57.0
170094,-1.584,2.000,0.593,-179.443,108.481,114.878,0.0,87.0
170151,-1.459,-0.187,1.185,-250.137,111.786,-152.863,0.0,64.0
170207,0.725,-0.784,1.496,3.840,87.656,-139.366,0.0,63.0
170260,0.328,0.218,0.683,118.504,32.511,-178.221,0.0,44.0
170314,0.067,0.606,0.502,-23.473,-8.878,-187.626,0.0,44.0
170369,0.143,0.127,0.726,-17.046,4.687,-212.489,0.0,60.0
170423,-0.134,0.245,0.708,-5.069,13.420,-226.756,0.0,57.0
170478,0.034,0.136,1.041,-28.893,62.771,-209.733,0.0,63.0
170533,-0.238,0.086,1.063,-44.008,104.611,-185.725,0.0,83.0
170590,-0.563,0.189,1.224,55.221,102.061,-157.321,0.0,77.0
170648,-0.854,0.198,1.207,78.061,15.130,-65.588,0.0,74.0
170703,-0.144,0.080,1.073,183.427,-2.954,-11.634,0.0,71.0
170759,-0.072,0.134,0.689,241.107,-23.275,-10.824,0.0,69.0
170814,0.046,0.362,0.553,250.130,-3.084,-59.947,0.0,69.0
170869,-0.381,1.826,-0.016,-250.137,127.878,-110.206,0.0,67.0
170913,-1.020,-0.562,0.596,-250.137,113.527,-82.832,17.0,68.0
170958,-0.976,-2.000,1.999,87.527,-24.626,-93.718,17.0,67.0
171014,-0.688,-0.562,0.564,250.130,-89.855,-54.878,0.0,62.0
171072,-0.296,1.558,-0.570,250.130,-14.893,3.977,0.0,79.0
171123,-0.680,1.653,-0.881,-250.137,132.992,-64.542,133.0,59.0
171167,-0.624,-1.834,0.991,-250.137,46.260,-66.886,19.0,61.0
171212,-0.649,-1.499,1.286,250.130,-48.313,-31.832,20.0,60.0
171262,-0.486,-0.201,-0.011,250.130,-58.878,5.053,133.0,58.0
171316,-0.395,1.973,-0.774,250.130,40.061,35.282,138.0,81.0
171366,-0.837,1.360,-0.735,-250.137,163.145,-47.305,133.0,60.0
171411,-1.038,-1.490,0.275,-250.137,77.481,-48.710,19.0,63.0
171458,-0.828,-2.000,1.545,250.130,-52.504,-45.817,16.0,62.0
171509,-0.589,-0.505,-0.290,250.130,-37.710,24.840,132.0,62.0
171561,-0.754,2.000,-1.131,-42.084,61.618,22.473,134.0,82.0
171607,-0.919,-0.011,-0.600,-250.137,109.115,-44.153,18.0,61.0
171695,-0.838,-1.473,0.492,250.130,-82.878,15.450,20.0,61.0
171748,-0.659,0.999,-0.895,250.130,-68.435,68.076,138.0,94.0
171800,-0.611,1.985,-0.732,-250.137,63.763,-49.107,138.0,77.0
171845,-0.694,-1.083,0.402,-250.137,89.969,-66.397,21.0,60.0
171889,-0.784,-1.918,1.439,241.168,-16.504,-33.115,19.0,59.0
171944,-0.647,1.021,-0.276,250.130,-32.374,18.504,138.0,78.0
171997,-0.901,1.520,-0.246,-250.137,61.130,-16.924,139.0,59.0
172041,-1.082,-1.681,0.971,-250.137,4.260,-22.282,20.0,59.0
172086,-0.701,-0.913,0.827,250.130,-52.519,1.412,21.0,60.0
172138,-0.663,1.501,-0.071,205.534,-15.053,21.466,140.0,74.0
172183,-0.912,0.428,0.214,-250.137,42.664,0.412,22.0,62.0
172227,-0.814,-1.316,1.173,-87.550,-6.405,9.557,20.0,60.0
172272,-0.664,-0.244,0.620,250.130,-34.809,6.313,20.0,63.0
172320,-0.831,1.404,0.133,-66.435,5.603,12.191,21.0,60.0
172364,-0.824,-0.095,0.720,-250.137,18.733,15.061,19.0,61.0
172409,-0.770,-0.870,1.206,-31.679,-23.015,5.870,19.0,60.0
172453,-0.743,-0.520,1.027,250.130,-74.992,-19.115,20.0,58.0
172506,-0.813,-0.430,0.647,250.130,-115.214,-4.840,143.0,72.0
172559,0.200,2.000,-0.644,250.130,39.382,57.137,147.0,72.0
172610,-1.416,1.041,-1.509,-250.137,205.145,1.550,144.0,57.0
172655,-1.344,-2.000,1.046,-250.137,-19.450,-75.550,20.0,60.0
172703,-0.955,-2.000,1.344,250.130,-172.817,-92.886,23.0,57.0
172758,-1.092,-0.415,-0.223,250.130,-218.015,-22.511,0.0,54.0
172814,0.244,2.000,-0.319,250.130,-52.496,69.511,0.0,70.0
172868,-0.645,0.795,0.019,-250.137,119.084,7.015,0.0,53.0
172913,-0.495,-1.777,1.529,-215.855,-145.168,-140.740,33.0,53.0
172968,-0.763,-1.474,1.215,250.130,-209.565,-87.863,0.0,51.0
173023,0.685,2.000,-0.870,250.130,60.992,114.275,0.0,51.0
173077,-0.548,1.102,-0.068,-250.137,82.969,52.756,0.0,52.0
173126,-0.232,-2.000,1.639,-122.748,-168.282,-130.809,88.0,54.0
173177,-0.107,-0.903,0.664,250.130,-181.519,-11.863,86.0,52.0
173232,1.224,2.000,-0.337,250.130,79.145,99.771,0.0,53.0
173280,-0.464,1.183,0.131,-250.137,151.595,55.893,83.0,54.0
173328,-0.347,-2.000,1.531,-212.168,-120.947,-130.053,79.0,57.0
173376,0.282,-1.014,0.954,250.130,-95.374,-1.870,77.0,55.0
173424,0.592,2.000,-0.643,97.153,189.641,103.115,82.0,55.0
173472,-0.555,0.932,0.016,-250.137,217.870,45.282,77.0,58.0
173527,-0.266,-2.000,1.356,-173.687,-80.221,-97.229,0.0,60.0
173578,-0.110,-0.409,0.375,250.130,-125.053,-41.947,74.0,57.0
173626,0.430,1.166,-0.260,250.130,11.420,21.168,74.0,57.0
173673,0.138,0.894,-0.026,-154.802,208.809,-7.496,66.0,58.0
173720,-0.436,-0.063,0.372,-238.282,250.130,14.389,61.0,61.0
173767,-0.760,-0.551,0.771,-91.168,234.191,30.885,57.0,63.0
173813,-0.876,-0.004,0.619,50.832,210.496,6.649,23.0,63.0
173857,-1.036,0.651,0.352,-81.603,219.603,2.458,17.0,65.0
173902,-1.500,-0.422,0.541,-250.137,188.275,45.221,14.0,59.0
173946,-1.227,-1.216,1.166,91.542,96.886,23.802,16.0,57.0
173989,-1.226,-0.874,0.697,250.130,41.847,-50.656,11.0,65.0
174033,-1.414,-0.667,-0.014,250.130,-41.855,-71.779,14.0,64.0
174080,-0.872,1.330,-0.646,250.130,9.237,2.649,22.0,71.0
174167,-1.195,-0.672,-0.179,-250.137,76.275,4.321,8.0,57.0
174211,-0.795,-2.000,1.396,-10.260,-31.008,-40.359,6.0,51.0
174256,-0.871,-1.224,0.209,250.130,-94.802,-9.840,10.0,67.0
174301,-0.824,1.352,-1.144,250.130,-75.328,34.977,23.0,75.0
174347,-1.025,2.000,-1.124,-250.137,89.542,-23.847,23.0,75.0
174394,-1.084,-0.843,-0.182,-250.137,107.221,2.275,9.0,46.0
174438,-0.763,-2.000,1.228,54.916,-4.794,-19.450,8.0,47.0
174481,-0.871,-0.892,0.079,250.130,-83.008,-40.748,10.0,44.0
174527,-0.749,1.566,-0.998,250.130,-47.542,27.649,22.0,73.0
174572,-1.083,1.374,-0.644,-250.137,72.046,10.534,16.0,66.0
174615,-0.927,-0.860,0.453,-250.137,44.672,-22.252,11.0,46.0
174659,-0.797,-1.494,1.090,250.130,-39.969,-33.130,10.0,48.0
174704,-0.907,-0.492,-0.018,250.130,-70.275,-3.153,16.0,62.0
174754,-0.857,0.448,-0.279,250.130,-44.206,14.244,26.0,76.0
174808,-0.986,0.808,-0.195,250.130,-10.580,13.115,122.0,102.0
174864,-0.979,0.577,0.048,98.641,-20.489,-0.985,94.0,183.0
174915,-0.853,0.188,0.279,162.481,-20.779,9.771,80.0,103.0
174964,-0.854,0.743,-0.270,165.107,-3.740,30.687,80.0,81.0
175020,-0.761,1.753,-0.748,-250.137,36.557,-19.313,80.0,180.0
175075,-0.970,-0.347,-0.009,-250.137,41.786,-38.870,186.0,75.0
175132,-0.890,-1.588,1.053,250.130,-41.466,33.107,186.0,103.0
175187,-0.745,2.000,-1.562,250.130,3.351,101.084,79.0,85.0
175242,-0.881,0.471,-0.531,-250.137,61.969,-42.595,106.0,106.0
175297,-0.982,-1.926,1.229,49.260,-25.992,-5.908,184.0,85.0
175358,-0.619,1.008,-0.147,250.130,-29.313,26.794,175.0,0.0
175415,-0.964,0.502,0.224,-11.557,-6.725,-11.000,93.0,0.0
175469,-1.038,-0.526,0.268,250.130,-80.809,52.756,78.0,185.0
175520,-0.640,1.300,-0.602,250.130,-98.771,86.550,79.0,115.0
175575,-0.359,2.000,-0.970,-250.137,33.885,-57.748,78.0,184.0
175628,-0.962,-0.381,-0.718,-250.137,94.809,-75.893,152.0,82.0
175692,-0.913,-2.000,1.144,250.130,-78.550,15.870,187.0,0.0
175749,-0.405,1.084,-1.493,250.130,-51.916,113.718,93.0,0.0
175804,-0.577,1.646,-1.087,-250.137,87.336,-75.046,77.0,187.0
175862,-1.403,-2.000,1.539,-19.893,-19.130,15.794,135.0,0.0
175920,-0.305,1.697,-1.350,250.130,-80.374,131.802,93.0,0.0
175976,-0.566,0.985,-0.268,-250.137,74.534,-41.504,91.0,0.0
176032,-0.868,-0.676,0.638,200.473,-38.603,58.282,90.0,0.0
176079,-0.548,1.052,-0.108,250.130,-58.939,62.603,92.0,50.0
176135,-0.482,1.248,-0.275,151.351,-17.901,44.313,163.0,49.0
176188,-0.413,1.409,-0.369,-192.588,45.504,-8.427,187.0,51.0
176248,-0.684,0.961,-0.239,-250.137,70.641,-19.115,173.0,0.0
176304,-0.827,0.268,0.492,-250.137,28.298,47.069,200.0,72.0
176366,-0.674,0.108,0.668,209.420,-38.450,136.282,197.0,0.0
176420,-0.264,1.177,-0.208,250.130,-18.183,160.634,194.0,51.0
176475,-0.201,1.515,-0.481,82.260,45.634,126.115,192.0,53.0
176528,-0.231,1.854,-0.798,-102.130,135.122,116.939,188.0,57.0
176583,-0.185,1.141,-0.406,-250.137,167.832,116.244,0.0,62.0
176633,-0.021,0.076,0.397,-250.137,48.450,94.977,54.0,71.0
176679,0.074,-1.097,1.509,142.901,-32.061,81.832,54.0,74.0
176735,-0.086,1.006,-0.543,250.130,0.389,153.977,0.0,70.0