Timestamp(ms),AccelX(g),AccelY(g),AccelZ(g),GyroX(deg/s),GyroY(deg/s),GyroZ(deg/s),DistanceLeft(cm),DistanceRight(cm)
115443,0.406,-2.000,1.344,250.130,-172.244,-122.115,0.0,95.0
115491,1.035,0.656,-0.568,250.130,-95.336,57.878,58.0,90.0
115543,0.568,0.888,-0.193,-250.137,42.885,105.015,49.0,95.0
115599,0.984,-2.000,0.981,-250.137,-96.626,-56.382,0.0,98.0
115656,0.422,-1.355,0.485,250.130,-119.061,-88.038,0.0,95.0
115706,0.731,1.161,-0.272,209.031,-62.328,61.244,51.0,146.0
115755,0.574,0.179,0.176,-249.511,-21.733,127.130,48.0,97.0
115812,1.809,-1.846,0.874,-216.847,-39.473,28.076,0.0,99.0
115860,0.544,-1.327,0.567,173.023,-63.794,-165.992,50.0,93.0
115907,-0.095,0.814,-0.049,250.130,-160.076,-95.031,47.0,97.0
115968,0.430,0.500,-0.355,154.374,-89.023,168.901,0.0,98.0
116026,1.459,-0.937,-0.230,-250.137,55.756,138.702,0.0,123.0
116082,0.664,-2.000,0.843,19.359,107.275,-204.496,0.0,100.0
116143,-0.838,0.498,-0.759,250.130,-63.435,6.092,0.0,155.0
116199,2.000,-0.755,-0.317,-250.137,35.710,63.260,0.0,96.0
116246,-0.331,-0.457,0.329,-20.939,81.435,-250.137,38.0,90.0
116293,-0.003,-0.644,0.218,99.725,-130.656,195.168,37.0,89.0
116341,2.000,0.594,-0.175,176.511,31.985,-44.107,41.0,94.0
116400,-0.258,0.192,-0.467,-250.137,50.130,-86.405,0.0,88.0
116457,1.479,-0.998,0.804,-22.321,12.427,63.473,0.0,92.0
116504,0.630,0.435,-0.297,9.176,-24.817,26.084,39.0,94.0
116560,1.300,-0.718,0.633,16.557,-21.382,10.511,0.0,94.0
116608,0.768,-0.462,0.102,210.809,-33.947,39.847,37.0,88.0
116659,1.440,0.125,-0.123,161.511,18.069,50.954,58.0,151.0
116707,0.811,0.177,-0.057,-242.092,71.725,-45.275,52.0,94.0
116755,0.586,-1.737,0.804,1.588,24.366,26.023,40.0,94.0
116814,1.002,-0.608,0.120,250.130,-11.191,31.695,0.0,156.0
116876,0.666,0.618,-0.088,19.015,46.267,22.565,0.0,121.0
116936,0.360,-1.267,0.598,-52.809,-119.748,40.893,0.0,153.0
116993,2.000,0.391,-0.475,250.130,-9.473,28.565,178.0,117.0
117053,0.462,0.303,-0.212,-250.137,218.687,-101.618,0.0,152.0
117101,0.037,-1.570,0.744,-229.176,-80.191,-41.038,51.0,94.0
117159,1.243,-1.780,0.338,250.130,-73.496,63.435,0.0,117.0
117217,1.072,1.443,-0.552,-40.947,199.145,10.489,188.0,113.0
117275,-0.480,-0.945,0.006,-250.137,73.481,-71.397,0.0,126.0
117338,0.641,-2.000,0.623,250.130,-118.038,-94.313,0.0,146.0
117390,1.302,1.816,-0.290,-58.794,239.168,-0.275,58.0,142.0
117446,-0.366,-1.100,0.088,-250.137,12.710,-106.947,0.0,92.0
117494,0.666,-1.796,0.750,250.130,-148.908,-76.450,59.0,91.0
117545,1.798,1.541,-0.760,200.076,136.221,92.595,56.0,141.0
117596,0.017,0.077,-0.227,-250.137,75.244,-7.847,56.0,109.0
117644,0.671,-2.000,1.449,57.550,-181.496,-129.084,58.0,87.0
117695,1.742,0.085,-0.871,250.130,-18.695,95.305,56.0,151.0
117744,0.686,1.253,-0.446,-250.137,153.351,41.870,58.0,93.0
117795,0.315,-2.000,0.568,-250.137,-53.511,-132.176,57.0,91.0
117842,0.769,-1.380,0.352,250.130,-90.282,-34.137,41.0,85.0
117903,1.560,1.083,-0.528,109.328,149.908,69.298,0.0,145.0
117959,0.205,-0.528,0.133,-250.137,125.527,-67.015,0.0,93.0
118007,0.484,-2.000,1.088,250.130,-125.389,-85.786,43.0,90.0
118055,1.883,0.678,-0.688,250.130,42.771,79.748,59.0,90.0
118156,-0.027,-1.493,0.058,-250.137,18.450,-77.603,0.0,92.0
118204,0.595,-1.902,0.410,250.130,-149.748,-41.809,44.0,92.0
118263,2.000,1.724,-0.611,216.618,125.305,80.870,0.0,93.0
118321,0.282,-0.330,-0.108,-250.137,123.603,-26.092,0.0,95.0
118378,0.443,-2.000,1.161,211.366,-129.069,-84.275,0.0,95.0
118425,1.716,0.768,-0.549,250.130,38.290,78.260,38.0,92.0
118474,0.489,0.688,-0.334,-250.137,122.794,13.168,58.0,98.0
118532,0.225,-2.000,0.511,-247.679,-7.679,-72.015,0.0,98.0
118580,0.555,-1.292,0.075,250.130,-74.634,-10.435,57.0,88.0
118629,1.271,-0.148,-0.353,250.130,53.076,40.160,59.0,105.0
118686,0.560,1.522,-0.656,-2.397,152.198,-6.878,198.0,101.0
118749,-0.073,-0.404,-0.096,-250.137,216.466,-29.557,0.0,140.0
118801,-0.324,-1.059,0.713,30.221,194.809,74.115,58.0,138.0
118851,0.043,-0.562,0.598,250.130,126.557,46.603,50.0,131.0
118906,0.258,0.264,0.598,250.130,111.794,-72.489,0.0,60.0
118963,0.131,1.081,0.963,250.130,144.252,-235.588,0.0,85.0
119011,-0.920,1.383,0.823,-158.824,209.534,-250.137,57.0,74.0
119058,-1.279,0.420,1.028,-250.137,250.130,-110.824,60.0,73.0
119104,-1.385,-0.704,1.352,-106.092,220.611,-41.985,17.0,72.0
119152,-1.309,-0.846,1.206,250.130,109.023,-56.863,17.0,70.0
119197,-1.153,-0.495,0.559,250.130,18.740,-49.420,21.0,66.0
119262,-0.979,0.453,-0.105,250.130,-39.473,-20.779,0.0,79.0
119316,-0.753,2.000,-0.869,-250.137,54.855,-79.840,165.0,87.0
119360,-1.040,-0.667,-1.308,-250.137,135.702,-80.252,16.0,65.0
119404,-1.012,-2.000,1.338,-250.137,-14.282,-65.695,12.0,58.0
119448,-0.880,-1.910,0.727,250.130,-75.061,-38.863,15.0,63.0
119492,-1.195,0.062,-0.967,250.130,-107.466,12.237,26.0,59.0
119549,-0.526,2.000,-1.183,-250.137,22.718,26.511,0.0,58.0
119593,-0.856,-0.771,-0.280,-250.137,71.573,-8.084,20.0,59.0
119638,-0.667,-2.000,1.705,111.550,-59.527,-55.008,16.0,57.0
119682,-1.014,-1.178,-0.156,250.130,-92.794,-20.382,22.0,59.0
119726,-0.345,2.000,-1.059,250.130,21.672,69.168,30.0,58.0
119771,-1.046,1.079,-0.601,-250.137,100.366,22.565,25.0,59.0
119815,-0.897,-2.000,0.415,-250.137,14.863,-90.710,21.0,63.0
119859,-0.824,-2.000,1.413,250.130,-60.649,-95.641,18.0,61.0
119906,-0.773,0.539,-0.536,250.130,-22.794,12.511,24.0,58.0
119950,-0.962,2.000,-0.636,-250.137,89.206,34.198,25.0,58.0
119995,-0.993,-0.422,0.048,-250.137,80.908,-1.947,20.0,61.0
120039,-0.674,-2.000,1.614,14.412,-63.405,-81.496,19.0,63.0
120083,-1.029,-1.105,0.153,250.130,-92.252,-65.901,23.0,59.0
120127,-0.639,2.000,-0.739,250.130,-6.053,30.046,29.0,56.0
120172,-0.869,0.969,-0.360,-250.137,103.389,20.618,28.0,57.0
120216,-1.001,-1.745,0.247,-250.137,74.435,6.779,21.0,61.0
120260,-0.657,-2.000,1.533,250.130,-44.573,-72.015,23.0,60.0
120308,-1.167,-0.372,-0.327,250.130,-96.817,-59.824,30.0,55.0
120354,-0.479,2.000,-0.660,-81.687,20.099,20.947,57.0,53.0
120398,-0.799,-0.265,0.236,-250.137,102.603,2.718,29.0,56.0
120443,-1.320,-2.000,1.576,-151.962,-16.611,-62.198,30.0,57.0
120487,-1.453,-1.849,1.272,250.130,-126.229,-150.504,31.0,54.0
120532,-1.266,-0.106,0.778,51.985,-153.603,-197.916,40.0,49.0
120622,-1.112,-0.635,0.895,205.573,-141.756,-237.786,55.0,45.0
120668,-1.040,0.226,-0.341,250.130,-158.916,-97.458,70.0,43.0
120725,-0.098,2.000,-1.064,-250.137,-7.023,11.885,0.0,45.0
120780,0.284,-2.000,0.672,-250.137,-27.214,-92.267,105.0,166.0
120832,-0.494,-1.982,0.452,250.130,-121.473,-132.023,76.0,133.0
120886,0.760,2.000,-0.885,250.130,-86.916,55.282,0.0,50.0
120940,0.031,0.207,-0.565,-250.137,55.321,79.924,93.0,150.0
120997,0.287,-2.000,1.209,-23.817,-44.000,12.695,114.0,189.0
121046,-0.196,-0.818,-0.350,250.130,-145.145,-37.824,92.0,57.0
121100,1.483,2.000,-0.212,-33.000,77.977,70.779,0.0,55.0
121154,-0.093,-2.000,0.368,-250.137,98.023,44.718,88.0,115.0
121205,-0.287,-2.000,1.092,250.130,-90.634,-115.443,89.0,109.0
121257,1.020,1.084,-0.683,250.130,-30.397,44.885,161.0,53.0
121313,0.157,0.583,-0.414,-250.137,166.580,34.321,0.0,60.0
121367,-0.221,-2.000,1.598,-20.015,-15.176,-85.802,88.0,167.0
121415,0.606,0.333,-0.311,250.130,-18.099,24.603,94.0,54.0
121473,0.184,0.756,-0.170,-250.137,114.534,19.214,0.0,111.0
121530,-0.192,-2.000,1.628,23.305,-4.908,-71.015,113.0,192.0
121585,0.388,0.606,-0.348,250.130,-28.244,22.275,0.0,52.0
121646,0.293,0.088,0.317,-250.137,49.939,13.664,0.0,110.0
121698,-0.161,-2.000,1.522,182.748,-60.489,3.321,88.0,139.0
121752,-0.188,-0.800,-0.218,250.130,-153.649,0.137,0.0,49.0
121806,1.486,-0.181,-0.116,250.130,-27.015,70.855,0.0,46.0
121861,0.331,2.000,-0.487,-250.137,149.618,-41.687,0.0,45.0
121909,-0.439,-1.110,-0.515,-250.137,172.534,-57.038,87.0,49.0
121955,-0.388,-2.000,2.000,48.634,-40.137,18.588,62.0,51.0
122008,0.266,-0.989,0.224,250.130,-46.244,72.351,190.0,47.0
122065,0.507,0.812,-0.127,250.130,48.214,64.000,0.0,46.0
122120,0.484,2.000,-0.290,-80.733,158.145,-16.611,0.0,45.0
122171,-0.496,0.326,-0.104,-250.137,250.130,-41.191,156.0,48.0
122217,-0.905,-1.786,1.189,-250.137,129.046,28.924,43.0,51.0
122262,-0.384,-1.361,1.192,250.130,85.099,79.504,40.0,52.0
122316,-0.110,0.262,-0.066,250.130,138.260,53.756,0.0,52.0
122368,-0.561,2.000,-0.109,-98.473,169.740,-76.634,139.0,54.0
122417,-1.110,0.183,0.174,-250.137,250.130,-110.305,111.0,57.0
122464,-1.733,-1.991,1.067,-208.458,170.298,-8.145,17.0,60.0
122509,-1.258,-0.946,0.969,238.756,112.718,44.550,14.0,62.0
122554,-1.261,-0.013,0.365,250.130,69.718,38.710,23.0,63.0
122600,-1.315,0.394,0.466,138.366,17.351,32.038,51.0,65.0
122648,-1.221,0.269,0.492,-57.542,-5.824,34.282,79.0,66.0
122693,-1.101,0.223,0.410,-129.794,-27.718,24.221,23.0,67.0
122738,-0.932,-0.036,0.452,-154.595,-31.344,11.733,17.0,66.0
122782,-0.987,-0.225,0.599,-72.313,-24.954,18.756,13.0,67.0
122827,-0.983,0.040,0.427,1.405,-36.863,21.405,14.0,66.0
122875,-0.911,0.124,0.394,0.710,-46.763,9.458,16.0,65.0
122919,-0.760,0.101,0.406,3.618,-30.496,10.901,19.0,62.0
122971,-0.611,0.249,0.414,-12.504,24.733,29.924,123.0,65.0
123019,-0.763,0.708,0.066,-194.977,64.359,31.389,83.0,66.0
123064,-0.798,0.073,0.157,-250.137,9.534,-31.374,23.0,69.0
123109,-0.847,-1.450,1.349,-107.298,-86.313,-118.916,16.0,71.0
123200,-0.101,1.811,-0.880,250.130,84.374,193.886,57.0,68.0
123251,-1.196,2.000,-0.903,-250.137,108.611,108.489,132.0,73.0
123300,-0.771,-2.000,0.332,-250.137,-60.626,-117.420,18.0,65.0
123344,-0.906,-2.000,1.519,250.130,-124.977,-51.786,20.0,63.0
123401,-0.126,0.472,-0.552,250.130,5.496,124.740,0.0,80.0
123447,-1.196,2.000,-0.902,-250.137,135.840,52.824,24.0,68.0
123491,-1.099,-1.691,-0.539,-250.137,32.626,-90.252,18.0,60.0
123536,-0.978,-2.000,1.942,176.176,-139.664,-121.886,18.0,57.0
123580,-0.977,-1.158,-0.064,250.130,-153.794,-4.855,23.0,53.0
123635,-0.237,2.000,-0.929,250.130,-40.458,115.840,0.0,64.0
123681,-0.938,0.740,-0.548,-250.137,67.565,69.763,26.0,59.0
123728,-1.070,-2.000,0.756,-250.137,-70.221,0.389,27.0,37.0
123771,-0.628,-1.791,1.198,250.130,-130.023,-14.557,25.0,38.0
123815,0.175,1.550,-0.237,200.450,12.718,131.710,30.0,37.0
123859,-0.902,0.887,-0.299,-250.137,78.275,147.473,25.0,40.0
123905,-0.910,-2.000,0.844,-250.137,-47.374,24.313,21.0,50.0
123951,-0.711,-2.000,1.249,250.130,-150.008,-77.779,22.0,95.0
123998,-0.688,-0.156,0.081,250.130,-170.695,-45.969,29.0,92.0
124046,0.222,1.424,0.083,-4.916,-6.588,71.137,77.0,49.0
124096,-0.903,-0.119,0.167,-250.137,86.626,125.542,25.0,98.0
124144,-0.615,-2.000,1.153,-131.733,-97.939,-9.344,29.0,103.0
124191,-0.732,-1.469,0.920,250.130,-198.153,-95.656,30.0,99.0
124239,-0.354,-0.422,0.233,250.130,-190.015,-12.443,76.0,57.0
124295,0.612,1.982,-0.362,186.206,13.641,125.496,198.0,54.0
124342,-0.454,0.671,0.247,-250.137,107.275,110.344,64.0,59.0
124391,-0.896,-1.888,1.323,-250.137,-62.672,63.252,51.0,107.0
124440,-0.133,-1.185,1.360,250.130,-151.962,55.855,51.0,100.0
124491,0.277,-0.149,0.357,250.130,-125.992,107.115,40.0,87.0
124539,0.628,1.382,0.197,29.359,-0.679,130.573,37.0,103.0
124590,0.150,0.675,0.540,-250.137,75.214,133.489,34.0,133.0
124652,-0.378,-0.868,0.466,-250.137,-6.435,123.443,0.0,0.0
124716,0.364,-1.885,1.224,250.130,-64.664,56.313,0.0,0.0
124769,-1.014,1.482,-0.247,250.130,-163.725,140.534,30.0,196.0
124823,0.519,-0.247,0.469,6.237,-81.511,173.855,29.0,0.0
124876,0.971,-0.245,0.758,-29.115,44.458,-36.809,30.0,0.0
124940,-0.683,0.417,0.898,31.740,32.527,-63.809,0.0,0.0
124996,0.242,-0.762,0.744,250.130,-37.183,98.252,26.0,0.0
125060,0.687,0.814,-0.299,250.130,-60.366,123.374,0.0,0.0
125114,0.703,2.000,-0.735,-250.137,33.328,-51.824,34.0,0.0
125177,0.080,-0.451,0.067,-250.137,144.718,-46.290,0.0,0.0
125231,0.099,-1.563,1.661,250.130,49.649,99.382,30.0,0.0
125284,0.312,2.000,-0.181,250.130,31.710,92.733,27.0,0.0
125337,0.349,0.865,0.168,-250.137,1.137,-48.924,26.0,0.0
125401,0.750,-1.286,1.351,-250.137,9.435,-154.710,0.0,0.0
125467,-0.667,-0.416,0.766,250.130,-71.321,90.183,0.0,0.0
125521,0.863,0.450,0.239,150.344,-14.992,91.328,27.0,0.0
125575,0.586,1.556,0.664,-250.137,12.015,-211.412,25.0,0.0
125628,0.478,-0.353,1.205,-21.107,-0.244,113.702,29.0,0.0
125686,1.080,-0.124,0.579,81.611,35.634,103.733,22.0,0.0
125743,-0.264,1.234,1.361,75.504,15.183,-57.366,22.0,0.0
125838,0.712,-1.101,0.848,-72.489,37.954,119.870,17.0,0.0
125893,0.338,0.007,1.655,79.847,84.046,-197.038,19.0,0.0
125945,0.299,1.313,0.993,14.695,20.145,132.198,18.0,0.0
126001,0.677,-0.681,0.638,-163.420,41.000,94.763,18.0,0.0
126056,-0.752,-0.182,1.066,186.519,23.275,-74.679,17.0,0.0
126108,0.394,0.871,0.444,38.374,-9.252,177.916,17.0,0.0
126171,1.183,-1.037,0.879,-106.618,-8.336,14.237,0.0,0.0
126226,-0.937,1.883,0.103,220.802,-28.962,8.328,17.0,0.0
126278,0.704,0.186,0.745,-65.893,12.527,144.824,17.0,0.0
126333,0.717,0.207,1.342,20.031,60.817,-17.504,16.0,0.0
126383,-0.027,0.440,0.999,-8.023,34.145,-10.237,17.0,161.0
126434,0.504,-0.294,1.163,-45.756,23.779,-12.847,16.0,178.0
126488,-0.085,0.594,0.693,250.130,-22.962,-57.153,17.0,0.0
126544,0.822,0.707,0.368,135.847,-13.053,111.725,20.0,0.0
126597,0.624,1.470,0.135,17.282,-1.702,69.954,17.0,0.0
126652,-0.518,0.831,0.384,-157.198,1.183,105.710,17.0,0.0
126703,-0.124,0.144,1.030,-250.137,18.885,53.771,17.0,195.0
126755,0.488,-1.983,2.000,170.389,-1.992,-77.435,18.0,194.0
126808,-0.572,2.000,-1.268,250.130,-57.885,86.038,16.0,0.0
126863,0.921,0.229,-0.131,-250.137,-53.191,93.122,17.0,0.0
126918,1.520,-1.188,1.179,59.412,66.527,-33.740,16.0,196.0
126970,-0.970,1.388,0.679,180.435,51.565,-62.855,16.0,0.0
127026,-0.173,1.064,0.888,16.313,-44.985,15.397,17.0,0.0
127078,1.878,-0.661,0.985,170.771,-72.466,49.244,17.0,0.0
127138,0.864,2.000,-0.416,-17.206,14.985,-11.718,0.0,172.0
127191,-0.815,0.138,0.224,-250.137,76.191,-22.885,17.0,197.0
127252,2.000,-1.937,1.633,-8.313,32.092,15.084,0.0,178.0
127304,-0.028,-0.113,1.290,250.130,-16.015,6.229,18.0,0.0
127361,-1.088,2.000,-0.852,201.229,-62.725,-38.435,19.0,0.0
127416,2.000,-0.120,0.569,-250.137,12.527,-12.687,18.0,0.0
127471,1.234,-0.640,0.720,-172.336,52.656,14.405,19.0,0.0
127523,-2.000,1.933,-0.161,249.664,-16.176,-16.359,16.0,0.0
127580,0.200,1.130,0.762,-61.679,-1.221,6.000,16.0,0.0
127632,1.813,-0.414,0.886,-177.145,-21.221,-37.496,17.0,0.0
127687,-1.960,1.336,0.815,-26.817,16.244,-76.389,16.0,0.0
127739,-0.480,0.760,0.778,150.412,-13.855,16.115,20.0,0.0
127796,2.000,0.555,0.700,-206.809,4.710,-41.992,20.0,0.0
127848,0.202,-0.250,0.625,-250.137,89.641,-148.420,17.0,0.0
127913,-1.664,-0.933,1.841,21.802,5.786,-184.886,0.0,0.0
127967,-0.294,-0.610,0.466,250.130,-68.160,-94.939,29.0,0.0
128020,0.216,1.013,0.164,250.130,-133.107,-246.893,36.0,0.0
128075,0.710,2.000,-0.499,-207.038,-101.015,-250.137,0.0,75.0
128134,0.763,0.224,-1.017,-250.137,214.069,-250.137,0.0,110.0
128186,-1.126,-2.000,0.922,-250.137,250.130,-208.542,17.0,0.0
128231,-0.955,-1.302,0.787,250.130,238.557,-78.969,19.0,64.0
128275,-1.625,-0.459,-0.477,250.130,112.939,-141.305,23.0,58.0
128333,-0.986,2.000,-0.709,-24.374,61.710,-66.893,0.0,56.0
128377,-1.100,-0.494,0.163,-250.137,94.435,-13.405,24.0,57.0
128421,-0.955,-2.000,1.635,-25.305,-28.053,10.550,21.0,59.0
128466,-0.864,-1.470,0.365,250.130,-69.298,30.824,22.0,57.0
128566,-0.680,1.957,-0.281,-250.137,80.802,7.832,0.0,76.0
128610,-1.255,-1.144,0.060,-250.137,81.588,-28.244,20.0,66.0
128655,-1.029,-2.000,1.157,-145.588,-8.885,-13.931,17.0,64.0
128699,-0.884,-1.220,0.703,250.130,-39.069,-37.580,19.0,58.0
128748,-0.874,-0.271,0.183,250.130,-86.847,-52.687,27.0,72.0
128795,-0.814,0.032,0.081,250.130,-96.282,-47.832,57.0,70.0
128842,-0.342,2.000,-0.764,79.122,37.489,-11.786,58.0,80.0
128888,-0.962,0.561,-0.673,-250.137,98.618,-29.023,34.0,68.0
128933,-0.781,-1.782,0.607,-250.137,16.794,-56.985,30.0,52.0
128977,-0.688,-1.852,1.206,250.130,-51.374,-54.870,30.0,51.0
129025,-0.627,-0.333,-0.225,250.130,-16.916,11.473,57.0,68.0
129073,-0.925,2.000,-0.616,-117.008,93.588,10.328,59.0,70.0
129117,-0.938,-0.118,-0.315,-250.137,98.695,-24.527,29.0,55.0
129173,-0.897,-2.000,1.648,-71.260,-25.511,-45.336,155.0,72.0
129219,-0.892,-1.247,-0.177,250.130,-54.947,18.702,30.0,70.0
129267,-0.697,2.000,-1.144,250.130,-4.183,69.954,58.0,78.0
129312,-0.837,1.142,-0.655,-250.137,76.366,-27.504,33.0,71.0
129358,-0.862,-1.500,0.058,-250.137,64.313,-41.908,51.0,56.0
129405,-0.869,-2.000,1.381,231.924,-28.298,-3.412,51.0,56.0
129451,-0.784,-0.688,-0.172,250.130,-59.565,25.153,30.0,71.0
129499,-0.611,2.000,-0.994,250.130,20.580,70.977,57.0,78.0
129548,-1.012,0.775,-0.951,-250.137,95.763,-16.061,30.0,72.0
129592,-1.058,-2.000,0.775,-250.137,-4.557,-72.053,19.0,59.0
129647,-0.917,-2.000,0.902,250.130,-70.947,-25.267,200.0,57.0
129695,-0.632,1.948,-1.103,250.130,-22.305,58.252,58.0,80.0
129741,-0.901,1.224,-0.585,-250.137,59.374,-18.542,29.0,72.0
129786,-0.935,-2.000,0.844,-250.137,-0.282,-64.092,29.0,57.0
129830,-0.785,-1.613,0.717,250.130,-36.588,-11.008,28.0,57.0
129879,-0.839,1.972,-0.743,250.130,-11.954,41.412,56.0,73.0
129927,-0.954,0.478,-0.058,-250.137,43.702,-2.374,30.0,57.0
129972,-0.849,-2.000,1.562,-78.733,-35.145,25.031,24.0,57.0
130016,-0.675,-0.568,0.735,250.130,-54.313,30.092,25.0,58.0
130062,-0.717,-0.005,0.623,250.130,-60.878,17.260,29.0,75.0
130119,-1.115,0.536,0.522,250.130,-72.496,19.565,0.0,85.0
130174,-1.186,1.089,0.541,-250.137,-87.206,60.756,0.0,75.0
130231,-1.040,-0.755,1.633,-97.435,-182.771,54.718,199.0,71.0
130288,-0.914,-0.511,1.017,250.130,-250.137,113.405,0.0,96.0
130343,0.040,0.224,-0.324,250.130,-195.618,250.130,0.0,73.0
130403,0.898,2.000,-0.941,-105.496,52.176,202.244,0.0,81.0
130458,-0.177,0.438,-0.561,-250.137,113.893,58.176,0.0,62.0
130513,-0.553,-1.398,1.102,-247.053,-149.374,30.550,0.0,60.0
130569,0.210,-0.693,0.434,250.130,-250.137,98.496,0.0,59.0
130628,1.452,2.000,-0.777,250.130,-29.389,161.656,0.0,128.0
130676,0.865,0.770,-0.017,-250.137,201.473,50.855,43.0,91.0
130724,-0.209,-0.387,0.409,-250.137,66.313,80.206,38.0,97.0
130775,0.402,-1.176,1.120,-66.939,-160.389,-3.115,79.0,99.0
130826,0.679,-0.574,0.408,250.130,-206.008,7.061,34.0,98.0
130873,1.863,1.085,-0.310,250.130,6.725,79.405,34.0,94.0
130921,1.267,0.712,0.224,-179.870,245.092,21.901,33.0,103.0
130969,-0.240,-0.082,0.518,-250.137,136.664,34.237,30.0,103.0
131060,0.277,-0.665,0.514,250.130,-250.137,-44.985,30.0,101.0
131113,0.805,-0.181,-0.504,250.130,-222.969,49.298,32.0,190.0
131169,2.000,1.164,-0.580,-155.359,139.359,29.679,158.0,105.0
131217,0.577,-0.395,0.332,-250.137,250.130,35.710,30.0,106.0
131271,-0.501,-0.740,0.513,-250.137,173.557,75.893,66.0,110.0
131321,0.350,-1.807,1.162,-94.840,-135.115,-152.939,71.0,108.0
131369,0.438,-1.016,0.408,250.130,-194.420,-156.321,27.0,105.0
131418,1.457,0.691,-0.678,250.130,-5.076,8.321,29.0,107.0
131467,1.382,0.981,-0.314,-122.084,250.130,-36.466,29.0,127.0
131520,-0.019,-0.044,0.377,-250.137,250.130,-4.687,28.0,195.0
131581,-0.295,-1.204,1.674,-250.137,-10.641,-85.290,189.0,171.0
131639,-0.139,-1.316,1.002,250.130,-236.710,-250.053,190.0,110.0
131689,1.933,1.682,-0.367,250.130,-8.542,18.710,33.0,82.0
131736,1.198,1.193,0.078,-227.580,250.130,-3.481,34.0,79.0
131783,-0.442,0.213,0.378,-250.137,213.687,30.191,33.0,84.0
131833,0.264,-1.620,1.708,-112.550,-155.053,-152.053,70.0,104.0
131880,0.340,-0.750,0.572,250.130,-250.137,-132.771,32.0,83.0
131929,1.740,1.400,-0.353,250.130,-32.008,32.489,35.0,92.0
131976,1.247,0.919,0.202,-169.481,250.130,11.618,33.0,96.0
132023,-0.467,0.347,0.356,-250.137,215.550,48.000,33.0,79.0
132079,-0.013,-0.870,1.540,-174.893,-112.115,-71.061,191.0,85.0
132129,0.494,-0.647,0.744,250.130,-206.031,-69.359,31.0,79.0
132177,1.894,-0.090,0.219,250.130,37.336,89.221,34.0,93.0
132227,1.479,1.020,0.066,200.992,250.130,43.573,37.0,117.0
132275,-0.694,2.000,-0.588,-250.137,216.511,-100.092,34.0,102.0
132340,0.526,-1.932,-0.587,-250.137,-37.198,-234.389,190.0,160.0
132390,-0.081,-2.000,1.675,250.130,-10.466,-181.412,68.0,107.0
132435,1.322,-1.034,-0.927,250.130,202.687,91.595,36.0,76.0
132482,0.518,1.611,-1.412,250.130,250.130,3.878,38.0,75.0
132530,0.171,1.112,-0.224,-250.137,250.130,-210.595,46.0,57.0
132587,-0.701,-0.699,-0.693,-250.137,250.130,-144.786,195.0,104.0
132634,-0.401,-2.000,2.000,127.038,131.351,-189.038,30.0,110.0
132679,-1.490,-1.410,-0.574,250.130,52.260,-250.137,36.0,46.0
132732,0.099,2.000,-1.330,116.122,204.626,-118.748,0.0,43.0
132776,-1.221,-0.199,-0.371,-250.137,250.130,-120.038,32.0,43.0
132820,-1.434,-2.000,2.000,187.702,36.893,-118.718,31.0,45.0
132866,-0.898,-0.787,-0.248,250.130,13.573,18.656,37.0,61.0
132923,-0.803,2.000,-0.641,-124.092,99.053,58.298,0.0,63.0
132967,-0.588,-1.575,0.486,-250.137,51.542,-77.740,29.0,43.0
133010,-0.765,-2.000,1.578,250.130,-37.527,-73.046,30.0,44.0
133056,-0.518,0.530,-0.362,250.130,-15.870,19.595,36.0,64.0
133101,-0.689,1.818,-0.214,-250.137,53.397,-10.580,36.0,63.0
133146,-0.632,-1.358,0.725,-250.137,33.260,-79.817,34.0,61.0
133191,-0.828,-1.791,1.126,250.130,-48.183,-56.992,33.0,61.0
133237,-0.536,-0.748,0.222,250.130,-65.366,16.771,52.0,60.0
133297,-0.674,-0.430,-0.570,250.130,-114.550,74.901,0.0,98.0
133354,-0.297,2.000,-0.673,-250.137,37.458,-25.725,0.0,115.0
133409,-1.120,-0.302,0.780,-250.137,-3.023,-17.809,0.0,57.0
133464,-1.165,-2.000,2.000,140.023,-240.366,31.496,0.0,58.0
133518,-0.557,0.935,0.813,250.130,-250.137,160.695,0.0,64.0
133616,0.400,0.053,-0.299,250.130,-250.137,244.687,0.0,56.0
133670,1.894,2.000,-1.689,183.511,70.977,250.130,0.0,61.0
133726,-0.070,1.201,-1.268,-250.137,250.130,8.687,0.0,73.0
133782,-1.259,-1.286,0.098,-250.137,-79.160,47.962,0.0,86.0
133841,0.254,-1.791,0.315,250.130,-250.137,101.855,0.0,89.0
133898,1.947,1.957,-0.757,222.405,62.985,168.702,0.0,92.0
133955,0.343,0.522,-0.169,-250.137,171.206,4.458,195.0,98.0
134011,0.099,-2.000,1.275,-147.481,-166.443,-67.809,192.0,103.0
134068,1.199,-1.768,-0.619,250.130,-150.191,104.924,191.0,103.0
134127,1.353,1.609,-1.113,250.130,147.939,49.977,0.0,123.0
134183,0.400,1.072,-1.151,-250.137,162.496,-161.237,190.0,105.0
134241,1.132,-2.000,0.597,-250.137,-148.771,-250.137,0.0,110.0
134301,1.772,-0.944,-0.828,250.130,-13.832,89.886,187.0,104.0
134358,0.585,1.971,-1.053,-207.611,204.985,37.588,189.0,104.0
134415,0.222,-1.411,0.064,-250.137,-22.908,-156.809,0.0,109.0
134472,0.654,-2.000,1.028,250.130,-117.908,-64.878,188.0,105.0
134529,1.402,1.247,-0.543,170.626,182.267,69.725,189.0,103.0
134586,0.082,0.398,-0.269,-250.137,123.191,-14.076,191.0,107.0
134645,0.270,-2.000,1.405,28.260,-168.992,-120.603,0.0,138.0
134702,0.354,-1.670,-1.254,250.130,-153.145,104.908,193.0,99.0
134773,0.574,1.596,-0.916,180.626,70.618,69.832,0.0,157.0
134831,0.473,0.467,-0.743,-250.137,238.573,-197.366,0.0,92.0
134876,0.338,-0.282,-0.408,-250.137,250.130,-109.252,30.0,64.0
134925,0.060,-0.857,0.533,-250.137,250.130,5.931,63.0,92.0
134972,-0.084,-2.000,1.703,-33.863,250.130,38.328,35.0,99.0
135028,0.175,-1.820,0.888,250.130,250.130,-55.763,0.0,81.0
135084,-0.672,-0.574,0.057,250.130,196.908,-196.336,0.0,69.0
135139,-1.578,2.000,-1.432,107.969,113.473,-219.893,0.0,61.0
135183,-1.218,0.204,-1.025,-250.137,250.130,-211.527,23.0,50.0
135230,-1.349,-2.000,2.000,-126.840,89.969,-49.595,19.0,54.0
135274,-1.114,-1.917,0.266,250.130,19.817,-7.573,21.0,50.0
135330,-1.172,2.000,-1.422,250.130,32.420,50.618,0.0,86.0
135375,-1.333,0.643,-0.596,-250.137,78.954,20.565,26.0,67.0
135419,-1.084,-2.000,1.361,-250.137,-57.878,-35.427,18.0,52.0
135464,-0.740,-2.000,0.882,250.130,-74.740,-59.191,21.0,60.0
135511,-0.376,1.014,-0.647,250.130,-20.573,-0.573,31.0,82.0
135563,-0.755,1.866,-0.526,-250.137,88.985,-41.420,127.0,81.0
135611,-0.969,-1.226,0.093,-250.137,86.947,-49.733,44.0,48.0
135660,-0.717,-2.000,1.509,250.130,-42.916,-78.924,103.0,57.0
135706,-0.793,-0.711,-0.509,250.130,-42.420,-10.122,30.0,76.0
135753,-0.895,2.000,-1.011,-204.290,70.427,13.450,38.0,75.0
135797,-0.733,-0.222,-0.261,-250.137,93.153,-52.435,30.0,56.0
135842,-0.847,-2.000,1.702,-11.015,-48.573,-89.901,30.0,44.0
135888,-0.910,-1.143,-0.003,250.130,-59.603,-30.046,30.0,76.0
135934,-0.747,2.000,-0.835,154.046,4.649,30.321,32.0,74.0
135983,-0.697,0.194,0.115,-250.137,62.389,-21.229,29.0,57.0
136028,-0.963,-2.000,1.250,-60.748,-43.679,-64.229,30.0,57.0
136074,-0.855,-1.010,0.407,250.130,-59.031,-33.603,29.0,75.0
136120,-0.727,1.339,-0.405,179.115,21.664,28.885,31.0,72.0
136165,-0.805,0.297,0.432,-250.137,52.702,10.092,29.0,73.0
136254,-0.769,-0.806,0.741,250.130,-64.122,-31.779,29.0,71.0
136300,-0.350,0.026,0.318,250.130,6.076,2.328,32.0,69.0
136346,-0.980,2.000,-0.596,-250.137,147.519,1.679,33.0,68.0
136392,-1.365,-0.463,-0.409,-250.137,93.359,-1.206,26.0,71.0
136440,-0.675,-2.000,2.000,140.313,-85.176,-122.855,25.0,72.0
136486,-0.884,-1.269,-0.077,250.130,-108.000,-55.649,30.0,66.0
136537,-0.284,2.000,-0.855,250.130,-13.115,26.802,118.0,62.0
136588,-0.745,1.057,-0.155,-250.137,71.886,-39.198,121.0,63.0
136633,-1.098,-2.000,1.965,-250.137,-91.412,-122.198,30.0,64.0
136679,-1.403,-1.539,1.404,250.130,-228.550,-74.947,34.0,61.0
136730,-0.950,0.396,0.329,250.130,-250.137,18.435,138.0,58.0
136785,-0.163,0.842,0.595,250.130,-250.137,88.351,0.0,57.0
136844,0.955,0.435,0.501,167.855,-135.832,150.802,0.0,57.0
136890,0.835,1.603,-0.178,-246.206,229.611,106.008,50.0,57.0
136945,-0.655,1.227,-0.441,-250.137,145.397,73.061,0.0,62.0
136992,0.378,-1.996,0.671,-250.137,-179.641,-248.702,53.0,67.0
137039,-0.269,-2.000,1.153,250.130,-239.886,-190.496,58.0,66.0
137095,0.637,-0.529,-0.696,250.130,-110.534,52.534,0.0,63.0
137151,0.958,1.612,-0.163,-7.802,180.595,49.962,0.0,64.0
137206,-0.555,0.216,-0.128,-250.137,44.206,-52.282,0.0,67.0
137260,0.115,-2.000,1.838,79.084,-174.924,-199.611,112.0,67.0
137316,1.051,-0.941,-0.320,250.130,-67.687,38.473,0.0,63.0
137371,1.198,2.000,-0.371,35.153,218.786,15.481,0.0,64.0
137426,-0.326,0.450,-0.481,-250.137,111.550,-69.710,0.0,66.0
137477,0.457,-2.000,1.642,-184.229,-143.809,-250.137,111.0,68.0
137533,1.208,-1.286,0.396,250.130,-51.588,-26.794,0.0,62.0
137588,1.514,1.509,-0.644,250.130,212.527,42.435,0.0,61.0
137644,-0.219,1.836,-0.214,-250.137,134.779,-76.656,0.0,60.0
137697,0.499,-2.000,1.542,-250.137,-136.031,-250.137,103.0,63.0
137752,0.702,-1.622,0.693,250.130,-97.084,-5.542,0.0,60.0
137807,2.000,1.125,-1.216,250.130,217.931,129.359,0.0,59.0
137863,0.020,2.000,-0.563,-250.137,237.511,-103.221,0.0,60.0
137913,-0.138,-2.000,-0.154,-250.137,-68.947,-200.328,108.0,65.0
137963,0.099,-2.000,1.799,250.130,-135.992,-54.542,113.0,64.0
138018,0.710,-0.803,-1.236,250.130,-48.847,99.137,0.0,61.0
138075,0.927,2.000,-0.777,-64.840,222.336,19.244,0.0,63.0
138130,-0.293,0.125,-0.732,-250.137,250.130,-64.267,0.0,65.0
138189,-1.149,-1.187,0.367,-250.137,241.817,139.443,0.0,72.0
138236,-0.194,-1.798,1.372,247.221,74.985,137.656,37.0,72.0
138292,0.148,-0.898,0.370,250.130,35.023,-13.893,0.0,69.0
138348,-0.244,1.159,0.055,250.130,179.595,-102.275,0.0,67.0
138403,-1.468,1.288,-0.292,-250.137,248.092,-137.344,0.0,68.0
138449,-1.232,-2.000,2.000,-250.137,48.489,-49.504,21.0,70.0
138494,-0.890,-1.936,0.812,250.130,-63.489,-63.863,20.0,66.0
138546,-0.295,0.156,-0.260,250.130,2.527,-13.153,117.0,63.0
138600,-1.030,2.000,-1.054,-250.137,170.168,-88.870,119.0,63.0
138645,-0.792,-1.326,-0.468,-250.137,111.427,-104.366,18.0,67.0
138691,-0.911,-2.000,1.930,250.130,-44.336,-90.000,18.0,67.0
138736,-0.997,-0.768,-0.545,250.130,-43.244,19.237,23.0,63.0
138787,-0.647,2.000,-1.257,25.779,90.107,74.389,123.0,62.0
138882,-0.241,-2.000,1.756,-46.672,-102.832,-106.725,19.0,69.0
138927,-0.885,-1.342,0.074,250.130,-106.069,-35.046,21.0,65.0
138976,-0.599,2.000,-1.178,250.130,34.763,86.740,116.0,64.0
139024,-0.621,0.134,-0.095,-250.137,65.748,62.168,20.0,67.0
139068,-0.229,-2.000,1.406,-97.641,8.344,-60.550,19.0,69.0
139112,-1.354,-0.792,0.419,250.130,-45.313,-35.611,19.0,67.0
139157,-0.754,1.420,-0.206,122.313,-12.427,78.832,21.0,66.0
139201,-0.267,0.016,0.644,-250.137,36.725,44.969,21.0,67.0
139246,-0.811,-0.804,1.000,6.466,27.359,-59.267,20.0,68.0
139290,-1.685,0.354,0.619,160.397,-44.191,16.809,21.0,68.0
139335,-0.898,0.426,0.567,20.221,-23.656,170.145,22.0,69.0
139390,0.230,-0.537,0.689,-19.832,40.344,117.969,0.0,71.0
139438,-0.408,0.404,0.129,-60.053,60.977,-117.939,23.0,70.0
139483,-1.325,0.372,0.395,-250.137,71.855,-104.954,17.0,71.0
139527,-1.496,-0.895,0.919,-225.099,62.282,91.008,17.0,72.0
139572,-0.596,-1.236,1.155,216.153,-33.573,68.275,17.0,72.0
139617,-0.871,-0.259,0.125,250.130,-121.244,-73.817,18.0,69.0
139661,-0.360,1.411,-0.063,250.130,2.977,-15.489,24.0,67.0
139716,-1.281,0.939,-0.473,-250.137,119.282,18.977,0.0,69.0
139761,-0.834,-1.964,1.359,-250.137,-20.237,-56.626,18.0,72.0
139808,-1.076,-1.868,0.986,250.130,-124.466,-137.504,17.0,70.0
139853,-0.310,0.709,-0.257,250.130,-13.664,10.305,22.0,67.0
139898,-1.241,1.649,-0.652,-250.137,119.351,22.794,21.0,67.0
139942,-0.745,-0.678,0.261,-250.137,73.519,-44.115,17.0,70.0
139987,-1.043,-2.000,1.591,168.168,-89.573,-129.130,17.0,70.0
140033,-0.963,-1.138,-0.203,250.130,-123.611,-44.939,21.0,66.0
140083,0.442,2.000,-1.813,168.542,133.183,74.901,114.0,65.0
140127,-0.854,0.643,-0.714,-250.137,189.817,26.473,21.0,68.0
140175,-0.721,-2.000,1.479,-143.023,-35.527,-136.389,17.0,71.0
140219,-1.035,-1.762,0.348,250.130,-92.817,-59.473,19.0,67.0
140269,-0.295,2.000,-1.319,250.130,52.771,86.786,119.0,66.0
140314,-1.029,1.082,-0.537,-250.137,106.382,34.611,22.0,67.0
140359,-1.037,-2.000,0.954,-250.137,-20.649,-112.611,16.0,71.0
140404,-0.809,-1.629,0.851,250.130,-63.565,-55.244,17.0,69.0
140448,-0.265,2.000,-0.765,156.275,98.947,96.214,20.0,67.0
140493,-1.152,0.355,-0.137,-250.137,141.076,69.221,17.0,71.0
140538,-0.689,-2.000,1.410,69.618,-31.053,-119.557,17.0,73.0
140580,-0.910,-0.983,0.219,250.130,-39.344,-44.664,18.0,68.0
140625,-0.702,2.000,-0.869,-65.870,87.427,46.244,22.0,67.0
140670,-1.056,-0.191,0.220,-250.137,90.542,21.992,17.0,71.0
140716,-0.972,-2.000,1.334,170.916,-59.634,-92.679,16.0,72.0
140760,-0.837,-0.464,-0.046,250.130,-71.977,-5.954,19.0,68.0
140805,-0.629,2.000,-0.868,-165.779,62.053,66.107,20.0,67.0
140850,-0.765,-0.511,0.301,-250.137,77.260,11.221,16.0,71.0
140895,-0.861,-2.000,1.389,168.267,-37.237,-57.473,17.0,72.0
140941,-1.005,-0.701,-0.263,250.130,-89.282,-31.748,18.0,53.0
140986,-0.047,1.850,-0.321,231.427,18.107,16.695,25.0,66.0
141031,-0.842,0.685,-0.053,-250.137,122.473,-31.466,23.0,67.0
141074,-1.236,-2.000,1.029,-250.137,26.282,-88.481,19.0,36.0
141119,-1.021,-1.760,1.070,250.130,-51.687,-89.176,20.0,58.0
141207,-1.321,2.000,-1.163,-250.137,81.534,18.962,23.0,63.0
141251,-0.954,-1.555,-0.079,-250.137,40.626,-46.153,19.0,59.0
141296,-0.641,-2.000,1.727,213.832,-80.221,4.748,18.0,69.0
141344,-0.898,-0.462,-0.556,250.130,-138.153,-20.214,23.0,64.0
141394,-0.205,2.000,-0.760,89.198,0.000,45.481,116.0,62.0
141438,-0.797,0.163,-0.315,-250.137,108.298,21.344,21.0,65.0
141484,-0.836,-2.000,0.918,-250.137,39.137,-6.183,19.0,68.0
141529,-0.640,-1.656,0.837,250.130,-25.282,-56.069,19.0,66.0
141574,-0.506,1.373,-0.635,250.130,-2.351,-2.046,25.0,63.0
141619,-1.128,1.399,-0.819,-250.137,59.885,8.344,27.0,64.0
141664,-0.701,-2.000,0.655,-250.137,45.061,13.252,17.0,63.0
141708,-0.703,-1.898,0.937,250.130,-1.580,-14.550,20.0,58.0
141750,-1.076,0.701,-0.369,250.130,-45.351,-27.176,21.0,57.0
141794,-1.082,1.309,-0.087,-196.534,1.145,16.603,23.0,57.0
141839,-0.826,-0.896,0.649,-250.137,8.748,33.794,20.0,60.0
141884,-0.656,-1.623,1.172,141.168,-50.611,-10.710,20.0,67.0
141928,-0.827,-0.556,0.339,250.130,-87.924,-20.183,22.0,59.0
141979,-0.513,1.582,-0.191,159.397,-32.183,24.580,115.0,64.0
142024,-0.825,0.263,0.034,-250.137,61.626,29.176,21.0,66.0
142069,-0.949,-1.629,0.860,-250.137,30.840,16.534,21.0,69.0
142117,-0.795,-1.227,0.938,214.855,-36.137,-22.794,19.0,68.0
142162,-0.735,0.141,0.229,250.130,-74.779,-59.954,27.0,65.0
142208,-0.333,0.485,0.397,93.015,-39.840,-72.374,22.0,65.0
142253,-0.429,0.494,0.279,-9.779,54.076,-16.427,25.0,65.0
142308,-0.986,0.410,0.350,-192.924,117.038,62.328,0.0,67.0
142352,-1.251,-1.230,0.785,-250.137,37.122,75.573,17.0,60.0
142397,-1.143,-2.000,1.262,250.130,-74.107,-27.099,17.0,61.0
142442,-1.036,-0.980,0.337,250.130,-123.725,-17.305,20.0,67.0
142495,-0.607,0.188,-0.211,250.130,-106.145,24.901,115.0,64.0
142546,-0.269,2.000,-0.753,3.298,18.290,13.702,120.0,63.0
142597,-0.719,0.619,-0.667,-250.137,83.817,-47.328,115.0,63.0
142642,-0.904,-1.082,0.059,-250.137,44.809,-35.305,22.0,66.0
142686,-0.784,-1.895,1.367,-79.649,-36.794,31.611,23.0,58.0
142732,-0.783,-0.738,0.756,250.130,-74.656,26.580,23.0,66.0
142777,-0.767,-0.372,0.535,250.130,-109.511,50.496,27.0,65.0
142827,-0.547,-0.221,0.321,250.130,-97.939,108.611,117.0,65.0
142882,-0.104,0.577,-0.184,250.130,-31.802,149.595,200.0,58.0
142940,-0.165,2.000,-0.236,101.527,25.122,59.198,175.0,57.0
142995,-0.376,1.494,-0.369,-250.137,55.550,-26.718,198.0,70.0
143050,-0.557,0.227,-0.066,-250.137,55.534,-26.817,0.0,69.0
143096,-0.521,-1.098,0.909,-250.137,8.695,-31.405,23.0,71.0
143141,-0.619,-1.500,1.475,164.756,-25.382,11.977,21.0,71.0
143198,-0.516,-0.618,0.626,250.130,-42.053,67.672,0.0,70.0
143252,-0.267,0.596,-0.135,250.130,-51.489,103.282,196.0,59.0
143306,-0.169,2.000,-0.371,210.084,-35.153,60.160,170.0,57.0
143365,-0.148,1.698,-0.645,-250.137,26.107,-42.359,196.0,64.0
143420,-0.221,-0.195,-0.097,-250.137,60.252,-68.275,0.0,71.0
143466,-0.521,-1.972,1.680,-107.771,1.511,-49.664,24.0,72.0
143522,-0.410,-0.951,0.873,250.130,-28.893,55.206,0.0,70.0
143578,-0.140,0.359,-0.098,250.130,-45.489,76.374,195.0,65.0
143677,-0.182,1.278,-0.506,-250.137,32.863,-77.542,0.0,70.0
143732,-0.330,-0.607,0.445,-250.137,59.985,-81.870,0.0,71.0
143778,-0.571,-1.740,1.647,64.420,5.351,4.328,25.0,72.0
143838,-0.459,-0.756,0.875,250.130,-20.366,60.603,0.0,70.0
143892,-0.215,0.244,-0.229,250.130,-32.221,119.740,195.0,61.0
143947,0.031,2.000,-0.754,118.641,-39.328,66.099,198.0,59.0
144004,-0.056,0.832,-0.537,-250.137,35.641,-72.076,195.0,71.0
144059,-0.285,-0.517,0.726,-250.137,45.969,-61.656,0.0,70.0
144115,-0.485,-1.118,1.385,227.115,-5.183,43.397,0.0,71.0
144172,-0.115,0.573,0.510,250.130,-36.817,55.153,0.0,70.0
144227,-0.138,1.058,0.496,104.710,-21.733,-10.008,195.0,73.0
144283,-0.371,0.906,0.685,-96.252,-29.649,-68.282,196.0,70.0
144342,-0.558,0.393,0.850,18.481,-31.618,3.038,196.0,71.0
144398,-0.031,0.247,0.967,109.450,-25.206,47.832,196.0,73.0
144453,-0.073,0.549,0.529,250.130,-22.168,27.969,195.0,62.0
144508,-0.397,2.000,-0.459,123.237,2.023,41.145,196.0,62.0
144564,0.219,0.983,0.256,-250.137,24.099,61.710,196.0,65.0
144620,0.279,-0.063,0.743,-250.137,34.298,-28.710,0.0,85.0
144676,-0.943,0.787,0.866,250.130,21.229,-33.489,196.0,66.0
144732,-0.131,0.696,0.288,248.313,15.061,177.771,195.0,65.0
144790,0.650,1.204,0.356,138.198,32.145,106.893,0.0,65.0
144846,0.107,2.000,-0.178,-124.443,-4.107,-58.893,0.0,65.0
144893,-1.097,-0.751,-0.418,-250.137,-11.641,55.565,43.0,71.0
144940,0.829,-1.315,1.520,-100.076,-9.931,192.206,36.0,62.0
144986,0.988,-0.012,0.683,248.122,-9.321,37.634,37.0,59.0
145041,-1.014,2.000,0.106,250.130,-49.947,-164.084,0.0,70.0
145088,-0.348,0.176,0.408,-250.137,-16.786,229.076,41.0,61.0
145139,1.288,-1.153,1.356,60.786,7.015,113.557,44.0,62.0
145185,0.143,0.630,0.448,250.130,-59.779,-135.527,40.0,68.0
145243,-0.353,1.138,-1.080,-179.015,6.160,83.802,0.0,74.0
145289,1.205,-0.725,1.294,-112.031,16.397,170.969,36.0,71.0
145344,0.916,0.238,0.637,116.656,-45.969,-76.130,0.0,71.0
145399,-0.151,2.000,-2.000,-31.885,11.832,-50.122,0.0,74.0
145455,0.737,-0.428,0.810,-100.389,57.420,204.397,0.0,82.0
145510,0.854,0.240,0.638,148.504,-40.038,-100.878,0.0,78.0
145565,0.014,2.000,-1.902,-119.763,-15.053,-37.786,0.0,73.0
145622,1.194,-1.045,0.923,-106.008,35.405,108.779,0.0,82.0
145680,-0.056,1.245,-0.023,250.130,-51.267,-178.237,0.0,87.0
145736,0.597,0.753,0.499,-137.809,18.145,94.076,0.0,89.0
145792,0.654,0.344,0.589,144.206,-39.305,-72.435,0.0,76.0
145847,0.185,0.996,-0.204,-192.786,20.450,43.168,0.0,78.0
145904,1.076,-0.698,1.052,-8.046,13.443,10.733,0.0,96.0
145959,-0.252,2.000,-0.940,37.229,4.885,-52.992,0.0,77.0
146015,1.006,-0.405,1.073,-137.901,21.076,59.084,0.0,79.0
146070,0.276,1.405,-0.061,250.130,-26.733,-84.710,0.0,77.0
146127,0.461,0.583,0.392,-250.137,14.481,50.939,0.0,101.0
146186,0.738,0.140,0.811,183.771,-18.603,-51.870,0.0,82.0
146241,-0.002,1.421,-0.792,-210.023,34.153,36.489,0.0,76.0
146296,1.001,-1.047,1.348,-16.206,25.061,28.244,0.0,64.0
146353,-0.216,2.000,-0.810,210.947,-1.954,-39.229,0.0,83.0