Timestamp(ms),AccelX(g),AccelY(g),AccelZ(g),GyroX(deg/s),GyroY(deg/s),GyroZ(deg/s),DistanceLeft(cm),DistanceRight(cm)
53280,-0.477,0.278,0.073,250.130,-129.908,69.580,0.0,58.0
53336,-0.174,1.473,0.256,67.443,6.870,96.771,0.0,60.0
53391,-0.777,0.760,0.452,-250.137,74.710,79.053,0.0,64.0
53447,-0.985,-0.295,0.926,-250.137,-46.298,90.527,0.0,69.0
53502,-0.688,-0.726,1.326,-20.115,-156.160,31.244,0.0,72.0
53555,-0.409,-0.136,0.995,114.710,-250.137,-10.122,71.0,73.0
53604,-0.036,-0.149,0.881,176.855,-250.137,-37.542,75.0,80.0
53655,0.272,-0.202,0.705,250.130,-185.069,34.641,67.0,122.0
53702,0.521,1.163,0.337,105.260,27.244,136.115,39.0,80.0
53750,0.068,0.899,0.558,-208.145,151.924,159.588,37.0,99.0
53796,-0.199,-0.019,0.423,-250.137,36.870,164.344,36.0,79.0
53847,0.725,-1.154,1.146,-218.015,-141.214,-73.695,57.0,106.0
53897,0.391,-1.111,1.296,250.130,-144.519,-57.344,57.0,106.0
53946,0.846,1.441,-0.367,250.130,88.336,194.244,35.0,61.0
53991,0.664,1.023,0.432,-155.473,213.160,203.046,30.0,64.0
54039,-0.471,-0.266,0.486,-250.137,73.550,152.886,30.0,108.0
54097,0.198,-1.866,0.823,-250.137,-113.198,-86.656,0.0,112.0
54156,0.133,-0.706,0.451,250.130,-204.145,-82.260,0.0,110.0
54214,1.167,0.668,0.085,87.137,79.344,188.275,0.0,110.0
54273,0.271,-0.675,0.866,-250.137,90.061,89.840,0.0,114.0
54331,0.135,-1.231,1.335,219.366,-14.794,-64.435,0.0,111.0
54379,0.804,0.536,0.431,142.573,79.832,66.015,18.0,110.0
54439,0.365,0.039,0.984,-123.450,100.908,63.893,0.0,98.0
54488,-0.474,-0.279,1.013,-10.809,15.802,57.542,17.0,113.0
54535,0.027,-0.636,0.747,-85.679,-65.061,74.168,16.0,115.0
54583,0.774,-1.123,0.623,-158.771,-98.824,-134.458,17.0,116.0
54641,0.548,-1.236,1.536,43.511,-21.244,-205.992,0.0,111.0
54689,0.023,1.472,0.259,136.244,34.542,52.573,26.0,96.0
54740,0.407,-0.018,0.584,-151.527,109.840,184.771,22.0,173.0
54793,0.443,-1.316,1.011,-153.504,54.069,124.053,17.0,191.0
54864,0.235,-1.388,1.000,-34.969,-70.756,-148.420,0.0,0.0
54921,0.699,1.551,-0.208,250.130,66.198,7.519,27.0,0.0
54978,-0.205,0.033,0.631,-244.969,219.137,198.962,0.0,115.0
55035,-0.028,-1.490,1.405,-131.267,-31.298,-17.550,0.0,119.0
55098,-0.195,-0.990,0.951,86.924,-228.557,-240.672,0.0,0.0
55159,0.839,0.363,0.192,219.656,-92.695,-50.916,0.0,171.0
55205,0.561,-0.176,0.661,-96.886,212.206,124.198,17.0,114.0
55267,-0.562,-0.536,0.759,-204.397,131.305,134.290,0.0,170.0
55328,-0.172,-1.158,1.075,-55.542,-132.160,-120.740,0.0,192.0
55378,0.674,-0.867,0.479,250.130,-162.832,-120.099,17.0,119.0
55426,1.105,0.050,0.298,79.359,167.511,61.534,18.0,114.0
55473,-0.032,0.157,0.648,-117.763,242.992,99.206,17.0,114.0
55534,-0.453,-0.862,1.201,-250.137,45.214,2.718,0.0,178.0
55591,-0.115,-1.176,0.789,110.824,-187.947,-222.260,0.0,116.0
55649,1.247,0.000,0.146,250.130,-76.435,-51.099,0.0,111.0
55696,0.645,0.037,0.552,-48.115,237.695,76.840,17.0,112.0
55753,-0.447,-0.280,0.587,-217.565,168.626,85.611,0.0,115.0
55815,0.001,-1.357,1.174,-71.908,-94.863,-139.817,0.0,114.0
55872,0.386,-0.648,0.535,250.130,-194.702,-175.221,0.0,110.0
55919,1.147,0.319,0.247,47.244,100.313,12.580,27.0,109.0
56010,-0.335,-0.284,1.179,-168.550,149.519,17.351,30.0,110.0
56068,-0.279,-0.663,1.228,-100.198,-65.977,-83.458,0.0,110.0
56125,0.465,-1.601,0.505,201.603,-164.389,-140.634,0.0,108.0
56172,1.458,0.521,0.398,234.176,98.832,-91.099,27.0,104.0
56219,-0.372,1.731,0.403,-111.695,178.031,-91.435,30.0,102.0
56266,-0.599,-0.442,1.353,-230.137,49.069,132.740,29.0,104.0
56327,0.171,-1.106,0.906,-96.389,-66.886,163.931,0.0,109.0
56384,0.975,-1.400,0.625,7.649,-71.336,-71.733,0.0,108.0
56441,0.470,-0.413,1.421,132.359,63.260,-130.031,0.0,104.0
56499,-0.510,0.718,0.396,-54.756,86.771,83.511,0.0,105.0
56556,0.277,-0.910,0.771,-244.672,85.107,231.145,0.0,111.0
56614,0.329,-1.855,0.554,-179.466,-42.885,-160.886,0.0,123.0
56672,-0.303,-0.585,1.089,182.168,-147.176,-246.023,0.0,110.0
56729,0.973,0.778,0.245,195.992,64.015,58.260,0.0,107.0
56790,0.251,0.137,0.446,-189.588,250.130,168.420,0.0,108.0
56850,-0.145,-1.702,0.931,-250.137,-13.290,-146.458,0.0,164.0
56908,-0.448,-1.309,0.998,250.130,-244.221,-250.137,0.0,111.0
56966,1.608,1.478,-0.607,250.130,-85.252,-29.992,0.0,103.0
57022,0.754,0.255,0.673,-250.137,250.130,112.183,0.0,104.0
57080,-0.141,-1.592,0.996,-250.137,49.740,-30.382,0.0,110.0
57138,0.048,-1.792,1.277,250.130,-173.893,-250.137,0.0,107.0
57185,0.069,-0.427,-0.789,250.130,-234.595,-119.260,29.0,101.0
57234,1.888,2.000,-0.429,-62.046,187.481,49.351,30.0,69.0
57281,0.406,0.002,0.345,-250.137,250.130,88.924,30.0,102.0
57338,-1.124,-1.312,0.715,-250.137,93.695,74.748,0.0,107.0
57396,0.193,-2.000,1.679,232.527,-219.122,-204.817,0.0,106.0
57444,-0.476,-0.165,-0.290,250.130,-250.137,-147.076,52.0,103.0
57490,2.000,2.000,-0.732,109.893,-73.176,50.076,29.0,63.0
57537,1.071,-0.020,-0.400,-250.137,250.130,112.855,30.0,100.0
57594,-1.014,0.090,0.353,-250.137,250.130,223.641,0.0,106.0
57652,0.115,-1.765,1.665,-163.603,-120.893,-135.664,0.0,108.0
57704,-0.619,-0.742,0.120,250.130,-250.137,-250.137,51.0,105.0
57749,2.000,2.000,-1.227,250.130,-193.015,13.130,27.0,68.0
57795,1.834,0.569,-0.358,-250.137,250.130,69.527,26.0,83.0
57852,0.178,-0.440,0.467,-217.611,250.130,224.298,0.0,106.0
57913,0.508,-1.575,1.095,-250.137,-120.038,-229.076,0.0,146.0
57961,-0.178,-1.296,0.633,250.130,-240.099,-250.137,43.0,110.0
58007,1.892,2.000,-1.125,250.130,-60.275,23.763,30.0,66.0
58054,1.431,0.686,-0.085,-164.886,250.130,102.198,36.0,90.0
58104,-0.345,0.442,0.046,-250.137,224.779,142.947,29.0,108.0
58155,0.816,-1.677,0.954,-221.145,-171.641,-250.137,57.0,113.0
58204,0.250,-1.536,0.844,250.130,-225.931,-250.137,54.0,109.0
58250,2.000,1.565,-1.379,250.130,70.863,90.137,36.0,63.0
58295,1.334,1.225,-0.005,-88.763,250.130,56.321,30.0,64.0
58340,-0.385,0.644,-0.448,-250.137,78.771,-5.198,27.0,71.0
58388,1.357,-1.576,0.762,-250.137,-153.115,-250.137,29.0,109.0
58436,0.005,-2.000,1.670,250.130,-165.443,-240.802,30.0,105.0
58498,2.000,-1.209,-2.000,250.130,20.718,174.237,0.0,120.0
58553,1.504,2.000,-1.403,-91.710,125.069,-250.137,148.0,119.0
58598,0.198,0.886,-2.000,-250.137,166.366,-224.992,35.0,58.0
58688,0.267,-2.000,1.360,250.130,-119.511,-12.046,30.0,80.0
58733,1.734,-0.218,-1.332,250.130,33.916,154.550,34.0,59.0
58780,1.095,2.000,-0.625,-221.695,120.496,-28.435,36.0,83.0
58825,0.046,-0.788,0.584,-250.137,-2.176,-143.481,33.0,59.0
58870,0.675,-1.694,1.341,250.130,-121.313,10.595,34.0,57.0
58927,1.812,1.524,-0.991,250.130,3.771,103.947,0.0,82.0
58975,0.782,1.391,-0.999,-250.137,168.954,-124.947,35.0,58.0
59021,-0.048,-2.000,1.855,-227.580,-68.573,-106.679,30.0,72.0
59067,1.041,-1.521,0.106,250.130,-94.756,133.939,33.0,58.0
59124,1.992,2.000,-1.541,250.130,64.344,122.122,0.0,101.0
59170,0.701,0.063,-0.988,-250.137,182.542,-132.931,32.0,80.0
59217,0.018,-2.000,2.000,-234.924,-12.420,-88.374,29.0,98.0
59265,0.383,-1.182,0.256,250.130,-116.626,77.366,31.0,85.0
59321,1.766,1.597,-1.364,250.130,19.496,134.886,0.0,84.0
59371,0.838,0.417,-1.145,-250.137,250.130,-166.931,31.0,96.0
59429,-0.422,-1.082,-0.076,-250.137,250.130,-63.107,0.0,102.0
59488,-0.048,-1.719,1.053,-129.511,95.466,-78.840,0.0,117.0
59537,0.048,-1.412,0.681,250.130,22.992,-216.794,57.0,101.0
59593,0.472,-0.304,-0.803,250.130,157.916,-131.603,0.0,79.0
59650,-0.061,2.000,-0.750,-250.137,250.130,-250.137,0.0,85.0
59706,-1.587,-0.335,-0.783,-250.137,250.130,-185.916,0.0,74.0
59751,0.189,-2.000,2.000,250.130,52.916,-152.901,16.0,75.0
59806,-1.535,0.445,-1.436,250.130,11.321,-157.870,0.0,70.0
59862,-2.000,2.000,-0.749,-250.137,206.443,-88.489,131.0,71.0
59908,-0.863,-2.000,0.437,-250.137,-64.443,-114.679,17.0,71.0
59963,-0.502,-2.000,1.956,250.130,-121.931,-117.809,0.0,68.0
60015,-0.541,2.000,-2.000,250.130,100.435,104.748,131.0,70.0
60060,0.067,-1.215,0.229,-250.137,4.908,-165.771,21.0,67.0
60105,-1.018,-2.000,2.000,250.130,-24.130,-197.046,22.0,64.0
60157,-0.296,2.000,-2.000,250.130,35.580,127.603,134.0,80.0
60210,0.133,2.000,-0.314,-250.137,159.878,87.824,135.0,71.0
60269,-1.954,-0.757,0.411,-250.137,74.557,-104.084,0.0,66.0
60324,-0.739,-1.843,1.308,250.130,-246.359,8.832,0.0,65.0
60381,1.776,2.000,-1.299,250.130,82.038,92.198,0.0,72.0
60436,-1.874,0.396,-1.085,-250.137,191.641,-142.870,0.0,66.0
60491,0.181,-2.000,2.000,250.130,-150.634,-67.305,0.0,62.0
60547,0.282,2.000,-2.000,250.130,65.145,33.359,0.0,64.0
60602,-2.000,-0.073,-0.413,-250.137,76.519,19.641,0.0,67.0
60648,0.480,-2.000,2.000,144.427,-81.542,-72.740,25.0,65.0
60703,-0.265,1.119,-1.210,250.130,-57.053,-64.061,0.0,60.0
60762,-0.804,1.906,-0.870,-250.137,145.206,88.053,0.0,64.0
60818,-0.749,-2.000,1.820,-250.137,74.466,7.473,0.0,68.0
60863,-1.164,-1.573,1.481,250.130,-71.962,-79.679,23.0,66.0
60918,-0.271,1.114,-0.855,250.130,-103.733,-30.847,0.0,62.0
60971,-0.986,2.000,-0.679,-246.366,143.275,57.557,131.0,64.0
61026,-1.172,-0.685,0.366,-250.137,90.748,59.321,0.0,68.0
61072,-0.406,-2.000,1.507,162.664,-93.710,-82.969,18.0,68.0
61127,-0.551,-0.322,0.048,250.130,-85.649,-31.794,0.0,66.0
61182,-1.120,2.000,-0.626,-55.137,142.748,1.008,130.0,67.0
61238,-1.088,0.699,-0.257,-250.137,107.802,31.267,0.0,70.0
61337,-0.773,-1.496,1.204,250.130,-101.443,-68.435,0.0,69.0
61392,-1.032,0.748,-0.117,250.130,-156.977,-39.878,0.0,66.0
61449,0.038,0.919,0.096,250.130,-34.641,33.618,0.0,73.0
61504,-0.981,2.000,-0.904,-250.137,206.687,33.176,0.0,66.0
61550,-0.959,-0.744,-0.089,-250.137,88.702,-16.481,25.0,70.0
61596,-0.599,-2.000,1.884,-81.786,-66.176,-118.489,19.0,71.0
61651,-1.015,-1.130,0.680,250.130,-119.870,-80.947,0.0,66.0
61716,-0.055,1.208,-0.883,250.130,-52.626,75.176,0.0,70.0
61770,-0.505,2.000,-0.858,-250.137,172.710,-8.519,0.0,66.0
61826,-1.122,-0.160,-0.562,-250.137,192.290,15.595,0.0,69.0
61870,-0.873,-2.000,1.214,-250.137,15.015,8.611,18.0,71.0
61915,-0.651,-1.392,1.258,250.130,-69.023,-65.534,19.0,71.0
61969,-1.009,-0.353,0.270,250.130,-161.618,-94.916,0.0,67.0
62024,0.018,1.682,-0.479,250.130,-73.443,41.733,0.0,67.0
62080,-0.784,2.000,-0.770,-250.137,186.588,49.405,0.0,67.0
62127,-1.225,-1.379,0.104,-250.137,100.313,55.855,26.0,73.0
62174,-0.578,-2.000,1.738,19.550,-88.237,-54.771,20.0,111.0
62229,-0.854,-0.770,0.511,250.130,-154.420,-98.191,0.0,70.0
62284,0.165,1.574,-0.315,250.130,-53.305,63.649,0.0,68.0
62339,-0.583,1.529,0.082,-250.137,124.954,50.687,0.0,70.0
62386,-1.089,-0.607,0.371,-250.137,75.366,56.496,21.0,100.0
62432,-0.636,-2.000,1.643,-167.718,-100.290,-46.252,20.0,98.0
62487,-0.636,-1.108,1.227,250.130,-188.595,-96.336,0.0,73.0
62535,-0.699,-0.098,0.230,250.130,-250.137,-46.321,71.0,70.0
62594,1.083,1.834,-0.157,250.130,-64.901,104.870,0.0,81.0
62649,0.090,1.116,-0.164,-250.137,171.710,62.847,0.0,73.0
62698,-0.701,-0.778,0.308,-250.137,149.321,94.053,62.0,100.0
62746,-0.194,-2.000,1.452,-170.931,-23.198,-18.824,60.0,102.0
62797,-0.287,-1.175,1.085,250.130,-110.725,-141.008,61.0,130.0
62845,-0.315,-0.820,0.394,250.130,-135.771,-76.954,70.0,71.0
62903,0.671,2.000,-0.927,224.702,72.130,41.061,0.0,112.0
62953,-0.277,0.709,-0.483,-250.137,151.038,-15.435,58.0,130.0
63005,-0.393,-2.000,2.000,-73.824,-81.183,-166.725,31.0,135.0
63052,-0.182,-1.212,0.019,250.130,-106.855,-10.069,58.0,70.0
63111,0.691,2.000,-0.940,63.290,78.679,86.069,0.0,131.0
63159,-0.275,-0.520,0.486,-250.137,106.718,-22.038,56.0,100.0
63210,-0.318,-2.000,1.774,193.878,-91.924,-118.725,65.0,132.0
63258,0.650,0.435,0.099,250.130,-32.214,23.344,72.0,71.0
63306,0.027,1.633,-0.167,-187.931,74.977,22.244,71.0,72.0
63353,0.011,-0.802,0.762,-250.137,92.626,-16.328,68.0,75.0
63405,-0.041,-1.368,0.938,250.130,13.038,-40.840,69.0,72.0
63460,0.645,2.000,-0.662,119.176,209.443,13.611,0.0,73.0
63509,-1.310,-0.629,0.250,-250.137,221.389,27.000,30.0,134.0
63557,-0.779,-2.000,1.852,250.130,-15.366,-82.817,25.0,133.0
63612,-0.417,-0.589,-0.560,250.130,-49.794,-46.344,0.0,70.0
63668,-0.349,2.000,-0.636,-190.695,145.298,-64.122,0.0,69.0
63713,-0.926,-0.237,-0.245,-250.137,232.412,-82.901,20.0,73.0
63760,-0.891,-2.000,2.000,38.527,18.771,-113.107,17.0,99.0
63814,-1.315,-1.690,-0.116,250.130,-100.160,-77.290,0.0,65.0
63873,0.257,2.000,-1.801,206.489,100.954,38.687,0.0,63.0
63961,-1.409,-2.000,1.159,-250.137,-27.901,-79.588,17.0,72.0
64006,-0.999,-2.000,1.048,250.130,-117.618,-54.000,18.0,68.0
64060,0.188,1.642,-0.830,250.130,9.702,113.802,0.0,65.0
64115,-0.817,1.442,-0.621,-250.137,101.427,41.076,0.0,70.0
64160,-0.667,-2.000,2.000,-73.092,-47.527,-93.061,16.0,72.0
64205,-0.989,-0.847,0.155,250.130,-95.214,-41.802,21.0,68.0
64261,-0.200,2.000,-0.514,-13.870,62.221,61.328,0.0,68.0
64309,-0.738,-1.581,0.479,-250.137,56.878,-50.885,18.0,76.0
64364,-0.976,-2.000,1.402,250.130,-99.588,-149.618,0.0,68.0
64419,0.044,2.000,-0.621,241.748,47.359,60.290,0.0,66.0
64464,-0.883,0.213,0.015,-250.137,108.168,24.198,21.0,71.0
64509,-0.685,-2.000,1.816,235.221,-86.489,-120.191,20.0,71.0
64565,-0.468,-0.072,-0.075,250.130,-83.534,-0.313,0.0,66.0
64620,-0.970,1.822,-0.680,-250.137,138.573,73.557,0.0,69.0
64665,-0.520,-2.000,1.611,-151.031,-35.015,-133.977,20.0,73.0
64710,-0.955,-1.291,0.479,250.130,-78.389,-64.397,25.0,68.0
64769,-0.255,2.000,-0.669,-43.595,95.664,73.817,0.0,67.0
64814,-0.754,-1.473,0.517,-250.137,19.794,-77.992,21.0,72.0
64859,-0.942,-2.000,1.359,250.130,-93.679,-94.870,22.0,69.0
64914,0.239,1.543,-0.230,250.130,37.290,91.282,0.0,67.0
64960,-0.842,0.836,0.181,-250.137,94.809,42.130,25.0,70.0
65005,-0.770,-2.000,1.822,19.183,-85.611,-94.954,22.0,71.0
65060,-0.600,-0.860,0.544,250.130,-82.092,17.863,0.0,68.0
65116,-0.578,2.000,-0.472,-250.137,124.542,96.519,0.0,69.0
65164,-1.023,-2.000,1.114,-250.137,-40.595,-80.069,23.0,76.0
65213,-0.919,-2.000,1.623,250.130,-186.298,-114.511,79.0,72.0
65268,0.740,1.401,-0.275,250.130,7.977,115.244,0.0,70.0
65315,-1.013,1.506,-0.537,-250.137,131.183,75.466,52.0,74.0
65362,-0.750,-2.000,1.418,-250.137,-83.824,-100.542,24.0,100.0
65409,-0.992,-1.951,1.353,250.130,-233.908,-64.550,27.0,76.0
65461,-0.470,-0.210,-0.352,250.130,-243.740,56.870,79.0,129.0
65517,1.368,0.926,-0.223,250.130,73.122,154.939,0.0,79.0
65573,0.095,2.000,-0.132,-22.840,250.130,3.832,0.0,78.0
65625,-0.746,1.238,-0.768,-250.137,22.168,-28.405,39.0,97.0
65674,0.448,-1.415,-0.044,-250.137,-142.771,-141.130,58.0,100.0
65733,-0.207,-2.000,2.000,250.130,-105.740,-52.160,0.0,134.0
65780,1.097,-1.676,-1.208,250.130,68.985,169.947,34.0,95.0
65837,0.654,2.000,-1.791,250.130,51.153,125.573,0.0,80.0
65893,0.510,1.704,-1.574,-250.137,28.061,-119.779,0.0,89.0
65943,-0.061,-2.000,1.202,-250.137,4.947,-151.634,58.0,101.0
65991,0.117,-1.969,1.338,250.130,-46.634,144.840,57.0,99.0
66041,0.576,1.180,-0.601,250.130,-17.076,177.344,33.0,76.0
66088,0.583,1.809,0.018,-250.137,31.252,-33.527,32.0,92.0
66134,-0.013,-1.818,1.558,-232.038,14.939,-81.611,30.0,67.0
66181,0.361,-1.155,1.120,250.130,16.183,115.863,30.0,92.0
66229,0.462,1.255,-0.728,250.130,39.382,153.198,33.0,101.0
66277,0.393,2.000,-0.666,-250.137,27.084,-27.847,33.0,102.0
66323,0.298,-0.726,-0.600,-250.137,84.092,-105.779,30.0,74.0
66372,-0.203,-2.000,2.000,28.672,10.702,-1.061,57.0,104.0
66428,0.274,0.042,-0.154,250.130,-6.206,124.359,0.0,78.0
66521,0.121,-0.746,1.184,-250.137,16.656,-38.359,28.0,80.0
66577,0.112,-0.597,1.192,69.588,29.977,38.756,0.0,81.0
66623,0.176,0.185,0.852,143.802,27.153,-8.405,30.0,62.0
66668,-0.427,2.000,0.532,40.466,6.115,5.962,29.0,63.0
66725,0.293,-0.122,0.997,-193.382,-3.573,123.603,0.0,103.0
66772,0.467,-0.933,0.939,19.565,19.252,49.023,16.0,94.0
66829,0.463,-0.485,0.844,13.336,44.489,-94.595,0.0,92.0
66885,-0.339,0.742,0.835,93.191,45.290,-136.290,0.0,83.0
66931,-0.053,0.037,0.943,47.832,45.687,20.137,29.0,64.0
66980,0.314,-0.772,0.882,210.748,45.916,13.366,37.0,62.0
67025,0.162,0.278,0.506,250.130,57.076,-108.489,32.0,60.0
67073,-0.169,0.557,0.480,49.023,41.420,-187.061,36.0,83.0
67120,-0.318,1.149,0.477,-98.786,41.183,-189.855,44.0,82.0
67170,-0.439,0.576,0.644,-250.137,62.832,-143.290,62.0,108.0
67217,-0.446,-0.294,0.920,-250.137,110.687,-119.397,61.0,57.0
67262,-0.585,-0.720,1.005,-90.595,153.122,-48.374,23.0,57.0
67307,-0.550,-0.350,0.706,84.985,174.481,7.443,20.0,57.0
67355,-0.887,0.743,0.275,-61.885,219.863,9.237,20.0,74.0
67400,-1.278,0.291,0.118,-250.137,198.710,23.702,17.0,57.0
67444,-1.375,-1.074,0.659,-210.832,81.664,7.992,17.0,57.0
67489,-1.135,-1.189,0.853,168.496,-30.038,-7.832,16.0,58.0
67535,-1.050,-0.760,0.469,250.130,-98.992,-17.809,19.0,76.0
67580,-1.066,-0.319,0.037,250.130,-176.031,-30.542,16.0,69.0
67636,-0.585,-0.013,0.012,250.130,-159.298,5.733,0.0,65.0
67692,-0.018,0.638,0.216,250.130,15.511,16.397,0.0,79.0
67748,-0.850,1.582,-0.370,8.687,119.191,-79.962,0.0,80.0
67804,-0.948,0.549,-0.313,-250.137,70.947,-126.092,131.0,68.0
67849,-0.903,-0.498,0.353,-250.137,57.015,-75.840,13.0,69.0
67894,-1.010,-0.711,0.750,-92.588,64.374,-1.992,10.0,69.0
67939,-1.086,-0.262,0.542,102.153,33.542,36.916,11.0,69.0
67984,-0.883,0.123,0.625,177.748,9.496,9.466,12.0,68.0
68029,-1.001,0.495,0.428,50.557,29.473,-0.618,11.0,68.0
68073,-1.084,0.178,0.411,-34.855,-9.565,-17.641,11.0,68.0
68118,-0.953,-0.011,0.436,23.122,-14.031,-5.466,10.0,68.0
68170,-0.967,0.137,0.270,85.015,-14.992,13.924,11.0,57.0
68214,-0.875,0.285,0.232,77.466,-11.992,22.397,12.0,70.0
68258,-0.842,0.387,0.212,33.092,-1.176,16.611,12.0,69.0
68302,-0.883,0.338,0.242,-14.489,4.130,5.649,12.0,69.0
68346,-0.876,0.252,0.304,-30.481,10.427,0.580,12.0,71.0
68390,-0.943,0.197,0.331,-24.702,8.847,-0.527,11.0,71.0
68434,-0.926,0.196,0.333,-14.023,7.046,0.885,11.0,71.0
68478,-0.939,0.206,0.338,-6.053,3.656,1.397,10.0,69.0
68523,-0.895,0.221,0.315,-0.656,1.824,0.412,11.0,71.0
68569,-0.904,0.235,0.320,0.557,1.336,-1.779,11.0,69.0
68613,-0.909,0.244,0.300,-1.733,1.832,-3.496,11.0,69.0
68657,-0.913,0.234,0.297,-4.855,1.473,-2.802,11.0,69.0
68701,-0.927,0.232,0.296,-2.473,2.023,-0.679,13.0,71.0
68745,-0.911,0.246,0.291,-2.840,2.977,0.779,11.0,67.0
68796,-0.924,0.224,0.299,-5.504,2.015,2.267,11.0,71.0
68840,-0.916,0.224,0.306,-0.756,1.718,3.489,12.0,70.0
68927,-0.911,0.219,0.310,-4.817,0.519,1.038,11.0,70.0
68971,-0.914,0.207,0.312,-0.038,-0.847,0.336,11.0,68.0
69015,-0.912,0.225,0.297,3.794,-1.672,-0.260,11.0,69.0
69062,-0.915,0.236,0.285,2.313,-1.191,-0.580,11.0,71.0
69106,-0.909,0.239,0.281,1.206,0.229,-0.779,11.0,71.0
69150,-0.910,0.246,0.280,-2.183,2.626,-1.053,11.0,71.0
69194,-0.930,0.219,0.293,-4.756,2.618,0.115,12.0,76.0
69238,-0.911,0.229,0.296,-2.962,2.710,0.305,11.0,69.0
69282,-0.931,0.221,0.303,-4.298,1.084,-1.466,11.0,75.0
69326,-0.926,0.216,0.319,2.229,-1.382,-0.550,11.0,68.0
69370,-0.916,0.239,0.290,2.695,-2.450,-0.076,12.0,68.0
69413,-0.911,0.226,0.289,1.832,-2.611,0.008,11.0,69.0
69460,-0.913,0.239,0.268,0.389,-0.198,-0.260,11.0,69.0
69505,-0.909,0.233,0.286,-3.336,0.710,-0.115,11.0,69.0
69549,-0.910,0.222,0.297,2.206,1.275,0.794,11.0,68.0
69592,-0.911,0.241,0.289,1.634,1.672,0.458,11.0,68.0
69637,-0.918,0.242,0.284,-4.046,1.969,-0.634,11.0,75.0
69681,-0.908,0.239,0.295,-6.328,1.763,-0.908,11.0,69.0
69724,-0.899,0.242,0.280,-5.374,3.771,-0.954,11.0,69.0
69769,-0.886,0.268,0.258,-9.924,7.359,-2.061,11.0,74.0
69813,-0.907,0.285,0.257,-21.603,10.542,-4.397,9.0,70.0
69859,-0.973,0.208,0.269,-33.313,10.122,-1.344,9.0,69.0
69903,-0.963,0.168,0.329,-15.397,5.977,3.389,8.0,71.0
69946,-0.954,0.173,0.308,-6.611,1.252,9.893,7.0,57.0
69990,-0.942,0.187,0.316,3.710,-3.664,8.137,8.0,72.0
70034,-0.935,0.205,0.274,5.489,-5.046,6.214,10.0,71.0
70078,-0.917,0.211,0.271,2.947,-4.573,3.687,8.0,72.0
70122,-0.918,0.222,0.252,-1.145,-1.504,0.695,9.0,72.0
70166,-0.917,0.202,0.256,-4.229,0.351,-0.687,9.0,73.0
70210,-0.920,0.203,0.260,1.015,2.229,-2.473,10.0,71.0
70257,-0.913,0.214,0.289,1.573,2.084,-2.595,10.0,72.0
70301,-0.920,0.229,0.284,1.168,2.313,-3.191,9.0,71.0
70345,-0.927,0.218,0.296,1.359,0.626,-3.084,9.0,71.0
70389,-0.934,0.234,0.287,3.115,0.130,-2.053,9.0,74.0
70434,-0.939,0.228,0.276,0.305,-1.504,-1.489,8.0,80.0
70478,-0.922,0.226,0.289,3.519,-2.130,0.397,9.0,85.0
70522,-0.948,0.224,0.270,2.168,-2.924,1.985,8.0,71.0
70567,-0.923,0.220,0.299,3.221,-4.053,2.252,10.0,85.0
70611,-0.922,0.228,0.276,3.687,-3.305,0.153,10.0,71.0
70656,-0.900,0.227,0.273,0.359,-2.687,-0.618,10.0,70.0
70703,-0.916,0.225,0.270,0.313,-0.038,-1.519,9.0,71.0
70747,-0.916,0.233,0.263,-2.221,2.771,-1.008,10.0,71.0
70792,-0.927,0.228,0.279,-4.229,3.420,0.061,10.0,72.0
70836,-0.928,0.219,0.287,-3.351,2.779,0.275,10.0,71.0
70880,-0.936,0.220,0.291,-2.740,1.046,0.160,8.0,71.0
70924,-0.930,0.223,0.293,-0.015,-0.298,-0.008,8.0,72.0
70968,-0.936,0.225,0.281,-0.817,-1.321,-0.092,8.0,71.0
71012,-0.923,0.216,0.286,1.305,-1.939,0.824,10.0,71.0
71056,-0.924,0.232,0.273,1.107,-1.137,0.603,10.0,70.0
71103,-0.922,0.222,0.276,-1.511,-0.779,0.794,10.0,72.0
71190,-0.925,0.231,0.266,-2.122,1.084,-0.916,10.0,71.0
71235,-0.927,0.214,0.284,-2.710,0.634,-0.771,10.0,71.0
71279,-0.921,0.219,0.287,0.603,-0.061,-0.260,10.0,71.0
71323,-0.925,0.222,0.280,1.084,-0.763,0.206,10.0,71.0
71367,-0.924,0.223,0.283,0.366,-0.748,0.053,10.0,72.0
71412,-0.938,0.226,0.280,-0.237,-0.977,0.038,10.0,71.0
71456,-0.928,0.222,0.282,0.214,-1.992,0.282,10.0,71.0
71500,-0.925,0.215,0.290,1.931,-2.725,-0.656,9.0,71.0
71547,-0.919,0.218,0.289,4.092,-2.916,-2.191,11.0,72.0
71592,-0.925,0.230,0.283,2.160,-2.611,-2.038,10.0,71.0
71636,-0.914,0.219,0.292,2.947,-2.718,-1.321,10.0,70.0
71681,-0.919,0.235,0.280,4.687,-1.664,-0.771,10.0,70.0
71726,-0.917,0.226,0.275,-0.321,-0.855,0.031,11.0,71.0
71770,-0.917,0.221,0.291,-0.229,-0.595,-0.802,11.0,70.0
71814,-0.924,0.227,0.296,0.550,-0.221,-1.122,11.0,70.0
71859,-0.922,0.217,0.316,-2.504,-2.344,-0.321,11.0,70.0
71903,-0.930,0.206,0.308,3.733,-4.183,-1.046,11.0,69.0
71950,-0.919,0.232,0.286,3.336,-4.672,-1.046,10.0,70.0
71995,-0.905,0.224,0.289,2.420,-3.679,-1.527,10.0,69.0
72039,-0.923,0.246,0.279,0.641,-0.802,-1.031,10.0,68.0
72083,-0.916,0.229,0.295,-10.939,0.290,-0.870,10.0,71.0
72128,-0.938,0.187,0.312,-6.191,-2.328,-0.244,10.0,71.0
72172,-0.934,0.202,0.301,4.985,-4.412,1.740,10.0,69.0
72216,-0.915,0.216,0.317,7.611,-5.344,0.435,11.0,69.0
72261,-0.901,0.233,0.292,3.718,-2.977,-0.542,11.0,70.0
72305,-0.887,0.229,0.292,-1.061,-1.099,-2.733,10.0,69.0
72349,-0.898,0.225,0.310,-5.183,1.489,-2.328,10.0,69.0
72397,-0.947,0.214,0.336,-6.748,0.336,-2.649,10.0,70.0
72441,-0.923,0.256,0.391,-16.756,1.786,-1.206,10.0,64.0
72486,-1.049,0.277,0.399,-55.092,-8.130,3.008,11.0,69.0
72530,-0.914,0.297,0.467,-81.840,-8.832,11.359,10.0,70.0
72576,-0.990,0.726,0.094,-250.137,-14.534,-1.137,9.0,71.0
72621,-0.941,-0.230,0.368,-250.137,-17.687,-24.626,9.0,93.0
72666,-0.998,-0.716,0.663,-200.237,-42.374,-21.802,9.0,76.0
72711,-1.149,-1.123,1.016,208.702,-133.840,-45.038,10.0,64.0
72758,-1.825,-1.376,0.126,250.130,-250.137,11.672,14.0,63.0
72813,0.412,-0.336,-0.789,250.130,-157.359,189.221,0.0,57.0
72868,-0.799,2.000,-1.948,-250.137,250.130,-36.496,0.0,70.0
72914,-0.588,-2.000,-0.503,-250.137,6.130,-250.137,16.0,77.0
72960,-0.932,-2.000,1.771,250.130,-115.511,-144.435,16.0,73.0
73015,0.243,0.842,-0.597,250.130,79.443,130.649,0.0,69.0
73071,-1.089,1.644,0.088,-250.137,-48.237,69.595,0.0,72.0
73126,-0.667,-1.803,1.538,250.130,-250.137,-250.137,0.0,69.0
73183,1.029,1.353,0.054,172.878,135.649,118.366,0.0,70.0
73241,-1.029,0.967,0.638,-250.137,140.748,47.931,0.0,74.0
73287,-0.804,-2.000,1.610,49.641,-145.282,-201.061,23.0,75.0
73344,0.308,-0.505,0.575,250.130,35.504,76.840,0.0,73.0
73399,-1.326,2.000,-0.679,-250.137,250.130,126.824,0.0,78.0
73445,0.004,-1.922,0.935,-250.137,-121.282,-228.878,18.0,71.0
73491,-0.729,-2.000,1.393,250.130,-145.618,-99.351,22.0,81.0
73585,-1.116,1.543,-0.031,-250.137,125.252,114.962,73.0,105.0
73637,-0.364,-1.570,1.163,-238.962,-115.855,-239.084,66.0,137.0
73688,-0.420,-0.546,0.953,250.130,-10.450,27.618,46.0,81.0
73738,-0.681,1.324,-0.256,-173.137,151.611,154.160,69.0,106.0
73790,-0.556,-0.658,0.692,-250.137,-5.267,-69.634,66.0,139.0
73838,-0.643,-1.755,1.417,250.130,-115.969,-112.977,43.0,78.0
73887,0.440,0.476,0.143,250.130,71.519,90.809,71.0,82.0
73935,-0.640,1.840,-0.258,-209.649,134.618,54.992,72.0,75.0
73984,-0.635,-0.648,0.559,-250.137,-0.969,-126.786,67.0,73.0
74030,-0.807,-2.000,1.536,250.130,-58.687,-135.496,19.0,81.0
74089,0.160,1.251,-0.062,250.130,103.580,96.489,0.0,77.0
74145,-0.900,1.668,-0.059,-250.137,130.168,37.466,0.0,73.0
74191,-0.512,-2.000,1.747,-142.580,-25.466,-98.176,16.0,76.0
74247,-0.402,-1.095,0.835,250.130,-17.496,-30.473,0.0,76.0
74303,-0.347,1.965,-0.227,42.038,134.863,21.405,0.0,74.0
74349,-0.832,0.043,0.404,-250.137,138.412,-52.420,15.0,75.0
74394,-0.925,-1.852,1.477,55.718,4.427,-92.779,15.0,77.0
74450,-1.006,-1.039,0.471,250.130,-39.389,-36.153,0.0,71.0
74506,-0.471,2.000,-1.045,250.130,102.473,46.351,0.0,70.0
74555,-0.928,0.594,-0.443,-250.137,106.305,-20.366,13.0,71.0
74600,-0.950,-2.000,1.446,-250.137,-18.115,-45.511,9.0,69.0
74644,-0.730,-1.651,1.077,250.130,-50.786,-37.053,10.0,65.0
74689,-0.674,-0.271,-0.225,250.130,-41.908,-12.336,16.0,61.0
74745,-0.561,2.000,-0.752,250.130,0.519,-2.252,0.0,73.0
74790,-0.921,0.743,-0.641,-250.137,114.641,-77.466,17.0,68.0
74842,-1.056,-1.302,0.383,-250.137,58.878,-28.588,10.0,82.0
74885,-0.852,-1.665,1.277,186.137,-24.496,-21.954,11.0,57.0
74931,-0.753,-0.495,0.110,250.130,-23.977,13.771,15.0,52.0
74980,-0.866,1.848,-0.507,187.794,8.427,30.916,106.0,68.0
75024,-0.870,0.972,-0.165,-250.137,67.290,-25.557,16.0,61.0
75068,-1.107,-0.744,0.281,-250.137,63.939,22.748,11.0,67.0
75114,-0.779,-1.326,1.103,-45.130,-13.107,34.947,9.0,104.0
75157,-0.683,-0.745,0.709,250.130,-64.725,-19.992,10.0,57.0
75200,-0.695,-0.281,0.386,250.130,-70.550,-46.870,17.0,50.0
75255,-0.773,1.417,-0.142,250.130,-8.420,-36.115,0.0,68.0
75310,-1.318,0.867,-0.442,-250.137,65.672,-17.809,0.0,69.0
75357,-0.813,-1.627,1.151,-250.137,-38.473,-5.397,11.0,57.0
75401,-0.931,-1.325,0.925,250.130,-96.260,-78.015,14.0,71.0
75445,-1.196,0.051,-0.306,250.130,-127.214,4.366,19.0,67.0
75500,-0.756,1.925,-0.786,-27.214,55.420,89.573,0.0,67.0
75544,-0.585,0.210,0.317,-250.137,66.244,49.237,17.0,69.0
75589,-0.468,-1.180,1.042,-235.206,-69.542,-72.557,15.0,71.0
75633,-0.964,-1.317,0.979,250.130,-131.374,-107.023,19.0,69.0
75688,-0.066,1.466,-0.264,250.130,50.840,87.466,0.0,67.0
75746,-1.103,1.526,-0.176,-250.137,135.496,81.351,0.0,70.0
75791,-0.588,-1.928,1.538,-0.069,-147.000,-158.580,14.0,71.0
75846,-0.293,-0.568,0.420,250.130,-114.107,-8.389,0.0,68.0
75900,-1.343,1.845,-0.584,-115.458,119.206,92.412,0.0,70.0
75945,-0.196,-0.977,0.910,-250.137,32.817,-13.969,17.0,73.0
75991,0.189,-1.305,1.531,183.321,4.534,-130.939,16.0,72.0
76089,-0.594,1.131,0.037,-190.420,106.061,85.840,0.0,70.0
76134,0.047,-0.425,1.117,-238.649,124.450,-18.298,17.0,72.0
76178,-1.720,-1.361,0.764,250.130,-95.458,-114.695,18.0,70.0
76236,0.117,0.823,-0.308,250.130,21.542,27.008,0.0,69.0
76292,-2.000,2.000,-0.945,-250.137,181.183,-41.313,0.0,71.0
76337,-1.285,-2.000,0.141,-250.137,-211.832,-83.053,16.0,74.0
76381,0.013,-1.332,1.498,250.130,-50.695,20.351,15.0,73.0
76426,-0.752,1.209,-0.508,217.802,124.710,55.015,17.0,72.0
76471,-1.238,0.465,-0.133,-250.137,-76.366,35.763,16.0,73.0
76515,-0.786,-0.894,1.469,41.366,-123.267,-85.092,17.0,72.0
76570,-1.219,-0.711,0.585,250.130,-123.901,-98.595,0.0,68.0
76630,-0.092,0.483,-0.672,250.130,-135.565,105.412,0.0,85.0
76684,-0.163,2.000,-1.326,-250.137,220.443,-108.405,0.0,66.0
76729,-1.725,-1.808,-0.619,-250.137,48.122,-226.481,18.0,69.0
76784,-1.271,-2.000,1.449,250.130,-127.076,-61.176,0.0,66.0
76839,0.618,2.000,-1.221,250.130,132.771,175.290,0.0,66.0
76895,-0.755,1.641,-0.415,-250.137,140.290,25.344,0.0,70.0
76940,-0.837,-2.000,1.527,-215.176,-70.489,-133.053,16.0,72.0
76984,-0.988,-1.348,0.886,250.130,-101.710,-36.214,19.0,70.0
77039,-0.607,0.738,-0.537,250.130,-32.595,56.603,0.0,68.0
77097,-0.725,2.000,-0.858,-250.137,145.046,16.947,0.0,70.0
77143,-1.000,-2.000,0.551,-250.137,-1.366,-62.298,17.0,73.0
77188,-0.888,-2.000,1.541,250.130,-149.863,-124.832,19.0,73.0
77243,-0.701,-0.028,-0.295,250.130,-141.901,-2.878,0.0,71.0
77299,-0.222,2.000,-1.105,-119.344,97.733,12.053,0.0,77.0
77355,-0.764,0.251,-0.235,-250.137,153.267,0.145,0.0,75.0
77400,-0.713,-2.000,1.462,-231.733,-24.008,-54.565,17.0,67.0
77455,-0.816,-1.194,0.967,250.130,-106.046,-73.511,0.0,75.0
77513,-0.153,1.751,-0.523,250.130,-5.740,32.183,0.0,74.0
77570,-0.688,1.197,-0.281,-250.137,120.481,-8.557,0.0,76.0
77625,-0.992,-1.359,0.816,-250.137,55.916,-46.183,0.0,65.0
77680,-0.928,-1.025,1.081,250.130,-14.901,-29.611,0.0,79.0
77736,-0.626,-0.059,0.185,250.130,-2.924,16.328,0.0,77.0
77787,-0.757,0.972,-0.121,246.000,65.893,19.389,115.0,77.0
77838,-1.062,1.265,0.157,-122.969,17.901,-50.328,115.0,77.0
77889,-1.029,-0.109,0.607,-235.947,-43.916,-55.443,115.0,77.0
77939,-0.734,-0.495,0.969,128.305,-56.176,-23.641,116.0,75.0
77993,-0.584,0.435,0.299,250.130,-18.672,1.947,116.0,75.0
78045,-0.522,1.540,-0.196,-54.229,8.221,-34.023,117.0,73.0
78095,-0.594,0.564,-0.079,-250.137,68.573,-71.511,117.0,73.0
78141,-0.824,-0.637,0.633,-250.137,17.855,-65.321,23.0,74.0
78186,-0.900,-1.376,1.244,78.550,-59.740,-65.290,19.0,74.0
78241,-0.797,-0.577,0.545,250.130,-88.733,-20.328,0.0,71.0
78292,-0.428,1.146,-0.148,250.130,-30.427,53.298,120.0,70.0
78343,-0.503,1.309,0.137,-250.137,26.473,2.229,121.0,70.0
78400,-0.971,-0.696,0.684,-250.137,12.031,-15.802,24.0,71.0
78446,-0.809,-1.017,1.303,18.130,-52.206,-25.802,22.0,71.0
78491,-0.774,-0.358,0.798,250.130,-91.496,-27.275,25.0,69.0
78542,-0.532,0.209,0.566,250.130,-70.588,14.176,123.0,68.0
78593,-0.602,1.722,0.001,69.595,-15.901,54.618,124.0,68.0
78682,-0.754,-0.708,0.655,-250.137,39.672,21.550,21.0,71.0
78727,-0.448,-1.646,1.600,-15.573,-75.656,-55.191,21.0,72.0
78773,-0.640,-0.779,0.948,250.130,-139.893,-81.580,27.0,69.0
78828,-0.263,0.081,0.368,250.130,-68.649,49.267,0.0,67.0
78886,-0.515,1.908,-0.202,-250.137,86.954,75.489,0.0,68.0
78943,-0.656,-0.973,0.683,-250.137,-29.267,-16.824,0.0,71.0
78991,-0.462,-1.644,1.507,250.130,-162.443,-33.229,71.0,70.0
79039,0.063,-0.191,0.236,250.130,-108.466,79.855,74.0,69.0
79095,0.046,2.000,-0.908,250.130,-9.366,131.534,0.0,90.0
79143,-0.073,0.913,-0.463,-250.137,14.420,-17.916,68.0,70.0
79192,-0.400,-2.000,1.778,-250.137,-73.412,-82.817,63.0,73.0
79247,0.328,-1.684,0.734,250.130,-90.145,87.328,0.0,71.0
79306,0.006,2.000,-0.470,-5.832,9.702,63.107,0.0,72.0
79353,-0.234,-1.221,0.924,-250.137,6.092,-33.817,59.0,73.0
79410,0.794,-1.604,1.384,250.130,2.046,58.160,0.0,72.0
79466,-0.649,2.000,-0.204,153.527,-27.282,42.580,0.0,90.0
79524,0.331,-0.252,1.023,-70.947,-36.939,66.023,0.0,110.0
79572,0.672,1.241,0.283,-34.687,43.626,-3.145,37.0,110.0
79629,0.117,0.959,-0.069,-250.137,44.489,-96.718,0.0,75.0
79676,-0.583,-2.000,2.000,250.130,-91.603,-2.603,50.0,75.0
79724,0.971,-0.684,-0.975,250.130,-59.931,171.634,36.0,103.0
79775,1.088,2.000,-0.655,-250.137,64.206,-35.176,39.0,92.0
79821,0.127,0.217,-0.890,-250.137,159.718,-128.397,37.0,75.0
79878,-0.653,-2.000,1.945,-250.137,-47.229,-112.931,0.0,77.0
79925,0.337,-1.281,-0.225,250.130,-95.924,130.359,36.0,77.0
79972,1.340,2.000,-1.814,250.130,42.069,148.145,35.0,81.0
80028,0.330,1.359,-0.959,-250.137,148.618,-47.191,0.0,81.0
80084,-0.475,-2.000,1.974,-250.137,-31.336,-85.115,0.0,83.0
80144,0.431,-1.386,-0.202,250.130,-70.374,110.718,0.0,133.0
80194,0.829,2.000,-0.577,101.046,-35.061,66.954,34.0,83.0
80242,0.670,1.196,-0.915,-250.137,90.084,-152.412,37.0,91.0
80288,-0.134,-1.618,0.241,-250.137,57.756,-119.168,32.0,83.0
80335,0.414,-2.000,1.764,250.130,-22.840,39.977,32.0,83.0
80395,0.379,-0.689,-0.081,250.130,-10.817,42.763,0.0,130.0
80442,0.466,0.350,-0.074,250.130,20.160,1.626,36.0,80.0
80499,0.400,2.000,-0.477,24.504,55.069,-111.427,0.0,91.0
80556,0.158,0.172,-1.879,-250.137,184.206,-215.679,0.0,78.0
80602,-0.774,-2.000,2.000,32.740,72.435,-81.252,30.0,79.0
80653,0.050,-1.039,-0.461,250.130,91.450,4.603,57.0,73.0
80708,0.088,1.781,-1.547,250.130,168.221,-30.382,0.0,72.0
80764,-0.524,1.075,-0.201,-250.137,163.702,-209.038,0.0,70.0
80811,-0.786,-2.000,2.000,-0.916,-2.748,-234.504,26.0,69.0
80862,-0.297,0.259,0.098,250.130,112.298,-9.473,124.0,66.0
80913,-1.450,2.000,-0.511,-250.137,183.634,-26.618,124.0,66.0
80959,-0.911,-1.885,1.326,-250.137,21.641,-136.580,21.0,68.0
81004,-1.093,-2.000,1.062,250.130,-53.542,-27.374,25.0,67.0
81067,0.234,0.701,-1.074,250.130,107.679,19.130,132.0,0.0
81128,-0.819,2.000,-0.620,-250.137,109.794,-162.656,164.0,0.0
81175,-1.640,-2.000,1.987,-159.832,-150.924,-85.611,43.0,69.0
81235,-0.458,-1.414,-0.423,250.130,-89.099,159.756,133.0,0.0
81341,-0.582,1.134,-1.344,-250.137,137.160,-98.321,77.0,0.0
81397,-1.446,-1.800,0.843,-250.137,-144.794,-59.038,23.0,0.0
81448,-0.666,-1.261,0.422,250.130,-201.718,99.519,127.0,86.0
81501,-0.093,0.861,-1.652,250.130,-81.733,238.832,159.0,52.0
81554,-0.050,2.000,-0.760,4.061,23.496,54.466,182.0,54.0
81609,-0.758,0.931,-0.316,-230.321,36.061,-7.336,182.0,57.0
81662,-0.519,-0.387,0.629,200.023,-95.061,162.771,178.0,59.0
81718,0.842,0.537,-0.581,250.130,-93.260,222.366,0.0,62.0
81772,0.256,2.000,-1.203,85.595,74.786,43.061,0.0,69.0
81827,0.609,0.781,-0.679,-250.137,250.130,-86.771,0.0,68.0
81883,-1.280,-0.059,-0.103,-250.137,-49.115,-58.107,0.0,72.0
81938,1.400,-0.297,1.083,250.130,-50.176,54.611,0.0,71.0
81992,-0.408,2.000,-2.000,-250.137,250.130,-250.137,0.0,72.0
82051,-1.046,-1.707,-0.450,-250.137,-107.550,-146.435,0.0,76.0
82107,0.481,-1.606,0.858,250.130,-104.595,86.534,0.0,77.0
82162,0.262,2.000,-1.248,250.130,177.824,46.817,0.0,73.0
82217,-0.315,0.875,-0.367,-250.137,-57.168,-60.198,0.0,76.0
82273,-0.021,-1.018,1.308,218.221,-140.611,1.824,0.0,76.0
82328,0.904,2.000,-0.781,110.267,250.130,-11.771,0.0,73.0
82383,-0.570,1.589,-0.633,-250.137,165.145,-95.656,0.0,79.0
82432,-0.401,-2.000,1.707,-250.137,-214.115,-128.092,76.0,77.0
82489,0.203,-1.159,0.593,250.130,-140.656,14.947,0.0,94.0
82547,-0.151,2.000,-1.373,-133.359,225.122,-7.046,0.0,79.0
82595,-0.255,0.312,-0.562,-250.137,130.252,-111.679,72.0,77.0
82643,-0.164,-2.000,1.768,-126.985,-107.344,-218.405,72.0,77.0
82692,0.089,-1.019,0.573,250.130,-28.137,-14.023,74.0,74.0
82746,0.286,0.101,-0.820,250.130,166.145,6.992,192.0,73.0
82801,-0.500,2.000,-0.793,57.573,134.580,-162.809,195.0,66.0
82856,-0.281,1.148,-1.124,-250.137,173.191,-250.137,0.0,72.0
82902,-0.893,-1.195,-0.651,-250.137,171.687,-157.779,18.0,75.0
82950,-1.223,-2.000,2.000,35.664,96.321,-29.359,18.0,78.0
82995,-0.900,-1.593,0.040,250.130,50.756,62.908,17.0,72.0
83045,-1.317,-0.637,-1.304,250.130,-12.809,66.748,124.0,70.0
83100,-0.203,2.000,-1.432,250.130,55.458,69.656,77.0,0.0
83156,-0.765,1.425,-1.340,-250.137,150.893,-137.229,0.0,84.0
83202,-1.050,-1.976,0.187,-250.137,-20.924,-137.855,16.0,73.0
83247,-0.874,-2.000,1.639,250.130,-75.527,-19.832,18.0,66.0
83302,-0.118,0.480,-0.731,250.130,50.481,128.718,0.0,82.0
83358,-0.833,2.000,-0.598,-250.137,51.183,1.046,0.0,92.0
83406,-0.912,-2.000,1.206,-218.252,-64.443,-109.595,16.0,72.0
83463,-0.901,-1.164,0.388,250.130,-76.611,12.824,0.0,90.0
83519,-0.636,2.000,-0.913,131.160,75.794,32.397,0.0,83.0
83564,-1.054,0.278,-0.091,-250.137,34.397,-73.351,17.0,72.0
83608,-0.772,-1.689,1.379,-37.969,-93.603,-111.374,17.0,71.0
83664,-0.529,-0.768,0.509,250.130,-38.802,5.634,0.0,84.0
83727,-1.051,1.297,-0.591,195.870,86.191,26.305,0.0,0.0
83780,-1.280,-0.422,0.579,-86.153,-129.160,-16.038,133.0,90.0
83838,-0.341,-0.228,0.050,250.130,-116.023,73.969,77.0,0.0
83895,-0.481,2.000,-1.507,-250.137,142.992,-97.450,77.0,0.0
83951,-0.885,-0.552,-1.674,-250.137,130.878,-102.061,22.0,0.0