Timestamp(ms),AccelX(g),AccelY(g),AccelZ(g),GyroX(deg/s),GyroY(deg/s),GyroZ(deg/s),DistanceLeft(cm),DistanceRight(cm)
271151,-1.552,1.078,-0.350,150.160,-159.832,-234.092,0.0,0.0
271210,-1.173,1.608,-0.829,-250.137,238.626,115.908,0.0,88.0
271263,-0.596,-0.895,0.581,-235.366,-4.565,-87.031,163.0,74.0
271318,-0.542,-0.493,0.840,250.130,-40.496,10.191,165.0,89.0
271374,-0.644,1.930,-0.165,108.985,60.214,28.107,0.0,89.0
271429,-1.233,1.114,-0.153,-250.137,164.977,-42.931,0.0,76.0
271474,-1.210,-1.381,0.127,-250.137,60.183,-11.389,23.0,62.0
271518,-0.437,-2.000,1.526,-117.893,-16.351,-168.275,21.0,60.0
271563,-1.880,-2.000,0.589,250.130,-194.817,-248.573,30.0,55.0
271629,-1.979,-1.352,-2.000,250.130,-250.137,6.618,0.0,0.0
271683,0.279,2.000,-1.079,-14.023,59.198,16.672,0.0,58.0
271738,-0.797,0.844,-1.883,-250.137,49.260,-156.794,0.0,78.0
271792,0.338,-2.000,2.000,-250.137,-178.710,-250.137,160.0,76.0
271843,-1.444,-1.949,-0.165,250.130,-217.878,-124.489,122.0,70.0
271898,-0.073,-0.410,-2.000,250.130,-205.107,101.740,0.0,79.0
271954,0.207,2.000,-1.831,-250.137,14.053,-36.053,0.0,84.0
272012,-0.453,-1.154,-0.077,-250.137,-25.550,3.443,156.0,144.0
272069,0.182,-1.334,0.331,250.130,-162.542,61.542,0.0,107.0
272130,0.625,2.000,-1.177,-108.298,64.962,64.084,0.0,100.0
272185,0.379,-0.330,0.277,-250.137,107.847,-13.000,0.0,70.0
272237,-0.014,-0.907,1.204,106.275,1.405,15.237,157.0,70.0
272294,-0.021,-0.020,0.755,250.130,-48.527,47.763,0.0,106.0
272351,0.174,-0.130,-0.713,250.130,-72.458,157.405,0.0,86.0
272407,1.102,2.000,-0.940,8.473,39.420,-7.168,0.0,84.0
272463,0.695,0.940,-0.573,-250.137,159.382,-147.000,0.0,82.0
272519,-0.002,0.121,-0.001,-250.137,182.573,-84.015,0.0,78.0
272577,-0.186,-0.449,0.815,-170.954,168.649,-1.489,0.0,72.0
272633,-0.073,0.083,0.549,153.069,207.084,30.733,0.0,75.0
272696,-0.278,0.629,0.343,138.740,206.008,-30.015,0.0,0.0
272758,-0.523,0.756,0.572,-21.939,210.748,-112.084,0.0,0.0
272820,-1.113,0.403,0.668,-121.473,215.542,-116.374,0.0,174.0
272877,-1.216,0.048,0.602,-113.817,169.344,-97.977,130.0,173.0
272939,-1.521,-0.003,0.548,-45.061,102.015,-52.122,0.0,174.0
272999,-1.245,0.007,0.643,80.679,48.053,4.504,0.0,155.0
273057,-1.086,0.387,0.392,31.176,33.008,48.794,124.0,155.0
273115,-0.968,0.326,0.365,-40.183,17.588,36.092,148.0,156.0
273171,-0.909,0.200,0.299,-12.053,2.626,19.748,125.0,157.0
273227,-0.932,0.237,0.245,29.802,-7.206,12.611,124.0,157.0
273283,-0.919,0.314,0.186,32.214,-5.634,16.847,122.0,158.0
273339,-0.931,0.356,0.138,8.618,-0.924,15.939,121.0,159.0
273395,-0.940,0.322,0.149,-11.878,3.214,11.267,122.0,162.0
273452,-0.927,0.298,0.167,-11.794,7.756,10.237,126.0,164.0
273509,-0.930,0.313,0.156,-15.847,11.504,8.656,121.0,182.0
273570,-0.924,0.295,0.164,-19.611,12.916,6.511,125.0,183.0
273629,-0.863,0.295,0.171,-13.206,12.870,0.282,146.0,183.0
273686,-0.953,0.312,0.160,-9.840,12.084,-6.076,124.0,183.0
273747,-0.901,0.303,0.175,-10.511,9.901,-7.023,0.0,165.0
273808,-0.949,0.310,0.158,-2.397,7.603,-10.458,0.0,162.0
273868,-0.956,0.316,0.146,-1.481,5.221,-9.924,0.0,162.0
273930,-0.967,0.307,0.150,-3.740,2.344,-3.397,0.0,162.0
274033,-0.936,0.318,0.142,2.130,-1.763,2.931,0.0,163.0
274092,-0.946,0.318,0.143,1.000,-1.878,1.786,147.0,163.0
274164,-0.935,0.325,0.129,-4.115,-1.450,7.145,0.0,164.0
274225,-0.925,0.304,0.143,-6.672,-1.008,6.779,0.0,164.0
274285,-0.914,0.302,0.136,-2.015,-0.145,5.145,0.0,165.0
274347,-0.930,0.301,0.131,-0.924,-0.160,0.649,0.0,164.0
274407,-0.917,0.307,0.150,0.023,-0.939,-0.756,0.0,164.0
274468,-0.941,0.299,0.137,1.076,-0.214,-1.931,0.0,164.0
274529,-0.924,0.318,0.137,-0.542,0.328,-3.168,0.0,165.0
274590,-0.925,0.317,0.140,-1.214,1.107,-3.794,0.0,164.0
274651,-0.929,0.314,0.135,-4.817,1.557,-4.412,0.0,165.0
274715,-0.933,0.316,0.151,-3.450,1.328,-3.435,0.0,164.0
274776,-0.944,0.307,0.131,-6.328,0.885,-2.038,0.0,166.0
274837,-0.926,0.297,0.125,-1.313,0.130,0.565,0.0,165.0
274897,-0.941,0.317,0.141,-0.321,0.847,-0.527,0.0,164.0
274959,-0.944,0.291,0.149,-5.382,-0.511,-0.374,0.0,164.0
275019,-0.941,0.287,0.137,3.611,-1.725,1.534,0.0,164.0
275081,-0.922,0.307,0.137,0.504,-1.939,0.939,0.0,164.0
275141,-0.924,0.302,0.146,0.389,-0.924,-1.405,0.0,164.0
275203,-0.937,0.289,0.129,-1.397,0.176,-0.092,0.0,164.0
275266,-0.935,0.291,0.129,1.618,-0.076,-0.573,0.0,165.0
275328,-0.938,0.307,0.138,1.405,0.244,-0.229,0.0,165.0
275389,-0.940,0.298,0.144,1.321,-0.290,1.290,0.0,164.0
275449,-0.928,0.301,0.151,3.580,-0.817,-0.290,0.0,164.0
275511,-0.932,0.309,0.136,1.481,-0.748,0.534,0.0,164.0
275571,-0.936,0.314,0.140,0.137,-0.405,0.038,0.0,163.0
275633,-0.928,0.294,0.151,1.924,-1.725,0.092,0.0,164.0
275693,-0.928,0.309,0.139,4.374,-1.191,0.458,0.0,163.0
275755,-0.947,0.312,0.138,-1.023,-0.221,0.359,0.0,163.0
275818,-0.935,0.283,0.152,-0.527,-1.412,1.466,0.0,164.0
275879,-0.926,0.298,0.148,4.496,-2.573,-1.450,0.0,165.0
275939,-0.918,0.309,0.147,4.267,-2.290,-4.260,170.0,165.0
275998,-0.946,0.315,0.138,0.824,-1.015,-4.099,170.0,165.0
276060,-0.936,0.308,0.161,-0.107,-1.359,-1.115,0.0,165.0
276122,-0.960,0.277,0.202,1.710,-6.855,2.550,0.0,183.0
276184,-0.933,0.309,0.231,11.885,-12.168,2.214,0.0,183.0
276246,-0.947,0.307,0.191,6.351,-17.069,-2.740,0.0,183.0
276308,-0.913,0.313,0.148,15.687,-18.099,-1.481,0.0,184.0
276368,-0.899,0.325,0.125,16.053,-11.588,2.664,121.0,166.0
276425,-0.894,0.342,0.102,5.237,-2.282,4.931,119.0,166.0
276482,-0.906,0.318,0.127,-8.237,6.611,5.229,122.0,166.0
276542,-0.912,0.301,0.171,-13.794,11.382,5.221,169.0,183.0
276600,-0.907,0.288,0.198,-3.305,10.550,0.084,120.0,183.0
276658,-0.923,0.325,0.195,-5.595,11.206,-4.588,124.0,184.0
276719,-0.954,0.299,0.208,-10.611,7.656,-7.145,169.0,183.0
276780,-0.935,0.286,0.204,-2.649,1.397,-6.786,170.0,183.0
276843,-0.933,0.312,0.191,7.275,-3.496,-6.061,170.0,182.0
276901,-0.940,0.326,0.181,4.183,-4.817,-4.725,124.0,182.0
276959,-0.977,0.505,0.117,-43.794,-1.397,7.397,123.0,183.0
277022,-0.894,0.281,0.246,-76.969,-5.053,25.786,0.0,0.0
277123,-1.144,-0.399,0.523,250.130,-76.496,-30.641,118.0,160.0
277179,-1.081,2.000,-0.844,-127.466,25.229,81.863,116.0,161.0
277226,-0.656,-0.353,0.009,-250.137,20.840,-8.786,26.0,81.0
277271,-0.965,-1.584,0.990,145.962,-79.786,-55.305,18.0,66.0
277327,-0.820,-0.501,-0.261,250.130,-95.763,31.496,116.0,169.0
277389,-1.021,2.000,-0.820,-250.137,72.427,34.992,115.0,186.0
277435,-0.781,-1.211,0.520,-250.137,7.313,-67.206,25.0,68.0
277482,-0.845,-1.254,0.773,250.130,-46.084,-45.687,26.0,98.0
277539,-0.768,1.531,-0.586,250.130,-1.611,17.260,115.0,182.0
277599,-0.889,0.752,-0.101,-250.137,36.405,-25.939,140.0,183.0
277645,-0.904,-0.489,0.608,-108.718,22.046,2.763,24.0,68.0
277697,-0.814,-0.124,0.487,142.275,9.061,14.260,25.0,184.0
277754,-0.854,0.189,0.292,225.427,4.641,2.397,116.0,167.0
277810,-0.890,0.347,0.232,250.130,-9.046,-3.649,114.0,86.0
277861,-0.945,0.691,0.108,161.351,-12.214,-12.168,108.0,82.0
277913,-0.961,0.791,0.149,52.588,-14.130,-18.130,118.0,80.0
277965,-0.981,1.005,-0.036,-170.466,-3.939,5.924,118.0,83.0
278022,-0.845,0.963,-0.022,-250.137,-16.824,19.802,115.0,165.0
278073,-0.695,-1.018,1.371,-235.405,-65.740,-49.863,26.0,67.0
278130,-0.743,-0.375,1.335,250.130,-116.008,-59.221,138.0,171.0
278179,-0.537,2.000,-2.000,250.130,-45.992,249.076,107.0,59.0
278237,-1.296,2.000,-2.000,-81.496,168.435,250.130,191.0,57.0
278291,-2.000,2.000,-1.274,-98.069,250.130,250.130,0.0,60.0
278349,-2.000,1.493,-0.956,-235.511,250.130,250.130,0.0,131.0
278405,-1.754,0.500,-0.317,-131.435,250.130,250.130,190.0,82.0
278461,-1.825,0.471,-0.255,-223.649,165.466,250.130,177.0,108.0
278518,-1.741,-0.438,0.202,-250.137,14.809,239.435,168.0,130.0
278579,-0.905,-0.903,0.823,-89.824,-39.863,197.573,163.0,194.0
278641,0.079,-0.658,1.051,77.305,-13.969,51.252,0.0,196.0
278695,0.261,-0.136,0.959,71.160,5.718,-125.237,17.0,198.0
278746,0.368,0.203,0.864,107.076,-3.382,-191.802,20.0,165.0
278798,0.119,0.695,0.743,107.695,-35.802,-172.176,17.0,198.0
278848,0.254,0.659,0.723,106.718,-55.931,-131.534,16.0,162.0
278898,0.586,0.592,0.793,80.855,2.305,-96.832,18.0,164.0
278943,0.671,0.661,0.957,42.626,42.435,-95.603,20.0,82.0
278992,0.588,0.710,1.191,48.366,29.626,-113.725,27.0,134.0
279051,0.331,1.018,1.202,-15.595,2.099,-50.687,0.0,132.0
279113,0.305,0.406,0.964,47.435,-12.557,-3.313,0.0,0.0
279169,0.156,0.845,0.531,39.031,-2.458,-5.870,30.0,0.0
279228,0.160,0.771,0.658,-3.191,10.809,-26.664,0.0,132.0
279286,0.031,1.007,0.763,-37.122,11.458,-23.649,0.0,132.0
279342,-0.185,1.263,0.750,-88.115,3.733,44.237,0.0,79.0
279398,0.037,0.158,1.125,-173.481,-77.573,74.244,0.0,79.0
279443,0.399,-0.360,1.046,129.336,-110.130,47.939,26.0,79.0
279489,0.511,0.857,0.256,160.321,-53.053,23.893,26.0,80.0
279535,0.344,1.597,-0.125,-250.137,28.641,-38.115,26.0,78.0
279590,0.321,-0.028,0.709,-250.137,58.969,-15.237,0.0,78.0
279649,0.315,-0.605,1.192,111.489,39.008,29.053,0.0,79.0
279695,0.264,-0.076,0.991,250.130,41.802,40.382,24.0,79.0
279744,0.364,0.666,0.438,250.130,72.458,47.817,26.0,135.0
279843,0.029,1.087,0.055,-250.137,159.321,-36.725,0.0,80.0
279902,-1.531,-1.846,1.197,-250.137,201.008,56.214,0.0,130.0
279950,-1.928,-2.000,1.930,-39.771,247.084,-242.886,9.0,126.0
279997,-2.000,-2.000,0.783,35.573,250.130,-250.137,21.0,115.0
280045,-2.000,-2.000,0.350,141.886,221.794,-250.137,44.0,106.0
280104,-2.000,-0.601,-0.323,250.130,-6.580,-250.137,0.0,80.0
280160,-1.204,2.000,-1.950,-250.137,-71.427,-98.954,0.0,72.0
280212,0.202,-0.486,0.010,-250.137,-29.809,-121.382,120.0,91.0
280265,0.042,-0.942,0.915,187.817,6.328,55.008,126.0,103.0
280321,-0.139,0.667,-0.195,250.130,-61.290,27.328,0.0,61.0
280375,0.333,1.314,0.217,210.824,-73.756,-6.756,0.0,60.0
280429,0.582,0.515,0.392,146.084,58.137,-3.771,0.0,51.0
280484,0.987,0.861,0.469,64.443,168.092,-65.672,0.0,62.0
280541,0.718,0.682,0.893,-13.237,200.115,-133.023,0.0,81.0
280599,0.264,1.134,0.593,-198.687,241.206,-146.695,0.0,79.0
280653,-0.598,0.087,0.571,-250.137,250.130,-122.687,176.0,79.0
280709,-1.486,-0.475,0.683,-97.771,250.130,-65.244,176.0,81.0
280763,-1.584,-0.606,0.860,225.901,119.244,-107.748,155.0,84.0
280817,-0.958,-0.202,0.424,250.130,102.985,-22.176,104.0,151.0
280868,-1.215,1.123,-0.065,250.130,102.298,-21.802,106.0,92.0
280921,-0.846,2.000,-0.086,-250.137,98.969,-59.725,107.0,88.0
280979,-1.576,0.201,-0.950,-250.137,96.267,-4.328,146.0,176.0
281026,-1.357,-2.000,1.514,-227.336,-106.740,29.427,16.0,67.0
281071,-0.959,-1.087,0.580,250.130,-118.061,110.924,17.0,68.0
281128,-0.876,-0.070,-0.295,250.130,-86.924,150.382,118.0,183.0
281187,-0.681,1.299,-0.524,233.878,-32.771,133.748,111.0,0.0
281249,-0.757,0.807,-0.538,-250.137,34.748,21.160,0.0,0.0
281295,-0.746,-0.600,0.246,-250.137,16.344,-0.031,25.0,68.0
281351,-0.552,-0.674,0.707,62.481,-7.397,-5.496,0.0,68.0
281413,-0.618,-0.038,0.222,250.130,16.855,-18.985,0.0,0.0
281473,-0.778,0.861,-0.108,225.198,49.290,-85.817,114.0,171.0
281529,-0.890,0.834,-0.030,-104.252,48.366,-156.015,115.0,161.0
281585,-1.176,0.155,0.274,-203.886,47.290,-142.618,119.0,159.0
281646,-1.255,-0.195,0.520,-59.802,35.947,-61.214,0.0,159.0
281707,-1.089,0.115,0.406,73.366,-7.145,8.252,0.0,156.0
281759,-0.926,0.318,0.257,95.313,-25.382,26.458,70.0,155.0
281816,-0.891,0.459,0.132,52.740,-26.908,24.534,120.0,155.0
281872,-0.902,0.404,0.103,-3.611,-17.809,19.641,119.0,156.0
281927,-0.933,0.318,0.157,-7.634,-1.771,26.618,119.0,158.0
281987,-1.133,0.330,0.102,-0.847,-1.023,86.076,117.0,160.0
282043,-0.877,0.093,0.443,76.405,-6.824,116.260,116.0,163.0
282095,-0.747,0.422,0.165,169.450,4.450,132.206,114.0,93.0
282153,-0.708,0.881,-0.028,61.618,2.382,65.672,112.0,0.0
282211,-0.756,0.834,-0.138,-221.076,12.969,2.634,111.0,0.0
282268,-0.883,0.094,0.159,-246.565,21.023,-18.008,0.0,97.0
282326,-0.826,-0.079,0.455,63.763,8.198,17.046,0.0,99.0
282389,-0.799,0.579,0.108,148.389,-0.931,18.244,0.0,0.0
282449,-0.737,0.807,0.135,-23.359,12.305,-18.420,115.0,0.0
282510,-0.762,0.460,0.221,-105.924,17.298,-55.092,142.0,0.0
282567,-0.879,0.236,0.284,-48.718,18.679,-69.794,0.0,97.0
282671,-0.981,0.332,0.316,57.863,-1.153,-60.290,165.0,186.0
282727,-1.146,0.531,0.385,64.191,-34.321,-39.183,116.0,162.0
282783,-1.014,0.521,0.574,117.611,-86.771,22.595,115.0,161.0
282834,-0.850,0.993,0.318,209.786,-84.359,107.886,112.0,85.0
282887,-0.685,1.208,-0.093,80.603,-35.695,125.924,111.0,92.0
282945,-0.698,0.826,0.014,-39.405,5.481,111.504,107.0,0.0
283003,-0.695,0.631,-0.007,-85.221,34.252,92.313,0.0,57.0
283067,-0.753,0.498,0.024,-103.359,40.847,72.084,0.0,0.0
283124,-0.705,0.364,0.222,-74.603,23.809,58.328,0.0,99.0
283182,-0.646,0.466,0.374,-29.550,31.611,50.504,0.0,101.0
283237,-0.665,0.598,0.373,-7.107,22.809,34.763,0.0,57.0
283299,-0.543,-0.129,0.850,123.145,12.115,8.809,0.0,0.0
283354,-0.634,-0.140,0.686,250.130,-204.237,-104.977,0.0,47.0
283403,-1.690,1.683,-0.076,250.130,-173.893,-157.466,103.0,50.0
283460,-2.000,2.000,-1.417,-250.137,106.504,164.183,187.0,51.0
283515,0.165,-0.903,0.707,-250.137,-26.725,67.641,0.0,57.0
283571,-0.686,-0.133,0.198,198.267,-53.817,-29.611,0.0,56.0
283626,-0.224,2.000,-1.103,-126.153,67.481,4.832,0.0,57.0
283682,-1.215,0.031,-0.922,-250.137,202.183,41.244,0.0,78.0
283728,-0.075,-1.981,1.776,67.504,-80.260,-13.565,30.0,61.0
283792,-0.056,-0.619,0.161,250.130,-187.237,-55.885,0.0,0.0
283846,-0.795,2.000,-1.980,250.130,-114.359,9.191,0.0,50.0
283910,-1.052,1.922,-0.802,-250.137,167.328,-92.664,0.0,0.0
283970,-0.852,-1.358,1.045,-250.137,2.656,22.084,0.0,90.0
284025,-0.062,-0.366,0.744,250.130,-100.748,-80.679,0.0,58.0
284081,-0.777,2.000,-1.485,250.130,-124.481,-45.191,0.0,53.0
284144,-1.762,1.129,-1.240,-250.137,178.466,61.931,0.0,0.0
284200,0.806,-1.815,2.000,-144.069,9.481,11.878,0.0,89.0
284256,-1.900,0.066,-0.285,250.130,-142.565,-131.947,0.0,57.0
284312,-1.082,2.000,-0.839,-250.137,149.702,156.427,0.0,59.0
284368,-0.552,0.126,-0.183,-250.137,250.130,94.779,0.0,88.0
284419,-0.103,-2.000,1.166,-170.824,-65.084,-250.137,27.0,74.0
284482,-1.327,-2.000,0.364,250.130,-154.519,-146.290,0.0,0.0
284546,1.016,2.000,-2.000,-23.420,146.611,27.328,0.0,0.0
284601,-0.993,-0.337,-1.784,-250.137,186.359,-20.649,0.0,58.0
284646,-0.372,-2.000,2.000,143.534,-80.366,-106.206,25.0,59.0
284702,-0.809,-1.292,-0.513,250.130,-74.061,-0.916,0.0,71.0
284758,-0.294,2.000,-2.000,90.588,93.282,2.893,0.0,55.0
284813,-0.566,-0.167,-1.971,-250.137,193.237,-106.977,0.0,66.0
284862,-0.966,-2.000,2.000,46.397,-63.878,-134.748,17.0,57.0
284918,-0.768,-1.206,-0.036,250.130,-55.290,13.336,0.0,84.0
284977,-0.585,2.000,-1.953,250.130,-13.611,106.130,105.0,0.0
285033,-0.644,1.083,-1.222,-250.137,112.176,-75.252,0.0,82.0
285079,-0.982,-2.000,0.895,-250.137,-2.214,-91.534,23.0,68.0
285125,-0.601,-1.624,1.288,250.130,-55.504,8.924,20.0,82.0
285188,-0.479,0.119,-0.261,250.130,-40.061,57.267,0.0,94.0
285244,-0.387,2.000,-0.486,-150.931,-23.244,6.618,0.0,93.0
285300,-0.722,-0.621,0.583,-250.137,40.519,-35.275,0.0,80.0
285359,-0.707,-1.000,1.029,250.130,-92.695,49.664,0.0,93.0
285416,-0.021,2.000,-0.537,250.130,-56.580,75.954,0.0,93.0
285514,-0.744,-1.302,1.031,-250.137,18.496,-28.168,0.0,78.0
285568,-0.575,-0.808,0.982,250.130,-111.427,36.519,146.0,78.0
285624,-0.515,0.988,-0.343,250.130,-128.794,76.870,0.0,93.0
285680,-0.090,2.000,-0.350,-250.137,44.252,35.832,0.0,93.0
285732,-0.435,-0.271,0.521,-250.137,56.160,2.092,142.0,78.0
285785,-0.501,-1.918,1.648,250.130,-111.634,-11.221,139.0,77.0
285842,-0.184,0.570,-0.488,250.130,-107.481,81.595,0.0,59.0
285897,0.054,2.000,-0.615,-250.137,58.427,-12.481,0.0,60.0
285952,-0.271,0.182,0.123,-250.137,115.046,-46.580,0.0,61.0
286003,-0.638,-1.876,1.717,120.847,-59.603,-40.298,134.0,60.0
286057,-0.162,-0.203,0.011,250.130,-64.046,59.282,0.0,61.0
286111,-0.093,2.000,-0.646,-176.962,56.817,3.107,0.0,60.0
286167,-0.265,0.001,0.296,-250.137,81.832,-46.000,0.0,61.0
286217,-0.556,-1.286,1.498,-23.802,-18.496,-16.977,128.0,62.0
286275,-0.395,-0.162,0.785,250.130,-47.443,29.924,0.0,63.0
286328,-0.122,1.109,0.286,250.130,-24.817,36.092,186.0,61.0
286384,0.013,2.000,-0.018,-250.137,48.756,-24.435,183.0,84.0
286439,-0.383,0.054,0.278,-250.137,114.374,-38.901,0.0,62.0
286484,-0.661,-2.000,1.746,57.824,-34.702,-57.832,30.0,62.0
286534,-0.409,-0.630,0.497,250.130,-81.588,-11.359,125.0,61.0
286587,0.018,2.000,-0.720,250.130,1.298,44.481,176.0,63.0
286641,-0.198,1.434,-0.289,-250.137,109.550,-71.794,171.0,63.0
286691,-0.597,-0.503,0.654,-250.137,72.176,-64.489,117.0,61.0
286744,-0.575,-1.102,1.450,250.130,-36.878,-36.977,116.0,61.0
286795,-0.244,1.063,-0.031,250.130,-4.649,24.756,123.0,81.0
286845,-0.493,2.000,-0.266,-250.137,95.389,-54.481,121.0,64.0
286891,-0.664,-0.649,0.515,-250.137,89.580,-78.374,30.0,62.0
286938,-0.738,-2.000,1.660,176.351,-20.580,-58.023,58.0,63.0
286988,-0.651,0.638,-0.016,250.130,-36.305,15.038,119.0,63.0
287038,-0.444,2.000,-0.130,-250.137,56.763,1.099,118.0,63.0
287083,-0.701,-0.754,0.859,-250.137,51.931,-7.809,28.0,64.0
287131,-0.460,-1.285,1.296,250.130,-42.969,-4.504,28.0,64.0
287178,-0.312,0.802,0.317,250.130,-17.183,13.824,60.0,64.0
287225,-0.551,1.309,0.215,-161.947,71.527,-26.863,65.0,64.0
287273,-0.879,-0.673,0.902,-180.389,45.252,-43.893,81.0,65.0
287321,-0.733,-0.677,0.932,250.130,-14.290,-16.115,59.0,65.0
287368,-0.685,-0.112,0.279,250.130,-7.382,8.198,58.0,83.0
287414,-0.824,0.121,-0.318,250.130,-22.863,20.160,43.0,61.0
287468,-0.577,1.186,-0.597,250.130,-25.305,6.580,45.0,0.0
287521,-0.317,2.000,-0.592,-215.565,87.008,-101.435,37.0,0.0
287572,-0.876,0.526,-0.978,-250.137,200.626,-100.702,50.0,84.0
287618,-1.329,-0.428,-0.421,-250.137,138.886,-28.427,18.0,70.0
287662,-0.688,-2.000,2.000,49.115,-52.626,-80.221,15.0,71.0
287713,-0.537,-1.494,0.224,250.130,-46.527,18.160,114.0,71.0
287759,-0.825,1.866,-2.000,250.130,62.885,72.695,55.0,57.0
287808,-0.998,1.811,-2.000,-250.137,171.435,-104.809,58.0,103.0
287853,-1.161,-2.000,-0.654,-250.137,58.687,-95.588,16.0,72.0
287898,-1.007,-2.000,1.587,250.130,-80.969,-22.618,17.0,71.0
287955,-0.055,0.528,-1.592,250.130,20.901,137.962,46.0,0.0
288005,-1.214,2.000,-1.201,-250.137,90.748,-13.664,65.0,104.0
288094,-0.771,-2.000,1.552,250.130,-123.305,-28.916,20.0,73.0
288149,0.087,0.790,-0.781,250.130,-10.878,86.557,58.0,0.0
288203,-1.067,2.000,-0.874,-250.137,100.229,-31.221,57.0,0.0
288260,-0.965,-0.765,0.277,-250.137,-9.985,-58.008,17.0,0.0
288307,-0.697,-1.439,0.828,250.130,-87.702,16.298,21.0,106.0
288354,-0.404,1.153,-1.400,250.130,49.664,64.000,57.0,57.0
288403,-0.801,2.000,-0.895,-250.137,49.053,-61.008,57.0,59.0
288451,-0.985,-0.520,-0.123,-250.137,-37.443,-93.107,59.0,84.0
288506,-0.652,-1.561,0.995,250.130,-70.947,40.229,57.0,0.0
288562,-0.693,2.000,-1.529,195.275,54.931,53.527,56.0,0.0
288610,-0.768,0.660,-0.876,-250.137,65.427,-53.618,58.0,86.0
288655,-0.850,-1.712,1.033,-250.137,-18.977,-60.550,17.0,71.0
288700,-0.581,-0.828,0.583,250.130,-17.076,32.496,19.0,74.0
288747,-0.781,2.000,-0.943,250.130,29.794,47.885,57.0,60.0
288798,-0.889,1.086,-0.071,-250.137,37.191,-51.191,62.0,88.0
288844,-1.180,-0.983,1.058,-217.427,-21.214,-40.046,17.0,73.0
288889,-1.279,-0.125,0.859,238.397,-76.374,72.313,20.0,74.0
288944,-0.865,1.509,0.118,128.527,-106.420,148.427,163.0,84.0
289000,-0.561,1.005,0.363,-122.252,-82.015,157.565,0.0,74.0
289055,-0.215,0.602,0.502,-64.878,-68.344,157.924,199.0,76.0
289111,-0.026,0.856,0.385,-0.763,-60.588,149.695,195.0,60.0
289166,-0.136,1.199,0.278,4.664,-38.588,149.305,0.0,62.0
289213,-0.256,1.374,0.341,42.527,34.397,189.107,56.0,57.0
289261,-0.385,0.921,0.398,11.695,128.458,250.130,42.0,59.0
289307,-0.011,0.778,0.338,-94.145,158.252,250.130,36.0,68.0
289354,0.799,-0.502,0.971,-239.939,52.015,217.290,32.0,72.0
289398,-0.190,0.712,1.609,221.809,-2.840,-2.611,31.0,49.0
289444,-0.612,1.460,-0.385,-114.000,102.550,250.130,31.0,66.0
289488,0.419,-0.828,0.961,-239.344,176.756,250.130,24.0,53.0
289533,0.775,-0.918,0.789,-74.626,139.328,-16.870,26.0,52.0
289577,-2.000,1.012,0.677,250.130,47.466,-27.947,21.0,50.0
289626,-0.004,0.708,0.584,3.595,-1.168,163.115,19.0,53.0
289670,0.757,-0.546,0.922,-73.504,14.817,55.893,22.0,56.0
289715,-0.602,0.100,1.050,189.443,30.275,-116.412,18.0,53.0
289759,0.081,0.756,0.694,-3.534,19.580,53.786,18.0,55.0
289803,0.738,0.031,0.960,-68.557,27.542,49.282,18.0,56.0
289848,0.595,-0.274,1.597,23.130,25.710,-65.458,19.0,53.0
289892,-0.528,0.873,0.329,250.130,18.145,12.046,20.0,54.0
289944,0.088,1.454,0.062,82.595,9.290,147.626,20.0,0.0
290000,0.710,0.422,0.823,-250.137,14.710,-6.374,18.0,0.0
290049,-0.206,-0.946,1.883,90.412,31.916,-122.435,18.0,59.0
290102,-0.219,0.277,0.714,250.130,16.115,124.901,20.0,0.0
290165,0.218,2.000,0.037,83.595,-3.046,112.115,0.0,0.0
290211,0.329,0.526,0.338,-250.137,-13.580,-89.504,23.0,81.0
290267,-0.014,0.058,0.427,-250.137,-8.000,-173.038,0.0,57.0
290321,-0.278,-0.472,1.038,-185.931,-23.977,-197.802,0.0,54.0
290366,-0.341,-0.081,0.942,149.153,-61.321,-194.947,17.0,54.0
290410,-0.330,0.460,0.673,217.855,-88.053,-224.733,31.0,35.0
290460,-0.141,0.776,0.562,183.809,-96.282,-244.260,37.0,72.0
290515,0.092,1.285,0.380,105.863,-75.221,-250.137,0.0,66.0
290607,0.131,0.930,0.764,-74.336,43.618,-229.427,46.0,73.0
290654,-0.196,0.824,0.901,-60.420,119.886,-183.672,51.0,76.0
290702,-0.428,0.933,0.664,-101.466,179.840,-112.229,52.0,71.0
290757,-0.437,0.626,0.920,-158.527,155.939,-64.053,0.0,69.0
290813,-0.452,-0.391,1.239,-19.679,-7.641,-141.282,0.0,65.0
290865,-0.617,-0.514,0.795,250.130,-97.504,-172.779,132.0,60.0
290917,-0.142,2.000,-0.142,250.130,88.450,-63.687,133.0,58.0
290965,-1.576,1.091,-0.976,-250.137,231.160,17.565,29.0,59.0
291010,-0.631,-2.000,1.043,-250.137,-22.443,-118.336,19.0,63.0
291055,-0.887,-2.000,1.302,250.130,-124.565,-135.397,21.0,60.0
291101,-1.360,-1.081,-1.217,250.130,-149.664,-35.878,32.0,57.0
291154,0.315,2.000,-1.696,91.733,118.901,30.214,141.0,77.0
291200,-0.629,0.767,-0.542,-250.137,167.061,-36.802,29.0,57.0
291246,-0.593,-2.000,1.730,-180.863,-53.344,-187.748,29.0,57.0
291293,-1.005,-1.948,0.655,250.130,-100.252,-52.221,57.0,56.0
291353,0.120,1.930,-1.740,250.130,96.855,106.725,0.0,96.0
291405,-0.702,1.492,-0.955,-250.137,157.565,-26.275,141.0,61.0
291461,-1.187,-2.000,0.592,-250.137,-74.618,-180.511,0.0,58.0
291514,-0.635,-2.000,0.247,250.130,-96.901,20.718,140.0,76.0
291571,-0.490,2.000,-2.000,96.855,89.947,104.290,0.0,88.0
291623,-0.260,-0.224,-0.678,-250.137,116.237,-85.237,141.0,57.0
291668,-0.958,-2.000,2.000,250.130,-67.107,-76.168,26.0,57.0
291727,0.112,1.702,-0.652,250.130,52.878,76.466,142.0,71.0
291774,-0.950,1.395,-0.855,-250.137,119.221,-2.458,31.0,57.0
291819,-0.847,-2.000,1.784,-232.130,-18.191,-115.015,22.0,57.0
291863,-0.798,-1.085,0.541,250.130,-57.267,-3.244,28.0,56.0
291914,-0.452,2.000,-0.671,89.214,29.992,44.015,141.0,57.0
291958,-0.636,-0.378,0.719,-250.137,8.298,-38.031,25.0,56.0
292002,-0.863,-1.630,1.254,250.130,-69.183,-47.962,26.0,57.0
292055,-0.376,-0.074,-0.162,250.130,-16.374,38.695,141.0,74.0
292107,-0.652,2.000,-0.459,-119.580,103.649,8.702,141.0,80.0
292164,-0.736,-0.027,0.097,-250.137,130.053,-40.366,0.0,62.0
292207,-1.075,-1.162,1.087,-188.038,87.206,25.130,16.0,43.0
292251,-0.911,-0.308,0.883,94.977,73.947,63.565,13.0,57.0
292295,-1.049,0.978,0.232,-86.809,91.244,66.740,13.0,64.0
292339,-1.271,-0.101,0.342,-250.137,69.511,35.702,10.0,66.0
292382,-1.252,-1.352,0.892,-250.137,-18.031,2.985,8.0,51.0
292425,-0.923,-1.434,1.126,72.962,-92.893,-46.786,12.0,46.0
292468,-0.866,-0.943,0.859,250.130,-176.626,-149.794,17.0,41.0
292511,-1.199,-0.647,0.301,250.130,-249.695,-184.130,25.0,37.0
292567,-0.137,1.851,-0.771,250.130,-115.382,-7.908,144.0,71.0
292618,-1.186,1.557,-0.754,-250.137,134.473,21.191,144.0,53.0
292662,-0.411,-2.000,1.249,-250.137,-32.832,-185.107,29.0,55.0
292707,-0.999,-1.650,0.560,250.130,-109.916,-98.733,31.0,53.0
292759,0.124,2.000,-1.078,250.130,45.565,95.924,144.0,69.0
292804,-0.468,0.710,0.104,-250.137,31.176,13.046,37.0,51.0
292848,-0.869,-2.000,1.789,79.023,-71.504,-108.985,31.0,52.0
292899,-0.342,-0.227,0.362,250.130,-26.221,43.649,143.0,54.0
292953,-0.764,1.914,-0.172,-250.137,67.718,58.397,142.0,53.0
292998,-0.558,-1.873,1.516,-206.947,-37.542,-78.733,31.0,53.0
293097,0.034,1.402,-0.098,250.130,14.649,98.107,0.0,76.0
293147,-0.586,1.522,-0.057,-250.137,109.015,26.740,142.0,55.0
293192,-0.691,-1.780,1.635,-250.137,-60.115,-66.809,31.0,55.0
293243,-0.620,-1.466,1.188,250.130,-126.397,-9.573,141.0,56.0
293299,0.307,1.852,-0.981,250.130,13.069,103.237,0.0,61.0
293353,-0.328,1.586,-0.514,-250.137,97.038,-16.840,0.0,57.0
293410,-0.774,-1.305,0.879,-250.137,6.450,-51.115,0.0,56.0
293466,-0.363,-0.996,0.954,250.130,-49.092,22.069,0.0,60.0
293521,0.020,1.682,-0.433,250.130,62.031,74.588,0.0,74.0
293576,-0.144,1.680,0.049,-250.137,131.725,-32.496,0.0,78.0
293632,-0.968,0.408,0.571,-250.137,118.557,-5.695,0.0,61.0
293677,-1.160,-1.226,2.000,-95.794,-81.519,24.267,19.0,63.0
293731,-0.632,-0.519,1.441,250.130,-152.969,123.580,0.0,66.0
293786,0.203,0.641,0.074,250.130,-134.695,230.397,0.0,60.0
293841,0.982,1.198,-0.331,250.130,-12.885,208.504,0.0,61.0
293891,-0.487,2.000,-0.917,-250.137,162.099,87.275,50.0,66.0
293938,-0.825,-0.131,0.648,-250.137,133.443,250.130,40.0,82.0
293983,-0.125,-0.740,1.021,-139.931,12.824,250.130,33.0,58.0
294028,1.104,-0.860,1.050,151.672,-82.649,154.275,30.0,58.0
294073,0.495,0.367,1.395,250.130,-34.336,50.710,33.0,58.0
294120,-0.156,2.000,-0.424,-17.000,96.252,197.107,29.0,108.0
294165,0.246,0.234,0.577,-250.137,117.275,246.832,24.0,65.0
294210,0.835,-1.143,0.974,-178.687,78.847,65.191,25.0,66.0
294258,-0.169,0.046,1.956,136.710,60.809,-116.244,21.0,67.0
294303,0.070,1.274,0.816,101.656,14.565,156.511,21.0,70.0
294351,0.581,-0.082,0.346,-105.084,20.672,153.382,20.0,113.0
294397,1.420,-0.151,1.111,-61.481,41.550,-121.588,19.0,90.0
294443,-0.800,1.042,-0.204,193.626,8.969,-69.779,21.0,68.0
294488,0.419,0.261,0.617,-21.397,14.611,142.695,19.0,71.0
294534,0.982,-0.363,0.908,-59.435,4.244,41.779,19.0,90.0
294579,-0.593,0.083,0.690,104.527,-9.221,-133.160,20.0,70.0
294624,0.283,0.240,1.007,-34.893,-14.443,34.702,18.0,71.0
294672,0.869,-0.045,0.964,8.000,-11.206,-17.817,20.0,69.0
294717,-0.380,1.166,0.661,165.725,-24.573,-50.183,20.0,69.0
294762,0.565,0.240,0.805,-58.237,-19.550,96.397,19.0,80.0
294810,0.773,-0.843,0.821,-67.695,3.725,25.618,19.0,114.0
294855,0.303,0.139,1.006,45.076,20.504,-215.817,20.0,70.0
294900,-0.465,1.031,0.491,67.580,-1.168,-156.519,22.0,75.0
294946,-0.119,0.789,0.777,-25.176,-23.382,-58.893,26.0,68.0
294991,0.177,0.436,0.769,-32.672,-61.725,-105.000,27.0,63.0
295040,0.396,-0.116,0.714,-33.176,-92.931,-200.115,30.0,59.0
295085,0.623,-0.218,0.830,51.679,-61.405,-250.137,33.0,58.0
295132,-0.435,1.888,0.323,20.038,-17.802,-250.137,40.0,81.0
295180,-0.184,0.408,0.657,-250.137,56.748,-215.237,51.0,89.0
295227,0.490,-0.603,1.049,-132.321,144.305,-168.954,50.0,74.0
295283,-0.204,-0.743,1.189,250.130,158.267,-248.344,0.0,70.0
295339,-1.557,2.000,-0.467,59.252,61.389,-64.046,0.0,73.0
295394,-0.060,0.665,0.660,-250.137,116.313,49.328,0.0,67.0
295439,-0.223,-0.882,1.323,-27.740,34.672,-64.450,16.0,62.0
295497,-0.848,-0.054,0.955,250.130,-82.573,-121.947,0.0,64.0
295585,-0.314,0.594,0.427,-250.137,104.725,24.099,17.0,59.0
295630,-0.552,-1.100,1.099,-165.282,61.511,-81.763,16.0,64.0
295675,-0.995,-1.174,1.101,250.130,-49.397,-113.489,17.0,60.0
295732,-0.849,-0.524,-0.099,250.130,-71.305,-48.015,0.0,79.0
295787,-0.667,2.000,-1.209,-233.794,159.595,-49.206,0.0,75.0
295832,-1.134,-0.479,-1.437,-250.137,140.496,-37.374,17.0,58.0
295876,-0.903,-2.000,2.000,-142.603,-62.565,-74.252,10.0,61.0
295924,-0.812,-1.683,0.293,250.130,-99.634,-27.603,17.0,58.0
295981,-1.120,-0.357,-1.343,250.130,-143.290,11.489,0.0,74.0
296037,0.019,2.000,-1.443,-250.137,80.962,-31.313,0.0,76.0
296081,-0.987,-0.406,-0.732,-250.137,135.901,20.160,18.0,60.0
296126,-0.583,-2.000,1.970,50.176,-85.824,-82.244,16.0,64.0
296181,-0.717,-1.298,0.351,250.130,-120.931,-5.992,0.0,61.0
296239,-0.131,2.000,-1.282,250.130,30.924,72.618,0.0,95.0
296294,-0.500,0.491,-0.176,-250.137,61.328,-30.160,0.0,60.0
296342,-0.756,-2.000,2.000,250.130,-136.466,-138.046,21.0,59.0
296394,-0.912,-1.209,-0.626,250.130,-180.496,-17.237,137.0,67.0
296450,0.271,2.000,-1.687,6.962,71.275,56.267,0.0,66.0
296501,-0.314,0.211,-0.941,-250.137,122.313,-50.878,134.0,56.0
296547,-0.575,-2.000,2.000,199.374,-123.389,-138.962,30.0,56.0
296602,-0.463,-1.011,-0.617,250.130,-95.496,50.191,0.0,61.0
296657,-0.503,2.000,-1.049,-250.137,106.664,33.802,0.0,58.0
296709,-0.158,-1.499,0.845,-250.137,11.664,-154.611,131.0,56.0
296766,-0.465,-1.414,0.455,250.130,-47.008,-30.885,183.0,68.0
296818,-0.499,2.000,-1.878,-27.534,103.748,4.763,141.0,57.0
296869,-0.724,0.046,-0.241,-250.137,85.588,-94.641,128.0,58.0
296921,-0.669,-1.758,1.650,84.740,-42.221,-34.427,125.0,59.0
296972,-0.490,1.500,0.172,-8.985,31.389,55.435,126.0,59.0
297022,-0.491,0.171,0.709,-250.137,84.656,8.344,126.0,61.0
297068,-0.545,-1.319,1.364,166.252,11.359,-12.588,30.0,62.0
297121,-0.593,-0.162,0.420,250.130,-8.954,-35.305,152.0,64.0
297170,-0.666,0.826,0.233,250.130,30.359,-51.092,58.0,99.0
297223,-0.897,1.331,0.200,-0.473,25.725,-55.244,56.0,98.0
297272,-1.163,0.338,0.563,-250.137,-39.565,-37.519,71.0,79.0
297320,-0.797,-1.135,1.465,250.130,-165.069,0.443,58.0,80.0
297367,0.146,0.882,-0.462,250.130,-63.595,68.519,58.0,57.0
297414,-0.564,2.000,-1.564,-250.137,153.702,-109.389,57.0,57.0
297460,-0.862,-0.225,-1.930,-250.137,216.145,-86.977,37.0,62.0
297506,-0.759,-2.000,2.000,-173.069,-52.344,-138.359,29.0,64.0
297552,-0.978,-1.906,-0.127,250.130,-119.710,-44.763,37.0,63.0
297611,0.506,2.000,-2.000,250.130,77.794,60.679,50.0,0.0
297659,-0.818,0.808,-0.745,-250.137,142.405,-58.267,71.0,65.0
297705,-1.168,-2.000,1.833,-69.641,-95.771,-149.031,30.0,66.0
297754,-0.736,-1.405,-0.208,250.130,-84.886,46.473,39.0,102.0
297800,-0.190,2.000,-1.687,250.130,101.198,92.977,47.0,59.0
297856,-0.741,1.503,-0.656,-250.137,118.595,-32.588,60.0,0.0
297903,-0.810,-2.000,1.688,-226.130,-81.687,-161.679,28.0,69.0
297951,-0.764,-1.546,0.629,250.130,-91.008,5.084,33.0,105.0
298001,-0.295,2.000,-1.585,250.130,24.924,87.176,44.0,59.0
298054,-0.570,1.327,-0.839,-250.137,112.122,-66.618,44.0,106.0
298145,-0.902,-2.000,1.056,250.130,-123.618,-55.198,34.0,103.0
298191,-0.413,0.307,-1.366,250.130,-75.137,60.710,44.0,67.0
298245,-0.399,2.000,-1.606,-250.137,143.748,-70.939,45.0,0.0
298291,-0.940,-0.872,-1.866,-250.137,172.870,-63.756,30.0,67.0
298336,-0.584,-2.000,2.000,62.206,-57.443,-52.481,27.0,68.0
298383,-0.718,-1.266,-0.234,250.130,-84.031,-2.519,37.0,103.0
298436,-0.170,1.989,-1.365,250.130,21.702,62.122,44.0,0.0
298487,-0.578,1.449,-0.455,-250.137,130.191,-51.351,44.0,105.0
298533,-1.202,-0.594,-0.230,-250.137,118.038,-42.008,30.0,70.0
298578,-0.741,-2.000,1.814,50.618,-36.359,-27.565,23.0,70.0
298626,-0.880,-1.334,0.403,250.130,-96.511,8.053,29.0,105.0
298679,-0.534,0.238,-1.014,250.130,-82.763,47.336,46.0,0.0
298733,-0.755,2.000,-1.289,-250.137,103.618,-48.847,48.0,0.0
298789,-0.875,-1.065,-0.228,-250.137,86.466,-33.924,27.0,0.0
298836,-0.796,-2.000,1.150,250.130,-89.588,-0.298,27.0,106.0
298886,-0.082,1.829,-1.907,250.130,-6.267,128.550,46.0,57.0
298939,-0.756,2.000,-0.966,-250.137,90.092,-16.084,46.0,0.0
298985,-0.971,-1.711,0.705,-250.137,18.405,-47.450,28.0,73.0
299033,-0.628,-1.290,1.178,250.130,-68.985,40.664,51.0,109.0
299087,-0.260,1.879,-0.611,250.130,-23.656,96.038,44.0,0.0
299136,-0.335,1.611,-0.400,-250.137,89.954,-15.382,44.0,111.0
299184,-1.292,0.043,-0.353,-250.137,155.870,45.359,66.0,73.0
299229,-0.604,-2.000,1.903,9.534,-58.069,-7.466,21.0,74.0
299285,-0.553,-0.834,-0.009,250.130,-111.687,18.061,152.0,88.0
299341,-0.285,2.000,-0.893,-107.954,74.901,33.603,200.0,88.0
299387,-0.577,-0.266,-0.127,-250.137,116.214,-70.779,23.0,75.0
299432,-0.736,-2.000,1.853,224.687,-36.412,-80.718,20.0,75.0
299480,-0.561,-0.125,-0.200,250.130,-21.908,12.405,51.0,75.0
299531,-0.785,2.000,-0.705,-182.603,66.534,1.435,126.0,77.0
299576,-0.682,-0.406,0.485,-250.137,78.427,-61.802,21.0,74.0
299621,-0.754,-2.000,1.589,221.527,-20.939,-28.977,19.0,75.0
299677,-0.589,-0.156,-0.067,250.130,-25.046,6.802,24.0,0.0
299726,-0.495,2.000,-0.716,-199.969,108.763,-8.611,51.0,111.0
299771,-1.091,-0.067,-0.528,-250.137,124.992,-39.153,17.0,75.0
299814,-0.788,-2.000,2.000,83.939,-53.847,-49.427,14.0,50.0
299860,-0.926,-1.028,0.033,250.130,-99.634,18.061,21.0,75.0
299914,-0.538,0.328,-0.855,250.130,-72.435,69.855,45.0,0.0
299960,-0.589,2.000,-0.896,-250.137,80.397,-43.305,45.0,57.0
300005,-0.845,-0.116,-0.833,-250.137,116.641,-70.687,21.0,75.0
300051,-1.000,-2.000,2.000,0.489,-40.771,-84.496,16.0,75.0
300101,-0.683,-1.080,-0.251,250.130,-72.336,61.908,27.0,112.0
300147,-0.617,1.749,-1.860,250.130,-39.901,131.000,45.0,57.0
300193,-0.514,2.000,-0.723,-250.137,40.031,-44.412,44.0,60.0
300238,-0.770,-0.283,-0.251,-250.137,77.061,-60.321,25.0,75.0
300284,-0.886,-2.000,1.587,-52.061,-10.679,-40.443,20.0,75.0
300331,-0.554,-0.627,0.451,250.130,-24.740,48.725,27.0,88.0
300385,-0.553,2.000,-0.629,54.710,44.634,54.305,45.0,0.0
300441,-0.657,0.206,-0.090,-250.137,60.893,-70.679,20.0,0.0
300489,-0.794,-1.967,1.545,250.130,-53.389,-44.519,21.0,75.0
300539,-0.627,-0.061,-0.185,250.130,-30.534,24.214,57.0,112.0
300628,-0.661,0.351,-0.199,-250.137,72.809,-80.573,26.0,73.0
300674,-1.021,-1.804,1.100,-203.740,10.863,-52.634,18.0,73.0
300719,-0.813,-0.793,0.715,250.130,-24.580,2.802,22.0,73.0
300773,-0.759,0.496,-0.206,250.130,-20.466,37.656,51.0,0.0
300827,-0.663,1.562,0.010,-32.374,5.015,1.580,48.0,0.0
300877,-0.719,0.245,0.479,-246.336,28.962,-31.840,52.0,111.0
300925,-0.810,-0.211,0.846,-74.145,20.305,-20.794,25.0,75.0
300972,-0.864,0.051,0.739,68.351,1.687,-6.038,27.0,78.0
301021,-0.946,-0.058,0.729,139.084,-45.519,-3.244,58.0,110.0
301075,-0.637,0.162,0.549,250.130,-51.382,4.344,48.0,0.0
301129,-0.962,2.000,-0.777,-250.137,94.397,1.038,50.0,0.0
301186,-0.896,-0.948,0.045,-250.137,61.603,-44.992,19.0,0.0
301232,-0.906,-2.000,1.430,250.130,-128.527,-49.595,21.0,71.0
301286,-0.749,-0.956,-1.574,250.130,-131.649,84.221,45.0,0.0
301340,0.142,2.000,-1.359,-200.832,72.824,52.206,47.0,0.0
301389,-0.829,-0.574,-1.394,-250.137,137.718,-77.702,29.0,71.0
301434,-0.969,-2.000,2.000,250.130,-100.588,-64.939,24.0,71.0
301489,-0.219,-0.059,-1.188,250.130,-59.069,141.534,44.0,0.0
301543,-0.595,2.000,-1.189,-250.137,114.710,2.374,44.0,0.0
301589,-0.855,-2.000,0.489,-250.137,35.427,-93.160,24.0,72.0
301635,-0.675,-1.048,0.939,250.130,-55.092,7.412,26.0,73.0
301683,-0.494,1.925,-0.137,127.443,17.344,43.725,58.0,87.0
301728,-0.680,0.372,0.439,-250.137,50.924,-19.840,23.0,73.0
301777,-0.814,-1.474,1.409,195.962,-46.038,-31.336,23.0,73.0
301827,-0.529,-0.087,0.188,250.130,-42.061,26.267,50.0,111.0
301881,-0.620,2.000,-0.433,-138.886,51.015,-1.771,44.0,0.0
301927,-0.761,-0.231,0.354,-250.137,77.481,-65.137,25.0,72.0
301973,-0.935,-1.970,1.554,212.084,-58.031,-28.412,27.0,72.0
302027,-0.608,-0.178,-0.336,250.130,-101.122,43.832,45.0,0.0
302082,-0.211,2.000,-0.902,-250.137,66.313,-20.710,44.0,0.0
302128,-0.802,-0.283,-0.388,-250.137,125.954,-58.672,26.0,72.0
302174,-0.852,-2.000,1.864,143.817,-28.931,-29.832,24.0,72.0
302231,-0.654,-0.129,-0.188,250.130,-66.511,40.573,49.0,0.0
302285,-0.360,2.000,-0.320,-104.740,38.115,-11.992,46.0,0.0
302331,-0.854,0.042,0.067,-250.137,83.557,-42.748,26.0,73.0
302377,-0.900,-1.410,1.337,-63.748,-4.893,-26.389,23.0,73.0
302426,-0.737,-0.307,0.589,250.130,-41.985,19.412,26.0,110.0
302480,-0.604,1.281,0.080,220.573,-21.359,26.511,47.0,0.0
302534,-0.685,0.816,0.303,-164.916,18.237,-10.626,49.0,0.0
302584,-0.714,0.018,0.677,-120.443,18.328,-13.893,54.0,110.0
302650,-0.697,0.143,0.635,72.756,4.481,-7.038,28.0,0.0
302699,-0.702,0.549,0.493,58.344,10.962,-9.611,53.0,110.0
302749,-0.857,0.294,0.578,-31.084,1.954,-12.214,51.0,109.0
302803,-0.923,-0.385,0.984,186.420,-71.824,-30.924,49.0,0.0
302851,-0.666,0.068,0.326,250.130,-89.229,-2.412,49.0,59.0
302896,0.116,2.000,-0.752,161.908,64.282,10.962,36.0,57.0
302950,-1.135,1.250,-1.849,-250.137,134.267,-65.382,49.0,0.0
302996,-1.010,-2.000,1.279,-250.137,-18.885,-103.824,22.0,71.0
303048,-0.787,-1.499,0.156,250.130,-106.763,42.359,29.0,107.0
303094,0.058,2.000,-1.995,250.130,0.725,143.176,49.0,57.0