Timestamp(ms),AccelX(g),AccelY(g),AccelZ(g),GyroX(deg/s),GyroY(deg/s),GyroZ(deg/s),DistanceLeft(cm),DistanceRight(cm)
208232,-1.047,0.156,0.431,44.847,-7.435,-38.832,128.0,110.0
208285,-1.024,0.342,0.196,100.916,-17.321,-2.580,107.0,109.0
208338,-0.891,0.474,0.109,48.092,-11.023,27.328,100.0,111.0
208395,-0.890,0.438,0.113,-26.260,1.183,33.649,101.0,110.0
208447,-0.867,0.293,0.142,-55.084,9.840,26.374,103.0,113.0
208505,-0.895,0.209,0.179,-44.893,18.122,20.137,102.0,115.0
208553,-0.917,0.209,0.159,-45.809,22.115,10.771,23.0,115.0
208599,-0.966,0.205,0.166,-54.992,23.863,12.802,20.0,90.0
208645,-1.008,0.189,0.174,-62.321,23.939,20.153,18.0,90.0
208690,-0.998,0.177,0.199,-48.786,18.504,26.023,16.0,91.0
208736,-0.963,0.219,0.229,-23.344,14.481,27.458,16.0,91.0
208784,-0.945,0.286,0.209,-15.489,12.618,18.160,17.0,91.0
208830,-0.931,0.311,0.199,-28.527,8.771,13.603,17.0,91.0
208886,-0.916,0.275,0.214,-26.977,5.229,10.443,0.0,92.0
208943,-0.921,0.281,0.195,-12.198,2.702,8.153,0.0,92.0
208998,-0.938,0.302,0.169,-10.985,1.931,6.023,0.0,93.0
209054,-0.924,0.291,0.169,-11.252,2.458,3.282,0.0,92.0
209100,-0.921,0.282,0.179,-5.298,1.618,0.366,16.0,93.0
209146,-0.915,0.296,0.187,-0.534,1.580,-1.176,16.0,92.0
209191,-0.916,0.311,0.183,-0.145,1.328,-3.641,16.0,93.0
209241,-0.925,0.313,0.179,1.031,0.695,-4.748,17.0,92.0
209286,-0.925,0.314,0.185,3.031,0.458,-4.511,17.0,92.0
209332,-0.927,0.319,0.180,3.053,0.183,-3.893,16.0,92.0
209377,-0.916,0.316,0.180,3.382,-0.359,-2.718,16.0,92.0
209433,-0.926,0.324,0.171,2.221,0.519,-2.977,0.0,92.0
209479,-0.931,0.307,0.166,-3.489,0.481,-2.405,17.0,92.0
209525,-0.932,0.310,0.175,-0.664,0.565,-1.771,17.0,92.0
209570,-0.924,0.309,0.165,-4.519,0.878,-1.275,17.0,92.0
209616,-0.923,0.290,0.187,-0.931,0.298,-0.206,17.0,92.0
209676,-0.933,0.315,0.154,-0.947,0.450,-0.420,0.0,92.0
209732,-0.929,0.284,0.186,0.405,0.031,0.588,0.0,92.0
209777,-0.930,0.299,0.168,0.198,-0.298,-0.634,17.0,92.0
209823,-0.936,0.292,0.180,-0.557,-0.168,-0.542,17.0,92.0
209869,-0.938,0.297,0.172,1.389,-0.443,-0.214,17.0,92.0
209915,-0.930,0.307,0.162,0.557,-0.153,-0.153,17.0,92.0
209960,-0.927,0.298,0.169,-0.611,-0.275,0.412,17.0,92.0
210007,-0.926,0.302,0.183,0.679,-0.115,0.725,17.0,92.0
210053,-0.924,0.304,0.163,-0.389,-0.176,0.725,17.0,92.0
210101,-0.925,0.296,0.171,-2.191,0.069,0.107,17.0,92.0
210147,-0.928,0.300,0.175,-0.740,-0.115,0.053,17.0,92.0
210193,-0.925,0.300,0.176,-0.237,-0.313,0.321,17.0,92.0
210239,-0.919,0.290,0.174,0.252,-0.641,0.450,17.0,92.0
210284,-0.923,0.298,0.172,0.916,-0.519,-0.542,17.0,92.0
210330,-0.934,0.299,0.172,-0.794,0.084,-0.458,17.0,92.0
210376,-0.933,0.302,0.173,-0.099,0.298,-0.450,17.0,92.0
210422,-0.929,0.310,0.168,-1.405,0.153,-1.053,17.0,92.0
210468,-0.936,0.300,0.182,-1.359,0.160,-0.084,17.0,92.0
210516,-0.917,0.300,0.182,0.252,-0.481,1.145,17.0,92.0
210563,-0.933,0.306,0.169,0.840,-0.344,0.580,17.0,92.0
210609,-0.926,0.302,0.170,-2.840,0.252,-0.038,17.0,92.0
210698,-0.931,0.293,0.179,0.389,-0.130,0.427,17.0,92.0
210744,-0.927,0.304,0.179,-0.794,0.115,-0.099,17.0,92.0
210790,-0.925,0.291,0.173,-1.084,-0.191,-0.092,17.0,92.0
210836,-0.931,0.299,0.166,0.435,-0.160,0.092,17.0,92.0
210882,-0.920,0.305,0.180,-0.672,-0.176,0.450,17.0,92.0
210928,-0.930,0.303,0.179,-0.221,0.160,0.107,17.0,92.0
210976,-0.936,0.305,0.176,-1.282,0.359,-0.015,17.0,92.0
211022,-0.926,0.300,0.178,-1.130,0.221,0.206,17.0,92.0
211068,-0.928,0.301,0.177,-0.015,-0.069,0.198,17.0,92.0
211115,-0.934,0.308,0.177,-0.252,0.000,0.473,17.0,92.0
211161,-0.917,0.302,0.177,-0.389,-0.008,0.145,17.0,92.0
211207,-0.932,0.313,0.168,-1.252,0.031,-0.405,17.0,92.0
211253,-0.923,0.295,0.173,-1.214,-0.084,0.275,17.0,92.0
211299,-0.924,0.305,0.177,0.275,-0.069,-0.405,17.0,92.0
211345,-0.926,0.306,0.171,-1.687,0.244,-0.496,17.0,91.0
211393,-0.928,0.300,0.176,-1.053,0.061,-0.275,17.0,91.0
211439,-0.920,0.302,0.171,-0.496,0.183,0.038,17.0,92.0
211485,-0.926,0.307,0.179,-0.298,0.038,0.336,17.0,92.0
211542,-0.924,0.299,0.169,-0.885,0.435,0.458,0.0,92.0
211599,-0.939,0.300,0.172,-1.076,0.305,-0.641,0.0,92.0
211645,-0.926,0.299,0.172,-1.176,-0.313,-0.458,17.0,91.0
211691,-0.929,0.305,0.181,1.023,-0.740,-0.565,17.0,91.0
211737,-0.926,0.310,0.162,-0.710,-0.305,0.321,17.0,92.0
211783,-0.919,0.301,0.170,0.328,-0.053,0.511,17.0,92.0
211832,-0.928,0.311,0.176,-1.198,0.534,-0.092,17.0,92.0
211889,-0.929,0.294,0.180,-1.809,0.611,0.252,0.0,92.0
211945,-0.926,0.299,0.175,0.313,-0.351,-0.229,0.0,92.0
212002,-0.933,0.300,0.170,-1.153,-0.015,-0.412,0.0,92.0
212059,-0.929,0.302,0.174,-0.748,-0.229,-0.183,0.0,92.0
212116,-0.932,0.301,0.173,-0.550,0.252,-0.198,0.0,92.0
212172,-0.926,0.303,0.169,-1.481,0.435,-0.053,0.0,92.0
212230,-0.930,0.299,0.166,-0.221,0.160,-0.061,0.0,92.0
212286,-0.927,0.303,0.171,-1.855,0.450,-0.366,0.0,92.0
212342,-0.923,0.299,0.175,-0.046,-0.420,-0.511,0.0,92.0
212403,-0.925,0.299,0.167,-0.565,-0.504,0.099,0.0,92.0
212459,-0.925,0.295,0.164,0.221,-0.168,0.252,0.0,92.0
212516,-0.927,0.307,0.168,-0.878,0.382,0.160,0.0,92.0
212573,-0.930,0.300,0.173,-0.779,-0.061,-0.137,0.0,92.0
212630,-0.925,0.305,0.167,-0.336,-0.427,-0.069,0.0,92.0
212686,-0.926,0.297,0.170,-0.466,-0.443,0.031,0.0,92.0
212733,-0.925,0.305,0.169,-0.878,-0.191,-0.061,16.0,92.0
212780,-0.931,0.301,0.169,-0.763,-0.092,0.153,16.0,92.0
212826,-0.919,0.301,0.168,-0.466,-0.122,0.489,16.0,92.0
212875,-0.932,0.307,0.174,-0.023,-0.015,-0.710,16.0,92.0
212921,-0.932,0.301,0.173,-1.359,0.084,-0.046,16.0,92.0
212967,-0.919,0.294,0.178,0.809,-0.870,-0.336,17.0,92.0
213024,-0.929,0.301,0.176,0.382,-0.786,-0.351,0.0,92.0
213081,-0.927,0.304,0.164,-0.191,-0.099,0.458,0.0,92.0
213138,-0.931,0.310,0.167,-0.115,0.649,0.344,0.0,92.0
213195,-0.926,0.292,0.172,-1.389,0.748,0.122,0.0,92.0
213296,-0.929,0.303,0.176,-0.176,-0.420,-0.473,0.0,92.0
213352,-0.931,0.295,0.166,-0.511,-0.328,-0.374,0.0,92.0
213412,-0.929,0.302,0.167,0.282,-0.031,0.748,0.0,92.0
213469,-0.919,0.295,0.178,-0.916,0.427,0.198,0.0,92.0
213526,-0.938,0.296,0.173,0.321,0.336,-1.023,0.0,92.0
213572,-0.928,0.303,0.182,-0.802,-0.397,-0.679,17.0,92.0
213619,-0.922,0.293,0.175,0.840,-1.137,-0.870,17.0,92.0
213665,-0.933,0.304,0.172,1.031,-0.725,-0.405,17.0,92.0
213723,-0.938,0.303,0.168,-2.275,-1.076,-0.359,0.0,92.0
213769,-0.951,0.300,0.202,-2.244,-2.092,-0.191,17.0,92.0
213826,-0.940,0.271,0.221,-1.450,-6.580,-1.275,0.0,92.0
213885,-0.938,0.343,0.233,-8.214,-7.794,-1.580,0.0,91.0
213933,-1.011,0.335,0.258,-34.122,-12.038,-1.740,16.0,91.0
213979,-1.045,0.283,0.375,-45.977,-31.328,7.542,13.0,91.0
214025,-1.015,0.147,0.490,0.229,-56.916,18.244,17.0,90.0
214081,-1.013,0.102,0.541,95.084,-88.847,34.603,0.0,79.0
214138,-1.003,-0.135,0.506,250.130,-132.290,58.466,0.0,96.0
214196,-0.739,0.218,-0.379,250.130,-80.038,164.733,88.0,0.0
214244,-0.046,2.000,-1.027,-247.275,162.634,80.420,85.0,50.0
214304,-1.245,0.543,-1.361,-250.137,150.924,17.466,0.0,83.0
214350,-0.469,-2.000,2.000,-189.595,-236.008,-112.641,23.0,71.0
214407,-0.459,-1.325,-0.078,250.130,-242.573,55.420,0.0,86.0
214462,0.296,2.000,-1.097,-113.740,153.817,84.389,0.0,59.0
214518,-1.109,0.011,-0.306,-250.137,32.718,-39.160,0.0,68.0
214576,-0.792,-2.000,2.000,250.130,-250.137,-48.718,0.0,94.0
214632,1.847,0.304,-2.000,250.130,-62.863,250.130,0.0,65.0
214687,0.292,2.000,-1.789,-250.137,250.130,-161.298,0.0,68.0
214735,-1.337,-1.166,0.424,-250.137,61.527,-47.069,45.0,83.0
214788,-0.021,-1.424,1.458,250.130,-240.786,94.214,43.0,91.0
214844,1.735,1.266,-0.940,250.130,-95.557,149.847,0.0,74.0
214900,0.185,2.000,-0.754,-250.137,225.710,-159.313,0.0,77.0
214947,-0.597,-1.605,0.835,-250.137,20.137,-13.191,45.0,73.0
215000,-0.335,-2.000,0.331,250.130,-149.687,-68.130,47.0,74.0
215055,0.091,2.000,-2.000,221.771,-38.328,102.588,0.0,71.0
215102,0.856,-0.486,0.476,-250.137,75.031,113.298,44.0,93.0
215149,0.453,-0.997,1.131,203.809,110.015,-25.740,45.0,81.0
215207,-0.947,2.000,-0.807,244.626,62.756,26.824,0.0,72.0
215263,0.177,0.515,0.573,-248.817,69.695,67.229,0.0,79.0
215309,0.158,-0.669,1.290,186.756,21.893,3.634,43.0,75.0
215363,-0.185,0.698,0.067,250.130,-12.718,26.962,0.0,68.0
215418,0.176,2.000,-0.625,44.863,29.382,89.053,0.0,65.0
215474,0.479,1.053,0.365,-250.137,81.710,11.229,0.0,68.0
215520,0.725,0.330,0.583,-250.137,43.893,-99.267,39.0,80.0
215566,0.197,0.229,1.160,-250.137,21.511,-164.420,37.0,83.0
215613,-0.650,-0.164,1.435,148.153,-28.443,-35.916,38.0,82.0
215661,0.227,0.357,0.063,250.130,-48.183,170.160,39.0,71.0
215716,0.698,1.771,-0.656,250.130,-63.191,211.466,0.0,72.0
215772,0.810,1.248,-0.160,-51.366,-69.954,133.534,0.0,75.0
215828,1.074,1.487,-0.464,-250.137,73.847,14.153,0.0,82.0
215874,0.143,0.548,-0.296,-250.137,180.115,-10.527,33.0,85.0
215964,0.275,-1.184,1.197,250.130,-136.107,53.656,30.0,94.0
216011,1.096,0.732,0.000,250.130,-38.679,181.198,30.0,99.0
216058,0.867,1.160,0.160,35.710,48.649,65.069,31.0,86.0
216105,0.609,0.217,0.696,-198.519,37.298,-85.221,38.0,57.0
216151,-0.315,1.138,0.330,180.916,-10.863,-20.122,34.0,58.0
216205,0.644,0.151,0.502,149.756,-13.389,200.649,199.0,57.0
216259,1.086,0.170,0.806,46.824,0.634,104.084,198.0,57.0
216313,0.871,1.812,-0.075,-250.137,29.191,-181.603,198.0,57.0
216358,0.212,-0.954,1.099,-250.137,50.443,37.786,25.0,61.0
216403,0.873,-1.090,1.248,108.328,10.641,54.176,23.0,62.0
216448,0.103,1.901,-0.005,187.550,-39.115,41.137,25.0,59.0
216502,0.715,0.134,0.678,-194.267,-37.122,100.435,193.0,62.0
216550,1.245,-1.433,1.031,49.366,4.664,-12.802,23.0,64.0
216594,-0.280,1.099,0.214,222.321,-1.924,-85.763,24.0,60.0
216639,0.550,0.529,0.696,-173.389,-2.191,45.603,25.0,60.0
216683,1.018,-1.162,1.021,-47.443,0.863,21.435,23.0,60.0
216737,0.096,0.489,0.579,250.130,-6.061,-98.382,197.0,57.0
216782,0.709,0.811,0.515,-166.496,-2.740,54.267,24.0,58.0
216826,0.791,-0.921,0.937,-9.450,30.427,-18.000,25.0,59.0
216870,0.442,-0.168,0.659,175.107,54.542,-99.053,25.0,57.0
216929,0.251,0.873,0.207,129.527,102.450,-115.206,0.0,74.0
216976,0.287,0.308,0.276,-19.168,183.481,-151.687,29.0,93.0
217023,-0.075,0.421,0.327,-91.092,229.290,-185.061,30.0,91.0
217069,-0.271,0.341,0.680,-250.137,184.725,-216.618,39.0,80.0
217125,-0.313,-1.076,1.344,-173.931,79.718,-250.137,0.0,84.0
217182,-1.672,-1.417,0.804,250.130,-61.344,-250.137,0.0,76.0
217235,0.049,2.000,-2.000,250.130,11.893,-18.641,187.0,54.0
217291,0.016,2.000,-1.874,-250.137,248.580,-250.137,0.0,72.0
217336,-1.211,-2.000,-0.268,-250.137,152.863,-231.695,10.0,74.0
217383,-1.038,-2.000,1.244,250.130,20.000,-88.954,11.0,71.0
217443,-1.090,-0.611,-1.709,250.130,27.183,-3.130,133.0,0.0
217495,-1.035,2.000,-1.228,-250.137,112.809,-43.397,136.0,86.0
217539,-0.951,-1.541,0.249,-250.137,55.031,-125.519,14.0,51.0
217583,-1.009,-2.000,1.621,250.130,-90.061,-38.947,13.0,50.0
217643,-0.135,1.269,-0.483,250.130,53.679,122.542,138.0,0.0
217698,-1.479,1.992,-1.587,-250.137,168.305,31.702,17.0,0.0
217743,-1.226,-2.000,1.343,-250.137,-76.435,-102.855,13.0,60.0
217810,-0.629,-1.358,-0.362,250.130,-133.046,-10.855,0.0,83.0
217863,-0.711,2.000,-1.415,-248.481,97.886,23.687,136.0,79.0
217908,-0.453,-1.327,0.177,-250.137,69.908,-128.008,16.0,60.0
217953,-1.057,-2.000,1.521,250.130,-73.344,-156.290,14.0,69.0
218009,-0.623,0.457,-0.479,250.130,20.809,35.977,0.0,82.0
218053,-1.540,1.760,-0.977,-250.137,80.916,47.695,16.0,68.0
218097,-0.772,-2.000,1.880,-183.794,-58.061,-123.137,14.0,58.0
218142,-0.891,-1.368,0.279,250.130,-76.947,1.038,17.0,68.0
218198,-0.489,2.000,-1.355,-38.504,121.160,95.664,134.0,68.0
218243,-0.766,-0.980,0.003,-250.137,51.084,-58.863,14.0,70.0
218288,-1.192,-2.000,1.561,250.130,-88.641,-58.542,14.0,71.0
218332,-0.677,-0.020,0.294,250.130,-67.260,60.565,17.0,67.0
218384,-0.978,1.093,0.248,169.863,-68.038,72.672,132.0,67.0
218482,-0.957,0.837,0.604,-41.099,-146.122,65.702,0.0,63.0
218537,-0.539,0.374,0.856,22.489,-213.489,169.397,0.0,65.0
218594,-0.027,0.076,0.667,228.092,-211.122,208.099,0.0,81.0
218642,0.621,0.083,0.147,250.130,-126.458,250.130,47.0,82.0
218701,0.940,1.145,-0.441,250.130,60.435,198.397,0.0,84.0
218759,0.139,1.940,-0.564,-250.137,202.611,60.573,0.0,100.0
218807,-0.409,-0.714,0.511,-250.137,24.061,122.122,32.0,102.0
218853,0.379,-1.540,1.476,250.130,-97.725,133.130,28.0,76.0
218898,1.665,0.673,-0.417,250.130,111.427,161.840,31.0,57.0
218952,0.761,1.564,0.166,-84.298,250.130,-0.939,198.0,57.0
218998,-1.143,-0.344,0.719,-250.137,121.466,-11.328,30.0,60.0
219044,-0.488,-1.377,1.719,103.351,-215.443,-52.885,30.0,81.0
219092,1.373,1.054,-0.580,250.130,-64.855,92.221,28.0,57.0
219138,0.813,1.310,-0.022,-146.435,250.130,5.588,30.0,57.0
219183,-0.702,0.476,0.706,-250.137,248.214,5.687,22.0,59.0
219229,-1.130,-1.163,1.686,-250.137,-119.618,-13.000,16.0,82.0
219275,-0.141,-1.204,0.927,204.382,-250.137,-74.298,18.0,87.0
219321,1.789,0.502,0.092,250.130,-40.473,47.550,30.0,64.0
219366,0.800,1.173,0.178,-99.198,250.130,-11.962,27.0,62.0
219420,-1.291,-0.141,0.770,-250.137,128.328,-20.397,17.0,73.0
219469,-0.156,-1.417,1.852,-7.053,-201.985,-130.527,16.0,103.0
219514,0.840,-0.257,0.169,250.130,-214.679,-46.038,20.0,85.0
219559,1.296,1.261,-0.188,17.588,195.275,36.053,22.0,66.0
219603,-0.283,0.542,0.554,-180.496,250.130,-27.718,18.0,62.0
219659,-1.000,-0.961,1.287,-250.137,26.649,-14.351,0.0,86.0
219705,-0.244,-0.924,1.052,222.412,-237.504,-121.115,17.0,84.0
219749,0.851,0.139,0.267,250.130,-129.840,-44.771,23.0,61.0
219794,0.752,0.876,0.240,108.290,105.267,-78.992,30.0,60.0
219838,0.138,0.695,0.235,-158.160,196.298,-178.244,30.0,57.0
219885,-0.005,-0.052,0.666,-250.137,250.130,-204.290,26.0,57.0
219942,-0.496,-0.709,0.454,-250.137,250.130,-161.878,0.0,101.0
219990,-0.784,-1.654,0.750,-239.160,250.130,-146.779,20.0,102.0
220038,-1.041,-2.000,1.496,250.130,139.664,-250.137,22.0,134.0
220083,-2.000,-0.916,0.138,250.130,-150.290,-250.137,30.0,64.0
220137,1.213,2.000,-0.468,250.130,13.870,-31.412,0.0,58.0
220183,-0.879,1.934,-0.465,-250.137,250.130,18.000,52.0,59.0
220228,-0.878,-2.000,0.210,-250.137,76.214,-117.176,33.0,63.0
220276,-0.906,-2.000,1.767,250.130,-90.420,-147.344,33.0,61.0
220331,0.007,0.669,-0.640,250.130,3.237,30.427,0.0,57.0
220385,-0.396,1.563,-0.134,-250.137,110.718,-5.634,0.0,58.0
220431,-1.058,-2.000,1.967,-110.298,-30.305,-116.840,34.0,60.0
220482,-0.846,-1.417,0.288,250.130,-101.321,-27.008,149.0,56.0
220533,-0.044,2.000,-0.573,-158.298,67.573,79.015,151.0,56.0
220578,-0.686,-2.000,0.899,-250.137,20.496,-100.198,36.0,59.0
220634,-1.006,-2.000,1.705,250.130,-139.756,-113.092,0.0,56.0
220691,1.099,2.000,-0.766,250.130,25.687,102.557,0.0,54.0
220736,-0.383,0.342,-0.481,-250.137,107.405,-1.527,46.0,57.0
220782,-0.753,-2.000,2.000,36.435,-122.168,-119.229,42.0,59.0
220833,-0.462,-1.006,-0.060,250.130,-176.267,32.656,149.0,56.0
220888,0.235,2.000,-0.753,199.389,-18.809,184.832,0.0,57.0
220978,-0.822,-0.621,1.285,-111.832,-52.359,250.130,47.0,68.0
221025,-0.047,-0.261,1.156,74.893,-93.260,250.130,52.0,76.0
221076,0.242,-0.085,0.537,-89.000,-132.939,250.130,55.0,137.0
221137,1.141,-2.000,1.190,-29.450,-176.153,-6.122,0.0,140.0
221184,-0.901,-0.340,0.339,250.130,-78.725,45.885,27.0,75.0
221228,0.685,2.000,-0.450,186.756,88.817,250.130,25.0,55.0
221273,0.238,0.664,0.633,-208.573,130.351,238.389,26.0,57.0
221319,0.349,-0.976,1.259,-250.137,19.084,49.511,24.0,84.0
221363,-0.042,-1.199,2.000,139.137,-85.802,-65.481,18.0,60.0
221408,0.612,1.885,-0.036,250.130,-10.878,155.489,29.0,59.0
221452,0.710,0.656,0.387,-193.221,117.664,98.542,16.0,63.0
221497,0.537,-1.378,1.276,-199.298,73.160,-116.427,16.0,71.0
221544,-1.335,0.727,0.775,250.130,-50.084,69.084,16.0,61.0
221590,0.761,1.187,0.186,2.351,-35.641,164.214,23.0,80.0
221645,0.893,-1.347,0.812,-195.038,10.664,30.687,0.0,83.0
221691,-0.701,-0.454,1.013,194.122,10.229,-168.519,16.0,80.0
221735,0.585,1.357,0.478,27.008,4.130,94.206,16.0,71.0
221782,1.003,-0.915,0.854,-149.038,25.771,47.397,30.0,83.0
221827,0.717,-0.739,1.299,-0.305,26.527,-163.321,28.0,63.0
221872,-0.505,1.962,0.536,158.359,-25.969,43.137,17.0,61.0
221919,0.556,0.539,0.329,-114.267,-14.908,106.908,17.0,62.0
221966,0.854,-1.133,0.970,-100.000,16.771,-21.725,19.0,104.0
222010,0.501,-0.461,1.108,65.023,49.809,-162.908,17.0,60.0
222054,-0.379,1.858,0.019,169.198,11.595,-49.779,17.0,58.0
222099,0.425,0.881,0.341,62.893,4.664,105.863,17.0,72.0
222144,0.849,0.034,0.687,148.802,27.542,123.198,19.0,62.0
222188,0.739,0.098,0.832,83.992,11.046,85.931,17.0,64.0
222235,0.665,-0.032,1.319,47.519,-43.718,-49.130,16.0,108.0
222284,-0.792,0.785,1.298,250.130,-109.351,-130.130,19.0,134.0
222337,0.907,1.212,0.875,166.863,-1.519,138.336,17.0,155.0
222386,1.147,0.506,0.612,-159.954,92.947,82.687,16.0,141.0
222431,0.574,0.046,0.947,-123.031,81.977,-156.496,19.0,78.0
222479,-1.470,1.487,-0.566,141.092,-13.000,-22.336,18.0,113.0
222540,1.116,0.299,0.493,57.962,15.176,144.985,0.0,171.0
222588,1.272,0.686,0.813,56.053,53.443,-167.588,17.0,139.0
222635,-0.935,1.958,0.352,-100.588,12.763,24.863,17.0,76.0
222687,0.357,-0.074,0.480,-11.366,12.817,88.053,16.0,0.0
222742,1.685,-0.068,0.872,160.160,59.092,21.198,16.0,0.0
222798,-1.593,2.000,-0.196,127.786,60.305,-70.336,18.0,0.0
222851,-0.897,0.676,0.651,-62.183,-76.611,22.832,16.0,0.0
222907,2.000,-1.719,1.469,133.313,-92.298,48.038,17.0,0.0
222970,0.503,2.000,-1.108,122.328,11.916,-93.779,0.0,0.0
223026,-0.515,-0.392,0.977,-250.137,88.618,132.252,16.0,0.0
223079,2.000,-1.074,1.304,153.664,63.504,82.496,17.0,0.0
223135,-0.371,0.969,0.949,5.855,-29.908,-164.763,20.0,0.0
223187,-0.819,1.261,0.807,42.260,-76.305,38.176,18.0,0.0
223244,2.000,-0.217,0.421,15.588,-13.153,64.687,30.0,0.0
223300,0.970,0.413,0.414,-0.351,-30.580,-105.412,20.0,0.0
223353,-2.000,2.000,-0.417,-147.397,-29.450,-46.817,24.0,0.0
223410,-0.254,0.166,0.928,-91.168,-13.565,33.405,19.0,0.0
223502,-0.399,0.468,0.949,-39.893,-115.809,-250.137,26.0,124.0
223549,-0.734,0.911,0.700,-81.176,-66.092,-250.137,31.0,85.0
223596,-0.949,1.232,0.617,-153.954,51.733,-250.137,38.0,72.0
223652,-0.742,0.967,0.404,-250.137,154.954,-250.137,0.0,79.0
223703,-1.800,0.563,0.737,-250.137,130.527,-250.137,57.0,72.0
223749,-1.500,-2.000,2.000,-108.725,-53.931,-250.137,36.0,68.0
223797,-2.000,-1.721,1.174,250.130,-250.137,-235.160,61.0,61.0
223851,-1.553,-0.538,-0.829,250.130,-250.137,14.191,0.0,55.0
223909,1.394,0.211,-1.781,250.130,-237.931,250.130,0.0,105.0
223966,0.844,2.000,-1.679,-250.137,152.015,21.908,0.0,79.0
224021,-0.857,0.162,-1.702,-250.137,189.275,45.366,0.0,63.0
224077,0.806,-2.000,1.556,-203.855,-250.137,-120.466,0.0,73.0
224134,-0.194,-1.857,-1.418,250.130,-250.137,60.878,0.0,79.0
224196,1.598,2.000,-1.124,-46.504,36.893,69.290,0.0,132.0
224253,0.245,-0.433,-0.930,-250.137,190.405,-84.557,0.0,91.0
224310,-0.019,-2.000,1.740,250.130,-185.641,-85.847,0.0,91.0
224369,2.000,-0.164,-2.000,250.130,-9.725,196.282,0.0,120.0
224425,1.072,1.726,-1.520,-250.137,198.321,-149.069,0.0,89.0
224483,0.528,-2.000,-0.006,-250.137,-4.802,-202.603,0.0,97.0
224540,0.664,-1.998,-1.332,250.130,-95.504,75.557,0.0,88.0
224598,0.928,2.000,-1.070,-250.137,97.206,8.145,0.0,92.0
224658,0.366,-2.000,0.475,-250.137,34.481,-108.718,0.0,97.0
224715,1.136,-0.516,-0.005,250.130,-39.695,64.298,0.0,94.0
224773,0.632,1.151,-0.571,-250.137,55.817,7.908,0.0,95.0
224830,0.637,-1.039,0.293,-242.397,84.771,56.847,0.0,97.0
224887,0.573,-0.229,0.015,-250.137,120.145,100.405,0.0,102.0
224946,0.225,-2.000,0.980,-21.534,-73.710,-36.298,0.0,101.0
225003,0.901,-1.104,-0.512,250.130,-169.092,-73.137,0.0,91.0
225059,0.938,2.000,-1.344,-250.137,246.847,-3.000,0.0,90.0
225121,-0.318,-2.000,1.110,-250.137,86.878,-52.237,0.0,100.0
225177,0.463,-1.081,-0.361,250.130,-92.282,-61.031,0.0,73.0
225233,0.480,2.000,-1.266,-250.137,250.130,6.580,0.0,73.0
225292,-0.775,-2.000,0.990,-250.137,66.779,-30.939,0.0,112.0
225347,0.034,-1.625,-0.374,250.130,-193.046,-43.672,0.0,70.0
225403,0.996,2.000,-1.567,-116.076,155.664,58.412,0.0,68.0
225461,-0.551,-2.000,0.780,-250.137,85.435,-98.267,0.0,88.0
225516,0.280,-1.696,0.394,250.130,-158.023,-8.824,0.0,68.0
225572,0.953,2.000,-0.711,-203.496,112.916,28.023,0.0,68.0
225633,-0.488,-2.000,1.934,-250.137,-73.351,-98.023,0.0,86.0
225689,-0.174,-0.813,-0.107,250.130,-250.137,38.985,0.0,70.0
225745,2.000,2.000,-0.785,76.679,-31.863,56.450,0.0,76.0
225802,-0.029,0.007,-0.773,-250.137,250.130,33.313,0.0,74.0
225859,-0.774,-2.000,1.837,-250.137,-22.466,2.641,0.0,92.0
225915,-0.898,-1.920,-0.087,250.130,-250.137,-43.817,0.0,74.0
225976,0.995,1.355,-1.160,250.130,-250.137,189.084,0.0,151.0
226023,1.204,0.182,-1.031,-242.206,-218.840,132.366,30.0,86.0
226078,1.879,-1.836,-0.967,-92.527,111.145,108.427,25.0,87.0
226124,2.000,-0.738,-1.219,57.260,250.130,70.733,25.0,97.0
226170,0.666,0.207,-1.180,-113.870,250.130,28.275,25.0,96.0
226230,-1.787,0.428,-0.247,-250.137,250.130,60.466,0.0,136.0
226329,-2.000,-1.284,-2.000,250.130,-250.137,9.061,0.0,95.0
226376,2.000,0.606,-1.953,-72.412,-250.137,-17.817,36.0,92.0
226433,2.000,-0.552,-1.132,-216.405,250.130,-36.107,0.0,91.0
226480,-2.000,0.242,0.391,-250.137,250.130,30.168,30.0,98.0
226536,-0.837,-2.000,2.000,250.130,-250.137,-171.115,0.0,93.0
226589,2.000,2.000,-2.000,250.130,-250.137,143.305,30.0,152.0
226636,1.439,-0.226,-1.432,-250.137,250.130,-24.130,27.0,110.0
226685,-1.868,-1.062,1.320,-250.137,250.130,118.779,24.0,137.0
226733,-1.117,-2.000,1.667,250.130,-250.137,-126.740,23.0,116.0
226781,2.000,0.117,-2.000,250.130,-250.137,105.664,28.0,119.0
226831,2.000,0.400,-1.335,-250.137,250.130,-116.321,25.0,152.0
226889,-1.800,-1.171,1.558,-250.137,250.130,70.939,0.0,120.0
226938,-0.770,-2.000,1.067,250.130,-250.137,-96.076,26.0,140.0
226989,2.000,1.427,-1.167,210.725,-140.969,100.244,28.0,115.0
227039,1.292,-0.140,-0.984,-250.137,250.130,-86.290,25.0,154.0
227098,-1.392,-1.047,1.400,-250.137,250.130,68.221,0.0,142.0
227156,-0.621,-2.000,1.330,250.130,-250.137,-208.969,0.0,116.0
227205,0.960,-0.270,-1.946,250.130,-250.137,70.237,28.0,117.0
227253,2.000,1.224,-1.139,-141.122,175.458,-15.771,29.0,116.0
227303,0.323,-0.301,-0.339,-250.137,250.130,-38.802,25.0,156.0
227351,-1.064,-1.607,0.453,-250.137,69.954,-41.771,23.0,136.0
227411,0.187,-2.000,1.415,250.130,-224.756,-220.733,0.0,97.0
227460,2.000,0.389,-1.967,250.130,-21.336,112.427,27.0,116.0
227510,1.071,1.794,-0.486,-247.000,250.130,-63.550,29.0,153.0
227566,-0.335,-0.482,-0.802,-250.137,185.183,-78.962,0.0,98.0
227623,0.496,-2.000,2.000,203.351,-163.397,-176.985,0.0,95.0
227673,1.720,-0.629,-1.246,250.130,-45.603,26.695,31.0,144.0
227730,0.967,1.297,-0.572,72.008,148.664,-81.634,192.0,108.0
227786,0.100,-0.128,0.173,-250.137,86.634,-194.962,0.0,89.0
227846,1.025,-1.635,1.635,250.130,-115.397,-93.473,0.0,88.0
227904,0.915,2.000,-1.072,119.450,161.023,-88.244,0.0,116.0
227960,-0.237,-0.428,0.406,-250.137,24.939,-56.282,0.0,90.0
228018,0.403,-2.000,0.894,250.130,-250.137,23.557,0.0,117.0
228076,1.634,2.000,-1.312,37.206,177.748,-98.931,0.0,110.0
228131,-0.622,-0.963,-0.373,-250.137,-1.679,-133.939,0.0,72.0
228188,1.416,-1.458,0.562,250.130,-78.489,42.611,0.0,82.0
228245,-0.102,2.000,-0.763,-147.496,67.458,-24.344,0.0,111.0
228304,0.531,-1.538,1.781,13.252,-102.061,-5.672,0.0,81.0
228362,1.096,1.866,-0.075,112.221,72.565,63.924,0.0,111.0
228420,0.520,-0.433,1.116,-60.679,-123.863,26.473,0.0,114.0
228476,2.000,1.289,-0.013,130.618,84.176,16.779,0.0,99.0
228536,-0.212,0.528,-0.098,-250.137,97.221,-84.107,0.0,134.0
228592,0.438,-1.388,1.375,250.130,-185.313,46.038,0.0,89.0
228649,2.000,2.000,-0.613,172.588,103.962,41.534,0.0,99.0
228705,0.090,0.704,-0.338,-250.137,167.534,-108.031,0.0,75.0
228761,-0.039,-2.000,2.000,104.427,-250.137,-15.496,0.0,75.0
228822,2.000,0.145,-1.456,250.130,-134.718,171.130,198.0,102.0
228881,1.192,1.083,-1.261,-250.137,250.130,-232.947,0.0,132.0
228936,-1.564,-2.000,0.789,-250.137,-6.267,-122.053,0.0,71.0
228993,-0.348,-2.000,-0.656,250.130,-250.137,-32.794,0.0,82.0
229091,0.514,0.621,-0.528,-250.137,250.130,-247.855,0.0,62.0
229146,-0.001,-2.000,2.000,73.824,-187.145,-175.656,0.0,60.0
229202,2.000,1.046,-1.731,250.130,-57.679,84.366,0.0,81.0
229257,0.792,1.874,-1.312,-250.137,250.130,-244.855,0.0,57.0
229315,-0.945,-2.000,1.966,-249.557,-74.061,-146.840,0.0,56.0
229370,1.484,-0.162,0.004,250.130,-34.718,65.008,0.0,67.0
229425,-0.429,2.000,-0.624,-250.137,127.557,-103.237,0.0,57.0
229480,-0.510,-2.000,2.000,54.023,-174.687,-83.282,0.0,59.0
229538,0.382,0.165,-0.615,250.130,-183.992,187.130,0.0,111.0
229597,2.000,2.000,-1.397,-21.115,56.450,-8.725,0.0,116.0
229652,0.241,-0.072,-1.707,-250.137,250.130,-230.214,0.0,66.0
229706,-1.018,-2.000,2.000,-115.237,-158.618,9.649,0.0,57.0
229769,0.835,-0.483,-1.778,250.130,-250.137,217.824,0.0,131.0
229824,1.630,1.580,-1.491,-250.137,250.130,-232.763,0.0,68.0
229879,-1.879,-1.601,1.629,-250.137,-73.794,-34.626,0.0,55.0
229938,0.941,-1.070,-1.800,250.130,-250.137,183.359,0.0,121.0
229993,0.460,2.000,-1.563,-250.137,250.130,-217.183,0.0,68.0
230049,-0.655,-2.000,2.000,96.130,-85.748,-46.466,0.0,66.0
230105,1.569,2.000,-1.166,250.130,-2.779,88.023,0.0,80.0
230161,0.127,0.197,-0.713,-250.137,168.985,-144.229,0.0,77.0
230216,-0.232,-0.320,-0.058,-190.901,250.130,-49.519,0.0,57.0
230275,-0.207,0.324,0.417,25.405,250.130,-66.863,0.0,60.0
230330,-0.892,0.787,0.446,-81.534,250.130,-123.641,0.0,63.0
230385,-1.181,0.631,0.977,-250.137,250.130,-140.405,0.0,65.0
230430,-1.229,-1.109,1.398,-160.260,171.481,-125.359,17.0,67.0
230475,-1.434,-1.398,1.245,250.130,119.420,-59.893,16.0,67.0
230528,-1.896,-0.701,0.002,250.130,24.656,-32.015,136.0,81.0
230584,-0.730,1.390,-0.735,250.130,60.366,90.832,86.0,193.0
230639,-1.077,1.873,-0.650,-250.137,109.137,-4.534,162.0,93.0
230687,-1.017,-0.971,0.495,-250.137,-2.908,-67.244,17.0,71.0
230733,-1.143,-2.000,1.809,250.130,-165.748,-84.092,17.0,82.0
230791,-0.765,-1.456,-1.553,250.130,-173.962,116.015,87.0,0.0
230842,0.203,2.000,-1.822,250.130,14.359,41.351,150.0,46.0
230892,-0.739,0.990,-2.000,-250.137,207.168,-196.313,86.0,91.0
230938,-1.141,-1.905,-1.293,-250.137,56.328,-112.244,23.0,76.0
230984,-1.155,-2.000,1.799,250.130,-131.802,-85.023,24.0,75.0
231045,-0.523,-0.439,-2.000,250.130,-156.573,145.458,149.0,0.0
231101,-0.657,1.691,-1.810,-250.137,222.878,-126.084,147.0,72.0
231154,-1.960,-2.000,1.627,-250.137,-33.298,-91.878,145.0,75.0
231207,-0.702,-0.926,-0.274,250.130,-134.321,47.046,146.0,87.0
231259,-0.618,2.000,-0.737,-169.786,88.481,-20.557,90.0,88.0
231311,-0.921,-0.497,0.213,-250.137,55.656,-68.221,144.0,74.0
231364,-0.882,-1.200,1.179,246.435,-59.840,-28.817,144.0,73.0
231421,-0.840,-0.588,-0.006,250.130,-107.008,4.992,87.0,0.0
231470,-0.007,1.188,-2.000,250.130,-70.672,139.427,88.0,46.0
231529,-0.389,2.000,-1.814,-250.137,213.992,-49.000,87.0,0.0
231585,-1.523,0.147,-0.781,-250.137,159.550,67.458,0.0,78.0
231639,-1.067,-2.000,1.869,250.130,-177.687,110.557,130.0,84.0
231691,0.100,-0.024,-1.520,250.130,-124.611,250.130,157.0,50.0
231745,0.053,2.000,-2.000,241.962,60.260,112.886,187.0,52.0
231844,-1.774,-0.114,-0.544,-250.137,213.939,149.122,0.0,65.0
231900,0.032,-1.649,1.643,250.130,-250.137,124.267,0.0,66.0
231956,0.495,0.939,-2.000,250.130,-205.962,211.321,0.0,68.0
232011,0.769,2.000,-1.790,-250.137,218.092,-92.748,0.0,71.0
232072,-0.596,-0.155,-0.041,-250.137,250.130,4.779,0.0,92.0
232129,-0.023,-1.335,1.551,250.130,-245.969,97.534,0.0,90.0
232193,1.002,1.698,-2.000,250.130,-154.725,168.817,0.0,0.0
232256,0.585,1.339,-1.470,-250.137,250.130,-210.863,0.0,0.0
232304,-1.343,-0.194,0.171,-250.137,87.977,-29.672,37.0,85.0
232351,0.366,-1.542,1.804,196.557,-227.519,-23.351,37.0,86.0
232410,0.852,1.028,-0.615,250.130,-46.351,68.145,0.0,109.0
232467,-0.174,2.000,-0.882,-250.137,170.260,-152.695,0.0,94.0
232526,-0.410,-0.159,-0.740,-250.137,250.130,-175.710,0.0,80.0
232574,-0.246,-1.685,0.559,-250.137,213.481,-167.198,50.0,75.0
232632,-0.485,-2.000,1.577,250.130,175.450,-247.947,0.0,89.0
232688,-2.000,-1.628,-1.090,250.130,-6.076,-250.137,0.0,77.0
232744,-0.903,2.000,-1.463,-250.137,49.985,-127.802,0.0,69.0
232800,-0.492,-0.240,0.327,-250.137,174.985,-179.229,0.0,66.0
232846,-0.764,-2.000,1.744,250.130,33.885,-169.405,23.0,62.0
232899,-0.908,0.223,-0.213,250.130,8.947,-145.244,143.0,73.0
232954,-0.930,2.000,-1.253,-250.137,130.954,-211.382,149.0,64.0
233000,-0.865,-2.000,0.586,-250.137,157.389,-155.344,27.0,62.0
233056,-1.166,-2.000,0.958,250.130,39.748,-62.992,0.0,57.0
233115,-0.862,0.723,-1.225,250.130,-51.244,96.656,138.0,92.0
233166,-0.734,1.918,-0.590,-250.137,34.122,92.939,136.0,67.0
233221,-0.531,-1.577,0.866,-250.137,52.672,-29.863,0.0,52.0
233274,-0.938,-2.000,1.042,250.130,-69.244,-77.924,174.0,65.0
233327,-0.197,2.000,-0.781,250.130,22.489,69.504,161.0,91.0
233375,-0.913,0.324,-0.753,-250.137,127.092,-4.542,41.0,55.0
233420,-1.073,-2.000,1.971,-100.237,-71.321,-80.260,36.0,57.0
233473,-0.972,-1.093,0.018,250.130,-97.221,22.168,158.0,57.0
233525,-0.919,2.000,-0.644,-228.137,-28.405,92.366,156.0,64.0
233580,-0.694,-1.566,1.147,-250.137,-84.328,17.038,0.0,67.0
233625,-0.325,-1.056,0.819,250.130,-117.313,55.710,36.0,67.0
233677,-0.875,0.756,-0.314,250.130,-82.053,33.160,148.0,70.0
233730,-1.255,1.550,-0.299,-227.618,-48.748,162.771,144.0,71.0
233781,0.008,-0.983,0.985,-250.137,-2.588,211.481,137.0,58.0
233829,-0.049,-0.333,0.822,159.840,30.427,8.542,133.0,60.0
233879,-1.888,0.911,0.520,96.198,-64.244,43.053,129.0,62.0
233934,-0.621,0.228,0.594,-1.450,-56.191,247.565,0.0,68.0
233990,0.789,-0.365,1.264,154.267,39.466,98.916,0.0,72.0
234045,-0.951,-0.475,1.098,250.130,-21.969,-41.237,199.0,78.0
234098,-0.441,-0.181,-0.967,250.130,13.107,170.076,175.0,58.0
234152,0.845,2.000,-1.367,250.130,90.595,158.634,196.0,57.0
234208,0.342,2.000,-1.125,-250.137,178.122,-146.298,0.0,57.0
234266,-0.926,-0.036,-1.422,-250.137,197.779,-66.817,0.0,85.0
234322,-0.397,-2.000,2.000,-29.260,-67.206,-192.321,0.0,86.0
234378,-0.230,-1.260,-0.762,250.130,-89.664,102.405,0.0,64.0
234432,0.864,2.000,-2.000,250.130,34.206,177.267,0.0,57.0
234487,0.336,0.696,-1.678,-250.137,159.878,-134.656,0.0,69.0
234587,-0.510,-1.775,0.917,250.130,-85.313,5.527,0.0,84.0
234642,0.214,2.000,-1.523,63.947,35.053,94.053,0.0,66.0
234697,0.019,0.105,-0.167,-250.137,104.794,-80.366,0.0,83.0
234757,-0.516,-0.927,1.352,-250.137,93.504,4.389,0.0,84.0
234804,-0.877,-0.552,1.330,-250.137,96.924,-11.557,37.0,85.0
234850,-0.915,-1.620,1.542,-140.214,0.061,-114.008,21.0,84.0
234896,-1.056,-1.765,1.522,185.389,-140.947,-194.328,30.0,80.0
234949,-1.414,-0.750,0.483,250.130,-250.137,-242.588,163.0,71.0
235004,0.682,2.000,-1.010,250.130,-159.779,31.672,0.0,67.0
235060,0.000,1.442,-0.743,-250.137,148.351,29.435,0.0,68.0
235115,0.055,-2.000,1.448,-250.137,-24.191,-176.366,0.0,71.0
235170,-0.764,-1.130,-0.390,250.130,-173.107,-107.229,0.0,64.0
235228,0.392,2.000,-0.941,-250.137,150.542,31.305,0.0,64.0
235283,-0.496,-2.000,0.386,-250.137,37.641,-75.832,0.0,70.0
235338,-0.585,-2.000,0.461,250.130,-203.229,-63.557,0.0,65.0
235394,2.000,2.000,-0.800,250.130,24.130,81.672,0.0,62.0
235449,-0.086,0.734,-0.628,-250.137,236.527,-48.046,0.0,66.0
235504,-0.151,-2.000,2.000,7.878,-102.695,-63.084,0.0,67.0
235558,1.811,-0.184,-0.376,250.130,-18.023,-10.847,0.0,62.0
235614,-0.751,2.000,-0.213,-250.137,99.954,-147.321,0.0,62.0
235668,0.110,-2.000,2.000,-123.687,-143.634,92.756,125.0,66.0
235722,1.880,-0.157,0.179,250.130,37.321,-68.435,0.0,61.0
235778,-0.985,0.794,0.348,-250.137,46.664,-94.000,0.0,62.0
235829,0.008,-1.050,1.407,68.290,-128.977,87.244,126.0,63.0
235883,2.000,0.083,0.688,210.374,11.763,38.321,0.0,62.0
235938,-0.151,0.322,0.543,-250.137,87.504,-68.466,0.0,63.0
235988,-0.381,-1.811,1.761,250.130,-155.931,-32.748,125.0,62.0
236044,1.149,0.256,-0.354,250.130,-120.511,95.336,0.0,60.0
236102,0.650,1.811,-0.587,-239.740,210.115,46.702,0.0,61.0
236157,-1.092,-0.819,0.175,-250.137,110.137,83.992,0.0,67.0
236213,-0.061,-1.910,1.589,250.130,-154.870,78.863,0.0,69.0
236268,1.360,0.704,-0.151,250.130,89.405,250.130,0.0,70.0
236324,0.089,1.020,0.469,-168.634,250.130,220.290,0.0,78.0
236375,-1.526,-1.300,1.344,-250.137,-26.267,152.802,36.0,137.0
236434,0.125,-1.991,1.627,213.634,-250.137,10.145,0.0,144.0
236490,0.870,0.078,0.250,250.130,-111.282,106.511,0.0,84.0
236547,0.059,0.634,0.718,-203.847,167.725,124.099,0.0,82.0
236607,-0.415,-1.459,1.581,-250.137,-17.229,2.405,0.0,103.0
236655,0.124,-1.502,1.324,190.550,-181.870,-177.908,23.0,102.0
236710,0.103,-0.367,0.448,250.130,-116.481,-59.267,0.0,78.0
236764,0.215,1.360,-0.438,115.412,125.489,79.015,156.0,65.0
236809,0.012,0.048,0.527,-214.924,151.519,26.771,30.0,62.0
236854,-0.204,-1.199,1.063,149.565,52.000,-121.863,25.0,67.0
236901,-0.634,-0.752,0.715,250.130,-61.511,-152.443,30.0,82.0
236956,-0.473,0.292,-0.085,250.130,-170.580,-139.931,0.0,71.0
237015,0.300,2.000,-0.499,-29.542,-62.924,-250.137,0.0,64.0
237071,0.101,0.692,-1.720,-250.137,236.985,-250.137,0.0,80.0
237117,-1.707,-2.000,0.064,-250.137,246.534,-231.359,17.0,81.0
237162,-1.165,-2.000,1.396,250.130,84.466,-42.366,13.0,75.0
237213,-1.628,-0.658,-0.909,250.130,-22.511,-21.893,125.0,68.0
237308,-0.861,1.142,-0.832,-250.137,152.008,-59.015,132.0,67.0
237352,-0.984,-1.956,0.520,-250.137,84.794,-70.282,17.0,50.0
237396,-0.712,-2.000,1.557,250.130,-48.130,-73.389,17.0,47.0
237452,-0.560,1.181,-0.787,250.130,-28.718,-1.229,141.0,78.0
237505,-1.063,2.000,-1.178,-250.137,121.092,-27.763,142.0,78.0
237549,-1.105,-2.000,0.839,-250.137,26.656,-62.702,16.0,46.0
237593,-0.809,-1.971,1.047,250.130,-78.733,-18.252,17.0,45.0
237639,-0.785,-0.271,-0.667,250.130,-60.573,38.244,30.0,77.0
237692,-0.634,2.000,-0.974,-250.137,64.672,47.962,142.0,78.0
237736,-0.940,-0.991,-0.246,-250.137,84.771,-48.748,17.0,47.0
237780,-0.865,-2.000,1.759,128.115,-28.603,-15.137,15.0,49.0
237827,-0.636,-0.872,-0.081,250.130,-48.359,-7.321,22.0,80.0
237882,-0.911,2.000,-1.047,179.847,6.855,24.893,140.0,80.0
237928,-1.180,0.333,-0.528,-250.137,85.878,0.718,17.0,69.0
237971,-1.646,-2.000,1.037,-250.137,-8.588,52.420,11.0,52.0
238015,-1.082,-1.726,1.199,189.221,-84.176,10.595,11.0,52.0
238060,-1.141,-0.617,0.760,220.870,-127.198,-64.611,16.0,63.0
238105,-1.012,-0.417,0.873,105.496,-157.313,-121.939,25.0,63.0
238157,-1.339,-0.793,1.047,250.130,-221.031,-163.649,136.0,58.0
238210,-1.242,0.200,-0.079,250.130,-249.985,-55.649,142.0,75.0
238269,-0.270,2.000,-0.734,-250.137,11.595,61.542,0.0,69.0
238315,-0.163,-1.336,-0.367,-250.137,37.321,-52.534,43.0,54.0
238361,-0.567,-2.000,1.855,132.534,-92.550,-157.115,44.0,58.0
238414,-0.901,-0.909,-0.435,250.130,-157.137,-84.802,161.0,66.0
238470,0.986,2.000,-1.253,-46.695,55.298,53.122,193.0,64.0
238518,-0.131,-0.333,-0.887,-250.137,151.084,-18.237,54.0,71.0
238566,-0.632,-2.000,2.000,193.893,-94.687,-159.977,52.0,96.0
238621,-0.081,-0.795,-0.937,250.130,-106.130,33.527,191.0,64.0
238679,-0.123,2.000,-0.617,-250.137,92.626,55.153,189.0,51.0
238727,-0.603,-2.000,1.342,-250.137,-13.634,-79.519,53.0,72.0
238779,-0.128,-1.467,0.812,250.130,-85.290,15.290,157.0,53.0
238833,0.297,2.000,-0.362,-107.878,69.053,78.351,186.0,52.0
238880,-0.272,-1.498,0.542,-250.137,42.305,-12.061,52.0,57.0
238927,-0.390,-2.000,1.313,138.687,-88.282,-9.115,52.0,60.0
238981,-0.037,-0.562,0.532,250.130,-98.130,25.962,183.0,57.0
239028,0.626,-0.042,0.576,239.366,-39.947,18.344,58.0,56.0
239078,-0.397,1.338,-0.574,-250.137,163.664,69.145,56.0,58.0
239133,-0.474,-2.000,0.238,-250.137,57.641,33.038,50.0,0.0
239180,-0.356,-2.000,0.599,250.130,-110.664,-82.084,51.0,65.0
239235,-0.071,0.351,-0.775,250.130,-174.450,-50.275,184.0,58.0
239289,0.484,1.427,-0.460,-35.542,87.710,32.664,183.0,58.0
239336,-0.596,0.132,-0.094,-250.137,191.908,136.740,48.0,61.0
239382,-0.791,-0.749,0.521,-132.763,166.985,205.817,39.0,65.0
239428,-0.548,-1.061,0.689,228.489,142.710,215.168,31.0,66.0
239474,-0.546,-0.917,0.583,250.130,94.878,104.504,25.0,65.0
239534,-0.873,-0.066,0.645,250.130,36.656,-39.145,0.0,65.0
239587,-0.956,2.000,-0.111,201.733,91.740,-139.221,133.0,86.0
239643,-1.662,0.778,-0.684,-250.137,200.672,-103.198,0.0,70.0
239687,-1.516,-2.000,2.000,-203.649,28.588,50.168,7.0,57.0
239731,-0.904,-1.549,0.544,250.130,-27.015,24.527,8.0,57.0