Timestamp(ms),AccelX(g),AccelY(g),AccelZ(g),GyroX(deg/s),GyroY(deg/s),GyroZ(deg/s),DistanceLeft(cm),DistanceRight(cm)
398116,-0.904,0.344,0.229,168.122,-13.847,35.527,16.0,0.0
398173,-0.922,0.574,0.135,68.771,-17.618,21.336,17.0,0.0
398224,-0.878,0.424,0.163,-9.802,-16.947,2.885,16.0,183.0
398277,-0.912,0.309,0.184,-4.481,-11.710,-1.305,17.0,0.0
398333,-0.937,0.325,0.221,12.435,-8.908,5.237,17.0,0.0
398389,-1.019,-0.168,0.528,96.901,-58.229,11.832,17.0,0.0
398439,-0.845,0.046,0.271,250.130,-70.237,36.870,101.0,74.0
398488,-0.829,1.171,-0.418,250.130,-65.275,37.550,85.0,71.0
398539,-0.717,1.913,-0.867,-250.137,8.099,-22.794,101.0,87.0
398586,-0.900,-0.337,-0.194,-250.137,33.397,-51.527,21.0,92.0
398633,-0.935,-1.799,1.124,139.748,-36.450,-4.069,19.0,91.0
398690,-0.701,0.281,-0.339,250.130,-46.740,52.069,107.0,183.0
398753,-0.679,1.981,-0.426,-250.137,16.267,-7.954,0.0,0.0
398803,-0.944,-1.181,0.934,-197.656,10.489,-11.374,19.0,89.0
398851,-0.821,-0.319,0.539,250.130,-29.664,22.679,22.0,96.0
398904,-0.749,1.588,0.007,51.275,-9.931,13.740,22.0,0.0
398950,-0.918,0.194,0.323,-250.137,26.802,0.679,23.0,91.0
398997,-0.920,-0.812,0.915,-14.092,-9.023,14.099,19.0,91.0
399054,-0.744,-0.333,0.493,250.130,-50.382,18.679,105.0,0.0
399113,-0.617,2.000,-0.531,85.580,-0.237,24.214,102.0,0.0
399169,-0.823,0.263,-0.156,-250.137,50.634,-49.359,0.0,89.0
399226,-0.899,-1.712,1.186,216.191,-28.847,-3.366,0.0,90.0
399288,-0.539,1.629,-0.568,250.130,-31.290,55.336,106.0,0.0
399345,-0.818,0.961,-0.136,-250.137,52.466,-26.458,0.0,96.0
399404,-0.974,-1.561,1.231,84.504,-16.519,-6.595,0.0,96.0
399461,-0.627,0.638,-0.177,250.130,-31.435,21.702,104.0,0.0
399519,-0.787,1.503,-0.449,-250.137,41.137,-50.122,105.0,0.0
399577,-1.117,-1.507,0.956,-136.489,4.458,-40.817,0.0,88.0
399634,-0.787,0.038,0.041,250.130,-37.672,27.130,106.0,0.0
399692,-0.809,1.715,-0.337,-204.992,25.427,-3.183,99.0,0.0
399753,-0.925,-0.991,0.885,-147.954,22.656,-3.962,0.0,89.0
399809,-0.854,-0.411,0.171,250.130,-50.779,51.634,100.0,185.0
399866,-0.344,2.000,-0.762,250.130,-30.458,55.130,100.0,182.0
399924,-0.735,1.116,-0.602,-250.137,82.237,-75.847,99.0,0.0
399981,-0.970,-0.752,0.590,-250.137,41.931,-76.886,0.0,89.0
400038,-1.071,-0.810,1.036,240.931,-57.763,4.656,0.0,94.0
400097,-1.072,0.272,0.320,250.130,-125.168,55.977,100.0,0.0
400154,-0.873,0.739,0.138,250.130,-163.886,93.779,101.0,0.0
400207,-0.571,0.724,-0.022,250.130,-147.534,138.038,163.0,43.0
400254,-0.376,1.278,-0.456,250.130,-79.534,167.687,120.0,43.0
400305,-0.312,1.285,-0.459,70.832,-24.885,150.252,115.0,45.0
400356,-0.261,1.610,-0.692,-210.198,33.588,118.153,139.0,48.0
400411,-0.590,0.739,-0.272,-250.137,12.695,96.969,0.0,54.0
400466,-0.461,0.042,0.510,18.855,-60.344,200.702,0.0,58.0
400522,0.850,0.294,0.093,250.092,-60.046,203.237,0.0,61.0
400583,0.519,0.853,-0.304,200.053,-61.664,35.878,0.0,62.0
400638,-0.115,1.310,-0.635,-100.122,80.519,119.405,0.0,66.0
400697,0.676,0.167,0.115,-133.534,52.359,102.038,0.0,86.0
400744,0.778,-0.382,0.653,104.947,-42.374,-33.954,50.0,72.0
400800,0.077,1.751,-0.697,250.130,2.061,34.328,0.0,100.0
400892,0.868,0.101,0.141,-109.160,2.847,24.802,50.0,106.0
400941,-0.086,2.000,-0.834,-43.008,-11.023,-50.962,51.0,96.0
400989,0.296,0.458,0.233,-229.664,78.183,137.672,45.0,100.0
401037,1.162,-0.960,0.462,-69.886,26.023,85.977,41.0,101.0
401084,0.920,0.306,0.314,134.565,-54.443,-108.855,43.0,91.0
401143,0.442,1.443,-0.382,-30.901,-10.527,12.595,0.0,99.0
401191,0.944,0.158,0.092,-43.252,0.237,32.908,43.0,106.0
401240,0.745,0.837,-0.003,68.870,-15.931,-50.351,45.0,99.0
401287,0.679,0.712,0.004,-51.519,6.496,-8.725,44.0,99.0
401334,0.870,0.049,0.239,-41.427,-26.000,-35.649,46.0,88.0
401391,0.313,0.858,-0.062,191.809,-51.366,-89.107,0.0,95.0
401447,0.511,1.355,-0.302,-73.786,25.557,49.168,0.0,89.0
401504,0.994,0.219,0.194,-69.679,29.351,0.412,0.0,96.0
401560,0.597,0.691,0.004,80.328,-4.969,-64.298,0.0,93.0
401620,0.571,0.915,-0.313,-17.382,52.366,0.191,0.0,103.0
401669,0.915,0.513,-0.071,7.053,160.908,-49.924,47.0,103.0
401717,0.586,0.661,-0.098,-51.786,168.405,-104.031,51.0,91.0
401763,0.292,0.704,0.108,-97.328,121.817,-128.824,50.0,68.0
401818,-0.019,1.001,0.214,-129.710,72.076,-141.725,0.0,65.0
401872,0.031,0.419,0.600,-63.420,81.458,-72.893,0.0,62.0
401928,0.137,0.647,0.514,80.122,134.832,-68.992,0.0,57.0
401982,-0.132,1.069,0.285,40.229,161.557,-122.527,0.0,54.0
402036,-0.533,0.986,0.400,-60.267,118.313,-143.916,0.0,51.0
402094,-0.729,0.685,0.615,-10.328,59.519,-108.672,0.0,62.0
402149,-0.548,0.680,0.594,119.954,24.634,-63.275,0.0,57.0
402203,-0.524,0.953,0.274,134.504,37.519,-75.069,0.0,57.0
402265,-0.715,0.967,0.073,27.244,37.718,-106.153,185.0,0.0
402322,-0.774,0.803,0.026,-121.847,44.382,-101.420,95.0,0.0
402379,-0.839,0.592,0.096,-206.053,54.321,-86.427,100.0,0.0
402442,-0.871,0.259,0.330,-176.992,60.901,-71.260,0.0,0.0
402498,-0.950,0.190,0.451,-67.733,46.931,-46.672,17.0,0.0
402547,-0.970,0.246,0.443,24.267,25.748,-30.649,17.0,99.0
402599,-1.016,0.314,0.384,74.878,9.176,-21.038,17.0,0.0
402656,-0.998,0.421,0.328,83.603,-8.405,-5.153,16.0,0.0
402708,-0.930,0.457,0.305,50.649,-17.809,12.947,16.0,0.0
402763,-0.962,0.484,0.271,3.046,-22.588,25.183,16.0,0.0
402821,-0.910,0.695,0.169,-121.870,-13.634,20.641,108.0,0.0
402877,-0.884,0.740,-0.177,-250.137,17.832,-11.084,18.0,0.0
402923,-0.903,-0.397,0.067,-250.137,17.260,-49.076,17.0,91.0
402969,-0.871,-1.386,0.972,-77.008,-26.076,-19.618,10.0,91.0
403018,-0.862,-0.994,0.586,250.130,-77.115,-21.069,11.0,89.0
403063,-1.000,-0.351,-0.670,250.130,-117.420,31.214,20.0,77.0
403125,-0.227,2.000,-0.915,53.076,-15.000,53.740,179.0,0.0
403181,-0.821,-0.241,-0.025,-250.137,52.885,-29.855,16.0,0.0
403226,-0.809,-1.585,1.094,250.130,-68.809,-13.328,15.0,75.0
403273,-0.432,1.218,-0.473,250.130,-39.641,59.687,22.0,96.0
403328,-0.952,2.000,-0.553,-250.137,73.664,4.031,178.0,78.0
403374,-1.068,-2.000,1.272,-250.137,-33.427,-62.099,12.0,88.0
403424,-0.844,-1.202,0.502,250.130,-106.672,-10.038,23.0,89.0
403486,-0.224,2.000,-1.174,250.130,17.504,58.763,0.0,0.0
403575,-1.018,-2.000,1.720,177.435,-62.046,-58.153,15.0,74.0
403629,-0.312,0.681,-0.387,250.130,-25.076,89.511,140.0,95.0
403682,-0.830,2.000,-0.563,-250.137,28.313,22.336,140.0,83.0
403728,-0.695,-2.000,1.279,-183.817,-37.527,-97.237,16.0,86.0
403774,-0.534,-0.588,0.513,250.130,-35.290,20.557,25.0,84.0
403827,-0.693,2.000,-0.444,48.779,38.656,45.779,139.0,95.0
403873,-0.615,-0.199,0.734,-250.137,10.229,-82.565,23.0,83.0
403930,-0.846,-1.164,1.009,250.130,-40.573,-21.351,138.0,86.0
403990,-0.406,0.603,-0.128,250.130,22.611,44.198,143.0,0.0
404046,-0.821,1.545,-0.347,212.992,-28.290,-1.481,92.0,0.0
404104,-0.452,1.255,0.029,-250.137,59.656,-29.885,93.0,0.0
404159,-0.911,-0.073,0.513,-250.137,63.710,-17.031,174.0,97.0
404217,-0.736,-0.539,1.048,184.817,-17.992,-7.092,98.0,0.0
404265,-0.679,1.268,-0.042,228.336,3.679,17.962,95.0,58.0
404323,-0.706,1.119,-0.005,-186.069,29.534,-29.885,96.0,0.0
404389,-0.761,0.070,0.353,-188.588,60.450,-7.519,0.0,0.0
404452,-0.779,0.338,0.330,-51.672,66.786,-2.443,0.0,0.0
404510,-0.715,0.201,0.574,43.008,41.275,-35.298,0.0,101.0
404573,-0.931,0.709,0.307,21.183,43.237,-52.641,0.0,0.0
404621,-1.079,0.271,0.495,-109.618,26.565,-27.931,17.0,119.0
404669,-1.046,-0.058,0.688,19.237,-3.786,16.908,14.0,120.0
404721,-0.936,0.199,0.518,140.595,-29.573,39.756,17.0,0.0
404779,-0.893,0.647,0.135,137.962,-38.565,42.679,101.0,0.0
404837,-0.828,0.713,0.114,-100.351,-25.580,29.321,101.0,0.0
404897,-0.870,0.127,0.423,-82.855,-18.603,32.954,103.0,0.0
404961,-0.821,-0.145,0.606,170.794,-48.061,40.107,0.0,0.0
405018,-0.733,0.114,0.332,250.130,-52.740,51.763,95.0,0.0
405066,-0.604,1.455,-1.098,250.130,-36.366,174.786,99.0,44.0
405121,-0.674,2.000,-0.920,-250.137,47.786,120.328,194.0,49.0
405176,-0.726,0.375,-0.082,-250.137,33.924,80.977,0.0,59.0
405231,-0.556,-0.479,0.849,46.290,-62.481,99.176,0.0,51.0
405285,-0.131,1.161,-0.271,250.130,-41.031,166.626,199.0,49.0
405343,-0.354,1.541,-0.355,-80.061,45.779,144.573,198.0,52.0
405398,-0.124,0.821,0.048,-161.817,84.847,170.305,0.0,57.0
405454,0.115,0.677,0.272,-93.344,73.412,159.244,0.0,62.0
405501,0.277,0.471,0.507,-103.450,25.313,112.107,51.0,66.0
405548,0.293,0.538,0.611,24.191,9.321,91.191,47.0,68.0
405595,0.246,0.955,0.408,71.275,22.374,113.824,47.0,70.0
405643,0.396,1.204,0.226,8.115,58.061,152.489,41.0,96.0
405693,0.468,0.830,0.443,-62.489,93.412,154.137,36.0,133.0
405739,0.462,0.460,0.597,-90.145,116.618,137.725,34.0,64.0
405787,0.363,0.361,0.653,-196.855,89.809,88.817,29.0,65.0
405833,0.521,-0.433,0.920,-222.664,47.550,3.069,30.0,65.0
405879,0.249,-1.013,1.524,250.130,6.947,-34.015,30.0,63.0
405925,0.334,1.164,-0.317,250.130,14.122,77.435,37.0,63.0
405971,0.629,1.987,-0.087,-74.313,67.046,59.053,42.0,63.0
406018,0.715,0.083,0.462,-250.137,58.725,-51.725,31.0,62.0
406063,-0.030,-0.677,1.761,-11.405,17.695,-142.229,37.0,61.0
406110,0.089,0.831,0.580,250.130,-60.863,113.015,39.0,61.0
406159,0.835,0.759,0.444,2.908,-47.550,78.435,38.0,61.0
406248,-0.370,0.902,0.448,109.344,-12.870,-84.695,36.0,60.0
406294,0.736,0.974,0.504,22.870,12.840,80.679,36.0,61.0
406340,0.722,0.627,0.730,-51.954,24.985,34.840,30.0,62.0
406385,0.410,0.483,0.649,-44.565,10.466,19.153,31.0,64.0
406431,0.626,0.021,0.821,-74.931,9.718,39.107,30.0,64.0
406477,0.751,0.073,1.059,25.573,-2.260,-38.672,38.0,63.0
406523,0.095,1.422,0.155,92.939,-25.344,-5.168,30.0,63.0
406568,0.619,0.690,0.546,-68.687,-8.321,74.290,30.0,64.0
406618,0.812,-0.094,0.810,-69.191,6.351,10.878,30.0,65.0
406664,0.099,0.683,0.548,87.527,-2.855,-36.534,30.0,64.0
406710,0.585,0.648,0.680,-23.748,1.939,83.038,29.0,65.0
406756,0.801,0.059,0.760,-35.344,3.183,50.107,30.0,67.0
406802,0.634,0.244,0.810,4.252,0.733,-37.107,30.0,66.0
406847,0.376,0.440,0.689,-25.679,-7.282,-20.359,31.0,67.0
406893,0.653,0.265,0.670,-6.359,2.382,2.870,29.0,67.0
406939,0.702,0.180,0.639,-7.443,7.565,-37.137,30.0,65.0
406985,0.451,0.415,0.602,-28.580,11.954,-82.786,36.0,64.0
407034,0.245,0.574,0.619,-58.756,6.496,-96.122,31.0,63.0
407080,0.256,0.472,0.755,-38.267,-7.618,-91.122,29.0,63.0
407127,0.379,0.362,0.887,13.641,-5.282,-84.695,32.0,63.0
407174,0.368,0.463,0.880,23.298,-1.198,-92.053,29.0,92.0
407222,0.399,0.404,0.872,7.000,3.916,-112.542,37.0,91.0
407275,0.460,0.163,0.828,11.817,20.832,-155.466,41.0,89.0
407324,0.221,0.299,0.789,57.603,27.771,-206.115,44.0,124.0
407379,-0.299,0.544,0.648,137.817,10.985,-216.023,0.0,62.0
407434,-0.356,0.859,0.458,116.763,-22.405,-159.115,0.0,57.0
407491,-0.470,1.195,0.229,113.031,-24.000,-157.771,0.0,52.0
407544,-0.310,0.988,0.342,-16.435,18.130,-139.160,0.0,51.0
407602,-0.540,1.004,0.320,-35.137,69.977,-130.115,0.0,101.0
407658,-0.502,0.884,0.415,-80.160,100.450,-91.244,0.0,82.0
407713,-0.689,0.871,0.370,-170.725,123.015,-77.687,0.0,84.0
407759,-0.886,0.251,0.601,-212.252,40.947,-70.168,13.0,83.0
407804,-0.593,-0.565,1.246,120.458,-22.015,-100.985,17.0,79.0
407867,-0.897,-0.321,0.414,250.130,-37.374,-58.000,0.0,0.0
407926,-0.641,2.000,-0.688,-38.443,26.397,-49.420,100.0,0.0
407983,-1.036,0.212,-0.296,-250.137,78.954,-24.443,0.0,89.0
408028,-0.750,-2.000,1.480,122.473,-62.298,-55.076,18.0,77.0
408091,-0.632,-0.518,0.110,250.130,-53.740,38.466,0.0,0.0
408154,-0.810,2.000,-0.698,-196.412,45.618,-6.130,0.0,0.0
408209,-0.836,-1.212,0.642,-250.137,14.519,-72.786,0.0,79.0
408265,-0.880,-0.991,0.608,250.130,-49.771,10.740,0.0,92.0
408329,-0.887,2.000,-0.646,-101.122,24.046,55.443,0.0,0.0
408384,-0.805,-1.564,1.007,-250.137,-0.008,-31.916,10.0,0.0
408443,-0.627,-0.650,0.453,250.130,-58.878,24.176,0.0,91.0
408505,-0.645,2.000,-0.511,-19.931,19.267,7.137,176.0,0.0
408560,-0.943,-0.539,0.307,-250.137,50.053,-41.504,12.0,0.0
408606,-0.769,-1.292,0.995,250.130,-54.183,-6.885,12.0,89.0
408668,-0.578,0.926,-0.224,250.130,-44.130,30.878,176.0,0.0
408723,-0.815,1.081,-0.273,-250.137,53.634,-21.947,0.0,78.0
408769,-0.936,-2.000,1.316,-109.229,8.672,-59.908,12.0,87.0
408869,-0.631,1.715,-0.474,250.130,-6.313,8.443,105.0,0.0
408925,-0.873,0.685,0.017,-250.137,63.511,-36.550,129.0,88.0
408971,-0.868,-0.546,0.708,-148.237,41.603,-1.603,23.0,88.0
409017,-0.766,-0.244,0.656,164.855,10.145,9.573,18.0,89.0
409064,-0.720,0.245,0.366,244.267,15.450,9.435,21.0,99.0
409120,-0.885,0.606,0.185,177.053,30.099,-18.130,104.0,0.0
409177,-0.958,0.535,0.165,41.282,29.076,-35.908,102.0,181.0
409233,-0.977,0.431,0.217,-43.191,37.939,-16.031,104.0,180.0
409290,-1.027,0.353,0.309,-112.366,34.336,10.962,126.0,183.0
409344,-1.030,0.085,0.579,-123.611,-1.374,17.534,17.0,0.0
409393,-1.036,-0.067,0.728,-5.679,-46.939,2.420,17.0,99.0
409445,-1.144,-0.208,0.941,198.344,-101.183,12.061,17.0,0.0
409501,-1.195,0.190,0.520,250.130,-156.618,90.061,103.0,183.0
409559,-0.841,0.508,0.150,250.130,-175.015,167.962,98.0,0.0
409613,-0.471,1.000,-0.396,250.130,-108.756,250.130,0.0,43.0
409663,-0.243,1.196,-0.454,222.092,-48.878,246.328,140.0,47.0
409714,-0.194,1.265,-0.659,82.611,6.649,220.908,146.0,51.0
409769,-0.457,1.778,-0.967,-250.137,63.763,207.947,0.0,58.0
409828,0.377,-0.004,0.034,-250.137,-5.847,182.794,0.0,68.0
409883,0.787,-0.911,0.734,133.130,-82.473,-23.672,0.0,71.0
409939,-0.148,2.000,-1.148,220.023,26.817,139.756,0.0,71.0
409997,0.744,0.126,0.005,-250.137,11.908,113.046,0.0,108.0
410054,0.546,-0.344,0.692,208.466,-61.191,-79.565,0.0,107.0
410118,0.106,1.678,-0.661,-57.870,24.137,122.321,0.0,0.0
410175,1.298,-0.549,0.507,-15.733,-24.313,-17.435,0.0,101.0
410232,0.336,2.000,-0.861,29.985,47.656,34.954,0.0,108.0
410291,0.891,-0.138,0.201,-90.405,14.344,12.412,0.0,109.0
410350,0.393,1.346,-0.368,82.649,8.351,-19.695,0.0,93.0
410407,0.571,0.696,-0.062,-68.511,30.809,12.344,0.0,94.0
410465,0.648,0.429,0.057,18.947,32.992,-13.893,0.0,107.0
410522,0.654,0.586,0.019,46.046,52.740,-73.977,0.0,100.0
410577,0.384,1.038,-0.117,-45.634,57.305,-105.397,0.0,71.0
410633,0.413,0.804,0.156,-100.221,56.466,-103.893,0.0,67.0
410688,0.498,0.581,0.406,34.840,74.145,-108.809,0.0,63.0
410743,0.562,1.097,0.083,62.687,151.191,-127.015,0.0,58.0
410802,0.364,1.349,-0.249,-179.725,250.130,-198.679,0.0,56.0
410857,-0.423,0.692,-0.524,-250.137,250.130,-222.275,0.0,78.0
410913,-1.224,0.181,-0.179,-250.137,250.130,-135.611,0.0,75.0
410960,-0.754,-1.358,1.358,-174.733,80.702,-107.229,32.0,75.0
411004,-0.909,-1.123,0.946,250.130,36.473,-57.420,15.0,53.0
411051,-1.221,-0.082,-0.293,250.130,-12.847,-19.405,16.0,88.0
411106,-0.763,1.939,-0.364,250.130,-8.527,-12.305,178.0,97.0
411163,-0.761,0.982,0.007,-250.137,92.611,-64.794,0.0,96.0
411210,-0.964,-0.116,0.426,-250.137,113.145,-30.740,18.0,91.0
411262,-0.922,-0.178,0.597,-37.405,84.221,1.466,57.0,93.0
411308,-0.929,0.053,0.494,111.977,53.969,3.885,16.0,83.0
411354,-0.997,0.279,0.426,144.588,33.802,2.832,16.0,83.0
411401,-1.060,0.511,0.402,74.664,33.565,4.779,16.0,99.0
411447,-1.110,0.513,0.274,-55.802,15.084,4.847,17.0,98.0
411504,-0.982,0.177,0.384,-58.130,-10.023,-5.359,0.0,98.0
411594,-0.934,0.245,0.218,83.695,-31.153,11.191,14.0,98.0
411646,-0.897,0.356,0.137,88.008,-30.137,13.122,13.0,0.0
411703,-0.872,0.427,0.101,50.374,-19.038,11.702,14.0,0.0
411758,-0.848,0.425,0.094,7.000,-5.176,6.908,14.0,0.0
411811,-0.860,0.348,0.129,-15.191,7.092,3.603,15.0,0.0
411868,-0.896,0.347,0.160,-10.634,14.656,-0.542,14.0,0.0
411920,-0.926,0.389,0.187,-18.626,18.473,-6.634,16.0,0.0
411976,-0.921,0.365,0.231,-33.267,16.168,-9.588,12.0,0.0
412028,-0.927,0.305,0.263,-25.504,8.366,-9.985,17.0,0.0
412085,-0.979,0.344,0.259,-5.847,-1.092,-10.947,17.0,0.0
412138,-0.963,0.346,0.230,-6.824,-9.427,-8.191,17.0,0.0
412188,-0.911,0.316,0.219,-6.847,-13.191,0.130,17.0,99.0
412235,-0.879,0.304,0.201,7.412,-12.840,6.519,16.0,101.0
412281,-0.858,0.336,0.182,17.458,-9.847,11.191,14.0,101.0
412328,-0.864,0.364,0.145,9.908,-3.290,12.641,16.0,102.0
412376,-0.859,0.372,0.164,-5.260,3.489,9.924,16.0,101.0
412423,-0.886,0.356,0.186,-15.573,10.718,7.076,17.0,100.0
412469,-0.897,0.335,0.225,-18.183,13.153,3.786,13.0,102.0
412516,-0.909,0.323,0.263,-13.626,12.313,-0.802,16.0,103.0
412566,-0.925,0.318,0.274,-7.145,7.221,-6.679,57.0,104.0
412618,-0.925,0.323,0.265,0.893,-0.145,-9.519,57.0,104.0
412668,-0.905,0.322,0.233,12.053,-6.252,-9.992,57.0,104.0
412716,-0.912,0.333,0.203,16.389,-8.489,-6.893,13.0,104.0
412768,-0.908,0.346,0.174,19.397,-6.916,-2.130,13.0,0.0
412824,-0.897,0.371,0.177,15.817,-2.260,0.969,14.0,0.0
412876,-0.900,0.388,0.170,1.511,3.122,-0.107,13.0,0.0
412933,-0.901,0.358,0.196,-8.863,5.351,-0.542,13.0,0.0
412986,-0.918,0.344,0.217,-7.695,4.611,0.924,13.0,0.0
413041,-0.925,0.347,0.220,-4.939,1.481,2.863,14.0,0.0
413097,-0.918,0.338,0.206,-5.099,-0.466,3.198,13.0,0.0
413154,-0.914,0.341,0.200,-3.397,-1.076,2.496,13.0,0.0
413206,-0.903,0.342,0.192,-5.221,-0.412,1.679,13.0,0.0
413262,-0.906,0.332,0.191,-3.855,0.504,1.382,12.0,0.0
413316,-0.906,0.332,0.195,-3.947,1.160,0.206,12.0,0.0
413371,-0.903,0.322,0.199,-2.527,1.206,-0.244,12.0,0.0
413418,-0.912,0.337,0.210,0.160,0.489,-1.099,12.0,104.0
413465,-0.911,0.334,0.207,0.191,-0.206,-1.008,12.0,104.0
413512,-0.909,0.337,0.201,0.870,-0.427,-0.969,12.0,104.0
413562,-0.904,0.347,0.209,0.435,-0.191,-0.351,12.0,103.0
413609,-0.914,0.341,0.198,-0.557,0.061,-0.756,12.0,104.0
413657,-0.913,0.342,0.210,-1.534,0.183,0.221,12.0,104.0
413704,-0.913,0.333,0.191,-0.008,0.122,0.519,12.0,103.0
413751,-0.916,0.352,0.198,-2.305,0.267,-0.168,12.0,103.0
413798,-0.915,0.332,0.211,-2.092,-0.336,0.405,12.0,103.0
413845,-0.909,0.340,0.207,0.405,-0.504,0.290,12.0,103.0
413892,-0.915,0.342,0.205,-1.046,-0.450,0.031,14.0,103.0
413939,-0.901,0.338,0.201,0.038,-0.244,0.313,14.0,103.0
413989,-0.908,0.341,0.200,-0.244,0.145,-0.504,14.0,104.0
414036,-0.914,0.333,0.198,-1.115,0.099,-0.244,12.0,103.0
414089,-0.911,0.333,0.208,0.519,-0.359,0.031,12.0,104.0
414179,-0.915,0.344,0.210,-1.519,0.069,-0.366,12.0,104.0
414225,-0.908,0.335,0.206,-0.649,-0.099,0.237,14.0,104.0
414271,-0.911,0.350,0.199,-0.160,0.053,0.328,14.0,104.0
414317,-0.912,0.336,0.210,-1.603,0.092,0.122,14.0,105.0
414363,-0.913,0.338,0.202,-0.534,-0.122,0.176,14.0,103.0
414409,-0.909,0.342,0.199,0.771,-0.275,0.221,14.0,104.0
414458,-0.904,0.341,0.196,-0.641,0.107,-0.962,14.0,104.0
414504,-0.904,0.330,0.206,-1.534,0.000,-0.015,14.0,103.0
414551,-0.906,0.337,0.208,2.168,-0.504,0.519,14.0,103.0
414597,-0.907,0.350,0.208,-0.382,-0.496,0.191,14.0,104.0
414644,-0.957,0.326,0.229,-1.145,-1.061,1.099,14.0,104.0
414695,-0.915,0.321,0.299,0.901,-5.076,2.916,12.0,0.0
414744,-1.057,0.393,0.360,-41.237,-21.947,7.664,57.0,103.0
414790,-1.010,-0.060,0.658,-0.634,-90.519,-5.954,13.0,97.0
414853,-0.917,-0.260,0.640,250.130,-98.458,-11.015,0.0,0.0
414911,-0.622,2.000,-0.599,142.267,-49.977,20.443,100.0,181.0
414967,-1.069,0.567,-1.084,-250.137,41.344,-29.145,0.0,79.0
415024,-1.014,-2.000,1.585,-36.145,-68.947,-53.496,0.0,88.0
415085,-0.779,-1.124,-0.583,250.130,-110.550,71.740,177.0,0.0
415133,-0.364,2.000,-1.490,-169.573,39.534,57.748,97.0,57.0
415179,-0.658,-0.048,-0.802,-250.137,62.115,-65.298,20.0,88.0
415224,-0.841,-2.000,1.987,202.145,-73.053,-77.977,16.0,77.0
415286,-0.423,-0.300,-0.632,250.130,-32.031,86.992,179.0,0.0
415348,-0.808,2.000,-0.977,-250.137,52.840,-23.321,144.0,0.0
415401,-0.986,-2.000,1.802,122.649,-39.450,0.206,142.0,88.0
415465,-0.273,1.640,-0.665,250.130,-15.588,103.634,0.0,0.0
415518,-0.918,0.119,0.401,-247.542,16.573,-9.115,142.0,98.0
415572,-0.558,-0.514,0.520,250.130,-77.603,28.847,0.0,57.0
415630,-0.182,2.000,-0.896,-116.458,37.954,-2.718,93.0,0.0
415683,-1.037,-0.901,0.479,-250.137,24.183,-47.634,140.0,96.0
415737,-0.579,-0.377,0.432,250.130,-50.977,47.076,0.0,57.0
415790,-0.477,2.000,-0.481,-53.466,7.901,-5.977,94.0,62.0
415852,-0.603,0.468,-0.081,-250.137,61.740,-54.863,0.0,0.0
415907,-0.742,0.050,0.503,-138.214,59.191,-25.992,175.0,97.0
415970,-0.784,0.248,0.649,20.740,30.573,-7.198,175.0,0.0
416032,-0.760,0.599,0.681,87.595,26.221,21.405,0.0,0.0
416095,-0.909,0.898,0.627,-27.496,-11.527,30.527,0.0,0.0
416152,-0.833,0.655,0.680,6.466,-39.160,92.679,0.0,101.0
416209,-0.645,0.848,0.461,54.832,-54.878,129.321,0.0,101.0
416264,-0.331,0.810,0.363,38.710,-41.878,136.908,0.0,57.0
416321,-0.346,0.971,0.285,25.466,-11.626,128.061,0.0,50.0
416375,-0.396,1.069,0.325,-73.153,-26.847,140.901,0.0,53.0
416431,-0.192,0.348,0.805,-88.740,-145.389,91.298,0.0,57.0
416485,0.148,-0.381,0.883,250.130,-156.679,93.618,0.0,56.0
416540,0.597,2.000,-1.260,250.130,0.107,162.382,0.0,57.0
416594,0.079,1.604,-0.852,-250.137,113.267,27.221,0.0,61.0
416644,-0.239,-0.851,0.991,-250.137,8.710,37.176,50.0,92.0
416691,0.235,-0.546,0.735,250.130,-85.153,92.557,58.0,68.0
416745,0.808,2.000,-0.763,250.130,-58.267,116.626,0.0,66.0
416804,0.525,0.933,-0.125,-250.137,16.290,-9.939,0.0,69.0
416894,-0.070,0.829,0.182,250.130,5.618,-16.603,51.0,68.0
416942,0.318,1.128,0.136,134.481,-23.031,72.969,58.0,69.0
416997,0.746,0.653,0.245,164.260,-26.084,51.802,0.0,68.0
417059,0.703,1.786,-0.319,-120.809,-10.634,-23.924,0.0,0.0
417116,0.298,-0.194,0.668,-88.504,28.191,-1.702,0.0,83.0
417172,0.615,0.702,0.025,250.130,15.588,59.443,0.0,67.0
417227,0.568,1.947,-0.474,-196.603,-1.061,-15.893,0.0,69.0
417280,0.639,-0.035,0.431,-250.137,28.191,-38.649,46.0,116.0
417328,0.471,0.698,0.436,-130.748,36.053,-41.893,51.0,96.0
417386,0.195,0.445,0.732,-46.084,31.176,-27.618,0.0,112.0
417440,0.391,0.347,0.611,215.611,13.664,6.702,51.0,0.0
417496,0.459,0.825,0.174,250.130,3.893,-19.893,0.0,64.0
417551,0.394,2.000,-0.378,-149.359,12.221,-84.443,0.0,62.0
417607,0.333,0.719,0.023,-250.137,75.427,-101.511,0.0,93.0
417665,0.129,-0.283,0.848,-250.137,109.687,-89.336,0.0,93.0
417722,-0.016,-0.191,1.008,56.763,118.565,-49.580,0.0,92.0
417790,-0.257,0.451,0.645,197.160,92.611,-102.718,0.0,93.0
417846,-0.474,0.683,0.453,188.924,36.786,-136.641,0.0,57.0
417900,-0.603,0.927,0.203,150.099,13.901,-143.763,0.0,57.0
417955,-0.617,0.756,0.235,65.740,20.374,-161.061,0.0,59.0
418019,-0.768,0.979,0.146,-2.160,47.000,-142.702,0.0,0.0
418082,-0.781,0.603,0.382,-47.290,63.198,-117.374,0.0,0.0
418139,-0.874,0.520,0.459,25.901,58.954,-108.092,101.0,185.0
418195,-1.032,0.630,0.312,-2.840,45.641,-96.031,101.0,183.0
418246,-1.087,0.083,0.532,7.527,25.527,-48.771,16.0,177.0
418295,-1.020,-0.125,0.501,250.130,-11.328,22.046,18.0,72.0
418344,-0.860,0.802,-0.183,250.130,-21.359,76.153,104.0,65.0
418395,-0.719,2.000,-0.580,-150.038,34.084,28.802,104.0,66.0
418447,-1.035,0.492,-0.646,-250.137,67.840,-0.855,18.0,179.0
418493,-1.064,-0.699,0.300,-250.137,9.611,-0.458,15.0,94.0
418540,-0.877,-0.929,0.853,161.603,-46.885,51.206,16.0,94.0
418592,-0.769,0.124,0.247,250.130,-50.374,68.389,16.0,0.0
418650,-0.902,1.647,-0.027,85.282,-50.305,38.344,102.0,184.0
418710,-0.972,0.669,0.229,-250.137,-76.496,-32.137,0.0,99.0
418765,-1.071,-0.780,1.212,-65.511,-154.580,-51.725,179.0,87.0
418823,-1.063,-0.793,0.630,250.130,-237.313,53.534,98.0,0.0
418878,-0.094,-0.258,-1.562,250.130,-156.328,250.130,0.0,44.0
418927,0.106,2.000,-1.860,245.389,-9.573,201.702,114.0,49.0
418980,-0.370,1.428,-1.421,-250.137,99.366,58.908,174.0,51.0
419036,-0.353,-0.644,0.249,-250.137,-20.977,65.802,0.0,60.0
419092,-0.242,-0.496,0.378,250.130,-123.573,141.252,0.0,61.0
419150,0.448,2.000,-0.778,90.580,-24.351,250.130,0.0,67.0
419208,0.680,0.774,0.174,-141.305,-47.527,118.618,0.0,96.0
419265,0.399,0.339,0.224,-34.450,65.053,250.130,0.0,84.0
419314,0.791,-0.751,0.555,-5.702,-4.374,194.626,40.0,118.0
419373,0.258,0.843,-0.169,173.588,-55.885,7.939,0.0,119.0
419421,0.936,0.124,0.067,-144.366,15.351,98.405,40.0,83.0
419468,0.949,0.289,0.282,68.672,-29.237,-46.695,40.0,84.0
419515,0.674,0.960,-0.224,-68.977,69.443,71.275,40.0,85.0
419562,0.876,-0.684,0.304,-153.115,27.947,50.542,36.0,83.0
419656,0.911,0.434,0.034,-83.336,22.550,93.267,36.0,85.0
419703,1.340,-0.551,0.571,7.496,-20.351,22.466,34.0,88.0
419751,0.938,1.008,-0.267,90.832,26.977,-5.725,37.0,84.0
419801,0.963,-0.218,0.230,-79.878,62.382,-12.244,36.0,123.0
419859,0.577,0.530,-0.049,105.870,49.565,-49.985,0.0,122.0
419909,0.823,0.223,0.125,10.252,104.359,-12.427,34.0,122.0
419968,0.790,-0.130,0.221,80.748,119.290,-81.366,0.0,125.0
420017,0.570,0.364,0.158,88.718,143.076,-164.427,35.0,110.0
420066,0.437,0.731,0.248,2.947,169.817,-191.725,37.0,103.0
420112,0.106,0.827,0.437,-105.305,169.359,-182.733,41.0,99.0
420160,0.063,0.569,0.715,-192.740,143.229,-177.634,44.0,94.0
420217,0.000,0.043,1.166,-88.122,127.191,-214.336,0.0,90.0
420274,-0.558,0.259,0.987,193.664,124.008,-174.710,0.0,84.0
420331,-0.597,1.655,0.456,109.886,143.504,-109.611,0.0,85.0
420388,-0.650,1.060,0.303,-250.137,166.198,-88.519,0.0,83.0
420434,-0.992,0.182,0.757,-250.137,134.939,-54.969,17.0,90.0
420480,-0.897,-0.705,1.376,-20.069,-41.588,-98.290,13.0,62.0
420529,-0.903,-0.659,0.831,250.130,-126.336,-67.389,16.0,82.0
420593,-0.660,1.115,-0.572,250.130,-93.282,28.794,0.0,0.0
420649,-0.791,1.893,-0.616,-250.137,133.893,11.305,0.0,81.0
420695,-0.646,-1.989,1.521,-222.466,-21.473,-96.794,13.0,57.0
420741,-0.597,-0.879,0.799,250.130,-51.237,-22.015,16.0,87.0
420798,-0.450,2.000,-0.385,158.183,53.580,53.344,0.0,83.0
420844,-0.862,0.292,0.417,-250.137,36.321,-35.153,16.0,78.0
420888,-0.759,-1.371,1.374,172.573,-70.840,-55.634,15.0,58.0
420953,-0.654,0.238,-0.116,250.130,-70.107,24.824,0.0,63.0
421015,-0.288,2.000,-0.603,-167.947,75.756,9.832,0.0,0.0
421070,-0.736,-1.005,0.763,-250.137,18.718,-48.954,16.0,0.0
421127,-0.546,-0.983,0.905,250.130,-66.305,0.115,0.0,84.0
421189,-0.405,2.000,-0.814,131.366,36.511,55.504,0.0,0.0
421244,-0.699,0.050,0.205,-250.137,51.527,-29.466,16.0,0.0
421291,-0.626,-0.886,1.403,144.725,-47.405,9.389,14.0,87.0
421347,-0.655,0.950,0.498,250.130,-76.321,74.046,0.0,89.0
421402,-0.429,1.358,0.577,-34.305,-52.046,83.038,0.0,87.0
421462,-0.489,0.695,0.802,-88.886,-39.107,113.313,0.0,89.0
421518,-0.390,0.803,0.760,-33.466,-52.397,146.969,0.0,86.0
421574,-0.365,0.811,0.747,-40.473,-61.038,169.260,0.0,89.0
421630,-0.482,0.936,0.751,-56.313,-57.573,222.450,0.0,99.0
421688,-0.104,0.596,0.753,-107.473,-16.931,250.130,0.0,91.0
421733,0.053,0.098,0.779,-161.489,-42.328,250.130,33.0,62.0
421779,0.395,-0.586,0.891,-178.466,-134.435,132.359,36.0,84.0
421824,0.386,-1.210,1.179,185.435,-170.702,15.176,29.0,65.0
421872,0.676,1.792,-0.389,250.130,-13.603,137.649,25.0,63.0
421917,0.289,0.970,0.126,-250.137,120.382,204.351,24.0,66.0
421964,0.167,-1.198,0.929,-250.137,38.947,117.282,19.0,113.0
422012,0.378,-1.830,1.542,88.298,-107.466,-100.985,27.0,114.0
422059,0.288,0.935,-0.001,250.130,-102.176,39.092,18.0,93.0
422106,0.584,0.988,0.228,-58.809,20.214,106.565,17.0,112.0
422153,0.677,-0.939,0.898,-103.901,-4.053,-14.443,17.0,115.0
422199,0.211,-0.427,0.906,158.122,-78.000,-41.107,16.0,101.0
422290,1.200,-0.642,0.782,-72.565,13.557,-6.824,17.0,113.0
422339,-0.094,0.552,0.539,105.710,7.580,-41.779,17.0,92.0
422384,0.745,0.274,0.492,-39.641,45.214,68.603,17.0,79.0
422430,0.831,-0.372,0.659,-80.450,88.305,46.481,16.0,102.0
422488,0.697,-0.635,0.969,-43.489,47.290,-68.817,0.0,102.0
422535,0.458,0.204,0.639,132.687,41.748,-55.237,17.0,99.0
422580,0.468,0.802,0.645,-51.725,56.023,-32.847,31.0,68.0
422625,0.469,0.046,1.105,-135.069,-1.221,-33.557,18.0,69.0
422669,0.592,-0.461,1.248,-41.733,-99.534,-59.015,18.0,69.0
422717,0.839,-0.375,0.803,201.771,-87.626,-25.389,19.0,68.0
422772,1.070,1.162,0.029,0.198,66.328,16.840,0.0,68.0
422817,0.596,0.066,0.604,-250.137,113.992,-2.809,23.0,71.0
422864,0.483,-1.149,1.367,-135.649,-65.305,-77.679,26.0,102.0
422912,0.173,-0.829,0.953,250.130,-240.397,-95.840,20.0,94.0
422957,1.438,1.323,-0.526,250.130,-124.344,76.664,22.0,69.0
423002,0.940,0.819,0.017,-197.107,179.328,82.779,30.0,70.0
423059,0.214,-0.354,0.679,-250.137,168.870,82.489,0.0,101.0
423116,0.444,-1.048,1.328,33.885,-92.855,-15.885,0.0,102.0
423164,0.896,-0.214,0.397,250.130,-120.244,2.366,23.0,73.0
423211,1.183,0.858,-0.012,48.939,92.870,41.985,26.0,72.0
423256,0.655,0.147,0.349,-112.557,238.061,41.397,24.0,73.0
423311,-0.028,-0.189,0.893,-135.840,145.023,53.107,0.0,74.0
423357,0.415,-1.106,1.513,197.824,-62.733,-26.840,19.0,73.0
423412,0.483,-0.213,0.580,250.130,-98.237,-7.244,0.0,71.0
423471,0.827,0.740,-0.198,250.130,17.206,39.092,0.0,116.0
423529,0.782,1.532,-0.102,-250.137,114.275,-77.122,0.0,116.0
423590,0.564,-0.955,0.631,-250.137,89.061,-90.053,0.0,119.0
423646,0.060,-2.000,1.929,250.130,-33.672,-37.076,0.0,75.0
423702,0.664,-0.167,-0.461,250.130,-47.107,97.130,0.0,75.0
423748,0.884,2.000,-0.552,-250.137,15.473,-22.336,31.0,78.0
423793,0.663,-0.600,0.355,-250.137,84.527,-108.908,21.0,72.0
423839,0.095,-1.962,1.681,112.015,27.748,-26.649,23.0,73.0
423884,0.515,0.892,0.294,250.130,-1.115,56.534,23.0,70.0
423929,0.606,0.946,0.865,-136.740,-9.397,-17.847,23.0,70.0
423975,0.228,-0.693,1.324,50.954,-46.046,-11.542,23.0,71.0
424027,0.694,0.649,0.485,219.916,-43.473,31.794,27.0,113.0
424075,0.678,0.983,0.433,-126.565,33.817,-20.687,29.0,113.0
424122,0.208,-0.320,1.160,-49.626,8.855,-25.725,28.0,93.0
424170,0.301,-0.044,1.002,175.427,-99.466,-11.885,37.0,108.0
424218,0.569,0.209,0.473,244.198,-116.023,11.473,36.0,111.0
424275,1.066,2.000,-0.236,-42.931,12.908,-28.198,192.0,110.0
424322,0.764,0.511,-0.290,-250.137,141.389,-116.656,31.0,66.0
424370,0.229,-1.667,1.417,-250.137,92.992,-90.153,27.0,115.0
424421,0.167,-1.511,0.908,250.130,-38.840,31.252,31.0,110.0
424467,0.726,2.000,-0.726,206.840,-61.237,71.527,33.0,64.0
424513,0.679,0.542,0.391,-250.137,9.725,-54.924,32.0,66.0
424558,0.127,-1.723,1.672,65.023,-63.214,-30.824,33.0,66.0
424606,0.960,0.951,0.240,250.130,-40.779,39.908,30.0,106.0
424652,0.660,1.115,0.365,-250.137,70.435,-29.153,30.0,65.0
424697,0.141,-0.852,1.286,-130.359,-2.000,-51.031,30.0,66.0
424786,0.970,1.200,0.137,88.359,23.359,-15.298,30.0,63.0
424833,0.601,0.653,0.370,-250.137,97.779,-111.214,36.0,62.0
424883,-0.002,-1.314,1.662,25.099,13.992,-136.084,31.0,93.0
424931,0.064,-0.554,0.349,250.130,-50.092,-4.336,37.0,91.0
424987,0.726,2.000,-1.174,207.962,-5.580,55.069,0.0,89.0
425035,0.855,0.871,-0.847,-250.137,96.344,-119.450,38.0,91.0
425096,0.256,-1.953,0.963,-250.137,64.420,-135.679,0.0,153.0
425143,0.272,-1.264,0.464,250.130,-28.496,78.229,37.0,85.0
425191,0.681,2.000,-0.792,178.824,-44.405,102.397,50.0,88.0
425238,0.580,0.570,0.222,-250.137,37.313,-45.656,36.0,84.0
425298,0.021,-2.000,1.807,41.481,-24.153,-3.634,0.0,86.0
425346,0.673,1.252,0.330,217.542,-8.725,51.366,35.0,85.0
425393,0.434,0.730,0.637,-245.595,10.374,-16.305,33.0,85.0
425457,0.786,-0.957,1.410,-58.664,-37.550,-86.847,0.0,87.0
425513,-0.277,0.541,0.662,250.130,-4.817,13.214,0.0,85.0
425561,0.421,1.027,0.440,18.466,9.763,81.092,51.0,89.0
425608,0.729,0.319,0.674,-72.252,4.802,-2.916,38.0,92.0
425655,0.162,1.091,0.512,-250.137,14.153,-100.779,44.0,87.0
425714,-0.119,-0.971,1.402,-180.008,-8.374,18.794,0.0,149.0
425763,0.801,-0.416,0.798,250.130,-6.420,52.481,37.0,86.0
425810,0.590,1.566,0.335,-38.649,-20.374,-60.603,39.0,84.0
425861,0.398,0.439,0.311,-250.137,60.756,-78.305,44.0,136.0
425917,0.116,-1.234,1.568,-166.527,69.450,6.672,0.0,98.0
425973,0.148,-0.722,0.984,250.130,1.466,21.908,0.0,90.0
426030,0.486,0.566,0.170,250.130,-3.191,28.427,0.0,86.0
426085,0.417,2.000,-0.156,-250.137,24.183,-53.115,0.0,86.0
426144,0.313,-1.000,1.131,-250.137,24.168,-113.847,0.0,145.0
426204,0.227,-1.380,1.028,250.130,-33.809,53.573,0.0,90.0
426252,0.511,2.000,-0.613,53.611,11.969,95.145,45.0,86.0
426299,0.514,0.566,-0.007,-250.137,49.092,-54.794,44.0,104.0
426359,0.084,-2.000,1.535,-200.336,4.092,-41.382,0.0,147.0
426416,0.114,0.730,0.609,118.702,-22.496,17.962,0.0,96.0
426475,0.281,-0.249,0.918,-129.771,-38.206,-37.992,0.0,150.0
426532,0.667,-0.428,0.930,132.840,-17.099,-71.466,0.0,92.0
426589,-0.473,0.419,0.903,42.802,-9.176,-20.794,0.0,92.0
426648,0.683,-0.502,1.065,195.260,-18.870,79.313,0.0,133.0
426700,0.603,0.896,0.315,161.779,-3.840,-11.855,46.0,132.0
426760,0.119,1.272,0.289,-250.137,3.832,-67.580,0.0,142.0
426820,0.075,-1.164,1.553,-37.282,-5.359,72.489,0.0,149.0
426876,0.837,-0.479,0.727,250.130,-6.618,76.176,0.0,92.0
426924,0.104,1.472,0.407,196.450,-52.382,-32.954,43.0,89.0
426972,0.406,1.100,0.524,-250.137,-29.069,-4.985,40.0,98.0
427031,0.626,-0.951,1.128,-175.847,19.221,46.344,0.0,146.0
427087,0.476,-0.743,1.125,250.130,27.802,17.588,0.0,91.0
427134,0.207,-0.391,0.082,250.130,-11.954,71.435,42.0,88.0
427196,0.664,2.000,-1.558,250.130,-32.679,155.214,0.0,131.0
427244,0.928,1.143,-0.756,-250.137,59.412,-47.076,40.0,89.0
427291,0.367,-1.226,0.634,-250.137,71.534,-68.038,36.0,95.0
427338,0.141,-2.000,1.766,244.076,25.282,39.939,37.0,94.0
427385,0.564,1.224,-0.156,250.130,-17.779,100.878,36.0,86.0
427475,0.409,-0.529,0.836,-250.137,6.733,-85.748,36.0,95.0
427527,0.480,-0.879,1.252,103.504,13.641,0.252,37.0,146.0
427574,0.437,0.122,0.668,250.130,14.214,-13.885,36.0,90.0
427623,0.040,2.000,0.072,67.748,-28.710,-29.366,38.0,89.0
427671,0.554,0.632,0.538,-243.695,-18.084,25.336,38.0,91.0
427718,0.797,-0.360,1.004,-193.061,20.725,-18.130,36.0,97.0
427765,0.132,-0.667,1.313,139.763,20.099,-25.443,38.0,93.0
427812,0.389,0.056,0.667,250.130,-15.160,76.435,38.0,89.0
427862,0.668,1.181,0.063,250.130,-23.672,81.901,41.0,110.0
427909,0.693,2.000,-0.359,-149.092,-11.771,6.435,44.0,89.0
427956,0.608,0.806,-0.351,-250.137,48.244,-77.511,37.0,91.0
428005,0.328,-1.715,1.244,-250.137,37.130,-9.260,36.0,118.0
428055,0.591,-1.378,0.990,250.130,0.183,67.924,37.0,94.0
428102,0.458,2.000,-0.354,250.130,-51.359,46.939,38.0,91.0
428149,0.655,0.335,0.676,-250.137,0.664,-54.015,36.0,91.0
428196,0.311,-0.762,1.269,155.702,16.000,5.466,37.0,90.0
428243,0.359,1.699,0.236,72.664,13.206,19.282,38.0,90.0
428291,0.493,0.129,0.802,-177.756,5.282,-30.672,37.0,89.0
428339,0.361,-0.104,1.100,65.687,-2.687,-35.634,36.0,91.0
428386,0.107,1.115,0.530,-15.458,-18.756,-16.931,37.0,89.0
428436,0.466,0.112,0.816,-80.916,1.580,4.160,36.0,91.0
428483,0.483,-0.123,0.711,72.817,52.046,-10.611,37.0,91.0
428530,0.405,0.215,0.528,104.008,115.099,-48.290,41.0,89.0
428577,0.231,0.424,0.558,-46.313,108.237,-123.954,38.0,88.0
428635,0.164,0.102,0.725,-169.924,79.031,-215.977,0.0,97.0
428691,-0.430,-0.526,1.246,49.160,62.466,-250.137,0.0,84.0
428747,-0.849,-0.477,0.606,250.130,32.855,-180.305,0.0,85.0
428803,-0.557,2.000,-0.996,110.985,63.374,-98.733,0.0,58.0
428859,-0.194,0.943,-0.223,-250.137,167.198,-233.229,0.0,84.0
428919,-1.154,-1.609,1.365,-155.916,110.115,-184.382,0.0,91.0
428975,-1.088,-0.882,0.303,250.130,16.153,-40.649,173.0,96.0
429037,-0.921,2.000,-0.924,-163.855,95.160,-3.542,177.0,0.0
429093,-0.799,-0.964,0.641,-250.137,77.649,-94.534,16.0,0.0
429138,-0.849,-1.504,1.143,250.130,-41.954,-34.405,16.0,76.0
429197,-0.564,2.000,-0.790,250.130,10.649,54.733,105.0,0.0
429245,-0.798,1.029,-0.288,-250.137,37.313,-28.504,62.0,89.0
429291,-1.243,-2.000,1.357,-44.221,-45.145,-62.924,17.0,88.0
429352,-0.781,-0.637,-0.357,250.130,-60.771,50.779,103.0,0.0
429410,-0.848,2.000,-1.024,-250.137,70.099,28.855,0.0,97.0
429466,-1.008,-2.000,0.775,-250.137,-10.443,-83.695,0.0,82.0
429530,-0.679,-0.879,0.012,250.130,-45.534,52.176,0.0,0.0
429592,-0.919,2.000,-0.936,-250.137,60.267,0.901,0.0,0.0
429648,-1.041,-2.000,0.760,-250.137,-4.359,-89.847,10.0,0.0
429712,-0.695,-0.786,0.179,250.130,-33.550,25.824,0.0,0.0
429768,-0.963,2.000,-0.830,-250.137,46.992,-10.733,0.0,93.0
429814,-0.859,-1.752,0.795,-250.137,5.954,-88.435,11.0,91.0
429864,-0.783,-1.085,0.609,250.130,-41.809,-0.908,16.0,91.0
429928,-0.598,1.941,-0.736,250.130,9.168,49.718,0.0,0.0
429983,-0.753,0.381,0.013,-250.137,44.550,-55.687,16.0,0.0
430041,-0.805,-1.356,1.149,220.046,-4.725,-19.733,0.0,91.0