Timestamp(ms),AccelX(g),AccelY(g),AccelZ(g),GyroX(deg/s),GyroY(deg/s),GyroZ(deg/s),DistanceLeft(cm),DistanceRight(cm)
35917,-1.246,0.039,0.159,-46.229,91.473,23.748,0.0,163.0
35972,-1.322,0.207,0.193,-70.076,58.695,86.191,0.0,90.0
36017,-1.390,0.093,-0.001,-104.000,19.969,133.305,59.0,82.0
36068,-2.000,-0.321,-0.513,-162.809,13.076,154.603,160.0,85.0
36113,-2.000,-1.231,-0.749,-152.305,-63.328,166.305,51.0,87.0
36160,-0.978,-0.913,-0.618,-103.641,-122.198,159.855,74.0,94.0
36210,-0.161,-0.817,-0.590,-49.550,-79.992,108.534,143.0,71.0
36264,0.261,-0.702,-0.479,-7.107,13.183,18.206,140.0,103.0
36310,0.353,-0.630,-0.284,10.718,73.351,-55.733,45.0,102.0
36356,0.228,-0.622,0.064,19.473,93.870,-105.626,51.0,99.0
36407,-0.335,-0.725,0.325,37.893,43.489,-137.229,149.0,92.0
36458,-2.000,-1.429,-0.846,156.947,75.076,-201.618,156.0,87.0
36510,-2.000,-0.675,-0.708,80.672,171.924,-47.084,160.0,86.0
36561,-2.000,-0.194,-0.251,83.076,14.099,-32.931,159.0,91.0
36615,-0.970,0.181,-0.454,82.412,-33.779,0.840,183.0,95.0
36671,-0.400,0.751,-0.239,61.947,36.160,9.038,173.0,97.0
36722,-0.296,1.188,0.005,-5.733,24.069,30.435,149.0,97.0
36771,-0.654,1.001,-0.216,-150.565,13.542,84.466,115.0,94.0
36823,-2.000,0.110,-1.285,-235.588,4.641,128.008,155.0,90.0
36874,-2.000,-0.810,-1.667,-247.710,-79.695,188.313,142.0,91.0
36923,-1.597,-0.936,-1.122,-161.947,-87.481,143.802,120.0,75.0
36971,-0.654,-0.777,-0.650,-121.702,-34.573,61.756,115.0,81.0
37020,-0.106,-0.689,-0.205,-101.771,-19.351,-1.214,112.0,83.0
37069,0.574,-0.946,0.081,-54.603,-56.374,-62.977,111.0,82.0
37121,0.709,-1.006,-0.194,86.527,-52.107,-134.672,114.0,78.0
37167,0.003,-0.881,-0.352,169.481,11.992,-194.382,44.0,100.0
37217,-2.000,-1.317,-0.974,228.405,66.458,-213.244,125.0,94.0
37267,-2.000,-0.512,-1.049,143.107,197.069,-89.198,128.0,91.0
37317,-2.000,-0.015,-0.100,43.802,35.527,-9.389,127.0,94.0
37367,-1.033,0.254,-0.298,46.450,-30.359,2.015,125.0,98.0
37417,-0.527,0.527,-0.132,51.336,42.176,35.374,121.0,102.0
37468,-0.358,0.673,0.249,20.405,36.282,52.344,119.0,103.0
37521,-0.323,0.586,0.345,-55.481,-47.794,44.870,118.0,102.0
37571,-0.503,0.660,-0.248,-173.618,-141.198,27.710,123.0,99.0
37620,-1.010,0.801,-2.000,-207.107,-35.282,-23.519,125.0,70.0
37668,-2.000,0.150,-2.000,-250.137,63.321,28.756,128.0,64.0
37719,-2.000,-0.602,-2.000,-250.137,-74.695,107.282,123.0,96.0
37769,-1.101,-0.906,-1.406,-250.137,-69.153,118.519,114.0,103.0
37820,-0.367,-1.259,-0.500,-213.634,-39.634,109.069,105.0,112.0
37874,0.354,-1.432,0.110,-116.817,-78.267,38.710,100.0,0.0
37929,0.726,-1.087,-0.151,62.260,-69.565,-103.840,99.0,140.0
37984,-0.239,-0.643,-0.422,127.267,7.198,-198.573,99.0,0.0
38039,-2.000,-0.450,-1.271,178.137,115.664,-207.313,106.0,0.0
38096,-2.000,0.022,-0.638,81.695,154.206,-94.908,127.0,0.0
38138,-1.639,0.032,-0.314,0.672,-51.740,-94.565,126.0,0.0
38190,-0.962,0.147,-0.344,-13.565,-83.969,-65.496,125.0,102.0
38240,-0.474,0.305,-0.050,-23.305,-49.443,-26.992,123.0,103.0
38291,-0.327,0.822,0.150,-61.214,-55.863,-12.748,123.0,105.0
38342,-0.506,1.094,-0.254,-135.641,-58.542,5.130,126.0,102.0
38395,-1.160,1.247,-1.323,-250.137,-15.206,71.389,129.0,102.0
38488,-2.000,-0.687,-2.000,-250.137,-155.725,165.573,103.0,97.0
38538,-1.238,-1.159,-1.736,-224.031,-25.939,149.038,98.0,102.0
38587,-0.576,-1.062,-0.647,-186.153,32.076,77.237,93.0,108.0
38636,0.399,-1.211,0.022,-125.939,-33.710,-41.748,91.0,111.0
38685,0.775,-0.923,-0.051,-3.382,-37.832,-187.061,92.0,110.0
38735,0.444,-0.726,-0.353,52.366,42.718,-235.718,99.0,104.0
38786,-1.158,-0.992,-1.052,91.382,197.252,-199.634,122.0,97.0
38844,-2.000,-0.347,-0.865,74.084,187.817,-109.603,169.0,132.0
38900,-2.000,-0.263,-0.286,-13.924,-31.878,-34.916,133.0,0.0
38955,-0.997,-0.051,-0.429,-20.908,-68.412,3.450,139.0,136.0
39006,-0.588,0.369,-0.206,-27.611,-18.420,40.313,135.0,100.0
39057,-0.426,0.684,-0.146,-52.145,-20.305,41.305,120.0,99.0
39107,-0.493,1.188,-0.461,-121.550,-26.916,48.206,124.0,98.0
39163,-1.107,0.999,-1.179,-250.137,-7.519,97.214,127.0,0.0
39206,-2.000,-0.419,-2.000,-250.137,-72.481,120.015,123.0,0.0
39260,-2.000,-0.919,-2.000,-233.344,-108.588,118.023,120.0,94.0
39310,-0.808,-0.813,-1.219,-162.878,-7.351,77.794,114.0,100.0
39360,-0.259,-0.704,-0.567,-123.420,19.405,6.985,109.0,105.0
39409,0.253,-0.692,-0.150,-80.344,-9.893,-61.351,107.0,85.0
39458,0.512,-0.739,0.065,-10.916,-15.015,-115.450,107.0,84.0
39508,0.057,-0.802,-0.061,74.626,20.756,-161.573,112.0,100.0
39563,-1.225,-1.030,-1.198,165.870,159.198,-203.947,0.0,92.0
39618,-2.000,-0.371,-1.019,120.359,167.634,-79.229,130.0,176.0
39676,-1.607,-0.043,-0.624,43.313,-58.267,-19.763,0.0,95.0
39728,-0.581,0.245,-0.577,57.023,13.137,3.634,124.0,97.0
39778,-0.489,0.643,-0.068,37.260,64.160,17.344,123.0,100.0
39829,-0.356,0.899,0.263,-14.275,-7.725,24.573,123.0,101.0
39881,-0.380,0.765,-0.071,-99.321,-49.992,33.664,158.0,97.0
39931,-1.353,0.495,-1.298,-174.756,22.473,59.015,134.0,81.0
39986,-2.000,-0.721,-1.813,-205.069,-32.924,102.458,0.0,81.0
40037,-1.576,-0.720,-1.357,-209.733,-86.023,109.588,148.0,86.0
40089,-0.475,-0.710,-0.756,-147.305,-24.870,69.718,143.0,96.0
40144,0.005,-0.542,-0.298,-84.634,11.115,17.237,139.0,102.0
40196,0.229,-0.542,-0.059,-17.756,17.893,-37.832,137.0,102.0
40248,0.203,-0.560,-0.082,21.664,17.389,-54.977,140.0,103.0
40300,-0.556,-0.666,-0.273,73.832,14.229,-87.557,145.0,95.0
40352,-1.809,-0.685,-1.262,156.275,79.366,-102.534,152.0,90.0
40398,-2.000,-0.198,-0.899,122.122,99.519,-18.053,44.0,93.0
40443,-1.713,0.087,-0.740,107.076,-13.450,-12.573,41.0,98.0
40489,-1.018,0.273,-0.648,104.992,-29.015,3.542,36.0,97.0
40540,-0.631,0.547,-0.333,70.985,-7.840,17.687,58.0,96.0
40591,-0.453,0.542,-0.018,11.939,-21.519,21.473,148.0,96.0
40643,-0.287,0.591,-0.023,-56.779,-40.771,32.885,148.0,95.0
40695,-0.648,0.700,-0.401,-131.878,-3.847,53.824,151.0,94.0
40748,-1.989,0.909,-0.969,-191.565,12.183,46.702,153.0,92.0
40800,-2.000,0.138,-1.742,-238.000,-144.710,36.420,151.0,92.0
40852,-1.167,-0.481,-1.353,-201.641,-127.267,85.603,144.0,100.0
40904,-0.296,-0.528,-0.603,-135.511,-11.916,68.634,138.0,107.0
40960,0.181,-0.682,-0.173,-67.603,9.710,12.008,133.0,111.0
41012,0.440,-0.634,-0.006,-16.198,-4.336,-33.130,133.0,111.0
41107,-0.647,-0.973,-0.487,134.863,10.328,-162.924,142.0,98.0
41159,-2.000,-0.632,-1.441,176.344,130.542,-208.176,150.0,92.0
41216,-2.000,-0.074,-0.954,90.702,126.031,-78.191,152.0,162.0
41274,-1.476,0.253,-0.379,11.313,-15.191,-47.908,150.0,0.0
41326,-0.616,0.426,-0.245,18.870,-24.038,-18.664,147.0,98.0
41378,-0.362,0.717,-0.023,23.939,8.809,1.573,145.0,99.0
41431,-0.479,1.014,0.116,-38.160,-13.443,19.779,145.0,99.0
41492,-0.694,0.990,-0.765,-171.969,-44.740,28.939,146.0,0.0
41536,-2.000,0.611,-2.000,-250.137,-17.176,-2.267,149.0,0.0
41588,-2.000,-0.175,-2.000,-250.137,-125.802,39.481,147.0,95.0
41640,-0.903,-0.733,-1.684,-250.137,-84.733,63.756,141.0,101.0
41693,-0.232,-0.522,-0.728,-214.878,-18.092,45.130,135.0,106.0
41745,0.241,-0.642,-0.361,-153.481,-0.718,10.565,131.0,119.0
41802,0.432,-0.771,-0.160,-100.603,-16.550,-41.366,131.0,0.0
41856,0.277,-0.577,0.028,-26.115,-25.336,-105.794,136.0,107.0
41911,-1.143,-1.024,-0.871,69.221,27.557,-241.237,145.0,97.0
41965,-2.000,-0.654,-1.587,43.977,212.031,-125.122,151.0,137.0
42018,-2.000,-0.027,-0.179,-31.374,23.031,-16.115,152.0,108.0
42072,-0.765,0.146,-0.326,-36.282,-87.122,-13.924,149.0,105.0
42125,-0.415,0.198,-0.204,-15.260,-39.267,-9.710,146.0,108.0
42178,-0.253,0.718,-0.075,-31.550,-14.321,-38.435,147.0,113.0
42227,-0.542,0.848,-0.331,-121.649,-24.252,-26.321,58.0,135.0
42286,-1.262,0.651,-1.231,-214.481,1.336,27.519,152.0,193.0
42341,-2.000,0.003,-1.917,-250.137,-72.328,89.214,142.0,91.0
42393,-1.656,-0.574,-1.851,-250.137,-89.947,116.802,148.0,94.0
42449,-0.671,-0.726,-0.823,-184.115,-8.420,96.863,131.0,83.0
42502,0.053,-0.812,-0.353,-107.008,-5.679,24.611,136.0,106.0
42551,0.441,-0.943,-0.135,-28.160,-12.603,-68.550,135.0,78.0
42602,0.350,-0.563,-0.052,39.992,-3.672,-118.542,137.0,103.0
42649,-0.628,-0.584,-0.577,86.527,38.557,-161.840,144.0,24.0
42704,-2.000,-0.138,-1.168,102.107,189.290,-66.863,132.0,181.0
42756,-2.000,-0.069,-0.276,64.504,33.435,-26.519,89.0,99.0
42806,-1.438,0.189,-0.539,42.473,-64.321,-42.443,129.0,99.0
42853,-0.842,0.294,-0.427,26.649,-20.595,-3.435,78.0,99.0
42900,-0.581,0.671,-0.092,23.511,-22.153,10.504,73.0,99.0
42947,-0.214,0.984,-0.113,-3.695,-57.939,26.427,72.0,99.0
42993,-0.130,1.055,-0.538,-103.237,14.634,64.847,57.0,97.0
43039,-1.344,0.607,-1.094,-207.702,94.962,115.878,58.0,93.0
43083,-2.000,-0.017,-1.192,-209.756,0.550,117.389,30.0,93.0
43129,-2.000,-0.495,-1.394,-181.687,-77.595,89.466,57.0,96.0
43179,-1.199,-0.465,-0.717,-132.420,-24.527,47.466,53.0,100.0
43225,-0.657,-0.443,-0.256,-109.962,-17.069,-5.992,51.0,106.0
43272,0.013,-0.765,-0.007,-67.840,-67.466,-48.061,50.0,109.0
43318,0.703,-0.845,-0.190,24.985,-67.855,-110.855,52.0,109.0
43363,0.453,-0.712,-0.297,89.206,-4.939,-150.153,57.0,72.0
43407,-0.341,-0.630,-0.432,143.840,58.305,-175.153,58.0,66.0
43454,-2.000,-0.961,-1.450,204.886,202.725,-194.756,78.0,89.0
43505,-2.000,-0.254,-0.996,119.702,204.656,-35.008,155.0,89.0
43560,-1.694,-0.150,-0.442,42.420,-30.015,-5.878,154.0,93.0
43610,-0.633,0.226,-0.540,36.237,-13.672,5.901,112.0,95.0
43700,-0.353,0.735,0.113,1.198,33.931,17.916,75.0,98.0
43747,-0.349,0.705,0.070,-46.496,0.534,25.656,76.0,97.0
43795,-0.869,0.692,-0.552,-118.191,-8.038,46.374,88.0,94.0
43842,-2.000,0.264,-1.449,-175.687,-8.031,93.992,87.0,91.0
43890,-2.000,-0.508,-1.668,-202.504,-94.031,115.443,81.0,91.0
43937,-1.239,-0.764,-1.221,-178.756,-83.305,97.855,74.0,98.0
43987,-0.322,-0.680,-0.549,-139.908,-22.687,31.237,75.0,103.0
44036,0.359,-0.870,-0.170,-98.595,1.122,-26.176,76.0,106.0
44086,0.551,-0.877,-0.028,22.771,30.420,-115.000,114.0,105.0
44136,-0.075,-0.781,-0.125,100.595,20.023,-143.840,116.0,101.0
44186,-1.446,-0.772,-1.033,176.748,-11.053,-98.901,121.0,95.0
44236,-2.000,-0.449,-1.155,158.099,127.038,-22.206,128.0,92.0
44282,-2.000,-0.037,-0.357,102.954,48.557,-3.847,59.0,97.0
44328,-1.292,0.025,-0.529,79.397,-39.443,-10.221,57.0,97.0
44376,-0.740,0.404,-0.407,71.008,-11.008,7.122,58.0,99.0
44425,-0.488,0.557,-0.068,32.779,-3.824,13.947,57.0,99.0
44475,-0.250,0.533,0.069,-13.412,-34.626,7.351,121.0,99.0
44525,-0.263,0.598,-0.029,-75.397,-51.458,-10.527,122.0,98.0
44575,-0.806,0.932,-0.805,-172.695,-12.481,-3.244,128.0,92.0
44625,-2.000,0.383,-2.000,-240.290,-22.069,-0.420,133.0,94.0
44682,-2.000,-0.105,-2.000,-250.137,-62.366,84.183,126.0,0.0
44732,-0.802,-0.762,-1.232,-250.137,-43.947,57.427,115.0,98.0
44782,-0.268,-0.725,-0.704,-190.908,-28.252,28.168,106.0,103.0
44834,0.161,-0.784,-0.397,-122.107,-21.550,-6.069,98.0,109.0
44890,0.309,-0.671,-0.207,-55.366,2.687,-36.237,97.0,0.0
44940,0.017,-0.719,-0.086,19.061,3.641,-64.763,45.0,186.0
44990,-0.878,-0.983,-0.754,110.962,20.550,-145.298,126.0,96.0
45041,-2.000,-0.771,-1.486,119.802,141.214,-144.336,114.0,113.0
45092,-2.000,0.002,-0.680,5.855,52.168,-79.817,111.0,117.0
45143,-1.144,0.150,-0.517,-25.137,-66.733,-57.733,107.0,120.0
45193,-0.519,0.413,-0.331,8.763,-20.969,-10.275,104.0,99.0
45245,-0.548,0.633,0.239,2.076,-4.557,26.511,101.0,101.0
45294,-0.418,0.806,0.160,-39.855,-86.130,27.130,110.0,101.0
45344,-0.405,1.000,-0.459,-139.473,-77.794,27.160,110.0,99.0
45393,-1.309,0.908,-1.759,-248.832,-0.649,7.977,108.0,96.0
45443,-2.000,-0.213,-2.000,-250.137,-72.886,28.550,110.0,98.0
45493,-1.772,-0.444,-2.000,-250.137,-74.412,76.168,105.0,97.0
45542,-0.898,-0.598,-1.213,-250.137,-1.542,56.176,98.0,101.0
45591,-0.323,-0.790,-0.552,-222.038,-10.916,42.183,93.0,106.0
45640,0.260,-0.978,-0.384,-143.557,-12.802,-14.000,91.0,110.0
45692,0.430,-0.712,-0.109,-61.687,7.168,-77.824,93.0,110.0
45742,0.050,-0.735,-0.052,2.397,18.588,-131.580,99.0,104.0
45788,-1.117,-0.945,-0.704,91.511,33.695,-196.053,48.0,97.0
45840,-2.000,-1.006,-1.172,63.710,115.481,-156.992,128.0,114.0
45891,-2.000,-0.260,-0.613,39.618,71.824,-82.298,130.0,114.0
45944,-1.400,0.098,-0.364,35.557,-18.893,-53.916,144.0,118.0
46001,-0.809,0.437,-0.267,43.580,-43.702,-10.718,124.0,0.0
46052,-0.465,0.611,-0.100,29.832,-48.198,21.198,119.0,103.0
46105,-0.234,0.798,-0.263,-8.137,-31.313,36.008,118.0,103.0
46155,-0.596,0.745,-0.427,-118.031,16.802,73.870,120.0,99.0
46247,-2.000,-0.599,-1.797,-250.137,-46.931,83.878,118.0,75.0
46297,-1.792,-0.729,-1.411,-241.321,-77.282,95.672,116.0,78.0
46347,-0.817,-0.761,-0.886,-196.947,-26.244,65.244,112.0,103.0
46398,-0.166,-0.662,-0.486,-150.000,-17.542,14.420,108.0,106.0
46447,0.311,-0.770,-0.252,-91.931,0.168,-48.099,106.0,86.0
46497,0.430,-0.730,-0.122,-31.336,18.840,-87.473,109.0,104.0
46551,-0.181,-0.733,-0.133,48.275,38.321,-118.267,116.0,98.0
46601,-1.452,-1.016,-1.064,166.084,118.725,-162.779,125.0,92.0
46652,-2.000,-0.667,-1.344,135.824,202.038,-58.107,130.0,102.0
46708,-2.000,-0.115,-0.429,51.588,23.496,-2.977,0.0,104.0
46759,-0.736,0.076,-0.430,56.794,-59.107,1.496,126.0,120.0
46811,-0.309,0.450,-0.195,57.710,-5.359,7.863,123.0,98.0
46861,-0.305,0.663,-0.053,33.695,-7.145,23.550,123.0,98.0
46912,-0.508,0.884,-0.290,-39.908,-14.069,59.046,125.0,96.0
46962,-1.327,0.794,-1.227,-137.107,45.359,73.939,131.0,92.0
47017,-2.000,-0.594,-1.740,-217.328,-14.489,104.992,152.0,83.0
47069,-1.696,-0.727,-1.283,-250.137,-105.397,90.328,147.0,88.0
47120,-0.513,-0.750,-0.772,-179.817,-71.275,37.206,141.0,75.0
47171,0.064,-0.703,-0.420,-114.550,-5.992,-5.099,137.0,100.0
47223,0.374,-0.639,-0.080,-45.038,11.008,-64.313,135.0,108.0
47275,0.341,-0.510,-0.035,12.924,8.420,-93.443,137.0,79.0
47325,-0.129,-0.571,-0.120,57.840,7.809,-101.443,143.0,73.0
47377,-1.599,-1.106,-1.216,185.580,70.237,-123.718,150.0,92.0
47432,-2.000,-0.440,-1.215,108.748,196.779,-18.527,155.0,91.0
47484,-1.962,-0.122,-0.373,41.450,23.176,16.374,154.0,93.0
47537,-0.794,0.083,-0.420,65.771,-70.397,22.588,151.0,95.0
47589,-0.345,0.374,-0.234,86.450,-13.924,23.282,148.0,96.0
47641,-0.298,0.553,0.033,59.969,14.443,22.634,148.0,96.0
47693,-0.286,0.544,0.040,-4.099,-9.481,18.153,150.0,94.0
47746,-0.577,0.318,-0.520,-73.229,-12.962,-0.763,154.0,89.0
47798,-1.452,0.066,-1.591,-134.634,57.924,-16.321,159.0,84.0
47846,-2.000,-0.350,-1.721,-199.779,-47.023,-14.519,161.0,10.0
47902,-1.151,-1.082,-1.583,-232.206,-80.702,26.634,158.0,0.0
47954,-0.558,-1.160,-0.288,-177.130,-65.115,-29.565,154.0,89.0
48007,-0.329,-0.912,0.009,-53.214,-42.015,-104.992,152.0,91.0
48065,-0.545,-0.482,-0.014,8.382,-55.137,-61.168,151.0,0.0
48104,-0.831,-0.606,-0.067,64.962,-61.061,-25.893,50.0,0.0
48162,-1.291,-0.815,-0.430,116.527,-36.305,-36.763,152.0,0.0
48207,-1.344,-0.233,-0.279,50.939,32.076,13.496,151.0,0.0
48262,-1.137,-0.212,-0.179,48.672,-15.603,16.275,149.0,142.0
48312,-0.720,0.185,-0.158,34.092,-39.473,7.420,50.0,98.0
48364,-0.620,0.521,0.081,16.718,-31.321,19.198,145.0,97.0
48416,-0.475,0.749,0.317,-2.954,-42.229,54.504,145.0,97.0
48467,-0.374,0.655,0.177,-6.573,-104.840,50.237,146.0,95.0
48520,-0.411,0.323,-0.256,-33.534,-120.130,-36.046,151.0,93.0
48573,-0.553,-0.614,-0.653,-57.359,5.870,-141.405,157.0,86.0
48631,-2.000,-2.000,-0.068,-77.221,-64.153,-250.137,0.0,158.0
48685,-0.721,-1.885,-0.983,12.023,-250.137,-250.137,119.0,131.0
48741,-0.117,-0.555,-0.076,-32.176,-222.504,-70.038,115.0,135.0
48795,0.110,-0.904,0.102,-80.954,-43.458,11.420,115.0,168.0
48892,-0.365,-0.741,0.264,2.458,80.985,25.740,112.0,172.0
48946,-0.594,-1.059,0.561,10.702,-13.985,13.702,109.0,150.0
49006,-0.245,-1.057,0.562,10.573,-33.626,33.008,109.0,177.0
49059,-0.324,-0.994,0.611,39.725,-20.336,33.389,109.0,172.0
49119,-0.234,-0.680,0.271,33.626,-9.137,-20.397,0.0,174.0
49177,-0.258,-0.742,0.127,10.260,-2.046,-22.290,0.0,174.0
49232,-0.326,-0.777,0.314,-15.527,-12.611,16.008,138.0,175.0
49295,-0.294,-0.863,0.517,-12.679,-30.908,19.809,0.0,178.0
49353,-0.216,-0.853,0.452,-0.931,-18.817,-5.405,0.0,177.0
49413,-0.229,-0.893,0.419,3.183,-1.580,-5.168,0.0,176.0
49471,-0.332,-0.803,0.463,0.832,1.160,-7.168,0.0,177.0
49529,-0.299,-0.796,0.442,1.534,-5.893,-6.046,0.0,178.0
49589,-0.312,-0.829,0.378,-1.580,-2.962,-2.107,0.0,178.0
49647,-0.367,-0.834,0.456,-3.656,-5.359,3.626,0.0,174.0
49707,-0.291,-0.869,0.467,-3.351,-9.328,9.214,0.0,181.0
49768,-0.315,-0.820,0.501,3.244,-17.626,5.817,0.0,176.0
49823,-0.279,-0.807,0.391,3.885,1.214,-0.191,136.0,180.0
49880,-0.362,-0.813,0.422,-1.260,-1.397,6.687,135.0,182.0
49935,-0.325,-0.834,0.460,-7.786,-7.847,14.908,136.0,186.0
49990,-0.326,-0.829,0.514,-3.641,-10.137,10.275,135.0,177.0
50050,-0.339,-0.825,0.504,2.221,-11.389,1.298,0.0,186.0
50106,-0.326,-0.800,0.425,1.885,-7.947,0.351,136.0,182.0
50162,-0.293,-0.754,0.449,-1.626,-2.023,16.893,135.0,0.0
50220,-0.021,-1.143,0.855,-4.183,-23.122,48.298,162.0,0.0
50282,0.543,-1.441,0.908,58.718,-71.794,35.466,0.0,181.0
50337,0.665,-1.156,0.037,50.183,-70.427,-43.718,193.0,123.0
50398,0.094,-0.932,-0.468,28.473,117.015,-189.504,200.0,0.0
50454,-2.000,-0.853,0.780,-105.939,157.916,-250.137,126.0,0.0
50510,-0.922,-0.565,0.623,-22.405,-100.489,-140.244,126.0,0.0
50567,0.004,-0.932,0.482,-45.061,18.481,-0.954,128.0,0.0
50623,-0.288,-0.907,0.899,5.740,99.405,10.847,127.0,0.0
50679,-0.051,-1.037,0.599,25.924,8.977,35.924,125.0,0.0
50736,0.127,-0.896,0.303,20.252,23.863,10.748,124.0,0.0
50794,0.098,-0.871,0.287,2.756,18.649,6.298,125.0,0.0
50850,0.055,-0.824,0.325,-12.420,4.847,-13.924,124.0,0.0
50907,-0.032,-0.942,0.380,-18.359,-7.084,-11.656,124.0,0.0
50962,-0.045,-0.893,0.441,-18.634,-5.053,-17.779,124.0,0.0
51018,-0.001,-0.938,0.470,-14.435,2.160,-1.359,124.0,0.0
51075,0.044,-0.916,0.482,-5.924,5.260,-1.031,124.0,0.0
51131,0.100,-0.911,0.385,-5.214,2.389,-1.130,123.0,0.0
51186,0.018,-0.923,0.392,-6.779,5.954,-6.733,123.0,0.0
51243,0.003,-0.948,0.410,-9.466,-4.206,-4.641,124.0,197.0
51301,0.034,-0.903,0.384,-6.908,4.618,-5.611,123.0,196.0
51357,0.063,-0.946,0.369,-6.336,4.046,-6.275,123.0,197.0
51414,-0.007,-0.932,0.423,-7.290,5.115,-4.000,123.0,198.0
51469,-0.011,-0.943,0.416,-5.389,-12.794,-4.053,123.0,198.0
51525,0.075,-0.937,0.329,-5.031,-10.389,-2.435,123.0,197.0
51581,0.043,-0.941,0.362,-5.840,-0.618,0.649,123.0,199.0
51634,0.079,-0.940,0.356,-4.298,-8.389,-4.244,123.0,135.0
51686,0.080,-0.946,0.356,-5.458,-10.107,-4.137,123.0,136.0
51784,0.067,-0.948,0.319,-3.985,9.466,-4.977,122.0,133.0
51836,0.024,-0.940,0.340,-6.015,2.550,-5.229,122.0,135.0
51889,0.079,-0.959,0.305,-5.122,-5.702,-0.191,122.0,136.0
51942,0.093,-0.959,0.295,-5.641,5.756,-1.328,123.0,135.0
51994,0.098,-0.957,0.303,-3.321,14.290,1.733,122.0,134.0
52046,0.063,-0.951,0.333,-4.221,19.366,1.840,122.0,131.0
52098,0.078,-0.944,0.311,-1.641,11.107,1.695,122.0,128.0
52150,0.052,-0.987,0.332,-3.786,4.969,0.466,122.0,126.0
52202,0.116,-0.966,0.277,-2.565,12.924,-3.687,122.0,126.0
52256,0.023,-0.965,0.330,-3.389,9.763,-3.221,122.0,124.0
52308,0.067,-0.958,0.270,-2.473,9.221,3.069,123.0,126.0
52361,0.059,-0.949,0.292,-5.145,20.863,-3.046,123.0,124.0
52412,0.034,-0.949,0.281,-3.977,22.550,-4.511,122.0,125.0
52464,-0.068,-1.001,0.384,-7.573,2.710,-2.443,122.0,123.0
52516,-0.075,-0.920,0.368,-3.565,-1.832,13.290,122.0,123.0
52568,-0.417,-1.041,0.145,-1.977,37.557,60.267,121.0,126.0
52620,-1.136,-0.659,0.421,-34.802,23.634,88.160,118.0,128.0
52672,-1.066,-0.894,0.287,-28.168,-50.466,178.046,113.0,134.0
52727,-0.597,-1.461,0.060,-25.489,-37.008,247.656,110.0,146.0
52788,-0.110,-1.515,0.371,-12.000,-56.313,201.023,0.0,179.0
52847,0.748,-0.722,0.053,-27.168,-190.000,-9.901,0.0,185.0
52908,0.677,-0.979,-0.343,-45.710,-66.565,-21.557,0.0,194.0
52965,-0.387,-0.898,0.104,-28.695,114.328,-75.183,0.0,130.0
53018,-1.103,-0.948,0.412,-20.290,82.191,-20.382,101.0,178.0
53072,-0.732,-0.842,0.259,-8.817,9.718,-9.580,100.0,174.0
53128,-0.530,-0.790,0.234,-21.588,7.947,-3.038,99.0,0.0
53172,-0.417,-0.965,0.151,-18.832,-10.389,4.573,99.0,0.0
53225,-0.397,-0.909,0.175,-22.061,-17.641,-7.031,99.0,177.0
53279,-0.314,-0.916,0.065,-21.115,-3.542,-15.855,100.0,176.0
53332,-0.467,-0.949,0.166,-23.542,6.519,-12.649,100.0,177.0
53387,-0.471,-0.885,0.189,-15.344,10.924,-11.336,96.0,178.0
53442,-0.402,-0.951,0.156,-13.244,-12.466,-10.183,96.0,0.0
53483,-0.347,-0.902,0.116,-3.908,2.107,-14.786,96.0,0.0
53535,-0.342,-0.933,0.089,-8.015,-8.725,-16.611,96.0,151.0
53590,-0.333,-0.899,0.047,-7.168,1.031,-14.794,96.0,0.0
53635,-0.385,-0.951,0.052,-8.840,6.046,-19.504,96.0,0.0
53689,-0.419,-0.965,0.103,-14.649,-5.145,-16.023,96.0,0.0
53742,-0.334,-0.896,0.050,-10.687,-1.000,-14.305,96.0,174.0
53797,-0.394,-1.001,0.115,-14.901,-14.084,-9.527,97.0,0.0
53853,-0.268,-0.917,0.060,-5.153,-11.947,-6.939,97.0,0.0
53905,-0.260,-0.980,0.039,-1.397,0.092,-9.015,97.0,164.0
53958,-0.337,-0.965,0.069,-3.626,-18.450,-11.565,97.0,163.0
54012,-0.192,-0.954,-0.022,-6.336,-15.405,-14.000,98.0,181.0
54071,-0.233,-0.950,0.032,-6.511,0.733,-9.023,99.0,0.0
54126,-0.231,-0.950,0.017,-3.656,6.473,-11.634,99.0,0.0
54181,-0.250,-0.968,-0.005,-12.344,2.382,-18.511,99.0,0.0
54237,-0.261,-1.013,0.011,-21.366,-6.908,-16.015,99.0,0.0
54289,-0.235,-0.964,0.040,-15.634,-25.366,-10.611,99.0,153.0
54342,-0.134,-1.036,-0.030,-10.557,-11.481,-8.198,99.0,164.0
54395,-0.225,-1.064,0.011,-5.237,9.405,-6.168,100.0,154.0
54492,-0.276,-1.063,0.026,4.702,1.153,-0.008,100.0,163.0
54544,-0.215,-1.065,-0.004,10.527,-2.237,8.061,99.0,162.0
54600,-0.250,-1.083,0.044,11.290,8.321,7.168,99.0,165.0
54656,-0.423,-1.242,0.329,26.344,20.878,7.206,98.0,0.0
54710,-0.825,-1.361,0.845,90.298,4.252,47.260,96.0,180.0
54764,-1.061,-1.215,1.037,150.565,1.771,114.305,94.0,181.0
54824,-0.571,-1.374,0.364,196.718,4.687,141.214,0.0,191.0
54883,-0.061,-1.597,0.096,157.435,15.282,80.687,0.0,160.0
54940,0.155,-0.745,-0.312,100.672,-69.137,25.710,0.0,134.0
54996,0.227,-0.161,-0.442,41.748,-29.389,44.611,152.0,167.0
55055,-0.410,-0.477,0.205,9.977,22.084,19.603,0.0,139.0
55117,-0.645,-0.501,0.612,0.771,-19.786,2.824,0.0,167.0
55177,-0.611,-0.598,0.666,6.244,-22.672,18.565,0.0,170.0
55234,-0.380,-0.437,0.628,-1.252,-31.687,23.405,0.0,139.0
55291,-0.312,-0.429,0.527,-3.878,-3.702,-6.237,0.0,143.0
55351,-0.486,-0.500,0.720,-16.573,-23.344,3.534,0.0,161.0
55406,-0.392,-0.611,0.755,-25.977,-16.992,3.244,198.0,104.0
55462,-0.434,-0.535,0.872,-13.130,-2.969,-27.863,198.0,105.0
55522,-0.546,-0.471,0.806,4.069,10.664,-13.908,0.0,168.0
55577,-0.496,-0.534,0.736,4.534,-9.565,7.092,0.0,104.0
55629,-0.477,-0.444,0.710,-0.565,-11.344,-17.618,186.0,106.0
55688,-0.480,-0.452,0.681,2.641,-6.473,-3.977,183.0,169.0
55748,-0.477,-0.499,0.623,-0.977,-3.969,-0.168,0.0,169.0
55808,-0.557,-0.516,0.727,-2.023,-9.954,5.649,0.0,169.0
55863,-0.369,-0.484,0.679,-6.321,3.153,16.634,0.0,104.0
55918,-0.468,-0.481,0.769,-6.870,-0.954,11.359,0.0,103.0
55977,-0.444,-0.542,0.714,-5.267,-5.618,6.947,0.0,171.0
56037,-0.428,-0.563,0.715,-7.420,-0.947,7.962,0.0,170.0
56096,-0.416,-0.508,0.743,-6.107,-9.550,2.275,0.0,106.0
56158,-0.388,-0.508,0.689,-2.992,3.863,1.252,0.0,102.0
56212,-0.467,-0.538,0.720,-0.504,3.374,0.824,0.0,101.0
56266,-0.448,-0.562,0.705,-1.573,-0.298,-0.076,0.0,102.0
56322,-0.474,-0.535,0.719,0.809,7.786,2.855,0.0,102.0
56376,-0.475,-0.523,0.718,2.473,2.282,6.061,0.0,101.0
56430,-0.477,-0.516,0.701,3.794,9.092,10.695,0.0,101.0
56484,-0.500,-0.520,0.691,5.794,9.969,10.298,0.0,101.0
56539,-0.554,-0.492,0.695,6.130,17.221,17.046,0.0,102.0
56596,-0.522,-0.483,0.695,6.206,4.481,13.267,0.0,101.0
56651,-0.501,-0.469,0.665,6.534,1.809,10.267,0.0,103.0
56705,-0.565,-0.458,0.699,6.718,1.641,17.626,185.0,102.0
56759,-0.675,-0.447,0.709,10.115,12.901,47.115,0.0,101.0
56814,-1.300,-0.376,0.849,18.679,59.282,168.076,0.0,100.0
56868,-1.790,-0.295,0.918,22.634,37.061,237.863,0.0,107.0
56927,-1.696,-0.080,0.598,17.832,22.313,250.130,0.0,157.0
56975,-1.208,-0.146,0.351,-18.527,-21.008,250.130,36.0,161.0
57032,-0.489,-0.195,0.271,-74.756,-53.458,250.130,0.0,133.0
57081,-0.084,-0.585,0.374,-109.947,-69.588,230.893,20.0,147.0
57127,0.327,-0.271,0.560,-81.298,-75.389,143.435,16.0,135.0
57176,0.468,-0.013,0.629,-53.107,-21.038,65.198,13.0,162.0
57222,0.281,0.112,0.756,12.863,34.611,21.191,13.0,140.0
57311,-0.336,0.460,1.096,-2.298,38.344,-13.344,15.0,152.0
57358,-0.359,0.493,0.903,-9.893,-29.687,-34.931,17.0,139.0
57405,-0.321,0.550,0.734,9.710,-13.252,-13.710,16.0,154.0
57451,-0.332,0.554,0.781,-0.969,11.313,-6.321,14.0,139.0
57497,-0.292,0.522,0.822,-9.519,10.290,-1.397,13.0,137.0
57545,-0.321,0.468,0.859,-8.198,1.618,1.885,14.0,134.0
57591,-0.217,0.458,0.821,3.023,-17.679,0.443,13.0,137.0
57637,-0.176,0.470,0.767,5.420,11.832,-1.511,12.0,135.0
57682,-0.291,0.467,0.822,4.061,28.809,-2.260,12.0,137.0
57729,-0.370,0.425,0.875,5.260,4.779,-7.481,13.0,135.0
57775,-0.268,0.403,0.790,3.084,0.779,-10.954,12.0,135.0
57821,-0.331,0.424,0.799,3.122,15.985,-12.687,13.0,136.0
57866,-0.409,0.417,0.849,5.992,8.565,-12.832,13.0,137.0
57913,-0.361,0.515,0.833,5.252,-6.374,-13.046,13.0,155.0
57963,-0.323,0.520,0.766,5.176,-4.137,-8.901,12.0,155.0
58010,-0.321,0.512,0.749,4.244,4.710,-3.282,14.0,157.0
58056,-0.367,0.477,0.759,2.893,14.771,-0.206,12.0,132.0
58103,-0.380,0.458,0.792,-1.382,1.282,-1.000,13.0,156.0
58149,-0.312,0.453,0.743,-4.252,3.351,-5.802,12.0,157.0
58195,-0.347,0.448,0.786,-3.115,9.443,-5.214,13.0,136.0
58242,-0.389,0.472,0.812,-0.031,6.519,-7.053,14.0,133.0
58288,-0.378,0.479,0.789,-0.847,-4.275,-4.901,16.0,133.0
58334,-0.328,0.479,0.746,1.634,6.901,-2.580,16.0,133.0
58383,-0.405,0.490,0.798,3.840,19.313,1.443,16.0,131.0
58428,-0.422,0.471,0.784,3.786,5.290,1.634,17.0,132.0
58474,-0.383,0.472,0.754,1.504,5.458,1.649,16.0,130.0
58520,-0.387,0.462,0.735,1.832,8.443,0.244,17.0,129.0
58565,-0.384,0.452,0.725,1.099,13.901,-0.450,16.0,130.0
58611,-0.419,0.471,0.752,0.344,15.634,-0.260,17.0,127.0
58659,-0.440,0.460,0.771,0.122,7.092,-2.458,12.0,183.0
58705,-0.405,0.461,0.738,0.977,4.901,-2.588,12.0,134.0
58750,-0.421,0.493,0.740,0.695,12.267,-2.412,12.0,126.0
58800,-0.463,0.469,0.753,-2.992,11.733,-1.573,12.0,126.0
58845,-0.463,0.459,0.758,-2.611,7.878,-1.954,12.0,125.0
58891,-0.467,0.457,0.767,0.405,4.031,-2.794,11.0,126.0
58936,-0.449,0.437,0.740,-0.969,5.366,-5.435,12.0,125.0
58981,-0.457,0.432,0.719,-0.466,8.328,-7.176,11.0,125.0
59026,-0.476,0.411,0.731,1.145,9.511,-6.840,11.0,126.0
59072,-0.473,0.359,0.749,0.000,2.374,-11.069,11.0,125.0
59117,-0.518,0.066,0.838,-19.069,0.176,-30.405,11.0,124.0
59164,-0.785,-0.533,1.189,-81.260,-34.427,-88.198,16.0,148.0
59206,-0.713,-1.157,0.883,-45.115,-120.153,-183.878,13.0,16.0
59253,-0.397,-0.942,0.443,28.145,-94.580,-229.328,13.0,150.0
59301,-0.535,-0.730,0.149,89.351,14.634,-250.137,20.0,155.0
59357,-1.175,-0.220,-0.238,173.267,146.779,-250.137,0.0,105.0
59403,-2.000,-0.194,-0.028,200.168,138.382,-250.137,30.0,108.0
59452,-2.000,0.148,-0.162,192.626,65.809,-250.137,37.0,163.0
59511,-1.851,0.751,0.131,139.191,118.908,-236.802,0.0,173.0
59571,-1.648,0.940,1.006,53.023,24.137,-70.260,0.0,169.0
59632,-0.899,0.080,0.714,-0.534,-93.809,5.550,0.0,172.0
59726,-0.396,-0.399,0.484,-26.374,0.885,19.038,44.0,175.0
59777,-0.534,-0.533,0.632,-31.061,-1.855,-7.550,43.0,175.0
59828,-0.518,-0.496,0.653,-26.450,-27.519,-24.252,50.0,175.0
59886,-0.557,-0.427,0.671,-13.969,-26.893,-29.656,190.0,175.0
59937,-0.580,-0.358,0.664,-2.802,-5.969,-24.840,50.0,172.0
59996,-0.614,-0.327,0.688,-1.214,4.901,-14.725,192.0,173.0
60055,-0.622,-0.322,0.665,-6.168,-8.443,-12.137,194.0,174.0
60106,-0.555,-0.343,0.635,-9.481,-6.924,-2.802,51.0,173.0
60168,-0.570,-0.439,0.638,-11.046,-2.527,-0.855,193.0,172.0
60225,-0.563,-0.438,0.684,-14.252,-0.947,-0.099,0.0,140.0
60282,-0.532,-0.449,0.663,-9.985,-1.519,-4.137,0.0,139.0
60340,-0.575,-0.450,0.654,-7.069,1.053,-7.244,195.0,140.0
60399,-0.590,-0.442,0.659,-10.748,1.824,-5.092,192.0,171.0
60457,-0.618,-0.468,0.658,-11.603,-0.794,0.725,196.0,170.0
60509,-0.583,-0.491,0.665,-8.038,-4.489,4.962,51.0,172.0
60559,-0.564,-0.496,0.671,-8.366,-4.420,6.969,49.0,172.0
60613,-0.525,-0.485,0.648,-3.237,-2.061,5.031,50.0,171.0
60663,-0.553,-0.481,0.645,0.382,2.763,4.374,51.0,171.0
60715,-0.586,-0.478,0.654,2.756,2.916,5.473,51.0,172.0
60765,-0.578,-0.468,0.661,2.962,1.366,7.756,50.0,173.0
60816,-0.564,-0.454,0.637,2.672,-1.519,9.405,50.0,173.0
60866,-0.567,-0.460,0.640,1.794,3.015,8.878,51.0,172.0
60917,-0.573,-0.445,0.626,0.420,6.176,10.847,48.0,171.0
60967,-0.581,-0.429,0.643,-4.092,4.298,9.031,48.0,171.0
61018,-0.578,-0.419,0.612,-3.733,3.153,9.969,47.0,172.0
61072,-0.576,-0.417,0.589,-1.992,9.008,10.237,47.0,172.0
61122,-0.598,-0.423,0.600,1.206,14.664,14.076,48.0,173.0
61173,-0.604,-0.452,0.624,11.611,15.183,14.534,50.0,172.0
61224,-0.649,-0.444,0.657,13.954,19.863,16.687,50.0,172.0
61275,-0.691,-0.456,0.706,17.076,15.817,17.252,50.0,172.0
61326,-0.705,-0.462,0.813,21.191,8.794,20.664,51.0,172.0
61377,-0.781,-0.565,1.207,52.214,3.176,50.519,51.0,172.0
61427,-1.082,-0.931,1.506,122.275,10.634,123.802,39.0,176.0
61477,-1.220,-0.833,1.109,212.855,-7.282,125.061,45.0,166.0
61534,-0.929,-0.168,0.234,250.130,-34.847,154.824,42.0,0.0
61584,-0.588,0.037,-0.265,240.244,-64.260,184.641,39.0,178.0
61634,-0.288,-0.017,-0.391,195.023,-120.992,156.786,38.0,169.0
61685,0.158,0.343,-0.345,154.939,-134.168,88.588,32.0,0.0
61724,0.346,0.834,-0.308,114.496,-47.611,20.481,37.0,0.0
61775,0.179,1.165,-0.007,63.443,27.397,-19.473,36.0,0.0
61837,-0.229,1.229,0.289,30.901,39.641,-36.824,0.0,0.0
61875,-0.347,1.185,0.213,26.092,30.359,-31.985,36.0,0.0
61926,-0.465,1.158,0.196,18.145,44.366,-15.305,36.0,0.0
61976,-0.630,1.009,0.306,-2.618,20.695,2.473,0.0,0.0
62022,-0.485,0.927,0.257,-11.023,-18.008,6.870,0.0,180.0
62084,-0.348,0.851,0.187,-11.244,-19.435,16.366,0.0,0.0
62145,-0.270,0.875,0.195,-4.015,2.427,12.779,0.0,0.0
62192,-0.306,0.882,0.199,-8.496,2.038,6.763,0.0,0.0
62238,-0.331,0.918,0.219,-13.115,-1.779,2.344,0.0,185.0
62299,-0.332,0.893,0.250,-15.588,-2.015,1.252,0.0,194.0
62403,-0.343,0.850,0.308,-14.496,-1.198,2.542,0.0,0.0
62464,-0.290,0.852,0.259,-8.427,-6.718,-1.389,0.0,189.0
62527,-0.302,0.881,0.293,-9.130,5.969,-5.618,0.0,183.0
62587,-0.359,0.887,0.338,-6.534,-1.931,-6.618,0.0,185.0
62648,-0.343,0.881,0.288,-3.962,-1.580,-3.458,0.0,185.0
62709,-0.345,0.876,0.302,-5.534,-2.626,-2.985,0.0,0.0
62761,-0.328,0.883,0.292,-7.580,-1.206,-2.702,0.0,0.0
62808,-0.349,0.860,0.318,-8.412,0.847,0.427,0.0,0.0
62854,-0.361,0.848,0.354,-7.244,-1.443,-0.191,0.0,0.0
62900,-0.354,0.845,0.335,-4.412,-1.053,-1.282,0.0,0.0
62951,-0.339,0.851,0.320,-3.107,-3.038,-3.389,37.0,0.0
62991,-0.320,0.861,0.306,-3.824,-0.458,-5.519,38.0,0.0
63041,-0.333,0.861,0.305,-2.695,-0.137,-6.336,36.0,0.0
63078,-0.338,0.862,0.306,-1.740,3.702,-3.954,36.0,0.0
63129,-0.363,0.866,0.318,-2.290,4.893,-3.985,37.0,0.0
63166,-0.383,0.850,0.348,-8.290,5.298,-5.580,36.0,0.0
63226,-0.391,0.837,0.364,-8.863,-1.405,-7.802,0.0,0.0
63263,-0.351,0.837,0.343,-7.809,-1.275,-9.802,36.0,0.0
63313,-0.357,0.842,0.322,-7.718,1.985,-9.702,35.0,0.0
63350,-0.400,0.829,0.370,-8.260,0.267,-12.313,34.0,0.0
63404,-0.385,0.804,0.377,-5.740,-4.969,-11.702,35.0,0.0
63441,-0.350,0.756,0.342,-0.695,-7.824,-15.389,35.0,0.0
63491,-0.305,0.753,0.304,-4.221,-2.076,-26.534,36.0,182.0
63541,-0.269,0.728,0.232,-15.832,5.908,-42.870,36.0,182.0
63592,-0.392,0.703,0.317,-37.573,23.702,-62.992,37.0,0.0
63629,-0.357,0.595,0.175,-41.359,18.176,-80.008,38.0,0.0
63678,-0.099,0.531,-0.162,-69.641,50.473,-110.267,39.0,174.0
63737,-0.029,-0.052,-0.222,-115.687,87.282,-182.206,0.0,172.0
63789,-0.112,-0.754,0.074,-140.603,103.153,-250.137,125.0,120.0
63843,-0.542,-1.218,0.173,-138.718,105.282,-250.137,135.0,108.0
63902,-1.256,-2.000,0.308,-78.038,67.206,-250.137,0.0,179.0
63961,-1.505,-1.460,0.502,-11.893,-10.382,-250.137,0.0,163.0
64022,-1.270,-1.453,0.740,-22.939,-31.855,-250.137,0.0,0.0
64077,-0.837,-1.563,0.380,49.954,-17.832,-250.137,112.0,0.0
64119,-0.733,-0.501,0.537,55.794,67.947,-118.481,114.0,0.0
64175,-0.710,-0.688,0.530,3.870,26.664,13.038,115.0,0.0
64216,-0.177,-1.212,0.210,34.237,-79.626,76.626,113.0,0.0
64275,0.296,-0.907,0.047,21.969,-24.618,50.557,127.0,0.0
64317,0.336,-1.135,0.080,-4.656,-40.084,49.282,110.0,0.0
64371,0.267,-0.860,0.297,-13.221,-21.649,12.168,108.0,0.0
64413,0.355,-1.115,0.271,-3.908,-20.863,-7.634,108.0,0.0
64468,0.247,-0.967,0.324,-7.137,8.885,-28.107,108.0,0.0
64509,0.061,-1.045,0.398,3.351,5.275,-32.244,109.0,0.0
64565,-0.002,-0.938,0.401,2.969,-1.237,-35.870,109.0,0.0
64606,0.025,-1.002,0.291,13.008,15.412,-26.191,111.0,0.0
64661,0.016,-0.915,0.365,9.634,0.214,-24.702,112.0,0.0
64715,0.007,-0.944,0.366,5.237,-5.382,-18.450,116.0,0.0
64773,0.155,-0.907,0.316,2.168,-9.031,-10.160,118.0,0.0
64818,0.188,-0.963,0.303,7.725,-15.160,-6.092,131.0,0.0
64876,0.175,-0.919,0.355,2.443,-7.252,-12.252,117.0,0.0
64977,0.125,-0.966,0.413,8.534,-21.565,-8.023,115.0,0.0
65021,0.278,-0.906,0.288,3.435,-18.908,-9.267,115.0,0.0
65080,0.257,-0.916,0.384,6.489,2.374,-7.023,115.0,0.0
65124,0.279,-0.924,0.302,8.809,0.374,-6.611,114.0,0.0
65181,0.200,-0.959,0.354,5.168,-5.519,-11.122,114.0,0.0
65228,0.199,-0.900,0.362,1.534,9.023,-12.809,115.0,0.0
65287,0.178,-0.895,0.378,5.466,-9.679,-8.511,115.0,0.0
65331,0.229,-0.924,0.358,2.305,-13.863,-6.481,116.0,0.0
65389,0.268,-0.893,0.359,5.947,-7.466,-1.336,116.0,0.0
65433,0.295,-0.893,0.350,4.779,-6.076,-0.885,117.0,0.0
65491,0.267,-0.893,0.367,2.901,-9.969,-3.244,117.0,0.0
65536,0.313,-0.911,0.348,0.366,-5.252,-7.351,118.0,0.0
65594,0.292,-0.869,0.378,0.351,-1.672,-0.840,118.0,0.0
65639,0.311,-0.935,0.365,0.947,-12.496,-6.794,118.0,0.0
65699,0.307,-0.896,0.406,-0.458,-6.214,-8.313,119.0,0.0
65744,0.305,-0.902,0.416,7.053,-1.656,-3.443,118.0,0.0
65803,0.324,-0.912,0.393,8.649,-6.733,-9.244,119.0,0.0
65847,0.354,-0.917,0.353,9.183,-3.725,-6.550,119.0,0.0
65905,0.377,-0.845,0.356,6.901,-5.672,-6.916,120.0,0.0
65950,0.425,-0.875,0.330,3.687,-4.122,-15.061,122.0,0.0
66009,0.432,-0.871,0.412,0.466,-1.084,-16.000,124.0,0.0
66067,0.501,-1.018,0.696,1.382,-21.313,-44.092,123.0,0.0
66126,0.727,-1.008,0.750,28.389,-93.260,-79.076,124.0,0.0
66174,1.091,-0.788,0.161,50.962,67.855,-78.786,126.0,0.0
66234,0.267,-0.885,0.208,62.443,89.107,-83.847,131.0,0.0
66294,0.067,-0.548,0.169,17.130,42.214,-73.382,165.0,0.0
66356,0.103,-0.537,0.251,-5.611,29.664,-24.756,168.0,0.0
66417,0.344,-0.564,0.455,-26.885,-6.702,6.046,166.0,0.0
66479,0.476,-0.669,0.560,-18.557,-12.252,23.031,172.0,0.0
66538,0.651,-0.691,0.527,-18.573,-13.611,21.733,135.0,0.0
66597,0.702,-0.706,0.547,-13.626,22.992,25.481,134.0,0.0
66657,0.633,-0.689,0.493,-7.802,48.832,10.305,133.0,0.0
66719,0.413,-0.713,0.602,-8.756,3.511,1.389,133.0,0.0
66779,0.521,-0.747,0.527,-5.130,-4.076,4.870,133.0,0.0
66838,0.489,-0.716,0.535,-4.908,6.916,7.733,133.0,0.0
66897,0.406,-0.763,0.585,-1.893,0.985,5.962,132.0,0.0
66956,0.469,-0.730,0.546,0.573,9.351,10.405,132.0,0.0
67015,0.406,-0.766,0.604,7.252,-7.427,8.153,131.0,0.0
67075,0.492,-0.748,0.522,9.229,-28.115,12.947,130.0,0.0
67134,0.530,-0.722,0.514,8.198,-7.214,4.237,129.0,0.0
67192,0.454,-0.746,0.563,12.672,-17.061,3.534,129.0,0.0
67255,0.485,-0.698,0.499,11.924,-24.351,1.664,128.0,0.0
67314,0.559,-0.682,0.442,7.160,-5.252,5.542,128.0,0.0
67374,0.464,-0.714,0.535,6.160,-4.198,1.809,127.0,0.0
67432,0.491,-0.713,0.513,3.198,-19.794,0.031,127.0,0.0
67491,0.536,-0.701,0.494,3.191,-12.962,0.145,127.0,0.0
67551,0.487,-0.693,0.508,3.099,-2.359,6.779,127.0,0.0
67609,0.478,-0.701,0.492,1.183,-1.260,4.870,126.0,0.0
67668,0.457,-0.733,0.524,1.740,-8.489,13.473,126.0,0.0
67727,0.522,-0.718,0.509,-1.137,-1.779,6.992,126.0,0.0
