Timestamp(ms),AccelX(g),AccelY(g),AccelZ(g),GyroX(deg/s),GyroY(deg/s),GyroZ(deg/s),DistanceLeft(cm),DistanceRight(cm)
40441,-0.109,-0.980,0.193,-0.198,-0.053,-2.168,0.0,73.0
40488,-0.115,-0.979,0.194,0.084,0.863,-3.924,108.0,72.0
40537,-0.113,-0.979,0.202,0.069,2.481,-5.084,108.0,78.0
40589,-0.122,-0.980,0.186,0.710,3.870,-4.924,0.0,78.0
40642,-0.122,-0.976,0.196,0.779,4.603,-4.168,0.0,80.0
40695,-0.126,-0.975,0.194,0.504,3.298,-3.908,0.0,81.0
40749,-0.120,-0.972,0.188,0.061,2.221,-3.359,0.0,79.0
40802,-0.121,-0.969,0.191,-0.366,2.313,-1.557,0.0,77.0
40858,-0.140,-0.969,0.191,-1.206,-0.260,-0.382,0.0,77.0
40911,-0.142,-0.969,0.206,-1.847,-4.313,0.260,0.0,77.0
40965,-0.130,-0.979,0.194,-2.366,-6.840,1.603,0.0,77.0
41018,-0.113,-0.983,0.188,-1.252,-7.183,4.947,0.0,77.0
41071,-0.129,-0.978,0.203,-1.588,-8.092,7.275,0.0,80.0
41124,-0.119,-0.982,0.201,-0.557,-9.420,9.191,0.0,81.0
41178,-0.110,-0.978,0.188,0.130,-9.115,10.557,0.0,78.0
41231,-0.109,-0.981,0.189,0.786,-7.023,11.351,0.0,77.0
41284,-0.111,-0.978,0.189,0.916,-6.763,10.542,0.0,78.0
41339,-0.106,-0.982,0.198,0.550,-6.481,9.542,0.0,71.0
41393,-0.099,-0.985,0.177,0.198,-5.084,7.481,0.0,72.0
41446,-0.095,-0.982,0.186,0.328,-2.031,5.481,0.0,73.0
41498,-0.098,-0.978,0.193,-0.038,0.053,3.977,0.0,73.0
41551,-0.108,-0.987,0.187,-0.649,0.504,1.122,0.0,73.0
41605,-0.112,-0.981,0.187,-0.924,1.290,-1.786,0.0,78.0
41658,-0.120,-0.981,0.190,-1.069,1.344,-3.794,0.0,80.0
41711,-0.119,-0.987,0.199,-1.740,-0.366,-4.718,0.0,79.0
41764,-0.113,-0.988,0.202,-1.511,-0.916,-3.504,0.0,81.0
41822,-0.131,-0.981,0.197,-1.221,-0.756,-2.573,0.0,81.0
41875,-0.125,-0.985,0.193,-0.450,-1.794,-1.519,0.0,79.0
41928,-0.125,-0.972,0.189,-0.023,-2.756,0.374,0.0,78.0
41981,-0.132,-0.979,0.201,0.382,-3.527,2.420,0.0,78.0
42035,-0.132,-0.976,0.204,0.725,-5.435,4.504,0.0,80.0
42088,-0.126,-0.982,0.200,0.802,-6.267,6.542,0.0,81.0
42141,-0.117,-0.979,0.201,1.534,-6.092,8.183,0.0,77.0
42194,-0.117,-0.978,0.202,1.985,-5.985,9.595,0.0,75.0
42248,-0.109,-0.984,0.196,1.733,-6.298,9.855,0.0,74.0
42304,-0.099,-0.985,0.187,1.305,-5.649,8.115,0.0,72.0
42357,-0.097,-0.976,0.195,1.069,-4.550,6.252,0.0,70.0
42409,-0.106,-0.979,0.201,0.809,-5.061,4.817,0.0,69.0
42463,-0.104,-0.982,0.198,1.420,-4.344,3.603,0.0,70.0
42516,-0.108,-0.977,0.210,1.023,-2.153,1.916,0.0,70.0
42568,-0.121,-0.981,0.203,0.992,-2.115,0.771,0.0,69.0
42621,-0.119,-0.980,0.206,0.511,-2.198,0.466,0.0,70.0
42675,-0.121,-0.975,0.200,0.489,-1.695,1.046,0.0,69.0
42727,-0.123,-0.975,0.207,-0.122,-2.282,1.221,0.0,69.0
42783,-0.121,-0.973,0.216,-0.015,-2.771,1.870,0.0,71.0
42836,-0.131,-0.975,0.208,-0.214,-2.412,2.672,0.0,70.0
42890,-0.129,-0.970,0.204,-0.405,-2.817,3.137,0.0,70.0
42942,-0.120,-0.980,0.199,-0.672,-3.466,4.275,0.0,71.0
42995,-0.117,-0.982,0.204,-1.015,-2.847,4.954,0.0,72.0
43048,-0.113,-0.975,0.210,-1.328,-2.221,4.489,0.0,71.0
43145,-0.113,-0.988,0.214,-1.328,-4.901,4.214,0.0,72.0
43198,-0.104,-0.975,0.208,-0.702,-2.237,3.779,0.0,73.0
43251,-0.119,-0.979,0.209,-0.672,-1.779,3.145,0.0,71.0
43304,-0.116,-0.970,0.211,-1.076,-3.351,2.580,0.0,71.0
43355,-0.111,-0.980,0.198,-1.031,-3.214,2.519,0.0,71.0
43408,-0.125,-0.976,0.208,-1.244,-2.641,2.702,0.0,70.0
43462,-0.126,-0.978,0.207,-1.435,-3.405,2.687,0.0,79.0
43515,-0.115,-0.974,0.206,-0.916,-3.344,3.748,0.0,79.0
43569,-0.123,-0.977,0.208,-0.626,-3.282,5.260,0.0,79.0
43623,-0.120,-0.977,0.207,0.031,-3.817,5.710,0.0,77.0
43676,-0.121,-0.975,0.210,0.000,-3.611,5.878,0.0,77.0
43729,-0.124,-0.978,0.197,0.351,-3.015,5.504,0.0,76.0
43783,-0.123,-0.977,0.209,0.176,-3.931,5.542,0.0,76.0
43840,-0.123,-0.981,0.198,0.672,-4.221,5.725,0.0,77.0
43893,-0.126,-0.984,0.195,1.496,-3.038,6.252,0.0,77.0
43947,-0.126,-0.979,0.203,1.511,-3.397,7.000,0.0,76.0
44000,-0.122,-0.976,0.208,1.763,-4.489,6.878,0.0,77.0
44054,-0.112,-0.988,0.212,2.206,-4.160,6.137,0.0,77.0
44107,-0.120,-0.983,0.206,2.481,-3.542,6.267,0.0,75.0
44161,-0.126,-0.980,0.202,2.664,-3.916,6.420,0.0,77.0
44215,-0.131,-0.974,0.214,2.252,-4.947,5.710,0.0,75.0
44268,-0.135,-0.973,0.213,2.725,-8.771,5.534,0.0,76.0
44324,-0.141,-0.962,0.218,2.611,-10.481,6.130,0.0,75.0
44378,-0.135,-0.975,0.222,4.763,-9.748,6.817,0.0,69.0
44431,-0.157,-0.945,0.246,4.450,-8.947,9.053,0.0,68.0
44484,-0.166,-0.965,0.265,4.580,-15.443,10.031,0.0,70.0
44537,-0.147,-0.964,0.247,4.053,-15.420,7.908,0.0,72.0
44591,-0.198,-0.920,0.289,4.344,-12.229,10.809,0.0,66.0
44644,-0.221,-0.913,0.305,4.878,-27.977,15.603,0.0,66.0
44697,-0.141,-0.909,0.287,4.023,-30.672,19.878,0.0,66.0
44750,-0.288,-1.033,0.465,-0.298,-3.519,29.305,0.0,66.0
44807,-0.439,-1.374,0.500,6.359,-38.076,4.122,0.0,67.0
44860,-0.364,-1.532,0.466,29.450,-80.267,-2.733,0.0,63.0
44912,-0.206,-1.278,0.321,72.069,-111.397,31.489,0.0,64.0
44965,0.061,-0.965,0.058,111.565,-103.183,91.748,0.0,67.0
45020,0.135,-0.643,-0.007,122.679,-39.542,123.107,0.0,68.0
45073,0.123,-0.798,-0.083,104.092,31.046,108.817,0.0,65.0
45126,-0.019,-0.549,0.057,46.069,88.824,21.145,0.0,66.0
45179,-0.270,-0.196,0.523,-64.023,65.198,-71.878,0.0,73.0
45233,-0.332,-0.466,0.803,-153.855,-53.885,-78.626,0.0,66.0
45289,0.057,-0.826,0.250,-91.267,-97.603,-75.305,0.0,65.0
45342,0.155,-0.461,0.270,-42.298,1.550,-41.603,0.0,66.0
45396,-0.115,-0.597,0.335,-67.504,53.443,-20.756,0.0,80.0
45451,-0.383,-1.589,0.251,-64.679,84.214,-52.336,0.0,84.0
45506,-0.456,-1.784,0.150,-7.252,84.710,-94.748,0.0,95.0
45566,-0.385,-1.011,0.573,-37.656,78.473,-53.687,0.0,198.0
45625,-0.371,-1.261,0.425,-61.779,7.916,9.298,0.0,150.0
45685,-0.371,-0.903,0.406,-7.374,-52.366,-9.802,0.0,187.0
45746,-0.297,-0.889,0.277,-26.290,-86.244,-46.977,0.0,189.0
45803,-0.077,-1.011,0.066,20.611,-64.992,-37.771,87.0,190.0
45900,0.081,-1.177,-0.029,27.351,93.588,42.595,85.0,196.0
45955,-0.103,-1.266,0.066,21.756,132.473,56.084,83.0,0.0
46007,-0.065,-0.554,0.270,32.504,145.313,80.832,0.0,54.0
46060,-0.424,-0.799,0.615,-6.863,70.939,65.489,0.0,56.0
46112,-0.415,-0.936,0.539,-5.634,-55.412,10.053,0.0,57.0
46166,-0.097,-1.046,0.222,-13.198,-119.427,-6.878,0.0,57.0
46212,0.107,-0.895,0.208,-2.748,-81.664,1.374,77.0,58.0
46261,0.110,-0.849,0.197,-4.962,-17.328,6.382,76.0,59.0
46306,-0.035,-0.869,0.385,-25.107,13.221,-0.985,76.0,59.0
46352,-0.087,-1.180,0.227,-13.916,14.160,-19.748,76.0,58.0
46398,-0.129,-1.033,0.293,-12.489,10.435,-34.840,77.0,56.0
46444,0.019,-0.877,0.072,9.092,22.359,-15.847,77.0,57.0
46489,-0.048,-0.862,0.181,1.824,54.336,7.351,79.0,56.0
46535,-0.146,-1.064,0.187,-5.748,50.595,7.534,81.0,55.0
46588,-0.164,-1.014,0.211,1.534,37.275,-6.962,0.0,59.0
46635,-0.193,-0.967,0.258,-11.939,5.748,-16.252,84.0,59.0
46693,-0.122,-0.995,0.190,-4.786,-1.130,-30.252,0.0,106.0
46748,-0.171,-0.978,0.219,-14.611,-3.466,-35.351,0.0,90.0
46800,-0.167,-0.981,0.196,-10.168,-19.771,-30.908,0.0,51.0
46848,-0.071,-1.000,0.139,-5.977,-17.977,-10.557,86.0,50.0
46893,-0.048,-0.968,0.130,-0.305,8.305,8.168,86.0,50.0
46939,-0.117,-0.983,0.166,1.511,23.748,19.832,87.0,50.0
46992,-0.143,-0.977,0.189,3.672,20.450,21.992,0.0,51.0
47047,-0.156,-0.986,0.181,2.031,6.634,20.046,0.0,102.0
47102,-0.114,-0.983,0.143,1.405,2.328,19.008,0.0,103.0
47167,-0.129,-0.990,0.156,-2.321,-3.664,21.046,0.0,119.0
47219,-0.111,-0.986,0.159,-3.069,-7.389,20.519,0.0,56.0
47270,-0.119,-0.986,0.172,-4.687,-9.992,16.061,0.0,52.0
47315,-0.104,-0.980,0.154,-4.221,-8.282,10.473,86.0,51.0
47361,-0.137,-0.987,0.175,-6.603,-11.710,6.206,85.0,53.0
47410,-0.104,-1.004,0.148,-4.588,-13.435,1.534,85.0,119.0
47458,-0.123,-0.980,0.153,-6.115,-9.099,-1.809,84.0,120.0
47507,-0.134,-1.004,0.154,-6.321,-13.817,-4.603,85.0,118.0
47552,-0.125,-0.986,0.143,-6.191,-13.206,-5.145,85.0,52.0
47600,-0.117,-0.986,0.132,-5.916,-13.229,-3.229,85.0,52.0
47645,-0.109,-0.981,0.129,-5.038,-7.939,-0.427,85.0,51.0
47690,-0.146,-0.988,0.160,-5.985,-9.603,1.305,85.0,50.0
47734,-0.120,-0.987,0.131,-4.687,-11.672,2.282,85.0,50.0
47779,-0.112,-0.992,0.129,-5.649,-7.542,2.931,84.0,53.0
47828,-0.130,-0.994,0.126,-4.672,-7.435,3.695,84.0,125.0
47883,-0.117,-0.979,0.119,-5.481,-9.481,5.939,84.0,198.0
47932,-0.107,-0.972,0.101,-5.901,-6.962,7.939,84.0,120.0
47980,-0.113,-0.977,0.104,-6.603,-2.389,7.229,84.0,117.0
48032,-0.113,-0.966,0.094,-7.725,0.107,3.351,84.0,132.0
48078,-0.115,-0.965,0.098,-11.969,-2.214,-0.519,85.0,55.0
48128,-0.113,-0.971,0.080,-13.954,-4.214,-2.939,86.0,118.0
48176,-0.119,-0.968,0.084,-16.695,-3.954,-3.542,86.0,119.0
48226,-0.106,-0.969,0.073,-17.740,-0.885,-5.206,86.0,135.0
48274,-0.124,-1.001,0.091,-18.718,0.725,-8.275,88.0,101.0
48331,-0.127,-1.026,0.108,-17.000,2.198,-11.802,0.0,137.0
48431,-0.103,-1.091,0.050,-8.817,7.779,-8.023,0.0,138.0
48493,-0.073,-1.088,-0.016,-5.267,22.595,-9.511,0.0,185.0
48548,-0.077,-0.985,0.022,-6.656,34.626,-6.137,0.0,101.0
48603,-0.059,-0.798,0.049,8.763,42.191,-8.779,0.0,105.0
48654,-0.068,-0.608,0.279,19.015,34.160,-15.412,129.0,103.0
48704,0.030,-0.661,0.217,60.771,28.290,-20.618,127.0,99.0
48756,0.087,-1.165,0.149,62.802,57.908,0.771,170.0,88.0
48805,-0.042,-1.850,0.281,-2.824,14.405,32.840,123.0,70.0
48851,0.159,-1.207,0.126,39.824,11.740,57.748,79.0,88.0
48901,-0.004,-0.633,0.255,26.863,5.519,82.893,119.0,70.0
48953,-0.063,-0.591,0.067,13.756,-6.168,31.305,119.0,89.0
49001,0.003,-0.528,0.001,0.084,7.588,-16.198,119.0,68.0
49050,0.001,-0.633,-0.043,-1.115,30.809,-6.168,143.0,66.0
49094,-0.157,-1.293,-0.021,-2.137,41.916,-11.420,58.0,64.0
49139,-0.226,-1.676,-0.081,-1.893,49.733,-37.046,57.0,63.0
49183,-0.211,-1.343,-0.062,-4.275,33.344,-10.756,54.0,69.0
49228,-0.268,-1.304,0.071,-16.588,-12.130,37.611,52.0,75.0
49272,-0.126,-1.226,-0.121,-4.595,-39.145,62.802,51.0,69.0
49320,-0.067,-0.971,0.010,-1.824,-34.084,91.191,109.0,71.0
49372,-0.130,-1.096,0.014,-15.115,-49.221,91.031,107.0,73.0
49419,-0.097,-1.053,0.031,0.496,-50.756,52.885,106.0,74.0
49467,-0.145,-1.136,0.044,-5.802,-50.611,-0.382,105.0,81.0
49516,-0.178,-1.154,0.135,-3.198,-47.298,-39.901,106.0,80.0
49564,-0.208,-1.257,0.191,-5.939,-52.389,-62.771,106.0,79.0
49611,-0.204,-1.307,0.216,3.282,-60.489,-78.588,106.0,75.0
49660,-0.010,-1.006,0.137,31.672,-34.069,-56.740,106.0,79.0
49705,-0.073,-0.886,0.283,24.130,-5.718,-13.534,60.0,79.0
49758,-0.167,-0.920,0.316,25.931,-5.672,-8.351,132.0,66.0
49805,-0.139,-0.961,0.346,20.656,-26.305,-11.588,107.0,65.0
49853,-0.095,-1.023,0.404,26.351,-27.718,-8.466,107.0,66.0
49898,-0.105,-1.102,0.478,20.626,-38.855,-3.031,106.0,32.0
49944,-0.140,-1.045,0.672,22.641,-78.908,8.962,106.0,46.0
49990,-0.052,-0.967,0.566,47.786,-124.183,15.664,106.0,45.0
50042,0.101,-0.775,0.433,63.954,-128.626,23.176,0.0,46.0
50096,0.169,-0.677,0.256,63.137,-86.824,8.947,0.0,63.0
50152,0.160,-0.397,0.191,46.947,-9.565,-17.542,0.0,61.0
50204,-0.019,-0.388,0.296,5.802,31.412,-3.832,142.0,60.0
50254,-0.114,-0.684,0.297,-9.069,11.183,17.756,171.0,52.0
50307,-0.041,-0.942,0.189,-4.924,-22.595,45.603,0.0,47.0
50362,0.050,-0.761,0.196,-15.015,-19.420,83.740,0.0,58.0
50414,0.173,-0.923,0.021,-33.046,11.282,119.450,0.0,36.0
50465,0.164,-1.177,0.052,-60.794,41.137,104.779,0.0,36.0
50516,0.055,-1.117,0.247,-67.107,33.183,80.725,0.0,36.0
50571,0.010,-1.153,0.263,-50.313,14.939,63.527,0.0,36.0
50623,0.036,-1.097,0.235,-54.649,18.618,35.885,0.0,38.0
50679,-0.104,-0.951,0.375,-51.321,55.748,6.015,0.0,71.0
50733,-0.391,-0.927,0.499,-40.450,32.473,-19.366,0.0,71.0
50785,-0.335,-0.820,0.432,-3.305,-9.939,-25.771,0.0,62.0
50838,-0.447,-0.903,0.266,17.397,14.634,-45.252,0.0,58.0
50890,-0.610,-0.809,0.274,38.382,40.336,-19.588,0.0,55.0
50975,-0.525,-0.772,0.315,54.275,11.099,4.740,31.0,28.0
51016,-0.368,-0.677,0.366,68.115,19.847,22.359,33.0,27.0
51057,-0.340,-0.576,0.460,72.366,36.870,22.824,32.0,22.0
51098,-0.379,-0.472,0.417,73.511,49.244,37.214,32.0,21.0
51143,-0.541,-0.271,0.650,40.000,25.275,52.763,33.0,54.0
51193,-0.589,-0.519,0.686,-9.351,-13.725,45.176,0.0,15.0
51248,-0.569,-0.799,0.470,0.626,-27.817,50.992,0.0,73.0
51291,-0.656,-0.775,0.467,55.237,-61.771,54.817,29.0,70.0
51344,-0.851,-0.689,0.522,63.336,-99.137,56.779,0.0,68.0
51388,-0.559,-0.597,0.385,93.588,-92.305,90.969,29.0,71.0
51432,-1.208,-0.899,0.673,96.954,-76.977,31.954,33.0,73.0
51476,-1.139,-1.156,0.620,156.244,-118.939,-3.435,37.0,68.0
51523,-0.228,-1.267,0.214,161.275,-53.092,-77.122,38.0,75.0
51568,-0.325,-1.182,0.588,56.221,126.832,-172.214,37.0,79.0
51620,-0.049,-0.427,0.924,13.382,151.115,-93.267,156.0,94.0
51670,-0.555,-0.654,1.436,-23.931,41.664,-40.290,151.0,44.0
51722,-0.510,-1.114,1.187,-37.427,-126.504,-97.794,0.0,44.0
51765,0.047,-0.438,0.282,98.099,-39.023,-131.802,38.0,47.0
51811,-0.326,0.050,1.038,-59.298,35.527,-162.000,114.0,39.0
51853,-0.484,-0.822,0.622,-44.542,-11.260,-145.542,32.0,40.0
51895,-0.485,-0.498,1.248,30.206,-70.916,-111.389,32.0,40.0
51941,-0.060,-0.961,0.863,22.916,-97.634,-136.168,31.0,48.0
51984,0.103,-0.855,1.101,32.565,-79.763,-166.260,32.0,46.0
52030,0.113,-0.749,0.872,42.763,-63.527,-200.321,34.0,116.0
52081,0.027,-0.689,0.888,6.061,-64.427,-194.359,39.0,185.0
52131,0.340,-0.525,0.750,-16.542,-110.794,-179.626,39.0,177.0
52184,0.594,-0.364,0.324,-62.412,-43.931,-250.137,44.0,0.0
52236,0.333,0.168,0.874,-137.969,1.710,-191.573,45.0,0.0
52289,0.273,-1.014,0.335,-30.611,-154.351,-62.008,60.0,0.0
52349,0.646,0.204,0.381,69.908,-117.489,-71.939,130.0,0.0
52401,0.846,0.395,0.521,-35.771,-49.756,46.458,29.0,0.0
52452,0.834,-0.390,0.361,31.412,-54.908,92.679,27.0,0.0
52501,0.770,-0.131,0.344,83.275,-53.565,106.565,24.0,178.0
52551,1.078,-0.016,0.190,83.038,5.603,100.031,23.0,179.0
52600,0.811,-0.120,0.530,57.947,60.282,69.588,23.0,183.0
52652,0.903,-0.373,0.919,64.397,-27.267,122.977,22.0,0.0
52703,1.000,-0.592,0.674,92.061,-95.817,44.695,19.0,0.0
52763,1.253,-0.307,0.182,100.565,-59.542,-26.939,0.0,0.0
52828,0.823,-0.093,0.211,71.618,20.092,-44.634,0.0,0.0
52889,0.780,-0.031,0.336,47.916,27.595,-12.046,0.0,0.0
52951,0.708,-0.168,0.556,27.221,-34.046,-7.420,0.0,0.0
53008,1.109,-0.114,0.306,27.893,-46.099,-29.115,150.0,0.0
53069,1.117,-0.090,0.237,36.168,39.519,-30.237,0.0,0.0
53131,0.819,0.002,0.405,33.870,71.687,-22.878,0.0,0.0
53191,0.695,-0.065,0.756,27.534,14.229,-24.328,0.0,0.0
53253,0.900,-0.045,0.584,40.466,-33.076,-47.489,0.0,0.0
53314,0.862,0.035,0.403,50.344,25.824,-42.183,0.0,0.0
53367,0.714,0.191,0.477,50.176,28.656,-42.305,3.0,0.0
53425,0.871,0.166,0.564,51.168,30.023,-49.137,156.0,0.0
53486,0.813,0.161,0.469,64.305,26.527,-73.939,0.0,0.0
53587,0.610,0.451,0.369,77.916,15.809,-100.924,152.0,0.0
53646,0.471,0.630,0.374,67.366,-2.473,-102.130,153.0,0.0
53703,0.482,0.772,0.386,24.420,-0.870,-100.053,155.0,93.0
53755,0.503,0.595,0.335,12.977,13.534,-96.817,171.0,82.0
53807,0.311,2.000,0.593,-18.885,-16.817,-70.107,173.0,72.0
53858,0.346,0.316,0.228,-40.863,-43.130,-59.580,150.0,85.0
53910,0.221,0.844,0.519,37.351,-18.099,-99.382,151.0,65.0
53959,0.151,0.917,0.539,22.771,-28.855,-77.832,152.0,64.0
54009,0.156,0.772,0.413,22.015,-19.313,-69.519,153.0,62.0
54059,0.102,0.929,0.483,23.740,-7.885,-63.145,155.0,60.0
54109,0.101,0.847,0.434,28.145,2.206,-57.153,157.0,59.0
54155,0.033,0.815,0.399,41.328,9.595,-70.504,98.0,60.0
54202,0.033,0.903,0.321,48.015,14.786,-69.153,127.0,54.0
54252,-0.074,0.873,0.270,50.069,34.145,-69.748,165.0,51.0
54302,-0.213,0.920,0.222,54.779,41.748,-66.298,172.0,54.0
54354,-0.146,0.892,0.091,58.122,49.855,-57.412,169.0,51.0
54405,-0.337,0.795,0.078,67.817,61.786,-68.817,171.0,47.0
54455,-0.469,0.826,0.059,79.084,25.237,-81.053,174.0,48.0
54508,-0.654,0.835,-0.038,82.695,-16.191,-80.046,190.0,86.0
54562,-0.625,0.876,-0.151,74.466,-56.763,-66.634,0.0,87.0
54620,-0.559,0.775,-0.277,70.947,-39.687,-52.824,0.0,155.0
54675,-0.604,0.787,-0.246,48.809,-35.534,-53.397,0.0,112.0
54731,-0.627,0.670,-0.327,44.252,-2.550,-52.115,0.0,137.0
54791,-0.706,0.706,-0.311,36.214,33.664,-41.168,0.0,134.0
54851,-0.720,0.625,-0.346,35.771,40.809,-33.344,0.0,0.0
54902,-0.867,0.647,-0.285,28.725,3.252,-29.397,0.0,38.0
54958,-0.667,0.550,-0.398,24.863,-6.115,-23.771,0.0,39.0
55000,-0.695,0.590,-0.431,24.481,21.382,-23.962,54.0,36.0
55041,-0.743,0.506,-0.422,19.450,34.496,-21.458,53.0,11.0
55083,-0.783,0.455,-0.398,26.656,6.901,-25.893,53.0,10.0
55124,-0.729,0.495,-0.472,20.740,-4.847,-33.756,54.0,34.0
55165,-0.722,0.469,-0.530,17.435,-20.221,-45.557,55.0,7.0
55209,-0.846,0.428,-0.526,-12.351,-27.450,-20.252,54.0,8.0
55250,-0.810,0.412,-0.407,-18.710,-35.466,-5.511,55.0,6.0
55291,-0.796,0.405,-0.346,-15.527,-28.282,-14.947,55.0,5.0
55332,-0.805,0.430,-0.325,-11.794,-24.366,-25.168,55.0,6.0
55373,-0.829,0.397,-0.325,-6.710,-26.542,-29.382,56.0,5.0
55414,-0.876,0.370,-0.320,-6.122,-27.756,-29.962,56.0,4.0
55455,-0.891,0.352,-0.316,-6.603,-28.763,-21.969,57.0,5.0
55496,-0.897,0.341,-0.289,-9.160,-26.641,-15.198,57.0,4.0
55537,-0.905,0.338,-0.249,-7.328,-20.527,-11.771,58.0,4.0
55581,-0.895,0.327,-0.249,-3.527,-16.405,-10.779,58.0,4.0
55622,-0.884,0.323,-0.245,-1.305,-18.611,-12.107,59.0,3.0
55663,-0.869,0.293,-0.243,-3.893,-22.252,-18.443,59.0,3.0
55704,-0.892,0.282,-0.227,-6.198,-26.458,-23.115,59.0,3.0
55745,-0.899,0.265,-0.215,-9.053,-31.153,-27.229,58.0,3.0
55786,-0.926,0.269,-0.169,-10.908,-31.588,-32.237,57.0,2.0
55827,-0.929,0.232,-0.146,-10.840,-30.969,-34.405,56.0,2.0
55868,-1.116,0.208,-0.192,-10.809,-20.595,-38.153,56.0,2.0
55912,-0.993,0.152,-0.067,5.489,-13.244,-26.992,56.0,2.0
55995,-0.984,0.142,-0.158,7.725,0.130,-2.176,50.0,2.0
56036,-0.969,0.136,-0.149,-1.336,-5.985,1.046,50.0,2.0
56077,-0.956,0.141,-0.121,-1.870,-11.069,0.046,56.0,2.0
56117,-0.947,0.134,-0.109,-0.885,-9.702,-4.634,51.0,2.0
56158,-0.953,0.133,-0.122,1.000,-12.015,-6.053,51.0,2.0
56199,-0.967,0.140,-0.126,-3.137,-15.374,-10.893,50.0,3.0
56239,-0.957,0.108,-0.107,-6.298,-17.847,-13.115,51.0,4.0
56280,-0.979,0.093,-0.097,-11.824,-26.931,-15.893,49.0,2.0
56324,-0.955,0.070,-0.056,-16.870,-33.160,-19.000,49.0,2.0
56364,-0.965,0.020,0.030,-3.687,-30.176,-11.168,50.0,3.0
56404,-0.980,0.100,-0.038,-4.702,-6.290,-6.901,49.0,5.0
56445,-0.966,0.054,-0.015,1.084,-2.130,5.244,49.0,5.0
56485,-0.970,0.053,-0.035,1.420,1.160,2.267,49.0,4.0
56526,-0.973,0.060,-0.036,0.580,-2.611,2.008,49.0,4.0
56566,-0.978,0.057,-0.026,-0.687,-5.641,2.321,49.0,4.0
56607,-0.969,0.051,-0.025,-0.939,-4.725,1.824,49.0,4.0
56648,-0.971,0.051,-0.023,-1.099,-3.672,1.542,49.0,4.0
56691,-0.974,0.053,-0.023,-1.046,-3.656,2.405,49.0,3.0
56732,-0.966,0.058,-0.016,-0.954,-5.000,2.038,48.0,3.0
56773,-0.967,0.055,-0.030,-2.672,-4.802,-0.351,49.0,3.0
56813,-0.986,0.045,-0.021,-3.588,-9.626,-0.290,49.0,3.0
56854,-0.965,0.040,0.004,-3.206,-9.519,-0.290,49.0,3.0
56895,-0.974,0.041,0.001,-2.000,-6.153,0.618,49.0,2.0
56935,-0.967,0.040,0.005,-0.824,-3.427,2.290,49.0,2.0
56976,-0.973,0.041,0.001,0.137,-1.557,3.191,49.0,2.0
57016,-0.971,0.038,-0.010,-0.481,-2.305,2.695,49.0,2.0
57057,-0.969,0.044,-0.007,-1.786,-3.626,1.450,49.0,2.0
57100,-0.978,0.039,-0.009,-2.695,-6.481,1.153,49.0,3.0
57141,-0.971,0.033,0.003,-2.145,-7.977,-0.267,49.0,3.0
57182,-0.985,0.027,-0.004,-2.947,-6.916,1.160,49.0,3.0
57223,-0.961,0.035,0.008,-1.359,-8.328,0.687,49.0,4.0
57263,-0.975,0.032,0.009,-2.084,-10.298,-1.664,49.0,2.0
57304,-0.972,0.026,0.023,-2.267,-11.527,-0.710,49.0,2.0
57345,-0.984,0.038,0.014,-8.458,-20.618,-6.435,50.0,2.0
57384,-1.007,-0.001,0.047,-6.145,-33.061,-2.443,48.0,2.0
57425,-0.967,0.008,0.069,-5.969,-31.542,1.046,48.0,2.0
57469,-0.963,0.004,0.099,-5.496,-24.656,1.473,47.0,3.0
57510,-0.959,0.003,0.108,-2.534,-21.649,0.473,46.0,6.0
57550,-0.961,0.009,0.114,-2.687,-18.405,0.672,46.0,6.0
57591,-0.969,0.006,0.126,-3.656,-18.496,1.282,46.0,10.0
57632,-0.969,0.009,0.141,-3.931,-21.733,0.725,46.0,11.0
57674,-0.969,0.009,0.149,-6.122,-27.275,-0.519,47.0,11.0
57715,-0.974,-0.001,0.178,-8.679,-32.878,-1.931,48.0,11.0
57756,-0.954,-0.004,0.186,-8.092,-39.954,-1.824,48.0,4.0
57797,-0.949,-0.013,0.223,-6.809,-40.641,0.786,48.0,3.0
57841,-0.948,0.004,0.263,-8.344,-31.244,1.985,48.0,3.0
57881,-0.907,-0.049,0.276,-6.214,-24.618,3.145,47.0,3.0
57922,-0.928,-0.044,0.305,-5.351,-21.336,2.641,47.0,3.0
57963,-0.912,-0.025,0.297,-3.252,-17.542,2.504,48.0,3.0
58002,-0.909,-0.016,0.306,-2.649,-12.115,2.412,21.0,3.0
58085,-0.921,-0.020,0.310,-1.000,-7.618,3.046,22.0,3.0
58124,-0.917,-0.024,0.313,-1.366,-7.420,3.015,22.0,3.0
58165,-0.918,-0.025,0.320,-1.595,-7.534,2.908,48.0,3.0
58206,-0.917,-0.028,0.330,-3.191,-7.198,2.802,48.0,3.0
58249,-0.913,-0.016,0.333,-3.107,-9.802,3.244,21.0,3.0
58288,-0.914,-0.019,0.335,-3.771,-11.305,3.183,21.0,3.0
58329,-0.907,-0.023,0.354,-4.000,-12.947,3.275,48.0,3.0
58368,-0.906,-0.031,0.349,-3.565,-13.527,2.969,23.0,3.0
58408,-0.901,-0.043,0.363,-3.069,-13.718,2.916,48.0,4.0
58449,-0.902,-0.042,0.367,-2.618,-9.962,2.802,50.0,3.0
58489,-0.899,-0.018,0.372,-2.992,-5.084,3.725,20.0,3.0
58528,-0.899,-0.039,0.376,-1.992,-5.870,3.679,20.0,3.0
58570,-0.893,-0.032,0.364,-1.969,-6.534,2.908,56.0,3.0
58614,-0.901,-0.029,0.372,-1.962,-7.008,2.908,56.0,3.0
58655,-0.895,-0.025,0.371,-2.351,-6.458,3.282,50.0,3.0
58696,-0.887,-0.014,0.364,-2.672,-6.244,3.733,50.0,3.0
58738,-0.895,-0.051,0.383,-3.893,-7.321,4.809,50.0,3.0
58779,-0.885,-0.049,0.388,-3.702,-7.641,4.817,50.0,3.0
58820,-0.895,-0.036,0.387,0.405,0.076,3.634,50.0,3.0
58861,-0.903,-0.028,0.386,0.733,-3.458,2.420,50.0,3.0
58902,-0.894,-0.093,0.432,-6.321,-8.931,3.687,50.0,3.0
58943,-0.888,-0.032,0.389,0.115,0.489,5.473,50.0,3.0
58987,-0.849,-0.029,0.322,-0.267,10.954,7.450,50.0,3.0
59029,-0.923,-0.024,0.358,-0.466,7.954,4.198,57.0,3.0
59070,-0.895,-0.001,0.366,-6.397,2.038,5.221,57.0,3.0
59112,-0.919,-0.031,0.354,-0.069,-4.977,3.092,57.0,3.0
59153,-0.900,0.013,0.218,-5.206,8.740,4.405,51.0,3.0
59194,-0.954,-0.054,0.414,-11.603,-3.550,7.206,51.0,3.0
59235,-0.861,-0.039,0.424,-2.031,-16.656,4.641,49.0,3.0
59281,-0.913,-0.028,0.369,-0.107,2.168,5.206,49.0,3.0
59321,-0.898,-0.034,0.351,0.374,5.580,6.794,51.0,3.0
59364,-0.897,0.012,0.372,-8.206,15.489,5.718,50.0,4.0
59405,-0.879,0.004,0.377,-15.244,5.450,8.435,50.0,4.0
59445,-0.952,-0.024,0.333,0.786,-7.786,1.221,50.0,4.0
59485,-0.896,-0.018,0.369,1.672,-14.748,-0.779,50.0,4.0
59525,-0.870,-0.026,0.377,1.725,-0.756,1.145,50.0,4.0
59565,-0.932,-0.031,0.329,10.366,4.405,0.756,50.0,4.0
59604,-0.900,-0.024,0.361,-0.496,5.298,4.649,50.0,4.0
59645,-0.902,-0.031,0.357,-4.527,2.611,5.221,50.0,3.0
59685,-0.952,-0.019,0.331,-0.863,-6.573,3.275,50.0,3.0
59725,-0.879,-0.008,0.363,-6.237,-16.153,4.779,50.0,4.0
59768,-0.890,-0.038,0.342,-0.427,-4.076,0.809,50.0,4.0
59808,-0.882,-0.028,0.369,2.901,5.924,7.832,50.0,4.0
59849,-0.941,-0.057,0.352,7.771,14.511,2.168,50.0,3.0
59889,-0.922,-0.011,0.329,-0.053,5.000,2.863,50.0,3.0
59929,-0.913,-0.011,0.343,-4.931,-10.382,1.557,51.0,3.0
59969,-0.924,-0.030,0.335,-2.198,-21.122,2.244,50.0,4.0
60010,-0.875,-0.033,0.351,-2.870,-19.794,2.840,50.0,4.0
60050,-0.878,-0.029,0.368,-0.618,-12.198,0.366,49.0,3.0
60090,-0.867,-0.031,0.385,-0.733,-1.450,0.420,49.0,3.0
60177,-0.918,-0.017,0.359,4.183,11.740,4.870,50.0,3.0
60217,-0.944,-0.023,0.327,1.664,3.542,2.061,50.0,3.0
60257,-0.922,0.032,0.370,-5.076,-16.725,1.954,50.0,4.0
60298,-0.899,-0.091,0.335,-6.916,-17.374,1.771,50.0,4.0
60338,-0.876,-0.041,0.370,3.130,-6.107,2.366,50.0,4.0
60378,-0.891,-0.021,0.379,2.389,0.038,0.489,50.0,4.0
60419,-0.905,-0.045,0.370,-0.321,2.557,4.763,50.0,4.0
60459,-0.919,-0.029,0.351,-0.267,-0.290,4.847,50.0,4.0
60498,-0.928,-0.025,0.349,-0.740,-11.527,3.046,50.0,4.0
60542,-0.895,-0.034,0.371,-2.313,-12.985,2.405,50.0,3.0
60582,-0.878,-0.028,0.385,-0.275,-7.145,3.893,51.0,3.0
60623,-0.869,-0.035,0.371,1.794,11.748,4.931,51.0,4.0
60663,-0.908,-0.035,0.357,13.282,9.328,2.885,50.0,4.0
60703,-0.916,-0.013,0.354,-0.504,3.977,3.679,50.0,4.0
60744,-0.921,-0.015,0.361,-4.015,-7.496,2.427,50.0,4.0
60784,-0.904,-0.044,0.344,-7.863,-6.779,3.580,50.0,4.0
60825,-0.899,-0.040,0.335,1.977,-1.885,3.015,50.0,4.0
60865,-0.906,-0.017,0.366,1.511,-7.321,0.290,50.0,4.0
60909,-0.902,-0.031,0.342,0.710,-2.015,1.145,50.0,4.0
60949,-0.905,-0.026,0.354,-0.221,-5.183,5.580,50.0,4.0
60989,-0.905,-0.022,0.363,-0.550,-5.725,2.916,50.0,4.0
61030,-0.891,-0.022,0.375,-1.878,-9.534,2.290,57.0,3.0
61071,-0.898,-0.025,0.378,0.206,-4.969,2.595,51.0,3.0
61111,-0.910,-0.026,0.356,-0.527,-8.664,4.305,51.0,3.0
61152,-0.892,0.001,0.395,-3.954,-10.481,1.450,51.0,3.0
61192,-0.881,-0.049,0.358,-1.405,4.366,3.962,51.0,3.0
61233,-0.904,-0.031,0.359,4.962,11.214,5.649,51.0,4.0
61277,-0.903,-0.015,0.380,1.031,3.748,1.817,57.0,4.0
61317,-0.917,-0.031,0.351,-0.489,-1.176,2.519,50.0,4.0
61358,-0.911,-0.030,0.347,-0.695,-4.550,5.366,50.0,4.0
61399,-0.907,-0.014,0.353,-0.473,-8.122,3.542,57.0,4.0
61438,-0.893,-0.013,0.388,-4.107,-10.458,2.061,51.0,3.0
61480,-0.897,-0.038,0.347,-0.756,-1.099,3.794,59.0,3.0
61520,-0.917,-0.029,0.360,0.679,3.366,4.237,51.0,4.0
61561,-0.904,-0.015,0.368,0.076,-0.107,3.473,50.0,4.0
61601,-0.888,-0.023,0.380,-2.458,-4.115,5.206,50.0,4.0
61642,-0.885,-0.027,0.368,0.504,8.305,3.076,50.0,4.0
61686,-0.915,-0.017,0.331,5.511,10.183,4.153,50.0,4.0
61726,-0.913,-0.006,0.359,0.641,7.733,-0.847,51.0,3.0
61767,-0.900,-0.032,0.331,-0.206,8.969,3.305,51.0,3.0
61815,-0.925,-0.022,0.321,7.099,8.649,4.344,48.0,3.0
61855,-0.921,0.083,0.253,0.053,3.641,5.557,47.0,3.0
61895,-0.918,-0.048,0.329,-13.023,1.206,7.191,48.0,3.0
61935,-0.923,-0.030,0.307,0.565,-11.458,0.252,48.0,3.0
61974,-0.922,-0.010,0.329,1.176,-14.573,2.412,21.0,4.0
62012,-0.880,-0.015,0.354,-2.588,-6.366,3.214,21.0,3.0
62053,-0.901,-0.038,0.324,1.687,10.687,2.443,21.0,3.0
62094,-0.924,-0.029,0.302,7.573,11.626,6.405,48.0,3.0
62134,-0.931,-0.001,0.307,0.313,10.359,4.053,48.0,3.0
62174,-0.924,-0.039,0.290,-1.282,8.153,2.435,48.0,3.0
62255,-0.945,0.002,0.270,0.870,-5.786,4.679,22.0,3.0
62295,-0.918,0.151,0.249,-17.939,16.069,16.985,49.0,3.0
62334,-0.945,-0.208,0.385,-21.954,-4.427,7.137,47.0,3.0
62374,-0.925,-0.091,0.336,15.794,-16.191,-4.031,49.0,3.0
62415,-0.926,0.121,0.223,20.122,-16.405,-4.076,49.0,3.0
62458,-0.884,0.103,0.228,-13.649,12.847,7.626,49.0,3.0
62498,-0.935,-0.263,0.353,-13.802,8.756,6.084,47.0,3.0
62538,-0.960,-0.126,0.350,12.939,-6.565,1.260,47.0,3.0
62578,-0.978,0.117,0.246,5.595,-12.481,0.870,49.0,3.0
62618,-0.988,0.185,0.321,-31.076,12.351,18.649,47.0,3.0
62657,-0.936,-0.243,0.398,-24.534,-19.901,4.069,20.0,3.0
62697,-0.924,-0.097,0.353,13.137,-33.000,-4.641,50.0,3.0
62737,-0.899,0.146,0.294,7.023,-23.962,-1.084,51.0,3.0
62778,-0.884,0.063,0.363,-17.023,12.534,10.084,49.0,3.0
62821,-0.891,-0.048,0.325,-1.443,10.817,9.443,50.0,3.0
62861,-0.932,-0.047,0.309,15.374,11.092,0.244,50.0,3.0
62900,-0.942,0.041,0.305,2.160,10.443,6.809,21.0,3.0
62939,-0.928,-0.032,0.349,-14.672,13.176,7.939,20.0,3.0
62977,-0.950,-0.052,0.298,5.267,-1.809,0.618,20.0,3.0
63015,-0.950,0.122,0.238,6.000,-12.878,6.962,20.0,3.0
63055,-0.935,0.094,0.459,-20.466,18.351,12.321,48.0,3.0
63096,-0.917,-0.045,0.297,3.687,-6.947,-0.656,48.0,3.0
63136,-0.955,-0.019,0.229,22.214,-25.557,-10.275,50.0,3.0
63179,-0.919,0.100,0.198,-13.053,-0.527,6.092,48.0,3.0
63220,-0.933,-0.197,0.360,-12.580,-0.771,2.847,48.0,3.0
63260,-0.927,-0.073,0.312,10.847,-4.611,0.420,48.0,3.0
63300,-0.963,0.054,0.256,1.374,-10.496,4.344,48.0,3.0
63341,-0.942,0.122,0.353,-39.916,15.802,18.046,48.0,3.0
63381,-0.939,-0.150,0.417,-24.618,-30.695,5.168,49.0,3.0
63421,-0.927,-0.203,0.330,18.550,-30.099,-9.481,48.0,3.0
63460,-0.899,0.155,0.312,19.267,-18.809,-6.313,20.0,3.0
63501,-0.871,0.155,0.349,-19.252,7.550,7.687,47.0,3.0
63544,-0.902,-0.073,0.285,-1.244,11.336,8.450,48.0,3.0
63584,-0.968,-0.041,0.284,16.038,6.344,5.153,48.0,3.0
63624,-0.873,0.256,-0.029,-8.160,23.679,5.763,48.0,3.0
63663,-0.961,-0.222,0.454,-40.328,-11.160,7.725,20.0,3.0
63704,-0.875,-0.057,0.335,3.328,-28.099,3.137,48.0,3.0
63744,-0.927,-0.007,0.282,17.718,-29.061,-4.427,50.0,3.0
63783,-0.797,0.102,0.345,-17.099,0.160,3.176,47.0,3.0
63824,-0.881,-0.026,0.354,0.779,18.382,5.649,48.0,3.0
63864,-0.934,-0.072,0.303,25.282,15.733,2.321,48.0,3.0
63907,-0.923,0.031,0.302,-2.328,22.160,5.053,48.0,3.0
63948,-0.959,-0.038,0.267,0.344,15.031,-1.427,49.0,3.0
63988,-0.963,0.020,0.238,7.145,-12.176,3.870,49.0,3.0
64027,-0.930,0.082,0.253,-12.031,-28.756,0.168,20.0,3.0
64066,-0.892,-0.094,0.302,-4.282,-29.092,-2.344,21.0,3.0
64107,-0.899,-0.020,0.329,4.061,-14.725,0.863,48.0,3.0
64147,-0.853,0.054,0.340,-1.962,6.786,6.092,48.0,3.0
64187,-0.875,-0.035,0.327,2.763,26.313,5.305,48.0,3.0
64226,-0.913,-0.031,0.312,11.672,38.878,6.504,20.0,3.0
64310,-0.958,0.003,0.238,11.382,24.313,4.763,47.0,3.0
64353,-0.978,0.017,0.190,2.183,9.229,5.985,47.0,3.0
64394,-0.949,-0.012,0.225,-4.817,4.206,4.198,47.0,3.0
64434,-0.954,-0.068,0.237,7.244,-6.153,4.534,47.0,3.0
64473,-0.877,0.030,0.283,12.565,5.756,0.191,20.0,3.0
64513,-0.935,-0.043,0.250,18.595,15.702,-1.107,48.0,3.0
64553,-0.945,0.038,0.240,22.588,31.641,5.496,48.0,3.0
64593,-0.962,-0.132,0.347,31.695,26.634,12.809,47.0,3.0
64634,-0.947,0.033,0.183,33.344,43.878,18.153,47.0,2.0
64674,-0.914,0.051,0.144,34.756,31.321,11.802,49.0,2.0
64718,-0.967,0.067,0.036,31.405,31.794,7.137,47.0,2.0
64758,-1.025,0.106,0.020,26.290,43.290,15.176,48.0,2.0
64799,-0.999,0.066,-0.029,20.916,33.771,20.687,49.0,2.0
64840,-1.025,0.104,-0.079,15.985,35.855,29.527,49.0,9.0
64881,-1.020,0.157,-0.053,11.626,25.420,40.435,49.0,2.0
64921,-0.989,0.137,-0.068,5.779,17.466,33.527,50.0,2.0
64962,-0.970,0.166,-0.098,5.901,15.802,25.237,51.0,2.0
65003,-1.024,0.181,-0.067,3.092,6.412,28.061,50.0,2.0
65044,-0.984,0.164,-0.094,2.397,-4.626,29.069,55.0,2.0
65088,-0.963,0.216,-0.114,-2.038,-4.496,29.366,56.0,3.0
65129,-0.902,0.227,-0.180,-3.687,11.229,31.397,57.0,3.0
65170,-0.958,0.243,-0.176,-9.427,32.191,33.809,56.0,4.0
65212,-1.021,0.277,-0.173,-12.947,38.214,42.145,61.0,4.0
65253,-1.131,0.277,-0.173,-21.145,23.809,50.092,57.0,5.0
65303,-1.143,0.269,-0.220,-26.718,19.901,71.641,0.0,7.0
65352,-1.110,0.282,-0.216,-24.855,-3.313,96.740,0.0,11.0
65394,-1.044,0.372,-0.318,-31.855,19.519,120.641,53.0,12.0
65446,-1.063,0.576,-0.303,-49.336,39.809,143.015,0.0,49.0
65506,-0.806,0.663,-0.316,-64.351,18.321,170.527,0.0,120.0
65558,-0.580,0.736,-0.285,-71.389,13.198,159.160,0.0,55.0
65614,-0.400,0.938,-0.163,-73.695,19.061,119.321,0.0,55.0
65667,-0.304,1.032,0.086,-97.496,14.374,105.985,183.0,62.0
65714,-0.299,0.692,0.297,-88.397,-12.847,101.099,98.0,53.0
65759,-0.166,0.497,0.296,-55.466,-41.031,91.298,74.0,55.0
65804,0.023,0.624,0.331,-31.107,-35.748,72.748,68.0,58.0
65849,0.125,0.686,0.319,-14.695,-13.405,63.321,67.0,59.0
65899,0.129,0.797,0.299,-4.344,4.679,50.687,94.0,60.0
65943,0.081,0.868,0.327,-1.924,-1.015,38.191,50.0,61.0
65990,0.069,0.961,0.275,-0.985,-11.183,28.107,93.0,62.0
66036,0.080,0.997,0.214,-0.183,-11.328,29.000,91.0,62.0
66083,0.066,1.037,0.235,0.687,-3.870,32.489,91.0,62.0
66128,0.070,1.036,0.227,2.595,-3.183,36.809,90.0,53.0
66174,0.063,1.070,0.164,2.740,-9.115,38.611,90.0,53.0
66221,0.068,1.272,0.035,3.794,-0.962,39.977,89.0,53.0
66271,0.056,1.407,-0.057,4.794,15.847,42.282,155.0,55.0
66318,0.077,1.451,-0.004,-8.366,52.160,51.824,97.0,57.0
66364,0.004,1.000,0.274,-67.641,26.573,64.305,36.0,59.0
66416,0.122,0.662,0.304,-77.809,-29.550,43.763,156.0,89.0
66461,0.302,0.551,0.229,-70.069,-28.855,38.733,28.0,90.0
66512,0.328,0.607,0.413,-53.267,-34.733,57.145,136.0,96.0
66608,0.553,0.447,0.437,-24.618,-83.550,42.115,139.0,107.0
66660,0.693,0.559,0.317,-17.336,-63.527,40.565,139.0,108.0
66717,0.735,0.762,0.313,-27.580,-38.092,21.740,131.0,0.0
66776,0.774,0.781,0.379,-40.855,-17.565,-2.290,155.0,0.0
66823,0.648,0.709,0.456,-32.122,23.153,-16.969,139.0,0.0
66880,0.524,0.675,0.538,-14.473,26.000,-15.580,138.0,0.0
66937,0.441,0.657,0.504,1.053,9.107,-0.679,130.0,0.0
66980,0.481,0.609,0.497,1.939,-16.031,5.038,131.0,0.0
67039,0.552,0.649,0.470,4.962,-20.191,3.382,149.0,0.0
67095,0.619,0.569,0.536,3.756,-26.710,-4.458,129.0,0.0
67139,0.778,0.562,0.711,17.885,-37.038,-24.198,131.0,0.0
67196,0.706,0.857,0.696,33.206,-34.153,-27.160,141.0,0.0
67241,0.605,0.687,0.644,60.000,-46.000,-57.725,20.0,106.0
67297,0.445,0.859,0.511,81.008,-43.107,-72.710,135.0,106.0
67351,0.363,0.694,0.142,104.519,-27.626,-81.374,161.0,107.0
67405,0.224,0.748,-0.093,102.237,14.672,-55.473,133.0,144.0
67454,0.097,0.758,-0.266,89.824,28.267,-19.588,136.0,61.0
67510,0.139,0.913,-0.292,65.351,0.191,7.649,137.0,58.0
67558,0.281,0.982,-0.429,44.198,-16.939,5.214,143.0,59.0
67606,0.411,1.024,-0.477,18.695,-5.237,-1.466,144.0,37.0
67651,0.396,1.056,-0.331,-0.817,25.389,-13.031,110.0,35.0
67696,0.270,1.038,-0.192,-9.137,36.481,-21.015,108.0,34.0
67752,0.203,0.958,-0.116,-9.176,27.840,-20.252,109.0,36.0
67802,0.158,0.975,-0.042,-2.901,18.351,-17.206,110.0,55.0
67851,0.143,0.970,-0.082,-1.557,4.374,-11.695,111.0,55.0
67900,0.202,1.047,-0.129,-3.802,3.336,-8.779,111.0,55.0
67949,0.183,1.111,-0.115,-5.939,19.076,-12.015,111.0,54.0
67998,0.155,1.108,0.010,-12.275,10.435,-7.267,111.0,54.0
68047,0.214,0.916,0.148,-9.710,-12.527,-4.840,111.0,54.0
68096,0.340,0.573,0.252,-0.573,-44.679,6.252,112.0,54.0
68145,0.364,0.633,0.107,29.321,-28.504,8.092,113.0,54.0
68196,0.254,0.748,0.024,55.901,-1.282,0.824,115.0,30.0
68239,0.166,1.001,-0.194,66.969,13.878,2.183,37.0,29.0
68283,0.036,1.066,-0.259,43.191,-21.038,9.229,42.0,25.0
68326,-0.076,1.038,-0.277,13.679,-66.725,-13.130,44.0,23.0
68370,0.056,1.091,-0.329,-38.344,-115.450,-25.382,47.0,22.0
68413,0.166,1.250,-0.521,-40.740,-65.580,-48.916,49.0,21.0
68457,0.196,1.154,-0.342,-43.366,19.130,-41.916,50.0,21.0
68501,-0.002,1.145,-0.280,-18.344,48.687,-23.450,52.0,20.0
68545,-0.057,1.002,-0.072,-1.145,27.626,-9.794,54.0,21.0
68592,-0.126,0.917,-0.140,22.099,-35.130,-16.359,56.0,29.0
68636,-0.085,0.870,-0.188,36.328,-91.496,-15.679,55.0,20.0
68680,0.077,0.901,-0.333,27.397,-92.847,-10.664,55.0,18.0
68724,0.181,0.967,-0.386,14.397,-27.275,-2.099,55.0,18.0
68768,0.051,1.049,-0.179,-2.504,28.305,7.580,56.0,18.0
68812,-0.091,1.838,-0.227,3.038,56.374,33.122,57.0,18.0
68856,-0.082,0.815,-0.119,16.763,37.038,49.458,62.0,17.0
68900,-0.191,0.751,-0.001,14.489,-28.336,37.198,62.0,18.0
68948,0.019,1.011,-0.309,42.550,-66.458,12.977,62.0,19.0
68993,0.032,0.852,-0.346,69.290,-52.443,1.763,62.0,20.0
