Timestamp(ms),AccelX(g),AccelY(g),AccelZ(g),GyroX(deg/s),GyroY(deg/s),GyroZ(deg/s),DistanceLeft(cm),DistanceRight(cm)
33253,-0.039,-0.92,0.406,-4.061,-7.832,2.107,151,0
33311,-0.001,-0.901,0.365,-4.618,-12.336,2.786,152,167
33372,-0.134,-0.91,0.489,-7.458,-18.336,8.237,152,0
33431,-0.135,-0.848,0.539,1.74,-46.176,17.847,151,166
33489,-0.102,-0.681,0.48,17.618,-6.656,27.878,151,167
33548,-0.414,-0.917,0.59,23.489,-14.282,35.214,149,167
33606,-0.402,-1.011,0.49,29.779,-10.634,51.412,147,163
33668,-0.41,-0.659,0.605,30.336,48.718,80.115,146,166
33726,-0.522,-0.56,0.897,40.656,19.389,89.519,143,172
33785,-0.526,-0.457,1.07,82.74,25.084,126.176,131,0
33845,-1.114,-0.752,0.979,90.985,73.107,183.664,133,0
33899,-1.612,-1.059,0.801,73.145,-9.305,224.145,39,0
33952,-0.532,-0.547,0.009,42.901,-91.13,178.45,32,0
34006,0.04,-0.478,-0.503,-25.939,-26.481,46.198,28,0
34060,0.125,-0.439,-0.329,-101.595,56.336,-73.046,30,0
34113,-0.137,-1.237,0.166,-144.802,107.847,-155.679,28,0
34170,-1.575,-2,0.751,-34.672,211.924,-188.893,36,0
34225,-2,-1.339,1.099,85.511,201.55,-94.748,41,0
34279,-1.583,0.233,0.762,78.779,-31.321,-58.557,40,0
34332,-0.359,1.231,0.057,58.397,-43.412,-9.099,38,0
34387,-0.028,1.249,0.096,23.473,27.122,52.565,45,0
34451,-0.754,1.113,0.711,-6.168,12.725,166.794,0,0
34499,-2,0.278,0.507,-55.603,43.366,246.992,38,105
34547,-2,-0.427,0.662,-101.008,-82,250.13,36,102
34598,-2,-1.115,0.108,-138.893,-153.832,250.13,31,107
34648,-1.171,-1.125,-0.646,-136.794,-149.756,169.931,29,115
34696,-0.031,-0.475,-0.684,-142.977,-19.977,79.344,16,122
34745,0.218,-0.78,-0.615,-115.252,57.351,12.573,27,122
34794,0.256,-1.038,-0.155,-47.321,103.435,-59.137,23,120
34842,0.049,-1.372,0.315,25.489,93.519,-130.855,25,114
34899,-1.492,-1.703,-0.271,141.786,164.802,-250.137,187,107
34949,-2,-1.031,-0.289,178.221,250.13,-172.817,44,106
35012,-2,0.131,0.615,170.145,57.145,-127.718,188,0
35079,-0.666,1.35,-0.154,105.389,-106.252,-78.687,200,0
35142,-0.297,1.718,0.605,29.153,25.412,86.779,0,0
35191,-0.978,0.654,0.889,-19.16,-119.802,244.542,44,112
35240,-2,-0.017,0.322,-63.305,-20.885,191.786,42,108
35290,-2,-0.988,0.267,-125.198,-63.527,216.863,36,108
35338,-1.83,-1.152,-0.309,-95.71,-225.397,127.198,29,116
35387,-0.347,-0.822,-0.442,-72.237,-62.87,25.962,28,122
35437,-0.073,-0.717,-0.095,-51.931,69.389,-12.702,36,123
35489,-0.021,-0.673,0.147,9.603,-21.534,-59.847,30,124
35539,0.451,-0.675,-0.237,25.221,-56.534,-149.267,36,122
35600,0.012,-1.022,0.155,-6.611,24.924,-250.137,155,0
35655,-1.386,-1.657,0.008,24.588,250.13,-250.137,51,0
35719,-2,-1.315,0.595,90.947,250.13,-248.412,0,0
35782,-1.021,0.249,-0.071,57.672,26.107,-236.656,0,0
35846,-1.192,0.309,0.358,-22.947,64.695,-145.076,200,0
35908,-1.335,0.219,0.716,-51.634,16.779,21.55,185,0
35975,-1.902,-2,0.348,-52.908,-113.618,86.916,0,0
36080,-0.371,-2,-0.801,-17.794,-236.382,95.038,180,0
36141,0.187,-0.779,-0.356,-13.237,-140.382,-6.634,139,0
36200,0.902,-0.302,-0.826,7.725,-158.443,-53.176,126,0
36260,0.925,-0.307,-0.862,-24.405,36.046,-89.122,140,0
36324,0.395,-1.138,-0.49,-46.55,203.588,-132.786,0,0
36387,-1.169,-2,0.111,-59.275,250.13,-159.824,0,0
36451,-1.038,-1.59,0.301,-20.405,132.954,-54.443,0,0
36514,-0.81,-0.224,0.377,24.267,113.74,-8.641,0,0
36581,-1.203,0.67,0.647,16.321,144.267,25.58,0,0
36644,-1.315,0.481,1.052,2.313,-3.84,156.191,0,0
36708,-2,-2,0.368,-53.008,-120.183,121.031,0,0
36771,-1.023,-2,-0.721,-49.168,-250.137,119.397,0,0
36829,0.272,-1.589,-0.885,9.908,-172.137,30.053,131,154
36888,0.358,-0.486,-0.486,-38.824,-126.939,-38.366,127,0
36953,0.758,-0.134,-0.79,-4.092,-86.031,-44.847,0,0
37016,0.656,-0.277,-0.766,-31.145,78.298,-64.427,0,0
37080,0.139,-2,-0.657,-62.305,211.305,-154.42,0,0
37146,-1.079,-2,0.106,-89.206,210.802,-111.672,0,0
37211,-1.034,-1.068,0.245,-18.42,121.504,-18.267,0,0
37274,-0.829,0.155,0.433,21.023,109.702,26.458,0,0
37338,-1.16,0.823,1.128,10.748,93.023,44.145,0,0
37401,-1.363,-0.057,0.966,-20.641,-61.641,153.45,0,0
37465,-1.887,-2,-0.097,-53.504,-188.29,110.206,0,0
37529,-0.69,-2,-0.995,19.427,-250.137,137.634,0,0
37593,0.122,-1.193,-0.824,21.603,-132.733,42.389,0,0
37659,0.571,-0.382,-0.531,0.595,-182.275,-23.137,0,0
37723,1.165,-0.097,-1.197,-11.664,-62.42,-84.405,0,0
37787,0.568,-0.906,-0.795,-66.435,169.275,-132.763,0,0
37851,-0.994,-2,-0.012,-134.206,250.13,-214.893,0,0
37914,-1.512,-1.97,0.516,-52.679,214.42,-17.885,0,0
37979,-1.045,-0.125,0.339,42.076,183.313,73.771,0,0
38042,-1.44,0.601,0.715,61.603,164.511,152.282,0,0
38106,-1.778,1.188,0.974,-7.099,-34.427,250.13,0,0
38161,-2,-0.641,-0.419,-114.336,-103.55,250.13,58,0
38222,-2,-1.785,-0.975,-250.137,-186.626,250.13,194,101
38272,-1.793,-2,-0.978,-202.786,-250.137,236.947,35,110
38322,-0.199,-1.077,-0.76,-110.802,-164.58,132.282,30,120
38371,0.258,-0.612,-0.491,-88.893,-38.252,70.84,25,127
38421,0.377,-0.966,-0.582,-51.42,-18.282,57.122,28,129
38474,0.384,-1.056,-0.42,0.198,48.679,-38.885,23,0
38524,-0.415,-1.476,0.105,50.191,79.229,-167.092,37,119
38582,-2,-0.928,-0.496,159.908,250.13,-250.137,181,111
38643,-2,-0.053,0.71,190.359,250.13,-108.397,184,111
38702,-1.376,0.695,-0.068,154.931,-194.603,-81.061,180,117
38760,0.048,1.455,-0.353,75.962,17.344,-7.702,176,121
38817,-0.341,1.558,0.803,-13.122,41.267,123.359,177,117
38867,-0.899,0.908,0.562,-88.427,-93.634,234.718,38,112
38917,-2,0.353,-0.358,-142.763,49.305,154.695,42,108
38966,-2,-0.586,0.043,-239.702,20.275,147.374,43,109
39024,-2,-0.773,-0.33,-203.221,-250.137,98.511,179,117
39117,-0.038,-0.62,-0.356,-108.031,69.84,32.496,38,126
39172,0.212,-1.153,-0.347,-20.527,-10.397,-28.382,37,127
39222,0.396,-1.148,-0.302,46.397,10.061,-130.313,35,123
39271,-1.054,-1.741,-0.496,131.214,119.275,-219.931,36,116
39321,-2,-0.813,-0.925,197.664,250.13,-185.824,43,110
39379,-2,0.022,0.99,193.42,142.908,-64.695,184,112
39430,-0.874,0.678,-0.146,150.038,-140.489,-72.718,45,118
39480,-0.124,0.863,-0.198,100.405,33.115,-7.351,40,120
39530,-0.306,1.454,0.371,43.511,53.672,40.534,39,119
39583,-0.478,1.137,0.673,-45.611,-68.779,130.321,42,116
39632,-1.252,0.913,0.125,-129.573,-37.588,194.886,39,111
39683,-2,-0.164,0.174,-199.794,102.29,138.611,40,107
39732,-2,-0.689,0.284,-222.794,-168.687,129.282,41,111
39782,-1.134,-0.944,-0.935,-131.71,-249.672,87.832,38,120
39832,0.23,-0.538,-0.688,-92.886,-12.351,68.244,31,126
39883,0.214,-1.024,-0.294,-54.481,25.511,22.244,36,128
39933,0.445,-1.103,-0.367,27.542,-27.511,-85.26,36,126
39987,-0.092,-1.136,-0.209,67.74,59.786,-196.252,37,119
40036,-2,-0.958,-0.485,135.962,250.13,-250.137,41,113
40094,-2,-0.532,0.375,165.832,250.13,-101.405,184,110
40144,-1.679,0.405,0.373,163.351,-63.26,-85.16,45,115
40200,-0.349,0.778,-0.145,116.618,-63.206,-61.55,43,0
40258,-0.284,1.536,0.106,29.023,82.718,-4.458,182,119
40316,-0.973,1.149,1.064,-65.198,-50.947,149.282,183,113
40367,-1.846,0.468,-0.128,-122.427,-57.13,183.107,42,108
40425,-2,-0.498,-0.321,-220.908,54.382,194.321,46,107
40474,-2,-0.839,-0.213,-230.489,-250.137,151.298,39,114
40523,-0.256,-0.846,-1.055,-134.511,-231.886,62.252,26,123
40572,0.454,-0.673,-0.673,-107.718,32.244,26.756,23,127
40621,0.218,-1.068,-0.369,-34.527,99.046,-17.969,23,127
40671,0.149,-0.955,-0.15,54.42,27.771,-90.435,41,124
40720,-0.052,-1.149,-0.098,91.969,28.611,-193.901,41,118
40769,-2,-1.277,-0.527,132.023,250.13,-250.137,45,112
40826,-2,-0.663,0.132,135.916,250.13,-116.847,185,110
40892,-1.954,0.49,0.612,134.359,-66.145,-78.634,182,0
40954,-0.223,1.171,-0.031,62.573,-30.023,-7.489,180,0
41012,-0.566,1.205,0.684,-17.695,39.496,88.908,180,117
41061,-1.005,0.735,0.805,-79.183,-128.374,178.58,45,111
41110,-2,0.333,-0.2,-126.191,-43.626,172.069,37,107
41159,-2,-0.584,-0.028,-176.786,-3.893,186.076,46,107
41207,-2,-1.042,-0.15,-167.664,-238.137,158.634,31,114
41256,-0.513,-1.017,-0.83,-94.084,-210.275,69.901,27,123
41313,0.376,-0.679,-0.654,-84.176,-1.786,33.244,25,0
41362,0.216,-1.036,-0.357,-21.733,56.58,-21.618,26,128
41411,0.332,-0.959,-0.242,34.534,38.489,-121.397,26,126
41464,-0.164,-1.03,0.097,54.756,68.221,-240.489,16,0
41513,-2,-1.066,-0.464,126.496,250.13,-250.137,45,112
41571,-2,-0.278,0.817,160.794,250.13,-66.313,184,111
41633,-1.486,0.361,0.315,168.099,-163.893,-64.137,181,0
41696,0.081,1.008,-0.393,110.229,-13.893,-36.031,178,0
41791,-0.757,1.043,0.887,-43.534,-71.87,181.275,41,115
41840,-1.724,0.708,0.06,-112.374,2.977,203.252,46,109
41889,-2,-0.36,0.349,-210.763,110.664,175.557,44,107
41938,-2,-0.815,-0.025,-221.634,-250.137,156.351,42,112
41988,-0.546,-1.057,-1.083,-132.008,-239.519,90.053,28,123
42042,0.279,-0.47,-0.671,-107.298,-29.282,68.221,25,0
42095,0.303,-1.03,-0.635,-55.305,30.74,24.977,25,0
42144,0.393,-1.202,-0.379,24.718,69.473,-78.267,25,125
42193,-0.369,-1.342,-0.031,70.939,94.397,-211.771,37,118
42254,-2,-1.201,-0.083,100.656,250.13,-242.542,184,109
42311,-2,-0.365,0.941,169.076,188.626,-78.611,185,111
42369,-1.098,0.804,0.011,141.061,-106.244,-81.847,181,117
42431,-0.174,1.221,-0.068,63.939,-22.42,-30.359,180,0
42489,-0.453,1.417,0.856,2.298,12.901,77.519,181,116
42537,-1.038,0.884,0.933,-65.046,-109.702,235.679,16,111
42587,-2,-0.016,-0.2,-119.542,57.733,152.229,43,107
42636,-2,-0.974,0.167,-205.763,-81.786,175.115,41,109
42696,-1.494,-0.953,-0.752,-178.565,-250.137,97.061,179,120
42749,0.145,-0.372,-0.732,-110.908,-53.733,23.092,26,0
42800,0.174,-0.942,-0.385,-72.031,68.87,13.076,29,128
42849,0.227,-1.14,-0.361,21.244,53.046,-49.626,26,125
42898,0.067,-0.975,-0.073,69.565,80.534,-137.931,42,120
42948,-1.793,-1.236,-0.539,154.344,163.237,-250.137,41,114
42997,-2,-0.91,-0.397,142.107,250.13,-98.008,48,111
43056,-2,-0.032,0.84,147.893,127.038,-47.176,184,113
43116,-0.725,0.575,0.14,142.595,-100.206,-25.244,180,119
43179,-0.033,1.651,0.027,82.939,-2.229,22.221,179,0
43235,-0.603,1.198,0.922,-28.992,-32.557,161.908,16,0
43284,-1.765,0.684,0.074,-138.58,-16.115,202.282,38,109
43334,-2,-0.158,0.214,-212.695,92.573,160.008,47,108
43392,-2,-0.982,0.082,-196.321,-248.405,128.71,182,115
43441,-0.187,-0.683,-0.86,-93.412,-187.275,22.076,29,123
43491,0.274,-0.693,-0.621,-87.718,36.26,-1.809,25,129
43543,0.111,-1.008,-0.265,-30.58,54.87,-50.74,27,127
43592,0.265,-0.889,-0.27,20.863,16.534,-131.641,31,124
43651,-0.437,-1.065,-0.038,52.198,72.076,-218.13,183,118
43701,-2,-1.151,-0.081,88.183,250.13,-193.725,45,112
43758,-2,-0.279,0.904,135.656,250.13,-70.031,182,115
43822,-1.241,0.328,0.355,145.069,-135.275,-42.183,198,0
43885,0.065,0.945,-0.363,91.886,-14.176,-14.031,196,0
43938,-0.734,1.482,0.724,-6.656,85.695,102.214,16,0
43987,-1.28,0.878,0.767,-66.695,-69.29,233.183,44,109
44041,-2,-0.063,-0.159,-132.252,58.908,163.221,45,106
44090,-2,-1.21,0.17,-250.137,-25.649,205.107,43,108
44139,-1.75,-1.427,-0.799,-180.603,-250.137,117.649,33,117
44189,0.337,-0.639,-1.091,-120.725,-142,35.038,29,126
44238,0.446,-0.906,-0.628,-85.099,69.656,3.779,27,128
44297,0.331,-1.063,-0.373,18.656,83.405,-60.58,172,126
44353,-0.096,-1.109,0.075,73.458,71.71,-180.595,155,119
44409,-2,-1.002,-0.325,121.931,222.443,-250.137,152,114
44514,-2,0.22,0.799,123.992,-4.87,-62,187,115
44577,-0.326,0.493,-0.07,107.573,-117.122,-39.305,199,0
44640,-0.363,1.843,0.333,43.702,91.435,35.168,185,0
44690,-1.291,0.995,1.295,-53.939,-63.519,250.13,44,110
44739,-2,-0.098,-0.087,-113.588,-12.305,168.985,45,105
44788,-2,-0.932,-0.368,-236.26,2.282,182.748,37,106
44837,-2,-1.013,-0.47,-210.267,-250.137,121.145,32,114
44887,-0.172,-0.543,-0.996,-126.756,-205.122,41.252,26,124
44940,0.382,-0.691,-0.762,-102.802,40.611,41.397,25,128
44989,0.253,-1.013,-0.453,-31.87,100.817,1.519,27,126
45039,0.156,-1.184,-0.153,39.145,72.382,-99.298,28,123
45088,-0.638,-1.423,-0.18,96.718,70.985,-214.206,38,117
45138,-2,-1.027,-0.657,133.359,250.13,-234.237,43,111
45196,-2,-0.173,0.619,137.969,250.13,-84.008,186,112
45254,-1.438,0.449,0.353,122.756,-115.176,-59.13,183,117
45318,-0.078,0.902,-0.063,85.519,-57.191,-22.779,180,0
45376,-0.592,1.432,0.852,23.786,39.664,76.496,190,117
45428,-1.013,0.785,0.867,-40.656,-139.71,241.634,42,111
45478,-2,0.168,-0.306,-92.145,36.168,142.794,43,108
45536,-2,-0.88,0.006,-201.405,17.412,171.519,184,110
45586,-1.623,-1.525,-0.848,-158.618,-250.137,89.565,32,119
45635,0.245,-0.651,-0.846,-97.687,-118.405,8.092,27,128
45689,0.391,-0.829,-0.595,-73.008,42.733,-10.504,27,0
45740,0.194,-0.946,-0.292,19.473,20.733,-82.015,27,130
45789,0.174,-0.99,-0.23,62.115,48.389,-173.771,16,125
45845,-1.386,-1.011,-0.571,69.84,176.916,-250.137,16,0
45907,-2,-1.022,0.271,82.344,250.13,-135.244,178,0
45971,-2,0.015,0.828,129.763,89.542,-51.481,183,0
46034,-0.471,0.531,0.157,100.435,-37.672,2.176,194,0
46098,-0.226,1.281,0.432,26.145,34.702,31.595,199,0
46148,-0.761,1.013,0.889,-57.031,-69.695,198.779,45,113
46198,-2,0.315,0.11,-117.527,21.74,182.527,44,108
46247,-2,-0.676,0.061,-196.756,32.13,169.702,38,108
46301,-2,-1.433,-0.251,-177.107,-250.137,111.763,44,115
46351,-0.258,-0.994,-0.896,-86.435,-165.221,14.817,29,126
46405,0.212,-0.745,-0.572,-63.603,7.206,-7.198,30,0
46455,0.311,-0.672,-0.504,-4.924,29.924,-36.16,30,131
46505,0.36,-0.634,-0.276,34.74,54.58,-115.008,37,127
46556,-0.197,-1.02,0.079,37.931,91.672,-208.718,38,121
46618,-2,-1.013,-0.02,104.176,232.038,-250.137,185,0
46682,-2,-0.33,0.449,94.015,250.13,-74.771,186,0
46746,-1.222,0.217,0.384,84.137,-110.74,-11.84,198,0
46813,0.054,0.765,-0.046,54.885,4.107,19.962,0,0
46862,-0.629,1.35,1.206,-10.42,24.611,115.878,16,116
46910,-1.35,0.716,0.975,-58.489,-107.069,227.191,16,110
46959,-2,-0.009,-0.574,-125.221,69.916,141.725,43,106
47009,-2,-1.11,0.156,-239.359,-47.855,166.947,46,107
47059,-1.75,-1.579,-0.944,-132.954,-250.137,105.405,37,116
47114,0.26,-0.648,-0.972,-51.237,-143.878,21.611,27,0
47164,0.378,-0.663,-0.629,-48.573,61.115,5.176,28,128
47260,0.177,-0.951,-0.222,23.313,110.603,-122.229,37,121
47319,-1.253,-1.744,-0.465,88.145,136.015,-250.137,182,113
47383,-2,-1.324,-0.304,141.405,250.13,-137.58,187,111
47446,-2,-0.033,0.456,131.076,158.427,-71.824,187,0
47508,-0.783,0.433,0.099,74.321,-28.397,-38.351,185,0
47571,-0.581,1.502,0.213,4.481,15.55,19.878,0,0
47621,-1.114,0.981,1.05,-50.038,-128.107,207,50,111
47670,-2,0.129,-0.153,-85.015,-70.687,226.916,47,106
47718,-2,-0.501,-0.115,-181.924,24.214,205.099,39,105
47770,-2,-1.098,-0.204,-227.618,-226.015,135.061,44,111
47819,-0.406,-0.987,-1.101,-159.847,-217.298,54.137,30,119
47868,0.32,-0.492,-0.668,-129.725,-37.038,30.511,29,124
47918,0.42,-0.825,-0.723,-74.519,56.382,15.275,25,125
47967,0.284,-1.085,-0.351,12.87,65.023,-73.42,27,121
48016,-0.357,-1.542,-0.148,93.321,77.702,-180.519,38,116
48065,-2,-1.218,-0.663,149.626,250.13,-237.229,44,110
48122,-2,-0.432,0.824,185.427,223.336,-90.496,188,110
48188,-1.095,0.636,-0.084,163.198,-44.969,-59.466,183,0
48246,-0.419,0.682,-0.031,119.069,95.244,37.16,180,119
48304,-0.271,1.209,0.547,79.557,21.595,45.137,179,117
48354,-0.614,0.946,1.155,-29.573,-115.305,154.718,41,112
48403,-1.998,0.386,0.182,-102.763,1.527,114.656,40,107
48452,-2,-0.526,0.472,-187.267,-14.176,140.008,43,107
48501,-2,-1.078,-0.278,-167.221,-250.137,110.855,40,114
48550,-0.333,-0.638,-0.949,-88.901,-144.939,34.878,30,122
48604,-0.081,-0.466,-0.413,-87.031,19.244,30.855,29,129
48657,0.159,-0.748,-0.378,-36.023,-24.588,9.328,28,0
48715,0.521,-0.75,-0.583,11.733,38.473,-61.763,171,127
48765,-0.249,-1.093,0.14,29.336,106.344,-175.466,41,120
48823,-2,-1.191,-0.191,81.137,250.13,-233.672,183,113
48880,-2,-0.502,1.04,117.878,222.656,-73.824,185,114
48944,-1.072,0.278,0.151,131.237,-141.443,-71.298,192,0
49007,0.068,0.804,-0.219,62.687,34.473,-24.725,196,0
49074,-0.697,1.251,0.992,3.687,69.351,62.916,0,0
49124,-1.365,0.648,0.637,-44.366,-121.74,191.901,46,110
49173,-2,-0.483,-0.172,-84.351,20.328,147.145,47,107
49230,-2,-1.163,0.293,-160.466,-73.618,154.038,186,108
49281,-1.455,-1.187,-0.696,-127.359,-250.137,94.534,33,117
49330,-0.196,-0.452,-0.625,-85.305,-61.557,59.053,30,125
49380,-0.004,-0.476,-0.278,-81.779,54.977,69.053,30,130
49430,0.182,-0.804,-0.214,-32.588,-1.13,34.275,37,129
49488,0.462,-0.797,-0.203,28.221,-1.321,-67.351,171,126
49549,-0.833,-1.408,-0.388,99.29,100.153,-224.672,179,119
49599,-2,-0.981,-0.226,109.908,250.13,-94.809,47,113
49657,-2,-0.461,0.973,134.832,106.015,-63.191,183,114
49720,-0.556,0.448,-0.046,105.794,-92.321,-78.061,179,0
49775,-0.106,0.531,-0.139,48.542,68.115,-32.031,51,0
49825,-0.444,1.047,0.545,10.328,61.893,40.435,51,115
49875,-0.794,0.778,0.803,-33.878,-67.42,120.183,49,110
49933,-2,0.079,-0.269,-76.908,40.244,95.145,191,103
50028,-2,-1.24,-0.128,-167.565,-250.137,64.282,37,107
50078,-0.614,-0.72,-0.83,-93.496,-210.069,9.374,33,114
50127,-0.109,-0.389,-0.436,-65.008,19.107,28.115,30,120
50177,-0.094,-0.572,-0.057,-24.275,4.55,54.076,28,122
50227,0.447,-0.336,-0.43,21.053,-21.038,20.389,38,123
50275,0.337,-0.483,0.06,42.374,80.87,-45.992,16,119
50325,-1.042,-1.172,-0.62,149.511,128.939,-145.069,39,113
50374,-2,-0.894,-0.08,139.496,250.13,-84.573,44,108
50424,-2,-0.779,0.608,131.641,109.374,-52.55,51,107
50478,-1.061,0.099,0.116,114.641,-38.58,-72.023,50,109
50528,-0.442,0.868,0.028,74.695,24.817,-52.985,50,110
50577,-0.476,1.178,0.512,10.519,40.137,14.832,51,109
50627,-0.663,0.754,0.342,-20.008,-0.443,86.389,52,106
50676,-0.933,0.562,0.196,-72.176,-26.588,106.817,51,101
50726,-2,-0.573,-0.703,-95.901,-64.038,77.55,58,96
50777,-2,-0.854,-0.613,-121.328,-25.802,121.908,57,96
50825,-1.914,-1.109,-0.216,-102.748,-129.534,123.824,39,100
50877,-1.103,-1.027,-0.275,-53.45,-109.855,44.405,34,105
50926,-0.654,-0.608,0.012,-25.42,-31.084,6.351,32,110
50975,-0.48,-0.58,0.462,13.153,-18.42,2.893,30,114
51025,-0.208,-0.59,0.53,76.435,-93.13,-0.107,35,117
51075,-0.031,-0.427,0.375,115.237,-148.023,-19.817,38,119
51129,-0.386,-0.399,0.213,117.763,-111.878,-150.679,30,0
51182,-1.596,-0.524,0.95,71.45,-79.947,-180.191,31,174
51235,-1.361,-0.161,1.041,47.763,-136.603,-151.954,38,167
51298,-0.687,-0.121,0.763,26.992,-151.939,-125.275,0,116
51353,-0.32,-0.021,0.63,24.916,-86.038,-76.595,0,58
51411,-0.145,0.155,0.534,13.618,-46.542,-21.588,0,100
51470,-0.258,0.008,0.648,0.641,-33.328,13.359,0,95
51527,-0.45,-0.722,0.771,-15.16,-65.282,-24.786,0,89
51574,-0.752,-0.95,0.939,-50.221,-10.855,-68.718,12,86
51620,-0.47,-0.701,1.017,-36.641,-4.527,-71.824,16,81
51667,-0.477,-0.303,1.078,-55.695,-4.191,-36.969,17,81
51714,0.007,-0.664,0.621,-35.641,12.466,-38.191,13,77
51763,-0.289,-0.197,0.925,-11.405,55.267,-44.321,17,76
51820,-0.472,-0.209,1.049,-16.359,13,-28.504,0,76
51866,-0.275,-0.542,1.141,16.443,-4.504,-11.015,16,78
51919,0.028,-0.566,0.863,22.13,-2.824,-22.176,11,0
51972,0.279,-0.422,0.093,-22.733,53,-85.084,16,177
52028,-0.168,-1.228,0.278,-78.634,88.786,-90.435,0,72
52084,-0.326,-0.634,0.396,-64,119.763,-106.275,0,60
52129,-1.259,-0.473,1.376,-81.55,94.534,-37.748,16,59
52189,-0.489,-0.858,1.056,-19.71,-36.962,15.733,0,61
52242,0.452,-0.69,0.267,-14.214,85.221,-18.893,147,63
52295,-0.551,-0.505,0.557,-62.626,-3.221,-42.237,148,65
52349,-1.13,-0.314,0.671,-82.763,-3.634,29.802,153,72
52409,-0.567,-1.001,1.009,-39.947,-120.649,73.427,0,114
52468,0.746,-1.309,0.118,-9.328,-36.725,15.733,0,117
52528,-0.844,-0.606,-0.056,-45.389,11.397,-29.244,0,117
52592,-1.049,-1.172,0.431,-33.374,-96.534,37.427,0,0
52697,-0.347,-0.781,0.125,-25.985,-10.748,-8.748,0,154
52763,-0.805,-0.717,0.445,-10.863,-21.496,27.061,0,0
52828,-0.392,-0.962,0.692,35.504,-35.099,51.809,0,0
52891,-0.606,-0.831,0.864,71.84,-26.405,47.076,0,0
52956,-0.436,-0.825,0.497,82.58,-20.649,52.351,0,0
53020,-0.459,-0.57,0.514,74.924,-9.947,50.977,0,0
53084,-0.287,-0.349,0.529,69.527,-11.893,44.969,0,0
53148,-0.245,-0.573,0.498,26.992,1.405,17.168,0,0
53212,-0.26,-0.521,0.543,-2.618,21.809,-7.87,0,0
53276,-0.378,-0.468,0.755,-13.031,11.053,-23.939,0,0
53343,-0.64,-0.491,1.013,-9.588,18.069,-18.145,0,0
53407,-0.633,-0.487,1.04,42.282,13.985,12.672,0,0
53472,-0.385,-0.723,0.822,74.504,-4.496,29.924,0,0
53535,-0.711,-0.196,0.75,61.405,19.198,35.351,0,0
53600,-0.554,-0.33,0.782,48.58,-5.908,52.962,0,0
53663,-0.326,-0.26,0.719,29.282,0.435,35.679,0,0
53728,-0.505,-0.285,0.78,11.237,5.458,14.527,0,0
53792,-0.53,-0.155,0.68,-1.771,4.527,10,0,0
53856,-0.48,-0.34,0.833,-30.84,-7.611,-14.489,0,0
53923,-0.576,-0.208,0.826,-39.076,13.107,-30.985,0,0
53988,-0.656,-0.242,0.8,-31.397,2.267,-20.916,0,0
54051,-0.613,-0.23,0.895,-27.588,-4.458,-15.947,0,0
54122,-0.692,-0.349,0.991,0.74,-7.115,6.305,0,0
54185,-0.597,-0.302,0.916,39.595,-13.107,29.885,0,0
54249,-0.481,-0.371,0.743,50.534,-3.557,27.611,0,0
54312,-0.554,-0.341,0.737,35.756,3.878,22.565,0,0
54367,-0.487,-0.177,0.876,33.962,-14.397,19.702,47,0
54421,-0.462,-0.111,0.791,36.168,11.237,7.397,38,0
54478,-0.521,-0.077,0.754,30.427,-6.076,8.595,47,0
54533,-0.576,0.007,0.871,26.344,1.015,11.992,38,0
54587,-0.514,0.108,0.787,25.817,-1.344,9.649,37,0
54641,-0.711,0.034,0.874,19.863,-5.748,13.527,38,0
54695,-0.486,0.016,0.86,17.473,-5.985,16.26,37,0
54749,-0.594,-0.027,0.902,24.229,0.344,14.435,37,0
54803,-0.469,-0.066,0.82,21.534,5.947,3.595,39,0
54857,-0.472,0.025,0.867,26.321,-6.107,-8.092,38,0
54912,-0.588,0.19,0.742,11.504,9.649,-14.802,38,0
54969,-0.654,0.091,0.804,-3.687,-7.58,-1.802,37,0
55025,-0.576,0.198,0.996,-3.733,-1.794,2.282,16,0
55079,-0.664,0.121,0.98,17.313,5.779,9.221,37,0
55134,-0.567,0.17,0.853,34.473,-15.84,22.023,37,0
55188,-0.46,0.033,0.723,20.725,6.595,10.947,37,0
55242,-0.55,0.195,0.818,7.366,-0.74,-3.183,38,0
55297,-0.53,0.158,0.927,-9.794,-13.718,-19.412,38,0
55351,-0.277,0.221,0.401,-63.145,-3.153,-62.962,40,0
55405,-0.568,-0.057,0.65,-87.206,41.458,-76.145,41,0
55462,-0.79,-0.231,0.926,-97.344,73.221,-58.931,44,0
55518,-0.573,-0.249,0.874,-93.511,-49.603,-65.641,43,0
55581,-0.62,-0.541,0.938,-76.74,-53.893,-71.947,0,0
55645,-0.331,-0.238,0.633,-50.115,32.626,-48.588,0,0
55751,-0.154,-0.552,0.42,-3.977,-12.015,-62.344,0,0
55815,-0.795,-0.756,1.073,-88.649,50.504,-32.977,0,0
55878,-0.032,-0.686,0.332,9.611,-74.252,-63.847,0,0
55942,-0.856,-0.69,0.983,-78.29,67.092,-15.443,0,0
56006,0.116,-0.665,0.169,-5.328,-61.748,-57.053,0,0
56073,-0.899,-0.802,1.004,-70.74,61.382,-11.832,0,0
56132,0.465,-0.697,0.025,-4.282,-87.901,-59.023,0,132
56192,-0.734,-0.844,0.819,-61.626,157.466,-3.908,0,128
56251,-0.205,-0.875,0.445,3.061,-181.305,-46.863,0,129
56311,0.029,-0.529,0.084,-35.374,221,-0.366,0,126
56371,-0.939,-1.03,1.081,-4.802,-179.802,-31.969,0,126
56430,0.769,-0.512,-0.432,0.519,113.221,-15.344,0,125
56489,-1.412,-1.232,1.474,-20.252,-28.511,-12.389,0,125
56545,0.867,-0.747,-0.489,17.107,-36.687,-31.718,139,125
56604,-1.105,-1.184,1.157,-29.397,110.344,16.832,138,123
56660,0.229,-0.866,0.056,21.29,-111.031,-24.74,139,123
56725,-0.741,-0.991,0.958,-35.099,112.863,19.351,139,122
56780,0.022,-0.962,0.211,22.58,-138.198,-15.786,139,123
56836,-0.038,-0.6,0.128,-6.863,178.786,20.664,139,122
56892,-1,-1.109,1.072,1.786,-173.214,-9.29,139,123
56947,0.843,-0.638,-0.407,26.641,22.328,-6.985,138,124
57007,-1.256,-1.179,1.405,-13.374,61.748,26.687,0,124
57069,0.684,-0.838,-0.282,22.351,-126.58,-26.931,0,125
57128,-0.756,-0.919,0.991,-21.718,139.405,29.87,0,124
57188,0.103,-0.872,0.214,17.176,-168.84,-21.252,0,125
57246,-0.085,-0.685,0.33,-2.29,153.557,19.687,0,124
57306,-0.433,-0.944,0.734,9.748,-151.344,-10.763,0,125
57365,0.459,-0.717,-0.115,10.626,122.855,11.237,0,125
57424,-1.306,-1.1,1.399,-11.565,-124.84,8.626,0,126
57484,0.849,-0.806,-0.257,21.183,-91.527,0.267,0,129
57543,-0.929,-0.854,1.239,4,64.924,34.985,0,129
57610,0.487,-0.782,-0.059,18.809,-162.031,-9.733,0,0
57673,-0.634,-0.724,0.852,-1.939,119.588,25.168,0,0
57737,0.353,-0.863,0.2,5.237,-142.87,-5.031,0,0
57800,-0.659,-0.772,0.99,-5.863,118.183,22.031,0,0
57864,0.325,-0.85,0.235,0.725,-139.786,-5.26,0,0
57927,-0.562,-0.767,0.927,10.519,100.389,18.817,0,0
57991,0.239,-0.804,0.312,-1.496,-131.092,1.198,0,0
58054,-0.31,-0.762,0.7,10.206,122.282,7.038,0,0
58118,-0.021,-0.848,0.487,-10.122,-123.046,-0.947,0,0
58185,-0.185,-0.824,0.562,3.519,132.71,-2.702,0,0
58249,-0.297,-0.885,0.687,-10.802,-137.282,-1.573,0,0
58312,0.268,-0.769,0.209,-3.313,137.809,-16.481,0,0
58376,-0.694,-0.88,0.938,-16.962,-104.832,-2.855,0,0
58439,0.594,-0.804,0.001,-7.55,58.366,-11.817,0,0
58503,-0.722,-0.842,1.022,-19.527,6.122,3.916,0,0
58566,0.582,-0.81,0.092,-11.046,-34.794,-20.397,0,0
58626,-0.707,-0.929,0.709,-1.962,218.519,10.16,0,131
58689,-0.463,-0.928,0.669,-5.687,-166.313,-12.855,0,0
58753,0.453,-0.736,-0.178,3.092,185.664,-11.389,0,131
58855,0.534,-0.822,-0.041,8.824,-171.878,-35.595,0,135
58915,-0.347,-0.873,0.618,-17.397,170.275,12.725,0,131
58975,-0.338,-0.913,0.693,5.351,-164.397,-20.366,0,134
59035,0.429,-0.653,-0.022,-5.366,119.008,1.282,0,132
59095,-0.956,-1.025,1.193,-12.634,-101.191,4.977,0,134
59158,0.794,-0.723,-0.218,7.168,-67.656,-5.389,0,0
59222,-0.79,-0.911,1.122,-19.748,48.328,35.221,0,0
59289,0.563,-0.813,-0.136,6.176,-149.198,-12.519,0,0
59353,-0.574,-0.91,0.76,-24.023,145.092,37.756,0,0
59416,-0.16,-0.894,0.407,-4.008,-223.458,-3.473,0,0
59480,0.31,-0.868,0.09,-11.282,84.214,14.366,0,0
59543,-0.76,-1.032,0.904,-15.817,-86.427,13.145,0,0
59608,0.698,-0.722,-0.3,-4.84,-31.573,-7.366,0,0
59671,-0.94,-0.913,0.949,-33.008,95.664,38.076,0,0
59735,0.244,-0.899,-0.014,2.298,-234.16,-12.504,0,0
59798,-0.084,-0.877,0.186,-17.588,215.26,24.298,0,0
59866,-0.509,-1.068,0.643,13.55,-223.977,-12.29,0,0
59929,0.633,-0.794,-0.354,6.626,151.298,-6.084,0,0
59993,-1.327,-1.186,1.366,-7.885,-132.931,-2.305,0,0
60057,1.195,-0.655,-0.622,2.908,-69.74,-21.489,0,0
60121,-1.06,-1.025,1.144,-20.275,145.092,25.55,0,0
60184,0.264,-0.881,-0.094,13.55,-247.038,-21.802,0,0
60249,-0.013,-0.767,0.217,-10.214,188.863,20.771,0,0
60312,-0.467,-1.009,0.646,14.481,-205.366,-15.359,0,0
60376,0.658,-0.92,-0.151,7.053,44.588,1.702,0,0
60442,-0.7,-1.048,1.101,8.42,-58.74,15.74,0,0
60507,0.785,-0.775,-0.221,23.481,-83.588,-3.603,0,0
60570,-0.482,-0.734,0.742,-8.771,131.687,38.176,0,0
60634,-0.123,-0.924,0.32,11.679,-250.137,-0.55,0,0
60698,0.577,-0.708,-0.084,-2.626,177.71,36.092,0,0
60762,-1.1,-1.092,1.417,-6.298,-148.405,23.282,0,0
60825,1.082,-0.57,-0.543,9.786,-112.145,8.466,0,0
60890,-0.968,-1.082,1.212,-26.412,30.618,58.237,0,0
60953,0.421,-0.914,-0.204,13.87,-250.137,21.656,0,0
61021,-0.357,-0.896,0.598,-21.847,93.42,72.046,0,0
61084,-0.099,-1.053,0.081,-2.542,-223.832,29.542,0,0
61148,0.331,-0.879,-0.11,-12.74,77.901,52.008,0,0
61204,-0.484,-1.01,0.684,-11.771,-174.886,31.802,0,58
61259,0.655,-0.885,-0.416,-0.779,-62.084,23.115,0,55
61315,-0.7,-1.022,0.735,-19.595,16.603,51.397,0,54
61370,0.077,-0.959,0.048,3.031,-186.809,14.939,0,45
61425,-0.114,-0.9,0.23,-7.786,64.595,40.794,0,44
61478,-0.594,-1.064,0.662,1.214,-154.29,24.618,166,44
61534,0.365,-0.875,-0.108,8.046,-53.542,21.466,158,44
61586,-0.658,-0.951,0.756,3.221,-1.641,45.267,156,45
61639,-0.099,-0.97,0.275,9.511,-159.74,14.71,153,46
61691,0.075,-0.909,0.105,11.145,30.893,15.656,151,46
61744,-0.605,-1.023,0.7,11.473,-90.038,26.924,150,48
61796,0.402,-0.847,-0.043,20.053,-64.969,4.061,148,51
61849,-0.534,-0.821,0.729,7.191,40.382,17.985,147,51
61944,0.558,-0.905,-0.084,26.008,35.435,-8.168,143,55
61997,-0.826,-0.911,1.047,14.817,26.168,12.427,141,57
62052,0.34,-0.84,0.164,10.305,-99.573,-3.122,139,50
62103,-0.061,-0.779,0.532,11.206,103.992,-0.702,137,51
62149,-0.43,-0.92,0.835,3.733,-102.435,1.145,16,63
62200,0.554,-0.854,0.033,10.733,-22.466,-9.168,133,53
62252,-0.547,-0.717,0.849,6.847,81.542,11.115,133,54
62304,-0.029,-0.794,0.459,1.992,-126.389,1.786,131,55
62355,0.475,-0.844,0.201,11.672,76.412,-4.702,129,53
62406,-0.636,-0.874,1.101,-2.214,-12.87,12.298,128,53
62461,0.68,-0.796,0.05,1.763,-86.198,-2.527,126,57
62513,-0.12,-0.809,0.664,1.588,113.603,-2.649,125,57
62564,-0.298,-0.829,0.747,-4.466,-109.389,1.405,123,58
62615,0.579,-0.656,0.185,-5.382,6.26,-5.038,122,58
62666,-0.425,-0.75,1.005,-6.183,35.863,10.595,122,60
62718,0.171,-0.733,0.532,-1.359,-124.099,14.656,120,63
62770,0.38,-0.795,0.372,0.061,44.107,5.618,120,62
62821,-0.512,-0.808,1.013,-9.168,-31.802,22.137,119,63
62873,0.47,-0.789,0.193,-3.26,-91.886,18.519,118,69
62927,-0.027,-0.859,0.414,-11.947,165.504,12.45,118,64
62981,-0.711,-1.052,0.963,-20.282,-90.55,21.74,118,78
63033,0.615,-0.848,-0.057,-17.298,-58.275,13.321,117,76
63085,-0.291,-0.88,0.589,-19.115,125.504,25.687,119,74
63137,-0.514,-1.038,0.735,-20.366,-144.763,3.313,120,78
63191,0.636,-0.886,-0.201,-7.069,0.191,-1.229,121,96
63244,-0.736,-0.857,0.874,-21.733,87.015,16.351,121,77
63296,-0.254,-0.943,0.429,-9.611,-181.588,-10.656,120,80
63350,0.467,-0.872,-0.228,-8.794,74.679,-1.29,121,103
63408,-0.924,-0.991,1.007,-15.237,4.137,11.214,121,104
63462,0.293,-0.877,0.045,10.725,-127.511,-12.374,119,107
63516,-0.045,-0.875,0.224,16.076,172.962,12.168,118,109
63571,-0.891,-1.026,0.976,8.595,-56.733,1.412,117,111
63626,0.46,-0.91,0.056,40.534,-78.206,-1.45,114,115
63680,-0.431,-0.831,0.68,50.649,161.618,31.977,112,116
63735,-0.845,-1.05,1.056,42.908,-139.351,15.061,110,125
63791,0.338,-0.915,0.192,63.496,-12.977,37.183,106,145
63856,-0.855,-0.659,1.264,48.206,-35.008,51.702,101,150
63911,0.337,-0.827,0.256,61.832,-148.527,33.527,99,156
63967,-0.135,-0.686,0.66,73.733,65.351,41.74,96,160
64022,-0.354,-0.65,0.788,30.008,-136.13,35.015,94,163
64077,0.516,-0.777,0.367,45.359,-23.359,42.145,94,167
64133,-0.211,-0.391,0.983,46.351,2.84,28.954,85,170
64188,-0.051,-0.574,0.804,20.305,-105.74,38.115,83,175
64245,0.147,-0.492,0.689,41.458,23.87,24.023,85,0
64302,-0.39,-0.407,1.052,10.855,-39.015,36.473,80,0
64369,0.333,-0.401,0.693,26.71,10.45,36.214,77,0
64428,-0.236,-0.334,1.063,11.229,-21.504,35.412,79,0
64486,0.255,-0.448,0.737,18.382,-10.42,33.893,75,0
64545,-0.338,-0.205,1.141,2.924,14.084,34.412,76,0
64600,0.241,-0.583,0.82,11.015,-60.16,49.679,16,0
64698,-0.908,-0.261,1.308,-26.214,-32.595,54.763,17,0
64753,0.635,-0.649,0.473,-15.939,-44.519,33.481,17,0
64812,-0.554,-0.274,1.219,1.183,106.443,14.687,71,0
64870,-0.261,-0.431,0.845,-46.046,-121.496,42.374,72,0
64928,0.042,-0.542,0.769,-14.015,73.916,-1.42,16,0
64984,-0.902,-0.302,1.126,-40.702,-11.908,23.756,19,0
65039,0.316,-0.519,0.443,-40.603,-75.489,15.069,16,0
65097,-0.297,-0.428,0.762,-14.893,152.023,-23.321,73,0
65156,-0.918,-0.594,1.171,-61.458,-66.794,-4.359,74,0
65214,0.674,-0.466,0.03,-49.412,-33.496,-30.435,74,0
65273,-0.72,-0.698,1.081,-41.061,133.282,-42.038,74,0
65332,-0.384,-0.684,0.88,-49.969,-74.45,-38.153,74,0
65393,0.073,-0.813,0.486,-37.053,78.824,-52.824,74,0
65452,-0.702,-0.833,1.009,-46.214,21.351,-29.55,76,0
65510,0.2,-0.765,0.409,-26.053,-69.046,-56.252,75,0
65569,-0.149,-0.85,0.314,-33.351,200.359,-46.664,82,0
65632,-0.892,-1.101,1.054,-51.359,-21.229,-33.069,139,0
65694,0.757,-0.799,-0.109,-26.58,-6.489,-45.901,136,0
65756,-0.717,-0.841,0.917,-58.985,185.221,-11.557,135,0
65818,-0.022,-0.958,0.369,-16.725,-198.115,-54.008,133,0
65881,0.187,-0.78,0.177,-37.107,183.458,-3.008,132,0
65945,-0.59,-1.008,0.909,-8.649,-113.214,-25.214,130,0
66007,0.713,-0.798,-0.298,-3.13,62.985,-17.656,128,0
66068,-1.004,-1.047,1.234,-34.954,4.794,4.13,128,0
66129,0.768,-0.856,-0.311,2.725,-109.649,-20.58,125,0
66192,-0.426,-0.801,0.615,-37.924,188.664,33.58,125,0
66253,-0.112,-0.94,0.45,3,-216.115,-27.435,123,0
66315,0.445,-0.837,-0.044,-11.252,135.13,7.87,122,0
66376,-0.62,-1.035,0.919,2.771,-38.595,4.977,121,0
66440,0.612,-0.895,-0.297,12.298,24.954,-6.321,121,0
66505,-0.761,-1.266,0.771,-27.924,78.359,25.336,197,0
66572,0.466,-0.836,-0.092,-0.985,-79.229,1.588,195,0
66636,-0.315,-0.876,0.525,-16.183,105.817,26.214,191,0
66702,0.014,-1.006,0.09,3.389,-110.756,-11.557,190,0
66767,-0.002,-0.837,0.125,-8.893,89.275,14.29,189,0
66833,-0.295,-0.97,0.44,2.351,-114.992,-11.084,187,0
66897,0.283,-0.911,-0.128,10.198,45.176,-4.603,186,0
66963,-0.617,-1.01,0.695,5.977,-34.389,9.55,182,0
67031,0.448,-0.882,-0.233,13.695,5.313,-9.649,179,0
67095,-0.818,-1.082,0.928,-9.244,30.779,9.809,177,0
67159,0.421,-0.941,-0.108,8.031,-115.206,-21.42,175,0
67223,-0.449,-1.007,0.615,-2.527,147.588,12.649,172,0
67288,-0.061,-0.983,0.322,15.771,-143.099,-18.565,168,0
67351,0.058,-1.022,0.241,-0.611,85.985,-0.893,155,0
67415,-0.293,-0.878,0.618,15.748,-142.924,-2.328,160,0
67478,0.674,-0.859,-0.204,10.771,11.794,-9.13,158,0
67542,-0.558,-1.013,0.874,2.237,2.573,17.519,150,0
67607,0.688,-0.766,-0.129,19.275,-91.947,-12.794,149,0
67671,-0.461,-0.747,0.75,-3.733,128.878,16.122,145,0
67726,0.217,-0.802,0.225,15.275,-200.924,-4.595,16,0