Timestamp(ms),AccelX(g),AccelY(g),AccelZ(g),GyroX(deg/s),GyroY(deg/s),GyroZ(deg/s),DistanceLeft(cm),DistanceRight(cm)
223201,-0.234,0.112,0.924,-4.908,6.863,-5.237,164.0,0.0
223292,-0.245,0.100,0.984,-6.405,6.962,-8.328,165.0,0.0
223384,-0.217,0.061,0.985,0.115,0.870,-20.359,167.0,0.0
223476,-0.315,0.083,1.006,12.435,18.656,-37.084,169.0,0.0
223565,-0.391,-0.305,0.823,122.573,68.183,-70.916,129.0,0.0
223660,-0.592,-0.127,0.208,250.130,139.656,-109.466,0.0,0.0
223754,-1.205,0.099,-0.042,250.130,118.672,-150.855,0.0,0.0
223851,-1.243,0.360,0.005,225.802,31.840,-198.336,0.0,0.0
223944,-1.187,0.417,-0.037,124.069,48.611,-135.550,0.0,0.0
224038,-1.083,0.436,0.061,-30.412,44.481,-86.321,0.0,0.0
224133,-1.046,0.288,0.239,0.924,42.496,-19.702,0.0,0.0
224227,-1.000,0.376,0.150,-39.824,15.947,29.855,0.0,0.0
224320,-1.144,0.295,-0.032,-63.954,-26.542,69.557,0.0,0.0
224414,-1.417,0.100,-0.140,-34.649,-53.282,175.847,0.0,0.0
224508,-1.216,0.191,-0.208,-20.824,-45.405,218.794,0.0,0.0
224603,-0.683,0.290,-0.114,-61.282,-21.756,152.542,0.0,0.0
224700,-0.581,0.240,0.013,-39.595,1.427,7.130,188.0,0.0
224794,-0.910,0.326,-0.031,16.504,12.015,-112.603,0.0,0.0
224888,-1.271,0.243,-0.076,79.733,3.809,-190.397,196.0,0.0
224983,-1.167,0.191,-0.168,132.069,2.634,-150.595,0.0,0.0
225082,-1.101,0.329,-0.107,110.924,7.427,-106.450,191.0,0.0
225175,-0.858,0.167,-0.031,141.359,-1.504,-34.282,194.0,0.0
225268,-0.781,0.382,-0.075,147.244,13.672,-17.779,196.0,0.0
225361,-0.966,0.423,0.084,14.695,37.985,-13.023,0.0,0.0
225455,-1.126,0.244,0.141,-1.595,31.550,28.672,0.0,0.0
225545,-1.218,0.358,0.094,12.511,23.374,52.626,0.0,0.0
225638,-1.509,0.102,0.043,-64.374,-42.527,160.046,0.0,0.0
225731,-1.572,-0.042,-0.000,-47.145,-111.710,239.435,0.0,0.0
225824,-0.499,0.103,0.301,-19.588,-109.374,134.221,0.0,0.0
225915,-0.198,0.381,0.234,37.061,-63.756,21.389,163.0,0.0
226006,-0.708,0.848,-0.026,34.084,-44.740,-45.672,157.0,0.0
226092,-0.773,0.699,-0.108,58.763,-43.344,-42.939,162.0,104.0
226182,-0.728,0.549,-0.156,100.107,-53.504,-105.366,153.0,0.0
226278,-0.617,0.297,0.237,154.275,-29.267,-174.878,0.0,0.0
226369,-0.994,0.360,-0.070,193.023,-25.252,-200.779,160.0,0.0
226460,-1.188,0.157,-0.204,250.130,-34.038,-197.427,167.0,0.0
226553,-1.232,0.668,-0.299,170.122,-1.458,-90.611,0.0,0.0
226647,-1.077,0.554,0.033,23.962,22.924,-72.939,0.0,0.0
226740,-0.963,0.348,0.052,-105.290,29.489,54.130,0.0,0.0
226830,-1.620,0.143,-0.043,-159.290,-0.023,212.977,145.0,0.0
226919,-1.501,-0.084,-0.100,-104.886,-83.809,250.130,132.0,0.0
227009,-0.792,0.106,0.004,-23.939,-88.519,208.977,189.0,98.0
227094,-0.627,0.195,-0.009,19.656,-61.916,50.824,149.0,100.0
227179,-0.656,0.274,-0.025,54.977,-35.565,-94.740,166.0,99.0
227272,-0.939,0.273,-0.065,118.954,-24.679,-214.718,0.0,0.0
227366,-1.332,0.289,-0.170,184.519,-6.206,-250.137,0.0,0.0
227460,-1.389,0.688,-0.377,-223.107,72.557,-220.649,0.0,0.0
227543,-0.812,-0.463,0.427,-37.634,38.344,-77.573,16.0,0.0
227630,-0.952,-0.043,0.006,250.130,31.847,16.878,102.0,0.0
227723,-0.871,0.562,-0.072,245.443,15.740,46.359,0.0,0.0
227819,-1.217,0.641,-0.079,-108.794,42.397,72.031,0.0,0.0
227912,-1.571,0.016,0.002,-203.366,-24.763,164.229,0.0,0.0
228005,-1.480,-0.213,0.000,-37.305,-133.099,201.237,0.0,0.0
228099,-0.578,0.116,0.058,75.015,-81.725,174.359,190.0,0.0
228191,-0.643,0.428,-0.060,13.275,-33.962,38.542,176.0,0.0
228283,-0.637,0.149,0.074,-0.802,-37.107,-104.779,176.0,0.0
228376,-1.239,0.223,-0.075,159.527,-24.786,-187.954,0.0,0.0
228467,-1.219,0.304,-0.193,200.191,-21.885,-199.786,167.0,0.0
228562,-1.109,0.407,-0.139,34.137,0.244,-131.672,173.0,0.0
228655,-0.910,0.196,0.007,41.427,23.931,-55.183,180.0,0.0
228747,-0.857,0.354,-0.012,67.008,33.588,-39.038,188.0,0.0
228840,-0.912,0.396,0.128,11.901,49.595,-12.595,187.0,0.0
228932,-1.153,0.400,0.093,-110.206,36.679,34.481,185.0,0.0
229023,-1.156,-0.089,0.209,-59.947,-38.710,87.962,164.0,0.0
229114,-1.149,0.113,0.023,93.969,-58.229,130.573,154.0,0.0
229208,-1.301,0.322,-0.129,48.511,-61.412,142.351,0.0,0.0
229302,-0.913,0.236,-0.072,-23.718,-49.069,114.573,200.0,0.0
229398,-0.712,0.193,-0.016,-10.962,-45.725,37.695,194.0,0.0
229491,-0.794,0.207,-0.042,66.534,-48.435,-70.305,0.0,0.0
229584,-1.168,0.325,-0.181,145.595,-40.344,-177.115,0.0,0.0
229675,-1.093,0.365,-0.142,140.267,6.725,-209.069,0.0,144.0
229765,-1.115,0.323,-0.092,-34.053,15.206,-140.420,0.0,139.0
229855,-0.859,0.073,0.138,53.588,31.359,-28.992,0.0,137.0
229945,-0.868,0.335,0.027,84.519,22.588,11.931,0.0,136.0
230034,-0.996,0.334,0.092,15.267,29.847,36.924,0.0,136.0
230127,-1.172,0.212,0.136,-14.748,3.511,75.206,0.0,135.0
230217,-1.163,0.238,0.132,58.069,-8.397,95.130,0.0,137.0
230309,-1.363,0.254,-0.016,-38.015,-37.954,134.069,0.0,177.0
230403,-1.103,0.122,0.018,-15.153,-63.985,114.718,0.0,0.0
230495,-0.629,0.249,0.009,21.115,-39.649,66.962,186.0,0.0
230588,-0.731,0.303,-0.062,23.038,-38.527,-40.962,182.0,0.0
230680,-1.082,0.248,-0.124,100.748,-29.763,-120.359,180.0,0.0
230774,-1.278,0.360,-0.164,123.733,-13.664,-154.985,0.0,0.0
230867,-0.970,0.340,-0.026,27.771,25.092,-98.634,0.0,0.0
230964,-0.885,0.104,0.075,27.672,8.763,-24.214,0.0,0.0
231058,-0.812,0.276,0.022,100.878,16.427,6.183,0.0,0.0
231148,-0.952,0.388,0.088,32.863,29.634,-7.435,0.0,142.0
231238,-1.059,0.301,0.168,-39.977,20.634,1.206,0.0,146.0
231319,-1.118,0.083,0.236,20.153,-18.160,19.328,16.0,154.0
231409,-1.138,0.269,0.085,60.168,-26.160,62.542,0.0,147.0
231500,-1.333,0.139,-0.107,-12.176,-67.229,120.878,0.0,155.0
231591,-1.098,0.138,-0.092,42.153,-60.084,138.282,0.0,165.0
231684,-0.731,0.307,-0.141,17.748,-28.794,98.420,0.0,173.0
231779,-0.799,0.207,-0.130,16.985,-41.969,-21.985,0.0,175.0
231871,-1.117,0.390,-0.068,108.679,-67.748,-107.542,0.0,172.0
231963,-0.986,0.509,0.003,152.763,-58.321,-127.191,0.0,168.0
232055,-0.816,0.523,-0.001,92.473,-21.191,-68.931,0.0,165.0
232146,-0.944,0.369,0.051,65.076,-14.977,-63.298,0.0,165.0
232239,-0.962,0.411,0.041,50.763,-1.168,-26.931,0.0,165.0
232330,-0.604,0.267,0.159,33.580,7.237,-5.756,0.0,166.0
232422,-0.646,0.292,0.105,5.817,35.679,23.099,0.0,166.0
232517,-2.000,0.233,-0.240,13.229,-28.817,3.206,0.0,165.0
232610,-0.830,-0.020,0.005,178.511,-62.214,44.115,0.0,0.0
232697,-0.722,0.609,-0.132,108.641,-16.427,-32.328,0.0,66.0
232786,-0.826,0.438,-0.079,-85.359,-14.290,-125.153,0.0,119.0
232876,-0.991,0.101,0.235,-39.412,21.466,-119.115,0.0,114.0
232970,-1.033,0.452,-0.019,-104.611,39.214,-31.282,0.0,197.0
233054,-0.915,-0.067,0.203,-152.000,-35.420,7.214,18.0,0.0
233147,-1.026,-0.094,0.216,-7.336,-34.481,65.015,0.0,0.0
233241,-0.893,0.084,0.077,-40.229,-18.046,58.542,0.0,198.0
233338,-0.845,0.089,0.072,-66.595,-3.771,26.847,0.0,200.0
233433,-0.879,0.116,0.081,-37.756,1.809,24.405,0.0,194.0
233526,-0.932,0.203,0.067,-13.015,12.802,15.687,0.0,0.0
233620,-1.222,0.219,0.020,8.802,2.237,9.969,0.0,0.0
233714,-0.912,0.199,0.066,38.290,-1.557,52.863,0.0,0.0
233807,-0.766,0.340,-0.007,-45.053,26.679,45.489,0.0,0.0
233902,-0.651,0.214,0.031,-35.985,24.344,-13.405,0.0,0.0
233996,-0.798,0.282,-0.057,11.817,15.870,-63.412,0.0,0.0
234090,-2.000,0.440,-0.747,-117.275,-11.405,13.290,0.0,0.0
234187,2.000,-2.000,0.290,-38.496,-227.351,-212.466,0.0,0.0
234279,-2.000,2.000,0.972,182.855,-49.832,-208.107,173.0,0.0
234371,-0.416,1.773,0.505,-76.221,-32.969,-29.901,141.0,0.0
234461,0.175,0.677,0.158,-157.840,-70.901,172.305,126.0,0.0
234547,-0.577,0.302,0.221,-27.702,-61.252,250.130,69.0,0.0
234641,-1.516,1.787,0.448,83.229,-74.328,250.130,0.0,0.0
234735,-2.000,0.406,-0.103,-250.137,112.244,179.656,0.0,0.0
234829,-0.729,0.203,0.603,181.985,-14.832,113.504,0.0,0.0
234917,-0.022,1.290,0.737,-6.527,-49.183,126.275,36.0,0.0
235005,-0.045,0.884,0.697,-32.328,46.893,90.664,80.0,0.0
235099,0.002,1.053,0.905,128.229,-9.344,125.061,0.0,0.0
235193,0.387,1.156,0.146,201.183,-14.237,140.573,0.0,0.0
235287,0.542,0.991,0.168,54.786,21.000,168.542,0.0,0.0
235381,1.142,0.843,0.022,81.489,2.840,86.855,0.0,0.0
235475,0.439,0.553,0.004,-52.756,71.168,15.092,0.0,0.0
235570,0.934,0.435,0.106,-59.069,25.580,-11.000,0.0,0.0
235655,0.739,0.681,-0.139,16.366,-4.420,-31.519,37.0,0.0
235752,0.682,0.756,-0.047,22.947,16.786,-48.519,0.0,0.0
235846,0.712,0.898,-0.122,56.374,-21.519,-43.985,0.0,0.0
235940,0.800,1.206,-0.091,-45.901,85.672,-51.656,0.0,0.0
236035,0.316,0.672,0.331,-72.099,19.863,-23.985,0.0,0.0
236129,0.362,1.104,0.182,9.824,17.420,13.023,0.0,0.0
236223,0.480,0.937,0.420,6.969,11.534,11.718,0.0,0.0
236317,0.336,1.065,0.316,-32.557,4.832,20.947,0.0,0.0
236411,0.207,0.688,0.169,19.344,-17.504,35.565,0.0,0.0
236506,0.392,0.805,0.140,33.351,-7.389,28.649,0.0,0.0
236603,0.448,0.586,0.206,-29.985,-18.260,-1.611,0.0,0.0
236697,0.949,0.763,0.119,15.366,-28.611,-37.031,0.0,0.0
236797,0.141,1.002,-0.255,4.069,-9.198,-63.656,0.0,0.0
236891,0.371,1.027,0.043,36.603,-20.916,-30.176,0.0,0.0
236984,0.382,0.961,0.012,-6.489,-15.702,-11.481,0.0,0.0
237077,0.320,0.981,-0.021,-3.168,-3.733,-5.008,0.0,0.0
237170,0.339,0.958,0.031,-8.634,7.664,-13.695,0.0,0.0
237263,0.183,0.958,0.047,-15.313,12.443,-10.847,0.0,0.0
237357,0.253,0.982,0.046,-16.641,9.275,-9.489,0.0,0.0
237453,0.243,1.016,0.069,3.290,5.237,-6.786,0.0,0.0
237546,0.216,0.961,0.111,-15.183,8.366,-16.870,0.0,0.0
237639,0.202,1.022,0.090,-17.107,15.947,-25.466,0.0,0.0
237732,0.187,0.983,0.239,-24.985,5.344,-28.031,0.0,0.0
237826,0.128,0.976,0.259,-10.695,8.748,-12.031,0.0,0.0
237919,0.125,0.970,0.249,-9.466,10.130,-13.282,0.0,0.0
238012,0.090,0.963,0.291,-5.405,10.504,-4.565,0.0,0.0
238105,0.087,0.931,0.304,-3.443,1.847,-1.160,0.0,0.0
238198,0.062,0.958,0.287,8.794,-0.237,0.382,0.0,0.0
238291,0.091,0.992,0.201,7.191,-0.443,-5.176,0.0,0.0
238388,0.095,0.968,0.262,-7.412,2.260,-7.443,0.0,0.0
238481,0.051,0.986,0.244,-6.718,0.824,-3.000,0.0,0.0
238574,0.067,0.988,0.264,-14.443,0.519,0.664,0.0,0.0
238667,0.055,0.969,0.302,-15.878,3.099,2.710,0.0,0.0
238760,0.099,0.935,0.376,-6.382,4.153,2.695,0.0,0.0
238854,0.069,0.955,0.342,2.031,-0.718,-2.916,0.0,0.0
238947,0.106,0.928,0.371,10.947,-0.649,-1.344,0.0,0.0
239040,0.093,0.972,0.271,7.771,-4.015,-7.840,0.0,0.0
239133,0.043,0.963,0.294,-2.802,-1.969,-6.901,0.0,0.0
239229,0.044,0.946,0.331,5.481,5.710,8.809,0.0,0.0
239323,0.078,0.974,0.283,6.168,5.099,3.412,0.0,0.0
239416,0.067,0.955,0.333,-2.595,6.695,1.977,0.0,0.0
239509,0.087,0.943,0.319,8.924,2.908,-2.008,0.0,0.0
239602,0.071,0.949,0.315,4.023,5.679,2.611,0.0,0.0
239695,0.075,0.957,0.292,1.847,-2.634,-6.626,0.0,0.0
239789,0.055,0.953,0.312,1.962,-3.321,-5.221,0.0,0.0
239883,0.069,0.950,0.341,5.962,-3.779,-3.298,0.0,0.0
239976,0.051,0.906,0.337,8.321,-1.718,0.061,0.0,0.0
240069,0.005,1.061,0.152,-21.939,4.595,3.580,0.0,0.0
240165,0.039,0.906,0.379,-31.672,9.771,0.145,0.0,0.0
240259,0.063,0.914,0.424,21.466,-1.145,5.008,0.0,0.0
240353,0.056,1.035,0.185,30.366,7.992,2.038,0.0,0.0
240446,0.080,0.984,0.273,-4.405,-6.153,-7.168,0.0,0.0
240539,0.062,0.968,0.281,2.519,1.420,-0.336,0.0,0.0
240632,0.065,0.977,0.276,-5.733,3.244,-3.565,0.0,0.0
240726,0.041,0.963,0.291,-9.878,1.771,-3.275,0.0,0.0
240820,0.048,0.958,0.321,-2.214,0.443,-0.931,0.0,0.0
240913,0.046,0.962,0.325,0.588,-0.176,-1.595,0.0,0.0
241009,0.049,0.962,0.316,-0.863,0.038,-2.290,0.0,0.0
241102,0.040,0.957,0.319,-2.000,0.496,-2.031,0.0,0.0
241197,0.051,0.950,0.335,-1.183,0.237,-1.511,0.0,0.0
241290,0.045,0.961,0.328,-0.756,0.260,-1.168,0.0,0.0
241383,0.047,0.956,0.339,-0.802,0.389,-1.260,0.0,0.0
241477,0.042,0.952,0.333,0.565,0.374,-0.802,0.0,0.0
241570,0.046,0.953,0.341,0.611,0.389,-1.534,0.0,0.0
241664,0.040,0.957,0.342,0.031,0.267,-0.977,0.0,0.0
241757,0.035,0.951,0.340,-0.588,0.550,-0.718,0.0,0.0
241851,0.043,0.953,0.348,1.740,0.214,-0.679,0.0,0.0
241947,0.036,0.958,0.332,0.328,0.282,-1.252,0.0,0.0
242040,0.042,0.947,0.336,0.786,0.374,-0.947,0.0,0.0
242135,0.049,0.954,0.342,0.786,0.053,-0.573,0.0,0.0
242228,0.042,0.948,0.336,0.901,0.107,-1.137,0.0,0.0
242322,0.034,0.953,0.340,1.702,0.176,-0.405,0.0,0.0
242415,0.038,0.945,0.340,0.496,0.145,-0.893,0.0,0.0
242509,0.044,0.952,0.346,2.092,-0.031,-0.695,0.0,0.0
242603,0.045,0.948,0.340,0.221,0.206,-1.229,0.0,0.0
242696,0.042,0.955,0.341,1.504,0.000,-0.641,0.0,0.0
242793,0.043,0.947,0.344,0.771,0.260,-1.069,0.0,0.0
242886,0.044,0.952,0.342,1.588,0.221,-0.893,0.0,0.0
242980,0.034,0.945,0.343,1.305,0.374,-0.427,0.0,0.0
243074,0.042,0.949,0.344,1.008,0.282,-1.145,0.0,0.0
243168,0.041,0.961,0.351,-0.626,0.656,-1.061,0.0,0.0
243261,0.005,0.931,0.378,7.153,0.221,5.672,0.0,0.0
243354,0.072,0.958,0.305,16.313,-4.489,-0.275,0.0,0.0
243448,0.058,1.001,0.260,-21.504,3.130,-3.565,0.0,0.0
243543,0.035,0.901,0.448,-18.252,6.977,11.328,0.0,0.0
243636,0.016,0.987,0.209,77.664,1.718,33.893,0.0,0.0
243733,0.142,1.037,0.218,-44.718,11.176,20.763,0.0,0.0
243826,0.180,1.135,0.349,-77.397,1.504,45.153,0.0,0.0
243920,0.282,1.046,0.472,-111.527,-16.916,82.649,0.0,0.0
244015,0.297,0.803,0.632,-104.878,-61.321,106.466,0.0,0.0
244109,0.481,0.466,0.611,-112.252,-103.206,90.412,0.0,0.0
244197,0.661,0.050,0.598,-13.557,-96.733,81.443,0.0,107.0
244278,0.777,0.245,0.394,-27.282,-84.015,67.076,63.0,108.0
244360,0.901,0.002,0.356,-14.504,-64.473,57.939,59.0,121.0
244441,0.952,0.076,0.248,-4.191,-46.420,47.122,57.0,119.0
244526,0.964,-0.128,0.248,3.130,-28.901,17.931,53.0,121.0
244611,0.999,-0.093,0.211,14.656,-14.427,3.313,51.0,0.0
244697,1.009,-0.057,0.197,13.931,1.870,-5.282,53.0,0.0
244791,0.958,-0.014,0.222,-3.916,12.947,1.679,0.0,0.0
244872,0.983,-0.002,0.259,3.252,6.863,-5.817,58.0,117.0
244953,0.954,-0.103,0.281,15.275,10.008,-12.740,58.0,116.0
245033,0.958,-0.186,0.212,59.626,33.771,-19.840,61.0,114.0
245114,0.917,-0.334,0.335,102.534,73.031,-51.069,63.0,99.0
245202,0.934,0.016,0.335,97.466,109.458,-96.122,0.0,104.0
245296,0.547,0.257,0.496,54.145,133.725,-155.748,0.0,121.0
245390,0.203,0.733,0.607,-36.786,71.550,-137.069,0.0,0.0
245484,0.270,0.495,0.864,56.221,31.427,-55.534,0.0,0.0
245578,0.285,0.813,0.607,12.168,30.947,-57.313,0.0,0.0
245672,0.102,0.828,0.619,36.008,36.366,-66.061,0.0,0.0
245766,0.158,1.145,0.837,-3.366,18.595,-46.023,0.0,0.0
245852,-0.129,0.714,0.746,30.122,-20.527,11.473,54.0,0.0
245946,0.246,0.816,0.469,26.481,2.206,-16.374,0.0,0.0
246040,-0.286,0.616,0.654,-46.252,3.420,1.947,0.0,0.0
246128,0.025,0.833,0.688,-34.733,8.229,-3.412,40.0,0.0
246214,0.003,0.637,0.762,6.267,4.137,-13.679,54.0,0.0
246299,-0.023,0.783,0.626,-2.809,0.321,-13.450,53.0,0.0
246386,-0.268,0.706,0.643,-12.725,4.618,-13.321,68.0,0.0
246471,-0.075,0.720,0.685,46.786,-11.962,8.076,51.0,0.0
246556,0.008,0.939,0.534,2.542,-2.069,5.748,34.0,0.0
246640,0.040,0.924,0.460,7.061,-1.450,-2.069,30.0,0.0
246725,-0.009,0.813,0.611,12.420,-3.489,-4.084,30.0,0.0
246810,-0.079,0.588,0.812,31.878,-2.832,7.863,36.0,0.0
246898,-0.083,0.764,0.562,50.763,-15.000,6.160,33.0,0.0
246982,-0.070,0.598,0.680,32.023,-7.031,3.405,30.0,0.0
247067,0.060,0.700,0.661,94.519,-17.611,2.985,30.0,0.0
247151,-0.029,1.199,-0.012,14.076,5.939,-2.229,25.0,0.0
247235,-0.055,0.673,0.754,45.359,11.634,9.099,20.0,0.0
247319,0.054,1.256,-0.241,13.969,-7.183,-4.557,20.0,0.0
247403,0.101,0.948,0.438,-80.809,-17.252,-29.992,19.0,0.0
247488,0.086,0.859,0.968,-7.870,-9.672,-53.153,50.0,0.0
247573,-0.282,1.247,0.857,94.977,55.916,-114.771,37.0,0.0
247661,-0.717,1.055,-0.263,219.069,-86.908,-111.893,39.0,0.0
247747,-0.691,1.289,-0.330,15.802,-49.183,-66.496,36.0,0.0
247832,-0.534,0.567,-0.554,161.710,-91.191,-134.191,39.0,0.0
247918,-0.723,0.694,-0.805,250.130,-160.237,-215.886,51.0,0.0
248012,-0.696,0.906,-0.065,213.336,-130.618,-202.588,0.0,0.0
248097,-0.623,0.402,0.383,126.420,-42.885,-197.573,40.0,0.0
248193,-1.281,0.249,-0.164,60.359,57.550,-101.595,0.0,0.0
248287,-0.713,-0.177,0.021,-127.504,11.679,-1.473,0.0,0.0
248380,-0.684,-0.271,0.224,-80.252,20.466,34.466,42.0,0.0
248473,-0.984,-0.563,0.188,50.511,22.053,20.924,0.0,0.0
248566,-0.976,-0.227,-0.002,208.969,-8.260,52.023,0.0,0.0
248659,-0.276,0.924,-0.087,134.000,21.412,18.321,0.0,0.0
248753,-0.903,0.217,0.058,-145.504,32.298,-21.489,0.0,0.0
248846,-2.000,-0.324,-0.444,-22.443,-51.809,143.290,190.0,0.0
248939,-1.091,0.220,-0.365,-63.412,-40.435,164.779,0.0,0.0
249032,-0.562,-0.515,-0.229,-14.092,-34.756,-1.458,0.0,0.0
249125,-0.748,0.000,-0.314,126.771,-4.137,-38.351,0.0,0.0
249222,-1.049,0.303,-0.168,36.763,4.252,-80.969,0.0,0.0
249316,-1.188,0.140,-0.045,4.649,26.931,-86.588,0.0,0.0
249409,-0.813,0.039,0.136,88.244,-10.252,-29.466,0.0,0.0
249502,-0.647,0.230,0.068,157.832,11.252,1.206,0.0,0.0
249593,-0.798,0.437,0.136,40.634,30.420,2.313,166.0,0.0
249684,-1.278,0.297,0.112,-17.214,21.603,2.137,156.0,0.0
249775,-1.515,-0.049,0.048,29.145,-54.031,101.214,143.0,0.0
249864,-1.565,0.018,-0.222,40.450,-94.863,232.863,128.0,0.0
249957,-0.707,0.140,-0.034,54.198,-92.092,167.298,192.0,0.0
250047,-0.499,0.160,-0.160,66.427,-82.557,50.618,188.0,97.0
250133,-0.469,0.251,-0.206,84.435,-72.886,-67.214,183.0,96.0
250222,-1.191,0.406,-0.230,152.458,-51.115,-218.855,108.0,0.0
250308,-1.458,0.283,-0.082,164.725,10.748,-223.305,111.0,164.0
250397,-1.208,0.272,-0.059,60.305,-15.122,-157.794,117.0,0.0
250490,-0.783,0.221,0.017,204.641,19.679,-94.832,0.0,200.0
250578,-0.681,0.704,-0.073,18.046,25.160,-52.809,105.0,0.0
250673,-1.240,0.393,0.065,-109.855,43.969,3.893,0.0,0.0
250769,-1.462,-0.269,0.154,-70.321,-42.893,190.840,0.0,0.0
250856,-1.641,0.033,-0.139,-11.786,-89.466,250.130,92.0,0.0
250950,-0.844,0.183,-0.053,-16.328,-85.756,234.786,196.0,0.0
251035,-0.516,0.127,-0.028,-22.748,-66.931,90.229,154.0,98.0
251120,-0.648,0.178,-0.040,73.748,-48.626,-56.557,157.0,98.0
251206,-0.925,0.325,-0.165,114.939,-34.573,-164.489,176.0,96.0
251300,-1.205,0.229,-0.106,176.962,-31.046,-250.137,0.0,0.0
251394,-1.568,0.478,-0.263,99.855,1.351,-221.420,0.0,193.0
251490,-1.034,0.142,0.063,60.794,2.641,-99.794,0.0,190.0
251583,-0.846,0.410,-0.052,72.176,11.977,-32.580,0.0,189.0
251676,-0.839,0.473,0.042,-22.260,27.420,-26.084,0.0,195.0
251764,-1.163,0.258,0.095,-34.328,14.344,35.137,101.0,0.0
251857,-1.281,0.141,0.020,-22.504,-13.061,159.824,0.0,0.0
251951,-1.810,0.141,-0.223,-90.023,-37.145,250.130,0.0,0.0
252039,-0.985,0.076,-0.024,-80.687,-70.489,239.069,0.0,97.0
252124,-0.503,0.108,0.007,-20.527,-52.344,130.580,142.0,99.0
252209,-0.538,0.244,-0.021,43.916,-39.863,-18.634,152.0,99.0
252299,-0.926,0.366,-0.022,122.397,-32.565,-193.908,199.0,96.0
252393,-1.047,0.302,-0.029,161.168,-4.863,-241.542,0.0,0.0
252485,-1.515,0.363,-0.196,35.115,-8.221,-204.580,178.0,0.0
252578,-1.051,0.145,0.083,71.725,1.366,-91.687,177.0,0.0
252672,-0.883,0.335,-0.063,121.824,-2.481,-48.115,0.0,0.0
252760,-0.724,0.436,-0.023,77.084,18.046,-44.023,0.0,104.0
252849,-1.152,0.487,-0.016,-27.321,37.099,-24.267,0.0,111.0
252938,-1.240,-0.022,0.076,-66.969,-1.023,117.359,191.0,123.0
253034,-1.603,0.121,-0.066,-19.969,-35.290,250.130,0.0,0.0
253128,-0.994,0.188,-0.031,-41.137,-59.008,226.214,0.0,0.0
253221,-0.622,0.182,0.036,-40.282,-53.748,128.427,199.0,0.0
253316,-0.627,0.235,0.045,24.130,-46.511,-17.840,199.0,0.0
253408,-1.125,0.456,-0.116,140.519,-56.443,-138.305,172.0,0.0
253501,-0.708,0.479,-0.051,174.214,-19.847,-153.626,0.0,193.0
253593,-1.598,0.102,0.088,97.038,-42.824,-157.557,0.0,168.0
253685,-0.921,0.348,-0.080,25.130,-19.496,-125.527,0.0,166.0
253777,-0.992,0.362,-0.019,-11.855,18.046,-79.122,0.0,168.0
253868,-1.057,0.352,-0.066,-35.664,45.840,-21.733,111.0,173.0
253956,-0.366,0.579,0.153,-48.794,102.573,27.290,102.0,183.0
254043,-2.000,0.182,-0.453,-164.321,-116.878,-77.481,91.0,197.0
254137,-1.298,-0.786,-0.538,207.008,-54.870,250.130,0.0,0.0
254231,0.133,0.461,-0.288,97.031,-42.214,116.229,0.0,0.0
254321,-0.804,0.031,-0.144,88.679,-64.229,-50.282,0.0,145.0
254412,-0.999,0.224,-0.401,167.809,-110.115,-25.710,0.0,139.0
254502,-0.770,0.471,-0.326,196.786,-92.794,-44.679,0.0,132.0
254594,-0.835,0.554,-0.392,135.374,-100.466,-53.008,0.0,107.0
254684,-0.867,0.431,-0.312,131.427,-74.916,-15.305,0.0,123.0
254773,-0.843,0.422,-0.270,71.695,-76.557,25.214,0.0,121.0
254862,-0.778,0.300,-0.159,79.061,-85.504,35.565,0.0,115.0
254947,-0.965,0.437,-0.125,-14.519,-105.496,58.878,0.0,40.0
255035,-0.908,0.410,0.011,-67.313,-171.511,109.672,0.0,102.0
255123,-0.545,0.903,0.868,-111.679,-204.870,105.924,0.0,105.0
255208,-0.072,1.310,1.620,-150.908,-65.924,-45.611,0.0,30.0
255288,0.028,-0.266,0.747,-161.122,-105.450,15.397,69.0,36.0
255371,0.532,-0.870,0.591,-209.870,-68.626,50.359,67.0,139.0
255455,0.359,-0.757,0.422,-97.244,-104.603,-19.519,66.0,143.0
255538,0.496,-0.325,0.301,86.214,-83.427,4.916,66.0,142.0
255619,0.930,-0.118,0.490,-24.992,-21.832,-18.977,38.0,139.0
255700,0.481,-0.461,0.881,-95.679,72.748,-57.122,45.0,138.0
255783,-0.224,-0.590,1.106,114.931,120.580,-55.466,67.0,134.0
255865,0.176,0.166,2.000,127.305,156.908,4.198,147.0,36.0
255945,-0.312,0.496,0.790,4.969,-4.107,20.061,70.0,35.0
256022,-0.160,0.057,1.010,-76.053,-33.832,-16.985,70.0,35.0
256100,0.019,-0.292,1.168,-32.908,-7.115,6.656,69.0,38.0
256178,-0.032,-0.170,1.012,27.458,1.863,-5.870,70.0,38.0
256254,-0.178,-0.039,0.928,26.466,2.672,2.191,69.0,37.0
256331,-0.046,-0.016,0.999,2.786,-6.427,0.397,69.0,37.0
256409,-0.040,-0.040,1.044,0.344,7.336,-5.695,71.0,37.0
256486,-0.081,-0.034,0.995,10.840,-3.573,-1.137,70.0,37.0
256564,-0.049,0.002,1.011,8.412,3.252,-1.267,71.0,38.0
256645,-0.068,0.005,0.996,4.969,-0.221,-1.992,71.0,36.0
256721,-0.094,0.007,0.972,-7.244,-0.618,-0.527,70.0,35.0
256798,-0.056,-0.046,1.006,-2.115,0.618,-0.229,70.0,38.0
256876,-0.083,-0.030,1.004,0.649,2.489,-2.069,70.0,37.0
256954,-0.058,0.009,0.996,1.863,1.198,0.015,71.0,36.0
257031,-0.104,-0.034,1.006,-3.733,0.160,0.115,70.0,37.0
257113,-0.067,-0.015,0.995,-0.305,-1.046,1.176,147.0,36.0
257193,-0.069,-0.037,1.000,-4.023,0.000,0.328,147.0,37.0
257271,-0.078,-0.056,1.001,-2.496,0.183,0.153,74.0,36.0
257356,-0.068,-0.039,1.000,0.649,1.145,0.580,147.0,36.0
257438,-0.076,-0.057,1.012,0.855,-0.939,-0.496,147.0,36.0
257515,-0.079,-0.042,0.994,-1.679,0.153,-0.802,69.0,36.0
257597,-0.074,-0.048,1.007,0.618,0.198,0.069,147.0,37.0
257679,-0.082,-0.063,1.005,-0.748,1.389,-1.168,147.0,37.0
257761,-0.079,-0.047,0.997,-0.198,0.656,-0.489,146.0,37.0
257838,-0.084,-0.062,1.004,-0.191,-0.137,0.198,69.0,36.0
257915,-0.075,-0.064,0.989,-2.527,0.756,-0.344,70.0,36.0
257993,-0.157,-0.056,1.055,-9.695,-11.855,-6.374,73.0,37.0
258078,-0.303,0.235,1.005,-166.656,-107.832,-67.977,44.0,133.0
258160,0.229,-0.905,1.315,-72.405,-146.924,-39.588,43.0,136.0
258242,0.299,-0.104,0.561,55.939,-145.802,-10.122,46.0,136.0
258325,0.511,-0.325,0.544,-55.519,-105.550,-16.450,68.0,138.0
258407,0.704,-0.416,0.545,-12.824,-66.985,-10.863,47.0,140.0
258490,0.770,-0.377,0.510,-4.221,-38.718,-12.855,49.0,141.0
258573,0.730,-0.367,0.527,0.878,-23.336,-14.237,68.0,140.0
258657,0.786,-0.325,0.495,1.000,-12.595,-5.092,68.0,140.0
258744,0.768,-0.366,0.524,-5.458,-5.756,-2.099,68.0,152.0
258827,0.760,-0.342,0.505,-1.275,1.008,-0.718,68.0,140.0
258911,0.783,-0.379,0.540,1.908,2.725,2.252,68.0,152.0
258995,0.760,-0.349,0.539,3.496,2.809,5.328,68.0,152.0
259079,0.758,-0.416,0.573,0.878,0.504,1.870,68.0,152.0
259162,0.766,-0.366,0.543,4.809,-0.931,-0.260,52.0,153.0
259245,0.754,-0.333,0.514,10.809,3.794,4.122,67.0,140.0
259329,0.757,-0.413,0.556,-0.466,5.496,5.160,67.0,141.0
259418,0.757,-0.410,0.538,6.099,7.435,1.427,68.0,141.0
259503,0.709,-0.449,0.500,43.756,26.450,2.733,67.0,139.0
259584,0.674,-0.403,0.479,76.221,64.947,2.298,49.0,137.0
259664,0.596,-0.316,0.507,69.183,94.366,-13.153,51.0,134.0
259753,0.530,-0.138,0.793,50.229,117.626,-47.901,0.0,131.0
259841,0.254,0.074,1.018,15.534,118.061,-32.725,152.0,128.0
259922,0.220,-0.087,1.157,36.496,92.908,-15.198,77.0,127.0
259997,0.083,0.088,1.110,59.557,81.947,-1.847,50.0,29.0
260073,0.073,0.096,1.154,8.313,71.634,0.031,53.0,29.0
260150,0.052,0.039,1.162,-0.947,38.611,24.252,81.0,27.0
260239,-0.054,0.174,0.984,-23.427,15.244,45.275,160.0,121.0
260319,-0.042,-0.007,0.909,-49.481,1.885,49.130,57.0,105.0
260399,0.000,0.046,0.879,25.214,5.809,65.252,57.0,103.0
260477,-0.189,0.357,0.836,18.389,10.267,76.702,57.0,102.0
260558,-0.184,0.273,0.925,20.573,7.588,95.786,58.0,127.0
260638,-0.166,0.420,0.951,36.725,30.832,101.336,34.0,128.0
260719,-0.242,0.332,0.954,8.061,32.954,112.893,52.0,132.0
260812,-0.180,0.370,0.918,35.908,39.519,124.153,0.0,0.0
260897,-0.342,0.702,0.868,11.969,59.595,119.092,42.0,0.0
260984,-0.477,0.511,0.855,-50.427,24.183,90.504,42.0,0.0
261078,-0.355,0.471,0.850,17.466,10.412,43.496,0.0,0.0
261171,-0.240,0.642,0.773,1.924,36.634,19.916,0.0,0.0
261257,-0.227,0.575,0.806,-49.832,28.603,22.344,70.0,0.0
261343,-0.208,0.298,0.913,-42.794,-18.519,21.145,77.0,0.0
261430,-0.222,0.288,0.955,3.832,-32.122,20.053,76.0,0.0
261516,-0.214,0.250,1.003,-13.481,-11.176,23.145,73.0,0.0
261609,-0.206,0.158,0.975,-34.573,-1.084,8.321,0.0,0.0
261703,-0.238,0.180,1.008,-14.588,-3.466,-1.435,0.0,0.0
261791,-0.094,0.227,0.910,3.695,0.794,-3.046,64.0,0.0
261877,-0.092,0.193,0.910,-19.252,2.290,-5.252,63.0,0.0
261962,-0.177,0.247,0.943,-5.489,8.779,-3.863,64.0,0.0
262048,-0.166,0.317,0.922,-12.702,16.672,-7.534,62.0,0.0
262133,-0.127,0.211,1.004,6.313,4.298,-0.298,61.0,0.0
262219,-0.112,0.342,1.038,-1.878,-0.832,5.008,60.0,0.0
262304,-0.151,0.296,1.079,-17.969,-12.321,20.908,58.0,0.0
262390,-0.096,0.287,1.007,-30.878,-13.534,22.863,57.0,0.0
262475,-0.131,0.160,0.973,-39.282,-7.519,16.939,48.0,0.0
262563,-0.137,0.065,0.895,-38.733,24.863,-4.450,52.0,0.0
262647,-0.206,-0.171,0.901,-80.695,27.397,-36.779,45.0,0.0
262732,-0.235,-0.345,0.906,-15.015,11.015,-49.924,45.0,0.0
262817,-0.126,-0.276,0.871,-1.969,17.992,-31.511,43.0,0.0
262901,-0.090,-0.372,0.927,-11.901,22.382,-17.611,42.0,0.0
262986,-0.151,-0.272,0.896,-1.191,11.145,10.282,43.0,0.0
263071,-0.148,-0.302,0.908,29.725,-16.634,30.160,44.0,0.0
263156,-0.240,-0.146,0.891,42.305,-15.656,59.244,44.0,0.0
263243,-0.477,-0.120,1.019,23.252,-13.855,44.389,45.0,0.0
263329,-0.381,0.022,0.966,75.870,-19.802,23.969,52.0,0.0
263415,-0.325,0.305,1.072,51.809,5.038,-39.733,66.0,0.0
263500,-0.052,0.344,1.055,3.771,20.229,-42.969,56.0,0.0
263586,-0.178,0.135,0.968,-0.695,0.618,-38.901,58.0,0.0
263671,-0.341,0.240,0.866,-7.275,-17.099,-29.092,60.0,0.0
263757,-0.138,0.077,0.951,-3.481,-27.924,-25.015,61.0,0.0
263843,-0.041,0.189,1.030,24.649,-2.008,-36.244,62.0,0.0
263929,-0.162,0.170,1.056,20.198,14.733,-2.847,63.0,0.0
264017,-0.185,0.006,0.999,-35.832,-10.893,2.061,63.0,0.0
264103,-0.195,0.054,0.984,36.214,-13.603,-26.450,65.0,0.0
264190,-0.159,0.253,0.954,7.160,-1.061,-37.733,67.0,0.0
264276,-0.152,0.209,0.978,-0.985,10.214,-27.351,69.0,0.0
264363,-0.171,0.164,0.979,-18.588,8.870,-7.908,68.0,0.0
264449,-0.234,0.067,0.986,-19.748,-2.496,-7.977,72.0,0.0
264536,-0.212,0.009,0.992,-1.634,-3.382,-25.656,68.0,0.0
264622,-0.135,0.106,1.029,-13.015,17.412,-33.130,67.0,0.0
264708,-0.227,0.041,1.019,-19.527,6.840,-23.053,66.0,0.0
264805,-0.270,-0.026,0.965,-15.412,-1.336,-25.176,0.0,0.0
264891,-0.292,-0.046,0.935,-23.351,9.397,-49.366,65.0,0.0
264977,-0.281,-0.140,0.980,-15.595,18.023,-66.908,63.0,0.0
265063,-0.272,-0.173,0.940,-12.542,10.504,-80.115,62.0,0.0
265148,-0.268,-0.185,0.926,10.779,-0.840,-73.130,62.0,0.0
265235,-0.165,-0.253,0.841,-9.198,-23.435,-54.351,67.0,0.0
265321,-0.033,-0.353,0.864,-14.458,-15.237,-27.885,65.0,0.0
265407,0.022,-0.448,0.892,-4.023,-8.359,-8.321,66.0,0.0
265493,-0.059,-0.344,0.975,18.092,-0.374,8.718,68.0,0.0
265583,-0.049,-0.314,1.031,20.183,-7.718,14.656,70.0,0.0
265668,-0.102,-0.286,1.028,19.015,-21.252,19.267,73.0,171.0
265754,-0.034,-0.181,0.947,35.565,-17.794,17.672,75.0,0.0
265843,0.001,-0.120,0.905,17.718,-5.947,19.855,118.0,0.0
265930,0.013,-0.061,0.906,23.008,5.405,27.412,70.0,0.0
266016,-0.070,-0.025,0.969,23.458,11.969,31.718,71.0,0.0
266103,-0.235,-0.037,1.036,2.252,-0.061,31.718,72.0,0.0
266189,-0.091,-0.132,0.978,38.985,-2.046,28.229,73.0,0.0
266276,-0.127,0.025,0.955,20.244,2.305,4.573,75.0,0.0
266366,-0.067,0.091,0.973,45.053,5.290,9.282,77.0,0.0
266454,-0.084,0.161,0.980,25.786,11.305,1.061,79.0,0.0
266541,-0.064,0.213,1.054,27.214,9.870,-3.740,81.0,0.0
266628,-0.001,0.198,1.023,12.076,-2.321,8.359,84.0,0.0
266715,0.021,0.368,1.081,16.359,8.046,5.374,85.0,0.0
266803,-0.108,0.344,1.048,-1.046,15.580,25.328,88.0,0.0
266887,-0.124,0.323,0.968,-17.542,21.573,36.733,37.0,0.0
266972,-0.246,0.247,0.934,-15.618,17.015,29.908,36.0,0.0
267057,-0.281,0.237,0.892,-10.008,16.405,30.168,36.0,0.0
267147,-0.257,0.206,0.961,-20.267,18.099,27.412,79.0,0.0
267233,-0.282,0.144,0.994,-24.710,7.809,12.046,65.0,0.0
267319,-0.218,0.080,1.052,-4.336,10.084,3.198,58.0,0.0
267406,-0.185,0.021,0.973,-0.565,-6.504,9.321,83.0,0.0
267494,-0.029,0.147,0.879,7.115,12.771,12.603,83.0,0.0
267579,-0.128,0.028,0.957,-46.305,26.985,-4.580,52.0,0.0
267664,-0.095,-0.043,0.938,3.000,35.305,2.618,45.0,0.0
267750,-0.287,0.171,1.132,-1.382,39.198,-2.061,46.0,0.0
267835,-0.632,0.021,1.121,56.878,17.603,6.771,51.0,0.0
267924,-0.545,0.281,0.881,-9.023,39.763,15.031,50.0,0.0
268012,-0.716,0.164,1.049,-55.153,41.137,26.649,91.0,0.0
268097,-0.799,0.257,1.075,-14.076,26.427,40.863,43.0,0.0
268182,-0.637,0.240,0.961,-30.802,14.160,30.435,36.0,0.0
268267,-0.548,0.166,0.835,-8.588,3.649,25.328,40.0,0.0
268351,-0.532,0.228,0.687,24.840,-2.977,20.878,36.0,0.0
268436,-0.459,0.058,0.599,-21.550,-20.557,11.511,40.0,0.0
268520,-0.393,0.000,0.624,-13.725,-31.382,5.794,22.0,0.0
268604,-0.324,0.038,0.745,-4.397,-26.832,-10.443,22.0,0.0
268692,-0.415,0.083,0.812,-10.115,-17.122,-10.344,25.0,0.0
268777,-0.358,-0.019,0.892,-4.992,-20.198,-15.916,37.0,0.0
268861,-0.315,0.027,0.890,0.496,-21.290,-3.252,22.0,0.0
268946,-0.283,0.023,0.896,7.603,-22.771,5.901,43.0,0.0
269031,-0.330,0.016,0.893,10.298,-20.366,12.573,44.0,0.0
269121,-0.267,0.056,0.955,13.847,-9.191,4.557,116.0,0.0
269206,-0.282,0.098,0.957,11.130,-10.748,-1.702,44.0,0.0
269295,-0.262,0.093,0.837,60.427,8.779,-12.435,119.0,0.0
269390,-0.289,0.169,0.642,138.580,61.641,-42.473,154.0,0.0
269483,-0.498,0.366,0.538,171.382,107.702,-67.305,159.0,0.0
269575,-0.675,0.325,0.496,174.565,122.886,-80.939,0.0,168.0
269667,-0.935,0.763,0.107,248.481,83.374,-74.260,0.0,157.0
269758,-0.867,0.898,-0.094,105.015,28.137,-101.557,0.0,151.0
269849,-0.948,0.510,-0.036,26.863,26.237,-88.328,0.0,147.0
269940,-1.081,0.441,-0.135,-10.031,15.954,-72.328,0.0,134.0
270030,-1.015,0.336,-0.128,-43.344,-0.191,-24.565,0.0,134.0
270121,-1.013,0.322,-0.120,-36.779,-15.496,15.450,0.0,138.0
270217,-1.010,0.293,-0.083,-10.595,-38.115,30.153,0.0,143.0
270308,-0.991,0.266,-0.063,38.565,-38.397,52.695,0.0,157.0
270406,-0.880,0.338,-0.056,23.198,-21.176,50.191,0.0,161.0
270497,-0.843,0.369,-0.006,-47.702,-1.267,22.183,0.0,165.0
270588,-0.941,0.180,0.067,-18.374,12.489,-19.679,0.0,167.0
270681,-0.939,0.223,0.074,38.641,3.695,-58.840,0.0,168.0
270771,-0.940,0.184,0.083,15.756,24.397,-75.756,0.0,156.0
270862,-0.824,0.231,0.096,28.015,34.969,-83.840,0.0,154.0
270955,-1.049,0.149,-0.060,-2.656,35.824,-73.817,0.0,153.0
271046,-1.033,0.176,0.127,28.557,13.992,-21.031,0.0,155.0
271137,-0.937,0.321,0.146,28.947,-10.344,32.229,0.0,161.0
271229,-1.277,0.381,-0.033,33.527,-19.550,69.855,0.0,171.0
271322,-1.202,0.425,-0.166,-24.763,-10.344,112.069,0.0,189.0
271415,-1.104,0.340,-0.181,-102.435,-8.412,130.504,0.0,0.0
271509,-0.906,0.196,-0.103,-76.374,-27.298,93.092,0.0,0.0
271602,-0.735,0.230,-0.020,-13.573,-23.420,60.580,0.0,0.0
271695,-0.744,0.300,-0.057,8.344,-14.450,-0.603,0.0,0.0
271792,-1.069,0.307,-0.057,32.992,1.618,-72.260,0.0,0.0
271885,-1.173,0.240,-0.052,101.405,6.099,-110.336,0.0,0.0
271978,-0.979,0.288,-0.071,113.420,-1.031,-128.519,0.0,0.0
272072,-1.052,0.294,-0.046,101.511,-6.679,-119.725,0.0,0.0
272165,-0.864,0.280,-0.001,86.748,-2.527,-55.832,0.0,0.0
272259,-0.832,0.366,0.045,49.389,10.191,-29.122,0.0,0.0
272353,-0.900,0.389,0.098,14.420,23.237,-28.611,0.0,0.0
272443,-1.435,0.372,0.020,6.931,23.000,16.389,142.0,0.0
272536,-1.121,0.150,0.004,-61.496,-9.313,142.176,0.0,0.0
272632,-1.471,0.212,-0.097,-63.382,-31.221,211.351,0.0,0.0
272726,-0.857,0.186,-0.047,-62.954,-55.206,176.954,0.0,0.0
272820,-0.590,0.277,0.015,5.794,-29.489,74.023,0.0,0.0
272912,-0.783,0.330,-0.043,9.214,-13.511,-42.206,180.0,0.0
273005,-1.028,0.255,-0.023,57.702,-6.298,-125.656,0.0,0.0
273099,-1.217,0.228,-0.145,154.595,-1.435,-172.863,194.0,0.0
273192,-1.196,0.445,-0.179,66.168,0.977,-147.969,199.0,0.0
273286,-0.917,0.064,0.023,93.115,0.382,-69.405,0.0,0.0
273391,-0.812,0.434,-0.084,97.198,4.328,-26.634,0.0,0.0
273487,-0.831,0.387,0.094,11.000,26.252,-29.412,0.0,0.0
273583,-1.051,0.320,0.098,-15.252,21.221,-4.443,0.0,0.0
273675,-1.335,0.225,0.032,7.550,-5.244,71.939,139.0,0.0
273771,-1.432,0.168,0.016,-43.145,-36.176,202.221,195.0,0.0
273867,-1.188,0.111,-0.078,-33.695,-82.740,188.855,0.0,0.0
273957,-0.544,0.178,0.052,-5.298,-62.450,110.924,0.0,96.0
274048,-0.676,0.233,-0.018,19.550,-37.679,-10.076,0.0,97.0
274144,-0.737,0.229,0.013,90.031,-28.115,-97.985,0.0,0.0
274242,-1.447,0.261,-0.230,192.366,-30.725,-203.321,0.0,0.0
274334,-1.115,0.386,-0.209,108.053,-11.863,-141.458,127.0,0.0
274426,-1.034,0.204,-0.105,55.519,-9.130,-89.313,131.0,0.0
274519,-0.849,0.267,-0.106,153.160,2.489,-32.710,135.0,0.0
274612,-0.854,0.440,-0.001,80.573,16.382,-10.076,136.0,0.0
274704,-0.989,0.390,0.137,7.557,30.183,-7.260,133.0,0.0
274795,-1.154,0.334,0.157,-18.191,23.405,14.229,126.0,0.0
274886,-1.100,0.156,0.089,-35.924,-18.366,91.046,118.0,0.0
274977,-1.454,0.287,-0.055,-70.023,-68.023,142.695,109.0,0.0
275070,-1.049,0.057,0.201,-208.710,-153.115,89.176,99.0,0.0
275161,-0.762,0.252,0.470,-64.542,-161.977,73.687,93.0,0.0
275251,-0.639,0.379,0.616,-77.206,-154.229,21.000,89.0,0.0
275341,-0.408,0.223,0.739,-104.198,-120.779,-2.580,85.0,0.0
275430,-0.361,0.179,0.881,-39.084,-59.260,-28.229,83.0,0.0
275519,-0.247,0.045,0.816,-66.435,-43.481,-22.336,81.0,0.0
275608,-0.124,-0.081,0.856,-30.641,-30.664,-32.344,79.0,0.0
275696,0.050,-0.084,0.860,-18.206,-8.580,-29.496,51.0,0.0
275787,0.005,-0.169,0.951,-26.046,-3.618,-19.855,47.0,0.0
275874,0.020,-0.213,1.003,-29.168,-3.260,-9.893,42.0,0.0
275961,0.030,-0.201,1.028,-11.763,-2.969,-6.954,41.0,0.0
276048,0.043,-0.146,1.153,12.840,3.107,-2.389,40.0,0.0
276135,-0.048,-0.117,1.015,-1.198,-2.947,0.023,45.0,0.0
276224,-0.161,-0.091,0.823,47.885,27.504,-13.725,51.0,0.0
276313,0.008,-0.320,0.720,154.595,77.107,-34.947,80.0,0.0
276402,-0.261,0.222,0.315,186.069,138.183,-87.084,83.0,0.0
276492,-1.081,0.161,0.441,243.053,150.260,-115.237,86.0,0.0
276585,-1.399,0.665,-0.045,250.130,96.092,-159.573,92.0,0.0
276681,-1.287,0.510,-0.082,227.687,18.962,-203.008,0.0,0.0
276777,-1.203,0.425,-0.038,102.962,14.008,-115.656,200.0,0.0
276874,-0.841,0.260,0.024,68.863,12.794,-21.336,0.0,0.0
276970,-0.811,0.416,-0.003,61.038,22.221,3.985,0.0,0.0
277066,-0.922,0.397,0.164,-1.076,33.473,5.008,0.0,0.0
