Timestamp(ms),AccelX(g),AccelY(g),AccelZ(g),GyroX(deg/s),GyroY(deg/s),GyroZ(deg/s),DistanceLeft(cm),DistanceRight(cm)
165152,-1.100,0.640,-0.123,119.748,10.840,-96.397,0.0,0.0
165246,-1.067,0.571,-0.009,-53.641,51.947,-60.137,0.0,0.0
165340,-1.190,0.203,0.189,-92.908,31.939,24.863,0.0,0.0
165434,-1.042,0.138,0.143,76.092,-32.084,153.000,0.0,0.0
165527,-1.419,0.339,-0.165,2.733,-39.832,202.130,0.0,0.0
165620,-0.990,0.195,-0.114,-16.733,-29.840,205.573,0.0,0.0
165714,-0.695,0.255,-0.062,-6.458,-42.458,109.817,0.0,0.0
165811,-0.699,0.304,-0.109,8.023,-45.725,-27.931,187.0,0.0
165905,-0.861,0.316,-0.173,84.695,-47.809,-138.557,0.0,0.0
165998,-1.185,0.375,-0.187,155.771,-47.939,-239.046,0.0,0.0
166089,-1.248,0.700,-0.205,-5.374,16.779,-204.176,152.0,0.0
166181,-0.902,-0.191,0.199,-23.557,28.130,-63.061,164.0,0.0
166274,-0.805,0.155,-0.024,171.473,16.794,23.878,164.0,0.0
166363,-0.864,0.501,-0.065,147.351,27.145,8.992,0.0,116.0
166453,-0.964,0.452,0.063,37.588,33.733,8.626,0.0,120.0
166543,-1.299,0.490,0.071,3.206,27.069,55.504,0.0,130.0
166637,-1.526,0.310,0.001,-38.374,-5.176,181.947,0.0,146.0
166730,-1.264,0.218,-0.086,-50.321,-36.313,185.817,0.0,183.0
166824,-0.841,0.287,-0.040,-2.130,-35.824,136.985,0.0,199.0
166919,-0.645,0.269,-0.009,-3.588,-28.794,61.542,200.0,0.0
167011,-0.785,0.312,-0.024,25.748,-42.496,-54.672,171.0,0.0
167105,-1.135,0.352,-0.122,86.519,-55.221,-154.366,195.0,0.0
167198,-0.946,0.490,-0.157,124.038,-26.053,-164.863,0.0,184.0
167291,-1.167,0.289,-0.168,39.573,-13.947,-125.626,199.0,179.0
167388,-0.843,0.268,-0.229,94.282,11.252,-52.763,0.0,175.0
167487,-0.898,0.255,-0.135,92.275,14.435,-30.023,0.0,175.0
167579,-0.920,0.400,-0.073,84.641,34.092,-13.702,0.0,178.0
167671,-1.061,0.440,0.046,26.664,30.458,-0.473,0.0,184.0
167760,-1.058,0.265,0.085,47.725,1.099,59.573,0.0,139.0
167851,-1.077,0.497,-0.068,1.244,8.000,106.481,0.0,150.0
167941,-1.253,0.297,-0.133,-104.435,-24.756,105.939,0.0,146.0
168032,-1.029,0.137,-0.060,-34.649,-25.870,138.588,0.0,158.0
168123,-0.898,0.335,-0.103,-25.061,-23.634,105.099,0.0,169.0
168217,-0.868,0.250,-0.071,-15.557,-24.786,9.611,194.0,177.0
168309,-0.967,0.216,-0.186,85.809,-38.206,-110.763,0.0,178.0
168400,-0.946,0.301,-0.214,132.618,-16.496,-161.718,0.0,174.0
168493,-1.215,0.174,-0.142,104.466,-19.870,-155.000,0.0,170.0
168584,-0.848,0.265,-0.071,114.565,-4.015,-75.435,0.0,158.0
168674,-1.012,0.471,-0.085,65.740,-0.802,-58.412,0.0,157.0
168765,-0.993,0.458,-0.009,28.824,15.527,-43.809,0.0,162.0
168856,-1.000,0.348,0.060,-10.038,22.107,16.740,0.0,171.0
168952,-1.127,0.214,0.000,-36.260,-2.901,117.756,0.0,188.0
169046,-1.493,0.240,-0.109,-46.046,-30.336,203.702,0.0,0.0
169138,-1.042,0.224,-0.060,-73.855,-47.496,179.321,0.0,0.0
169232,-0.702,0.172,-0.023,-37.847,-41.397,109.679,0.0,0.0
169323,-0.647,0.236,-0.071,32.969,-27.550,-12.183,170.0,0.0
169416,-1.148,0.306,-0.172,82.046,-15.718,-118.046,0.0,0.0
169509,-0.980,0.242,-0.067,109.122,-2.061,-167.641,0.0,0.0
169603,-1.095,0.305,-0.155,78.855,-9.191,-161.573,0.0,0.0
169696,-0.964,0.178,-0.088,159.267,-2.817,-111.954,0.0,0.0
169792,-1.020,0.543,-0.127,89.336,15.473,-64.954,0.0,0.0
169885,-1.072,0.476,-0.017,-26.634,30.939,-44.595,0.0,0.0
169978,-1.263,0.295,0.022,-16.832,16.679,53.031,0.0,0.0
170072,-1.471,0.132,0.008,-23.328,-18.237,217.015,0.0,0.0
170165,-1.260,0.169,-0.104,-54.534,-41.099,242.718,195.0,0.0
170258,-0.676,0.196,-0.031,-49.099,-43.954,164.481,0.0,0.0
170349,-0.538,0.232,-0.061,-3.053,-34.588,29.748,163.0,0.0
170442,-0.855,0.291,-0.131,48.634,-21.534,-98.626,189.0,0.0
170539,-1.179,0.272,-0.199,127.893,-8.824,-200.763,0.0,0.0
170631,-1.277,0.349,-0.225,67.718,36.015,-176.908,175.0,0.0
170723,-1.046,0.171,-0.059,35.435,16.626,-120.000,183.0,0.0
170816,-0.928,0.265,-0.025,101.603,25.939,-83.679,0.0,0.0
170909,-0.947,0.372,0.044,70.931,20.893,-29.252,0.0,0.0
170998,-1.133,0.351,0.083,18.504,15.824,36.191,124.0,0.0
171091,-1.120,0.150,0.066,-15.702,-24.328,124.366,191.0,0.0
171183,-1.718,0.183,-0.110,8.237,-54.359,223.412,173.0,0.0
171277,-1.180,0.238,-0.113,-3.870,-71.191,223.511,0.0,0.0
171367,-0.657,0.224,-0.019,-42.931,-47.527,133.412,196.0,95.0
171452,-0.628,0.214,0.021,1.115,-35.496,9.153,163.0,96.0
171537,-0.766,0.243,-0.040,90.893,-45.969,-114.794,160.0,95.0
171631,-1.287,0.308,-0.219,205.489,-54.443,-225.267,0.0,0.0
171719,-1.256,0.498,-0.248,151.863,-24.221,-189.344,120.0,0.0
171808,-1.021,0.224,-0.106,7.794,-27.565,-113.527,125.0,0.0
171898,-0.939,0.196,-0.141,142.779,-5.092,-16.099,129.0,0.0
171987,-0.767,0.409,-0.184,122.649,4.565,-10.275,130.0,0.0
172080,-0.938,0.465,-0.052,17.275,44.145,-25.840,128.0,0.0
172169,-1.195,0.309,0.088,-43.687,41.305,7.450,123.0,0.0
172258,-1.297,-0.149,0.258,89.817,-14.328,124.084,116.0,0.0
172346,-1.038,0.482,-0.060,79.450,-9.809,180.939,108.0,199.0
172438,-1.210,0.303,-0.088,-112.603,-27.962,109.038,0.0,175.0
172526,-0.803,0.097,0.023,-57.931,-49.344,73.916,99.0,0.0
172618,-0.751,0.264,-0.038,65.771,-49.275,9.481,178.0,0.0
172711,-0.898,0.290,-0.118,90.863,-53.458,-48.511,0.0,0.0
172805,-0.950,0.320,-0.152,114.771,-35.359,-97.863,0.0,0.0
172902,-1.253,0.312,-0.193,112.939,-27.489,-136.779,0.0,0.0
172995,-1.096,0.247,-0.089,88.702,-3.618,-77.725,0.0,0.0
173088,-0.990,0.192,-0.045,74.397,-16.779,-39.924,0.0,0.0
173179,-0.718,0.331,-0.057,124.031,-1.344,-41.145,0.0,158.0
173271,-0.920,0.350,0.002,34.473,11.382,-36.046,0.0,156.0
173362,-0.929,0.299,0.106,4.374,23.359,-3.061,0.0,159.0
173454,-0.933,0.324,0.070,34.084,12.878,1.504,0.0,165.0
173546,-1.319,0.376,-0.005,11.298,21.145,15.725,0.0,175.0
173642,-1.343,0.141,0.046,-101.695,-13.550,165.092,0.0,191.0
173735,-1.227,0.106,-0.004,-53.779,-60.588,170.038,0.0,0.0
173830,-0.652,0.182,0.071,-3.748,-46.733,114.473,0.0,0.0
173923,-0.768,0.272,-0.031,2.473,-33.542,3.168,0.0,0.0
174016,-0.936,0.204,-0.005,58.435,-38.519,-89.931,0.0,0.0
174108,-1.316,0.267,-0.125,156.412,-36.397,-166.748,0.0,163.0
174201,-0.923,0.389,-0.132,103.115,2.382,-151.573,0.0,0.0
174296,-1.092,0.169,-0.015,0.847,-0.191,-106.802,0.0,0.0
174389,-0.823,0.183,0.011,115.992,17.206,-15.740,0.0,0.0
174481,-0.821,0.413,-0.029,55.168,25.740,-12.061,0.0,115.0
174570,-0.934,0.369,0.067,-13.107,51.718,-9.847,0.0,117.0
174664,-1.127,0.322,0.084,-65.420,46.527,7.817,0.0,0.0
174758,-1.395,0.198,0.115,-33.366,7.969,54.153,0.0,0.0
174852,-1.108,0.139,0.023,-0.252,-39.252,135.275,0.0,188.0
174946,-1.211,0.298,-0.138,-25.153,-58.450,133.160,0.0,0.0
175039,-0.809,0.187,-0.051,-11.725,-59.687,95.824,0.0,0.0
175133,-0.702,0.334,-0.081,-0.176,0.427,48.702,0.0,0.0
175227,-0.947,0.236,-0.056,-48.252,-6.031,-20.443,0.0,0.0
175325,-1.156,0.165,-0.009,111.763,-36.214,-75.252,0.0,0.0
175419,-0.820,0.443,-0.121,202.855,-27.931,-73.573,0.0,0.0
175513,-0.957,0.582,-0.087,74.779,-36.160,-74.603,0.0,196.0
175606,-0.662,0.518,-0.039,120.779,-10.244,-36.099,0.0,196.0
175700,-0.721,0.531,-0.026,63.573,-11.794,-21.985,0.0,200.0
175795,-0.978,0.620,-0.091,20.916,40.802,-15.489,0.0,0.0
175889,-1.511,-0.353,0.541,97.328,-138.473,-42.053,0.0,0.0
175983,-1.523,2.000,-0.776,12.588,57.557,84.008,0.0,0.0
176080,-0.873,-0.831,0.264,208.305,-18.969,18.496,0.0,0.0
176174,-1.148,-0.474,-0.162,-100.977,-35.275,-28.580,0.0,0.0
176268,-1.332,-0.342,-0.249,50.084,-103.962,31.038,0.0,0.0
176362,-1.299,1.348,-0.720,-40.649,-8.481,-34.405,0.0,0.0
176456,-0.108,0.619,-0.324,250.130,-99.863,52.344,0.0,195.0
176549,-0.702,0.538,-0.192,-112.099,-12.748,-58.237,0.0,191.0
176644,-1.019,0.600,-0.238,113.481,89.160,8.153,0.0,188.0
176737,-1.023,0.207,0.052,44.267,-80.023,32.153,0.0,187.0
176830,-1.070,0.854,-0.545,-75.748,69.053,39.160,0.0,186.0
176926,-1.138,-0.348,0.324,88.511,-186.908,-29.695,0.0,185.0
177020,-0.563,1.605,-0.616,-119.466,107.214,-4.962,0.0,183.0
177114,-0.680,-0.460,0.260,43.229,-131.069,-42.153,0.0,183.0
177207,-1.015,1.857,-0.596,-26.107,71.763,3.534,0.0,180.0
177300,-0.857,-0.142,0.103,-141.092,-103.924,-10.634,0.0,181.0
177393,-0.649,0.314,0.044,76.290,-129.824,78.244,0.0,180.0
177487,-0.727,0.574,0.125,-155.069,-211.412,121.092,0.0,0.0
177574,-0.546,0.874,1.045,-107.275,-192.573,76.595,67.0,0.0
177664,0.584,0.257,2.000,-8.229,-93.794,18.916,57.0,0.0
177748,1.318,-0.207,1.384,58.374,-50.427,-5.962,36.0,0.0
177833,0.189,0.150,0.238,23.809,5.679,-84.374,40.0,0.0
177921,-0.053,0.350,0.079,-58.649,8.573,-27.977,0.0,78.0
177998,-0.081,0.169,0.252,-12.069,-6.534,0.664,45.0,75.0
178085,-0.020,0.611,0.877,66.840,-16.847,-50.466,0.0,73.0
178170,-0.101,1.222,1.657,20.603,11.382,-64.130,0.0,24.0
178254,-0.081,0.533,1.176,-141.595,1.969,-67.023,0.0,27.0
178333,-0.126,0.257,0.890,-64.695,-48.099,-30.244,70.0,69.0
178418,0.008,0.211,0.764,21.282,-73.366,-13.092,112.0,68.0
178505,0.230,0.320,0.691,66.832,-28.237,0.718,0.0,67.0
178592,0.144,0.461,0.829,-61.496,12.771,-35.924,0.0,66.0
178673,0.042,0.175,1.017,-57.832,7.794,-33.771,114.0,67.0
178755,0.198,0.229,1.066,39.053,11.809,-2.336,115.0,65.0
178833,-0.034,0.424,1.051,-13.489,20.931,-13.008,50.0,65.0
178915,-0.186,0.382,0.860,-19.885,22.359,11.542,114.0,65.0
178997,-0.009,0.098,1.039,-31.908,-27.611,-10.336,113.0,66.0
179084,0.027,0.227,0.969,42.817,-8.115,0.053,113.0,66.0
179168,0.074,0.336,0.871,9.634,-6.885,-4.672,115.0,65.0
179249,0.061,0.271,0.917,19.321,2.534,-4.840,115.0,65.0
179329,0.031,0.374,0.860,21.168,19.420,0.573,115.0,65.0
179409,0.048,0.347,0.906,-21.733,33.916,-2.832,115.0,66.0
179495,-0.088,0.239,0.960,-18.092,38.397,-0.863,0.0,66.0
179573,-0.150,0.250,0.971,-3.611,32.328,-6.267,112.0,22.0
179651,-0.154,0.226,0.918,10.183,39.015,-3.115,111.0,21.0
179729,-0.316,0.154,1.224,40.947,-2.794,-15.420,111.0,20.0
179810,-0.209,0.573,0.859,1.534,5.748,13.718,111.0,18.0
179888,-0.166,0.197,0.979,-19.351,-1.244,-5.282,110.0,19.0
179965,-0.212,0.322,0.908,-0.496,-3.244,-1.908,110.0,20.0
180043,-0.175,0.228,0.951,19.496,0.107,-4.641,111.0,20.0
180121,-0.197,0.411,0.892,21.092,1.992,-0.840,111.0,23.0
180199,-0.162,0.430,0.930,2.878,3.229,-0.084,111.0,23.0
180278,-0.198,0.398,0.883,-25.817,2.763,1.504,110.0,23.0
180358,-0.226,0.289,0.889,-50.595,8.664,0.634,109.0,69.0
180436,-0.215,0.096,1.015,-26.145,7.405,-3.550,108.0,26.0
180519,-0.195,0.165,0.946,32.107,10.298,-5.718,108.0,70.0
180597,-0.285,0.213,0.943,119.382,7.466,-2.901,109.0,20.0
180675,-0.294,0.526,0.871,37.626,3.176,-7.901,111.0,18.0
180753,-0.240,0.586,0.822,-7.282,0.374,-1.885,111.0,18.0
180831,-0.254,0.429,0.855,-2.603,1.779,1.664,111.0,17.0
180909,-0.258,0.372,0.894,7.824,0.878,0.038,111.0,17.0
180986,-0.253,0.438,0.868,3.458,0.481,-1.901,111.0,18.0
181064,-0.263,0.439,0.865,-0.542,0.084,-2.290,111.0,17.0
181142,-0.254,0.475,0.850,3.649,0.260,-0.664,111.0,17.0
181223,-0.262,0.459,0.850,1.107,0.786,0.229,112.0,17.0
181301,-0.260,0.401,0.877,-0.336,-0.168,-1.145,111.0,18.0
181379,-0.261,0.443,0.864,7.328,0.466,-1.542,111.0,17.0
181456,-0.254,0.479,0.849,3.450,0.351,-0.656,111.0,18.0
181534,-0.257,0.422,0.862,-0.863,0.061,-0.718,111.0,19.0
181612,-0.258,0.454,0.868,-2.214,0.527,-0.954,112.0,19.0
181690,-0.259,0.446,0.841,0.069,-0.153,0.198,111.0,19.0
181769,-0.258,0.420,0.878,0.305,-0.244,-0.756,111.0,17.0
181847,-0.258,0.447,0.868,-2.756,0.603,-1.145,112.0,17.0
181927,-0.261,0.452,0.854,3.939,-0.420,0.000,112.0,19.0
182005,-0.260,0.410,0.875,1.198,0.427,-1.115,111.0,17.0
182083,-0.264,0.453,0.870,-3.206,0.244,-1.382,112.0,16.0
182161,-0.257,0.455,0.854,1.672,-0.137,-0.206,112.0,18.0
182239,-0.265,0.403,0.883,2.908,0.733,-1.107,112.0,16.0
182318,-0.257,0.438,0.857,0.237,-0.496,-1.122,112.0,18.0
182395,-0.260,0.455,0.858,2.588,0.580,-1.344,112.0,17.0
182473,-0.259,0.444,0.863,1.802,0.206,-0.679,111.0,17.0
182551,-0.260,0.422,0.869,1.641,0.023,-0.679,111.0,17.0
182632,-0.258,0.442,0.860,0.962,0.359,-0.855,111.0,17.0
182710,-0.255,0.442,0.863,2.756,0.229,-0.527,111.0,17.0
182788,-0.258,0.432,0.861,2.328,0.099,-0.931,111.0,17.0
182865,-0.268,0.448,0.861,1.084,0.595,-1.008,111.0,17.0
182944,-0.257,0.422,0.871,4.832,0.092,-1.153,111.0,17.0
183022,-0.258,0.455,0.859,0.450,0.069,-0.954,111.0,17.0
183096,-0.262,0.454,0.851,0.809,0.076,-1.191,37.0,17.0
183170,-0.263,0.430,0.862,4.473,0.405,-0.977,37.0,16.0
183243,-0.260,0.456,0.858,-1.244,0.053,-1.076,37.0,16.0
183320,-0.258,0.447,0.851,2.725,0.282,-0.489,37.0,16.0
183394,-0.255,0.438,0.863,1.046,0.191,-0.832,36.0,16.0
183468,-0.266,0.457,0.864,2.115,0.099,-0.718,36.0,16.0
183541,-0.261,0.444,0.861,2.282,0.206,-1.000,37.0,16.0
183615,-0.259,0.451,0.865,1.015,0.214,-0.634,37.0,16.0
183689,-0.262,0.455,0.849,0.221,0.046,-0.580,37.0,17.0
183762,-0.259,0.444,0.870,3.710,0.130,-0.832,36.0,17.0
183836,-0.264,0.451,0.866,-0.794,-0.038,-0.702,37.0,17.0
183910,-0.266,0.450,0.858,2.634,0.115,-0.901,37.0,17.0
183987,-0.263,0.461,0.858,1.702,0.099,-0.863,37.0,17.0
184060,-0.252,0.439,0.862,1.687,0.252,-0.893,37.0,17.0
184134,-0.258,0.456,0.858,1.160,0.092,-0.733,37.0,17.0
184209,-0.259,0.444,0.861,4.137,0.260,-0.695,37.0,17.0
184283,-0.263,0.444,0.850,5.924,0.099,-0.863,37.0,16.0
184360,-0.255,0.473,0.847,0.382,0.366,-1.061,112.0,18.0
184439,-0.267,0.469,0.847,1.267,0.229,-0.687,112.0,17.0
184517,-0.262,0.462,0.855,2.359,0.092,-0.939,112.0,17.0
184595,-0.257,0.453,0.868,1.321,0.015,-1.336,112.0,17.0
184677,-0.255,0.469,0.853,0.740,0.145,-0.649,112.0,17.0
184755,-0.261,0.444,0.852,1.527,0.084,-1.046,112.0,17.0
184834,-0.265,0.470,0.859,2.809,0.176,-0.863,112.0,17.0
184911,-0.253,0.455,0.849,0.481,0.214,-1.000,112.0,17.0
184990,-0.260,0.464,0.853,1.824,-0.061,-0.885,112.0,17.0
185068,-0.261,0.456,0.853,1.275,0.214,-0.878,112.0,17.0
185147,-0.260,0.457,0.847,1.580,0.015,-0.718,112.0,17.0
185225,-0.267,0.469,0.852,2.351,0.168,-0.481,112.0,18.0
185304,-0.265,0.460,0.856,1.344,0.160,-0.824,112.0,19.0
185385,-0.256,0.461,0.856,1.015,0.107,-1.008,112.0,16.0
185463,-0.264,0.475,0.850,1.664,0.160,-0.573,112.0,16.0
185542,-0.258,0.465,0.849,2.168,0.099,-0.924,112.0,16.0
185620,-0.268,0.470,0.854,2.374,0.168,-0.824,112.0,16.0
185699,-0.262,0.469,0.852,0.565,-0.183,-1.038,112.0,16.0
185777,-0.260,0.470,0.848,2.305,-0.008,-0.565,112.0,18.0
185856,-0.266,0.479,0.840,1.802,0.107,-0.649,112.0,18.0
185934,-0.259,0.466,0.846,2.641,0.336,-0.740,112.0,18.0
186012,-0.266,0.471,0.843,1.985,0.198,-1.008,112.0,17.0
186094,-0.261,0.466,0.836,1.237,0.099,-0.847,112.0,17.0
186173,-0.259,0.475,0.848,0.489,0.084,-0.908,112.0,17.0
186259,-0.263,0.477,0.844,3.290,0.282,-0.634,112.0,17.0
186337,-0.259,0.467,0.852,-0.305,-0.046,-0.878,112.0,17.0
186415,-0.259,0.471,0.846,2.611,0.511,-0.710,112.0,17.0
186492,-0.264,0.490,0.842,0.977,0.023,-0.534,112.0,17.0
186570,-0.259,0.466,0.850,0.885,0.466,-0.641,112.0,17.0
186648,-0.263,0.485,0.847,1.847,0.053,-0.756,112.0,17.0
186725,-0.260,0.467,0.848,0.725,0.344,-1.107,112.0,17.0
186806,-0.260,0.470,0.852,1.130,0.176,-0.954,112.0,17.0
186884,-0.260,0.490,0.847,1.611,0.252,-0.580,112.0,17.0
186961,-0.251,0.466,0.852,1.427,0.145,-0.710,112.0,17.0
187039,-0.255,0.480,0.846,1.359,0.153,-0.679,112.0,17.0
187117,-0.257,0.479,0.842,2.412,0.214,-0.641,112.0,17.0
187195,-0.256,0.467,0.850,1.580,0.015,-0.878,112.0,17.0
187273,-0.261,0.467,0.841,2.496,0.534,-0.710,112.0,17.0
187351,-0.258,0.478,0.839,-0.321,-0.153,-0.634,112.0,17.0
187428,-0.258,0.477,0.843,2.115,0.046,-0.305,112.0,17.0
187509,-0.261,0.484,0.838,1.504,-0.023,-0.985,112.0,18.0
187587,-0.264,0.469,0.853,2.031,0.351,-0.824,112.0,18.0
187665,-0.259,0.477,0.844,0.672,0.076,-1.015,112.0,16.0
187743,-0.261,0.477,0.842,1.718,0.191,-0.916,112.0,16.0
187821,-0.258,0.474,0.837,0.679,0.130,-0.985,112.0,16.0
187898,-0.249,0.480,0.838,0.977,0.038,-1.046,112.0,16.0
187976,-0.262,0.490,0.843,2.214,0.229,-0.603,112.0,16.0
188054,-0.255,0.465,0.844,0.351,-0.069,-1.221,113.0,16.0
188132,-0.266,0.477,0.844,2.321,0.305,-0.840,112.0,16.0
188212,-0.256,0.488,0.842,-0.076,-0.130,-0.916,113.0,16.0
188291,-0.258,0.480,0.845,1.481,0.443,-0.634,113.0,16.0
188368,-0.259,0.486,0.840,2.000,-0.107,-0.939,112.0,16.0
188446,-0.258,0.475,0.854,0.824,0.137,-0.802,112.0,16.0
188524,-0.262,0.487,0.843,1.718,0.092,-1.061,112.0,16.0
188602,-0.264,0.479,0.840,0.771,0.099,-0.847,113.0,16.0
188680,-0.268,0.477,0.846,1.611,-0.061,-0.878,112.0,16.0
188758,-0.257,0.482,0.841,1.092,0.046,-0.802,112.0,16.0
188835,-0.264,0.487,0.834,1.779,0.282,-0.405,112.0,16.0
188916,-0.256,0.472,0.839,1.084,-0.038,-0.885,112.0,16.0
188994,-0.257,0.483,0.841,3.580,0.092,-0.832,112.0,17.0
189072,-0.255,0.490,0.835,0.992,0.122,-1.099,112.0,17.0
189150,-0.262,0.468,0.840,1.641,0.252,-0.710,112.0,17.0
189228,-0.262,0.486,0.836,1.168,-0.183,-0.969,112.0,17.0
189305,-0.254,0.481,0.849,2.542,0.313,-0.725,112.0,17.0
189384,-0.260,0.482,0.838,1.275,0.031,-0.779,112.0,17.0
189462,-0.260,0.490,0.834,0.977,0.023,-0.618,113.0,17.0
189540,-0.259,0.489,0.836,1.626,0.275,-0.725,112.0,18.0
189621,-0.252,0.493,0.839,3.405,0.374,-0.954,112.0,20.0
189700,-0.255,0.490,0.834,-0.382,-0.168,-0.786,112.0,20.0
189777,-0.260,0.489,0.842,2.038,0.221,-0.725,112.0,20.0
189855,-0.256,0.496,0.842,1.466,0.168,-0.748,112.0,17.0
189934,-0.260,0.481,0.836,0.740,0.527,-0.519,112.0,20.0
190012,-0.268,0.490,0.837,2.122,0.031,-0.779,112.0,18.0
190090,-0.253,0.488,0.830,0.740,0.298,-0.908,112.0,17.0
190169,-0.250,0.488,0.840,1.641,-0.015,-0.718,112.0,17.0
190246,-0.260,0.493,0.827,1.519,0.221,-0.840,112.0,17.0
190327,-0.255,0.490,0.847,0.916,0.260,-0.779,112.0,17.0
190406,-0.262,0.489,0.836,1.107,0.160,-0.748,113.0,17.0
190484,-0.261,0.496,0.834,1.885,0.336,-0.702,112.0,17.0
190562,-0.260,0.484,0.836,0.679,-0.198,-0.947,112.0,17.0
190641,-0.263,0.489,0.836,2.008,0.298,-1.023,112.0,17.0
190718,-0.251,0.487,0.843,-0.221,0.015,-0.679,113.0,17.0
190796,-0.261,0.481,0.840,1.924,0.153,-0.695,113.0,17.0
190875,-0.256,0.496,0.827,0.893,-0.076,-0.985,113.0,17.0
190953,-0.259,0.481,0.849,1.863,0.359,-0.771,112.0,17.0
191035,-0.256,0.490,0.836,0.679,0.252,-1.008,112.0,17.0
191113,-0.262,0.490,0.840,1.687,0.305,-0.893,112.0,17.0
191192,-0.254,0.481,0.844,1.618,0.099,-0.847,112.0,17.0
191269,-0.250,0.492,0.843,0.802,0.115,-0.992,113.0,17.0
191347,-0.263,0.501,0.843,2.412,0.466,-0.733,113.0,17.0
191426,-0.260,0.477,0.845,0.290,0.229,-0.985,113.0,17.0
191504,-0.258,0.489,0.842,3.000,0.412,-1.076,113.0,17.0
191583,-0.267,0.496,0.831,-0.069,0.183,-0.885,113.0,17.0
191661,-0.261,0.484,0.844,1.427,0.763,-0.855,112.0,17.0
191742,-0.263,0.491,0.825,1.382,0.061,-1.099,112.0,17.0
191820,-0.266,0.490,0.833,1.985,0.359,-0.931,113.0,17.0
191899,-0.257,0.496,0.828,1.115,0.107,-0.847,112.0,17.0
191977,-0.260,0.492,0.835,1.824,0.084,-0.679,113.0,17.0
192055,-0.260,0.498,0.834,0.847,0.176,-0.847,112.0,17.0
192134,-0.258,0.489,0.841,2.802,0.137,-0.824,113.0,17.0
192211,-0.259,0.494,0.831,-0.069,-0.038,-0.893,113.0,17.0
192290,-0.265,0.496,0.834,1.832,0.183,-0.679,113.0,17.0
192369,-0.261,0.506,0.837,0.557,-0.023,-0.496,113.0,17.0
192445,-0.259,0.487,0.833,1.748,0.260,-0.435,113.0,17.0
192523,-0.262,0.492,0.835,1.489,-0.145,-0.618,113.0,19.0
192602,-0.258,0.487,0.838,0.802,0.298,-0.817,113.0,19.0
192680,-0.265,0.491,0.844,1.328,0.084,-0.626,112.0,19.0
192758,-0.258,0.500,0.833,0.511,0.115,-0.733,113.0,19.0
192837,-0.265,0.488,0.833,1.802,0.221,-0.748,113.0,19.0
192916,-0.260,0.490,0.845,1.679,0.145,-0.855,113.0,19.0
192994,-0.258,0.496,0.837,-0.076,0.069,-0.786,113.0,19.0
193076,-0.258,0.489,0.835,2.275,0.252,-0.962,113.0,19.0
193155,-0.259,0.499,0.834,1.275,-0.244,-0.725,113.0,18.0
193233,-0.256,0.485,0.836,1.634,0.298,-0.863,113.0,20.0
193311,-0.268,0.496,0.844,1.321,-0.328,-0.855,112.0,18.0
193390,-0.255,0.492,0.824,1.260,0.183,-0.763,112.0,20.0
193469,-0.258,0.494,0.837,1.160,0.122,-0.901,112.0,20.0
193548,-0.260,0.503,0.847,1.061,0.160,-0.847,112.0,20.0
193626,-0.262,0.487,0.833,1.496,0.229,-0.565,112.0,20.0
193704,-0.262,0.488,0.832,2.092,0.168,-1.023,112.0,18.0
193786,-0.259,0.484,0.838,0.565,0.076,-1.031,112.0,20.0
193865,-0.249,0.492,0.836,1.366,0.137,-1.031,112.0,19.0
193943,-0.265,0.496,0.844,1.542,-0.023,-0.832,112.0,20.0
194022,-0.254,0.486,0.835,1.298,0.183,-0.985,113.0,19.0
194101,-0.263,0.493,0.844,1.321,0.092,-0.916,113.0,19.0
194180,-0.261,0.490,0.836,0.718,0.214,-1.023,113.0,19.0
194258,-0.262,0.493,0.832,1.710,0.076,-0.962,112.0,19.0
194336,-0.256,0.490,0.830,1.382,0.405,-0.786,112.0,19.0
194415,-0.264,0.494,0.837,1.351,0.237,-0.817,112.0,19.0
194497,-0.262,0.493,0.834,1.420,0.061,-0.817,112.0,19.0
194576,-0.252,0.496,0.828,-1.405,0.008,0.061,113.0,17.0
194655,-0.283,0.504,0.859,-2.802,0.740,1.496,113.0,18.0
194733,-0.304,0.471,0.957,-22.626,-2.733,10.023,112.0,17.0
194811,-0.135,0.441,1.020,-37.282,-22.611,25.290,112.0,18.0
194890,-0.226,0.423,0.961,11.458,-52.939,18.489,113.0,19.0
194974,0.069,0.450,0.917,16.435,-43.351,22.473,0.0,20.0
195058,0.056,0.419,0.809,-5.748,-31.931,16.885,0.0,23.0
195138,0.197,0.393,0.846,27.321,-14.802,16.656,118.0,30.0
195223,0.207,0.524,0.848,-19.267,15.122,4.305,118.0,63.0
195305,0.216,0.444,0.845,-30.099,30.855,8.336,119.0,62.0
195391,0.145,0.430,0.929,-7.573,30.427,12.710,0.0,63.0
195469,0.174,0.522,0.884,3.107,31.145,19.985,45.0,64.0
195561,0.131,0.478,0.710,-18.336,59.740,34.534,0.0,167.0
195652,0.012,0.370,0.576,-57.870,101.000,28.176,0.0,151.0
195739,-0.274,0.199,0.464,-30.588,122.023,19.733,119.0,151.0
195831,-0.478,0.365,0.257,41.321,153.176,27.061,0.0,164.0
195923,-1.504,1.230,0.288,43.511,140.687,30.924,0.0,159.0
196009,-1.226,0.390,0.665,-53.595,89.840,44.000,30.0,170.0
196102,-1.411,0.661,0.570,35.496,56.603,26.313,0.0,173.0
196195,-1.205,0.469,0.763,-38.191,19.832,-13.450,0.0,178.0
196280,-1.098,0.794,0.425,-83.992,25.321,29.840,42.0,183.0
196370,-0.888,0.419,0.418,-114.008,5.817,19.786,36.0,193.0
196454,-0.568,0.240,0.349,-77.863,-35.702,17.618,35.0,0.0
196538,-0.560,0.248,0.353,-84.656,-37.435,16.939,34.0,0.0
196621,-0.543,0.047,0.489,-48.794,-44.443,1.817,23.0,0.0
196703,-0.460,0.079,0.508,-13.305,-54.053,0.405,19.0,0.0
196790,-0.516,0.080,0.540,7.809,-48.221,-0.687,36.0,0.0
196874,-0.450,0.029,0.543,54.977,-23.366,-5.672,36.0,0.0
196967,-0.293,0.019,0.565,98.481,38.214,-26.053,0.0,0.0
197052,-0.412,0.496,0.435,156.519,113.298,-69.160,51.0,0.0
197145,-1.425,1.159,0.243,97.359,86.634,-65.977,0.0,0.0
197238,-0.802,0.694,0.288,54.977,58.939,-12.221,0.0,0.0
197331,-0.785,0.514,0.163,48.229,40.511,-6.809,0.0,0.0
197425,-0.751,0.604,0.114,39.779,2.908,-0.534,0.0,0.0
197518,-0.965,0.604,0.019,-10.908,-18.405,-17.885,0.0,0.0
197609,-1.261,0.241,-0.029,32.939,-47.977,-30.443,0.0,0.0
197702,-0.992,0.314,-0.197,84.344,-20.008,-18.550,0.0,0.0
197795,-0.766,0.145,-0.079,-4.580,1.000,-42.450,0.0,0.0
197889,-0.880,0.153,0.052,69.588,15.305,-47.137,0.0,0.0
197982,-0.771,0.302,0.103,53.115,23.008,-46.137,0.0,0.0
198076,-0.943,0.266,0.220,24.504,23.321,-53.588,0.0,0.0
198169,-1.072,0.307,0.183,5.160,21.305,-49.305,0.0,0.0
198262,-1.362,0.110,0.101,36.076,-13.595,18.687,0.0,0.0
198359,-1.130,0.163,-0.095,47.443,-48.000,132.947,0.0,0.0
198452,-0.964,0.303,-0.127,-32.916,-32.527,144.863,0.0,0.0
198545,-0.719,0.138,0.112,-20.420,-46.313,80.412,0.0,0.0
198639,-0.786,0.306,0.057,32.939,-15.763,14.542,0.0,0.0
198732,-1.008,0.234,0.020,17.321,-12.779,-56.260,0.0,0.0
198825,-1.180,0.229,-0.112,106.511,-17.718,-97.374,0.0,0.0
198919,-1.378,0.274,-0.167,122.145,-25.137,-121.290,0.0,0.0
199013,-0.855,0.315,-0.026,127.229,0.710,-94.290,0.0,0.0
199106,-0.815,0.181,0.015,80.160,-13.870,-69.832,0.0,0.0
199202,-0.818,0.389,0.007,107.405,23.000,-30.092,0.0,0.0
199296,-0.875,0.344,0.146,-37.069,41.420,-22.061,0.0,0.0
199390,-1.253,0.290,0.051,-54.504,47.260,16.611,0.0,0.0
199483,-1.368,-0.171,0.102,-14.458,-42.924,94.076,0.0,0.0
199574,-1.203,-0.339,-0.033,192.382,-58.099,126.840,149.0,0.0
199664,-0.912,0.500,-0.167,-6.435,-0.435,81.962,139.0,0.0
199753,-0.833,-0.145,-0.014,7.290,-42.443,4.687,133.0,0.0
199847,-1.075,0.319,-0.210,-129.817,33.008,-54.206,0.0,0.0
199937,-0.974,-0.091,-0.029,206.069,-29.351,-50.603,126.0,0.0
200029,-1.022,0.421,-0.237,178.206,-40.183,-44.099,126.0,0.0
200119,-0.897,0.386,-0.095,108.321,-15.916,-54.229,126.0,0.0
200208,-0.925,0.226,0.072,46.725,7.435,-25.847,124.0,0.0
200297,-0.811,0.182,0.072,164.481,-2.893,-10.725,123.0,0.0
200388,-0.873,0.034,0.241,149.000,11.824,-3.282,0.0,163.0
200481,-0.954,0.831,-0.055,144.023,0.878,30.718,0.0,0.0
200573,-1.038,0.294,0.152,-103.389,9.908,-17.924,0.0,171.0
200667,-1.093,0.193,0.075,51.466,-20.641,35.542,0.0,0.0
200764,-1.199,0.180,-0.072,-1.221,-33.290,94.443,0.0,0.0
200857,-0.867,0.326,-0.072,73.863,-36.817,99.282,0.0,0.0
200951,-0.746,0.358,-0.052,6.397,-20.107,34.191,0.0,0.0
201044,-0.863,0.241,-0.073,30.160,-30.893,-19.031,0.0,0.0
201138,-0.950,0.360,-0.163,71.321,-42.374,-49.542,0.0,0.0
201232,-1.166,0.389,-0.142,80.489,-31.809,-108.649,0.0,0.0
201325,-0.878,0.461,-0.008,70.252,-2.901,-82.641,0.0,0.0
201419,-1.003,0.199,0.091,18.885,-5.664,-25.359,0.0,0.0
201512,-0.775,0.383,0.016,72.405,3.069,0.954,0.0,200.0
201610,-0.848,0.327,0.089,-14.733,17.168,-3.779,0.0,0.0
201703,-0.905,0.240,0.189,-5.023,22.489,7.710,0.0,0.0
201796,-1.017,0.337,0.074,2.939,16.336,-11.527,0.0,0.0
201890,-1.083,0.359,0.000,-3.153,13.664,-13.786,0.0,0.0
201984,-1.206,0.219,-0.048,-63.511,-15.931,48.145,0.0,0.0
202078,-1.183,0.010,-0.071,0.305,-60.618,113.160,0.0,0.0
202171,-0.698,0.281,-0.090,28.282,-37.397,94.221,0.0,0.0
202265,-0.804,0.240,-0.078,-15.511,-37.260,-0.939,0.0,0.0
202359,-1.012,0.187,-0.077,60.580,-40.458,-46.069,0.0,0.0
202456,-1.149,0.358,-0.131,102.420,-26.000,-95.550,0.0,0.0
202549,-0.835,0.372,-0.019,29.405,15.710,-87.084,182.0,0.0
202641,-1.044,0.114,0.048,38.031,9.115,-36.046,174.0,0.0
202734,-0.831,0.224,0.034,141.244,3.031,-7.786,193.0,0.0
202827,-0.829,0.424,0.002,101.504,17.214,-36.107,180.0,0.0
202920,-1.014,0.354,0.094,15.786,29.153,-48.313,191.0,0.0
203014,-1.100,0.239,0.119,-9.985,12.160,-18.153,0.0,0.0
203098,-0.983,0.312,0.058,22.221,9.084,8.885,17.0,0.0
203181,-0.936,0.474,-0.039,-67.198,9.397,15.450,16.0,0.0
203275,-1.579,0.173,-0.113,-115.656,-45.130,45.244,160.0,0.0
203366,-1.007,-0.021,0.038,-23.496,-83.916,155.962,146.0,0.0
203460,-0.899,0.801,-0.132,-130.420,-89.107,127.405,0.0,0.0
203549,-0.988,0.282,0.372,-220.809,-140.221,24.885,113.0,0.0
203642,-0.854,0.108,0.687,13.420,-133.511,23.229,188.0,0.0
203735,-0.385,0.486,0.585,-97.237,-80.626,-8.802,182.0,0.0
203824,-0.341,-0.043,0.848,-61.878,-53.244,-0.389,104.0,0.0
203912,-0.323,-0.060,0.811,-28.962,-37.107,-3.740,101.0,0.0
204000,-0.225,0.020,0.914,-12.840,-27.443,-10.947,48.0,0.0
204085,-0.202,0.031,0.966,-11.885,-32.008,-9.176,44.0,0.0
204170,-0.062,-0.055,1.015,-24.130,-37.160,-6.008,42.0,0.0
204255,-0.077,-0.006,1.039,-2.779,-19.252,-8.557,42.0,0.0
204340,-0.048,0.018,0.978,11.962,-5.084,-4.885,45.0,0.0
204429,-0.108,0.029,1.000,0.092,1.611,-4.359,113.0,0.0
204518,-0.162,0.083,1.035,-3.473,9.153,-16.679,115.0,0.0
204607,-0.083,0.072,0.938,-10.893,2.580,-12.542,117.0,0.0
204697,-0.105,0.037,0.964,-4.947,8.573,-21.359,124.0,0.0
204790,-0.156,0.048,1.012,-1.595,4.359,-31.847,128.0,0.0
204880,-0.342,0.004,0.973,23.450,25.000,-54.611,132.0,0.0
204975,-0.399,0.021,0.703,131.168,95.901,-101.794,0.0,0.0
205068,-0.441,0.395,0.621,88.153,114.313,-101.290,0.0,0.0
205162,-0.730,0.054,0.697,192.763,133.832,-123.046,0.0,0.0
205254,-0.900,0.719,0.318,229.038,51.099,-107.435,170.0,0.0
205347,-0.923,1.001,0.251,59.985,39.771,-83.954,173.0,0.0
205440,-0.974,0.116,0.382,59.802,32.260,-60.626,174.0,0.0
205533,-1.211,0.516,-0.053,95.351,36.496,-42.626,176.0,0.0
205628,-0.977,0.055,0.110,-90.634,22.328,-6.008,173.0,0.0
205720,-1.094,-0.032,-0.025,130.023,-16.702,31.588,172.0,0.0
205813,-0.957,0.010,0.026,12.328,-7.214,25.000,171.0,0.0
205907,-0.959,0.339,-0.409,207.282,-51.603,63.878,0.0,0.0
206001,-1.344,0.103,-0.037,-26.160,-46.244,-9.313,0.0,0.0
206093,-0.821,0.379,0.038,156.519,-43.191,-9.649,0.0,164.0
206185,-0.695,0.340,0.073,-53.611,3.489,-31.092,0.0,166.0
206277,-0.941,0.160,0.096,65.687,3.779,-22.321,0.0,167.0
206372,-0.879,0.342,0.080,12.695,8.519,-18.733,0.0,167.0
206466,-0.982,0.244,0.163,22.786,31.733,-0.214,0.0,170.0
206558,-1.198,0.282,0.264,-72.336,-10.183,-2.580,0.0,174.0
206651,-1.133,1.777,-1.232,-81.328,85.733,38.275,0.0,176.0
206744,-0.868,-0.841,0.301,74.931,-3.969,25.847,0.0,181.0
206837,-1.286,-0.069,-0.181,42.244,-109.466,-19.153,0.0,180.0
206930,-1.029,0.575,-0.319,16.992,-1.740,-33.244,0.0,180.0
207023,-0.660,0.188,-0.084,104.000,-40.611,7.916,0.0,172.0
207116,-0.920,0.232,-0.118,78.328,-37.687,-15.817,0.0,170.0
207212,-0.966,0.330,-0.118,79.863,-71.122,6.550,0.0,177.0
207304,-0.868,0.282,-0.032,38.802,-86.794,9.046,0.0,174.0
207397,-0.630,0.259,0.054,11.351,-112.664,19.443,0.0,173.0
207479,-0.607,0.266,0.306,-63.160,-188.275,54.450,112.0,74.0
207561,-0.988,0.387,0.598,8.534,-250.137,-14.115,105.0,73.0
207640,1.653,1.751,2.000,144.649,-98.313,62.534,103.0,24.0
207719,1.271,0.723,2.000,-221.679,7.901,-50.229,98.0,30.0
207801,-0.271,-0.378,0.775,-58.939,43.870,-40.496,97.0,84.0
207886,-0.218,0.020,0.156,-8.267,-26.489,-29.962,101.0,83.0
207973,0.023,-0.059,0.345,3.176,-51.069,-30.550,106.0,82.0
208054,0.072,0.161,0.434,43.237,-20.725,-27.260,105.0,78.0
208140,0.051,0.478,0.969,41.954,61.855,-49.115,0.0,76.0
208224,-0.847,0.614,1.209,9.374,133.015,-10.107,0.0,25.0
208307,-0.402,0.479,1.132,14.908,-33.863,21.115,0.0,30.0
208386,-0.352,0.272,0.484,-109.389,-33.321,19.954,108.0,29.0
208463,0.010,-0.016,0.743,-24.267,-48.397,-26.000,105.0,25.0
208546,-0.105,0.229,0.889,35.412,33.336,-29.389,0.0,22.0
208633,-0.289,0.058,1.652,138.634,24.344,5.130,30.0,0.0
208727,-0.229,0.517,0.645,8.260,15.511,-23.427,0.0,0.0
208809,-0.365,0.416,0.882,-87.046,-4.382,-15.481,0.0,23.0
208903,-0.317,0.299,0.902,-14.427,1.870,10.137,0.0,0.0
208996,-0.236,0.323,0.920,-18.626,-2.389,2.695,0.0,0.0
209070,-0.276,0.212,0.918,-33.260,-1.809,-2.695,31.0,23.0
209153,-0.300,0.131,0.969,-20.183,1.969,-0.718,29.0,0.0
209226,-0.299,0.177,0.993,9.939,0.328,-0.466,30.0,26.0
209300,-0.244,0.262,0.876,-10.122,2.771,-1.710,29.0,23.0
209386,-0.282,0.155,0.974,-9.519,3.145,0.725,29.0,0.0
209470,-0.308,0.122,0.964,-11.641,5.023,-2.237,30.0,0.0
209544,-0.347,0.148,0.998,-9.450,-2.611,3.237,28.0,25.0
209616,-0.460,0.523,0.979,-54.244,-62.511,22.725,29.0,25.0
209704,-0.193,-0.050,1.127,-145.198,-94.260,-17.412,102.0,0.0
209787,-0.304,-0.604,0.938,-66.321,-155.947,19.298,99.0,117.0
209874,0.259,-0.236,0.759,-20.397,-137.641,35.611,87.0,186.0
209961,0.396,-0.430,0.744,-89.008,-108.847,8.359,88.0,0.0
210055,0.507,-0.433,0.689,-17.420,-71.618,3.092,0.0,0.0
210140,0.570,-0.411,0.617,-17.740,-41.664,-0.863,95.0,0.0
210227,0.631,-0.461,0.616,-7.061,-31.298,-4.672,91.0,0.0
210321,0.615,-0.437,0.612,18.679,-16.275,-0.840,0.0,0.0
210408,0.654,-0.380,0.580,-3.893,-13.267,1.282,91.0,0.0
210495,0.660,-0.475,0.635,3.084,-0.947,2.634,91.0,0.0
210582,0.627,-0.460,0.638,3.344,0.023,-0.893,90.0,0.0
210669,0.663,-0.437,0.637,9.237,-1.305,-0.015,89.0,0.0
210756,0.646,-0.440,0.645,-2.740,2.504,2.710,90.0,0.0
210843,0.630,-0.451,0.649,-2.450,2.405,-1.206,91.0,0.0
210933,0.649,-0.453,0.647,0.397,-4.473,-2.527,90.0,0.0
211020,0.646,-0.448,0.628,7.282,-4.809,-3.427,90.0,0.0
211107,0.667,-0.464,0.635,-4.679,-4.023,-6.206,91.0,0.0
211194,0.665,-0.419,0.595,3.756,0.618,-6.000,91.0,0.0
211282,0.643,-0.436,0.621,5.527,1.603,-11.649,91.0,0.0
211369,0.672,-0.358,0.661,1.969,5.252,-13.870,91.0,0.0
211457,0.646,-0.399,0.667,11.771,-1.000,-4.885,92.0,0.0
211545,0.689,-0.367,0.574,-0.214,2.076,9.840,95.0,0.0
211632,0.687,-0.423,0.669,3.466,3.221,-3.450,92.0,0.0
211722,0.649,-0.374,0.670,-3.130,2.840,0.679,91.0,0.0
211809,0.650,-0.410,0.661,-2.046,-1.198,2.611,91.0,0.0
211896,0.692,-0.416,0.647,-2.679,-2.802,0.008,91.0,0.0
211984,0.696,-0.437,0.674,-17.015,-5.435,-4.031,93.0,0.0
212077,0.672,-0.420,0.650,-17.183,-15.443,-0.664,0.0,0.0
212170,0.680,-0.416,0.564,-10.557,-16.664,-0.542,0.0,0.0
212264,0.749,-0.460,0.532,0.038,-7.710,-2.924,0.0,0.0
212358,0.727,-0.413,0.561,-8.595,4.168,-1.969,0.0,0.0
212452,0.705,-0.446,0.601,-1.160,-3.176,0.656,0.0,0.0
212548,0.729,-0.508,0.575,-13.924,-15.542,5.359,0.0,0.0
212641,0.716,-0.495,0.491,-15.733,-15.992,7.015,0.0,0.0
212736,0.714,-0.538,0.486,-25.374,-9.115,0.847,0.0,0.0
212829,0.727,-0.516,0.462,-17.336,-15.702,-3.687,0.0,0.0
212923,0.740,-0.497,0.398,-16.275,-20.137,-3.237,0.0,0.0
213008,0.751,-0.504,0.353,-9.771,-16.160,0.489,58.0,0.0
213094,0.768,-0.558,0.323,-7.634,-8.298,0.282,52.0,0.0
213179,0.764,-0.549,0.325,0.885,-2.565,-2.267,52.0,199.0
213264,0.760,-0.530,0.338,-3.916,-2.359,-1.534,51.0,199.0
213361,0.774,-0.554,0.337,0.740,-2.305,-1.901,51.0,0.0
213448,0.772,-0.553,0.326,4.565,-2.328,-1.107,51.0,0.0
213536,0.768,-0.575,0.320,0.511,2.053,-2.115,50.0,0.0
213623,0.782,-0.515,0.302,-0.336,6.557,-4.718,51.0,200.0
213711,0.787,-0.539,0.348,8.412,5.038,-6.412,52.0,200.0
213798,0.765,-0.550,0.368,3.802,1.107,-5.878,52.0,0.0
213886,0.781,-0.480,0.339,-4.611,1.878,-2.397,52.0,0.0
213975,0.787,-0.529,0.357,6.298,0.901,-0.924,52.0,199.0
214062,0.781,-0.535,0.381,3.626,0.611,-2.794,52.0,199.0
214153,0.788,-0.524,0.371,-0.244,-0.099,-2.061,53.0,199.0
214241,0.790,-0.502,0.347,6.221,0.924,-1.084,53.0,200.0
214328,0.774,-0.524,0.349,9.908,3.473,-3.351,53.0,0.0
214416,0.752,-0.485,0.294,36.282,14.481,-17.534,57.0,0.0
214512,0.563,-0.294,0.147,111.779,44.015,-35.359,0.0,0.0
214607,0.830,-0.305,0.345,137.336,123.901,-63.031,0.0,186.0
214697,0.884,-0.233,0.764,94.924,250.130,-50.092,99.0,182.0
214787,-0.515,0.015,0.969,71.366,187.191,-76.168,0.0,78.0
214873,-0.385,0.400,1.076,152.015,100.977,-21.924,0.0,25.0
214962,-0.318,0.693,1.203,66.076,42.527,-59.214,0.0,23.0
215048,-0.172,0.663,0.579,75.962,11.634,2.901,0.0,23.0
215134,-0.495,0.566,0.875,32.359,35.611,-6.626,0.0,19.0
215220,-0.274,0.589,0.725,-21.664,3.282,0.237,0.0,23.0
215306,-0.317,0.465,0.830,3.992,-4.191,-1.634,0.0,20.0
215392,-0.286,0.589,0.746,33.267,-2.954,3.305,0.0,21.0
215488,-0.249,0.645,0.734,-14.046,-1.748,-1.565,0.0,0.0
215574,-0.248,0.516,0.763,-36.351,1.168,-1.878,0.0,21.0
215660,-0.255,0.522,0.810,-5.389,-0.412,3.534,0.0,21.0
215750,-0.278,0.588,0.785,-26.603,-1.702,2.008,0.0,30.0
215836,-0.267,0.405,0.855,-31.069,0.908,1.435,0.0,23.0
215922,-0.255,0.359,0.865,-16.557,1.321,-0.779,0.0,22.0
216008,-0.251,0.333,0.868,5.466,2.489,-0.573,0.0,22.0
216095,-0.345,0.442,0.919,25.305,2.939,1.672,0.0,22.0
216181,-0.263,0.385,0.828,18.427,3.145,0.672,0.0,23.0
216267,-0.250,0.441,0.837,9.038,-0.542,-1.870,0.0,22.0
216364,-0.289,0.461,0.846,2.748,0.702,0.145,0.0,0.0
216460,-0.285,0.462,0.851,1.084,0.084,-0.366,0.0,0.0
216559,-0.279,0.462,0.836,8.221,0.115,-1.160,0.0,0.0
216645,-0.273,0.531,0.816,14.023,-0.191,0.008,0.0,25.0
216731,-0.279,0.525,0.811,1.794,-0.305,-0.473,0.0,23.0
216818,-0.282,0.492,0.831,-0.977,0.107,-0.847,0.0,24.0
216904,-0.281,0.490,0.823,3.641,-0.084,-0.519,0.0,23.0
