Timestamp(ms),AccelX(g),AccelY(g),AccelZ(g),GyroX(deg/s),GyroY(deg/s),GyroZ(deg/s),DistanceLeft(cm),DistanceRight(cm)
283362,-0.146,0.063,0.946,0.046,-12.130,5.611,0.0,170.0
283454,-0.365,0.185,0.945,24.122,14.038,-18.366,0.0,163.0
283545,-0.171,0.029,0.816,16.237,2.229,-24.534,0.0,158.0
283636,-0.239,0.005,0.826,47.244,24.328,-48.000,0.0,152.0
283729,-0.318,-0.133,0.676,133.275,76.573,-119.427,0.0,0.0
283821,-0.948,0.046,0.385,250.130,97.191,-192.748,156.0,0.0
283913,-1.345,0.404,0.042,250.130,72.481,-181.038,167.0,0.0
284009,-1.115,0.471,-0.259,250.130,29.687,-171.076,0.0,0.0
284100,-1.174,0.463,-0.316,173.504,-15.183,-142.298,150.0,0.0
284191,-0.933,0.307,-0.125,134.557,2.863,-62.634,154.0,0.0
284282,-0.911,0.439,-0.009,113.832,20.664,-26.405,156.0,0.0
284375,-0.905,0.451,0.110,61.198,34.809,-38.718,155.0,0.0
284465,-1.347,0.396,0.094,19.084,34.519,-4.656,149.0,0.0
284556,-1.069,0.183,0.136,-37.763,1.710,119.886,138.0,0.0
284652,-1.567,0.227,-0.086,-30.435,-40.557,202.450,123.0,149.0
284740,-0.940,0.195,-0.051,-37.038,-53.305,191.626,112.0,0.0
284829,-0.604,0.211,-0.037,-29.412,-48.000,92.130,180.0,98.0
284915,-0.655,0.216,-0.030,24.947,-46.565,-14.290,176.0,98.0
285003,-0.803,0.403,-0.057,86.084,-47.160,-95.840,99.0,0.0
285089,-1.060,0.426,-0.116,142.573,-46.214,-180.855,98.0,177.0
285175,-1.005,0.420,-0.086,130.985,-1.885,-186.527,101.0,171.0
285263,-1.133,0.287,-0.112,-13.565,0.840,-132.344,103.0,0.0
285357,-0.893,0.115,0.071,127.481,11.779,-33.840,0.0,0.0
285449,-0.934,0.410,-0.043,106.481,12.458,11.924,0.0,191.0
285545,-0.941,0.457,0.104,11.695,37.115,-2.924,0.0,194.0
285638,-1.064,0.337,0.150,-20.115,27.618,3.298,0.0,0.0
285731,-1.138,0.205,0.123,5.756,-13.221,52.244,0.0,0.0
285825,-1.206,0.347,-0.004,-25.084,-17.397,121.886,0.0,0.0
285918,-1.089,0.179,-0.060,-72.397,-50.015,119.664,0.0,0.0
286011,-0.744,0.221,-0.017,-12.542,-34.802,87.405,0.0,0.0
286104,-0.832,0.293,-0.070,4.252,-30.412,9.458,0.0,0.0
286197,-1.014,0.265,-0.053,51.672,-20.366,-56.947,0.0,0.0
286290,-0.907,0.249,-0.041,93.290,2.832,-90.458,0.0,0.0
286387,-1.046,0.326,-0.048,32.824,31.443,-104.519,0.0,0.0
286480,-0.873,0.157,0.097,70.985,18.534,-83.412,0.0,0.0
286574,-0.932,0.375,0.052,85.802,21.656,-67.870,0.0,0.0
286667,-1.018,0.468,0.163,17.870,12.748,-63.473,0.0,0.0
286760,-1.291,0.302,0.131,-22.366,-8.565,-15.237,0.0,0.0
286854,-1.125,0.103,0.052,7.008,-41.962,118.924,200.0,0.0
286947,-1.342,0.201,-0.164,8.664,-52.679,204.458,0.0,0.0
287040,-0.797,0.288,-0.117,-27.237,-25.931,183.427,0.0,0.0
287127,-0.792,0.304,-0.125,-61.359,-11.145,84.115,195.0,97.0
287217,-0.865,0.257,-0.075,-11.885,-12.557,-11.168,178.0,97.0
287309,-0.897,0.278,-0.032,51.603,-7.634,-91.916,187.0,0.0
287403,-0.857,0.359,-0.068,94.603,12.916,-181.901,192.0,0.0
287496,-1.246,0.502,-0.061,-8.817,55.305,-211.527,0.0,0.0
287590,-0.969,-0.005,0.216,-24.221,41.901,-103.435,0.0,0.0
287683,-0.873,0.382,0.125,54.969,23.076,-27.137,0.0,0.0
287776,-0.896,0.439,0.166,-36.817,9.099,5.725,0.0,0.0
287869,-1.159,0.187,0.122,-4.916,-26.000,60.344,0.0,0.0
287964,-1.390,0.241,-0.093,64.817,-42.481,138.977,156.0,0.0
288057,-1.270,0.200,-0.341,-11.832,-16.061,232.038,0.0,0.0
288148,-1.139,0.346,-0.169,-89.206,0.198,151.977,161.0,0.0
288233,-0.677,0.248,-0.015,-72.221,17.641,85.580,150.0,98.0
288318,-0.676,0.217,0.014,-43.519,10.710,-9.176,147.0,100.0
288408,-0.874,0.253,0.072,23.183,-2.588,-117.176,148.0,0.0
288501,-1.177,0.203,0.075,110.206,-22.863,-187.489,0.0,0.0
288589,-1.154,0.299,0.059,127.962,-18.260,-170.962,101.0,0.0
288676,-1.114,0.266,0.053,68.069,-19.267,-106.588,78.0,0.0
288765,-0.829,0.261,0.105,105.260,-10.466,-17.992,72.0,0.0
288851,-0.785,0.228,0.147,79.466,2.000,-2.458,74.0,0.0
288939,-0.809,0.093,0.249,51.122,20.908,-15.305,75.0,0.0
289025,-0.976,-0.012,0.302,64.855,15.191,-7.183,78.0,0.0
289105,-1.012,0.130,0.299,70.466,8.229,18.473,79.0,93.0
289185,-0.990,0.223,0.211,79.435,6.962,34.916,80.0,94.0
289267,-1.079,0.295,0.038,70.015,-1.168,40.718,99.0,98.0
289355,-0.926,0.331,-0.027,61.534,-1.244,63.031,0.0,104.0
289447,-1.006,0.385,-0.136,13.672,1.504,55.603,0.0,111.0
289538,-0.870,0.389,-0.008,-11.397,3.824,74.771,0.0,146.0
289629,-0.919,0.462,0.025,10.000,-19.260,60.038,0.0,152.0
289720,-0.837,0.496,0.001,21.740,-25.183,13.702,0.0,157.0
289811,-1.056,0.403,-0.072,35.649,-33.130,-22.053,0.0,162.0
289901,-1.027,0.246,-0.170,99.992,-36.588,-37.863,0.0,138.0
289991,-0.762,0.150,-0.151,105.679,-23.053,-105.489,0.0,135.0
290080,-0.917,0.498,-0.161,80.664,10.733,-129.099,0.0,131.0
290170,-0.808,0.407,-0.048,28.244,15.977,-135.519,0.0,129.0
290264,-1.119,0.380,0.049,5.260,31.191,-103.359,0.0,131.0
290354,-1.075,0.392,0.143,-28.916,15.779,-0.947,0.0,138.0
290444,-1.182,0.378,0.045,-38.725,-12.611,65.756,0.0,151.0
290536,-1.267,0.205,-0.043,-14.427,-38.687,149.710,0.0,167.0
290629,-1.561,0.648,-0.136,-58.832,-70.191,250.130,0.0,189.0
290722,-1.378,0.514,-0.243,-216.824,-120.489,226.191,182.0,0.0
290816,-0.623,0.438,0.008,-250.137,-145.137,120.237,0.0,0.0
290910,-0.292,-0.184,0.488,-179.000,-96.061,30.626,0.0,0.0
291006,-0.201,0.152,0.773,-64.962,-45.176,6.122,0.0,0.0
291100,-0.132,-0.042,1.054,-43.489,-15.977,-31.595,0.0,0.0
291194,-0.126,0.074,0.906,-49.237,-16.664,-29.450,0.0,0.0
291279,-0.137,0.040,0.906,-5.229,5.206,-35.229,51.0,0.0
291364,0.045,-0.042,0.856,-3.137,2.489,-34.122,44.0,0.0
291449,0.006,-0.027,0.907,6.382,4.206,-35.931,44.0,0.0
291533,-0.052,-0.032,0.907,31.504,6.718,-23.366,39.0,0.0
291618,-0.125,-0.251,0.948,115.099,24.458,-33.504,38.0,0.0
291702,-0.259,0.148,0.768,219.954,82.679,-87.565,45.0,0.0
291798,-0.481,0.638,0.490,205.443,103.679,-84.351,159.0,0.0
291889,-0.817,1.032,0.558,141.313,114.260,-90.679,163.0,0.0
291983,-0.719,1.081,0.567,59.397,-0.931,-38.893,0.0,0.0
292076,-0.405,0.593,0.508,56.351,-39.611,-16.000,0.0,0.0
292170,-0.656,0.527,0.129,77.473,-18.550,-49.557,0.0,0.0
292264,-1.146,0.255,-0.194,153.038,7.298,-99.962,0.0,0.0
292358,-1.353,0.363,-0.367,110.916,-27.695,-112.962,0.0,0.0
292452,-0.809,0.252,-0.092,62.061,-3.145,-90.099,0.0,0.0
292546,-0.954,0.200,-0.098,69.305,-9.985,-76.229,0.0,0.0
292643,-0.827,0.269,-0.002,141.656,-5.618,-71.183,0.0,0.0
292738,-1.063,0.448,0.030,95.366,13.977,-54.198,0.0,0.0
292832,-0.968,0.438,0.131,-14.718,34.847,-14.595,0.0,0.0
292926,-1.098,0.290,0.139,-35.603,16.282,7.344,0.0,0.0
293020,-1.244,0.130,0.057,-2.313,-32.405,94.931,0.0,0.0
293114,-1.473,0.201,-0.104,-13.954,-47.885,197.886,0.0,0.0
293209,-0.902,0.249,-0.082,-74.756,-39.183,177.061,0.0,0.0
293303,-0.603,0.231,0.002,-48.550,-28.046,83.870,0.0,0.0
293397,-0.787,0.208,-0.014,21.305,-23.794,-24.809,0.0,0.0
293494,-1.053,0.293,-0.070,99.817,-4.153,-105.214,196.0,0.0
293588,-1.004,0.323,-0.114,117.458,7.817,-154.015,197.0,0.0
293683,-1.163,0.312,-0.105,39.954,8.870,-123.328,199.0,0.0
293777,-0.922,0.208,-0.022,122.626,7.076,-88.198,0.0,0.0
293871,-0.955,0.417,-0.098,89.824,10.298,-61.969,0.0,0.0
293965,-1.007,0.364,-0.011,34.038,25.603,-31.771,0.0,0.0
294060,-1.116,0.437,0.014,-17.351,30.023,-0.092,0.0,0.0
294152,-1.249,0.246,0.079,-18.053,4.137,75.886,173.0,0.0
294250,-1.235,0.234,-0.077,-24.000,-30.160,170.405,0.0,0.0
294344,-1.143,0.239,-0.203,-64.817,-37.924,167.496,0.0,0.0
294438,-0.797,0.207,-0.106,-38.542,-32.962,127.595,0.0,0.0
294533,-0.689,0.278,-0.058,-18.344,-21.229,44.870,199.0,0.0
294621,-0.876,0.275,-0.031,15.901,-22.779,-64.321,192.0,95.0
294715,-1.006,0.223,-0.093,85.916,-22.160,-124.832,0.0,0.0
294809,-1.039,0.213,-0.179,146.298,-29.374,-164.573,188.0,0.0
294902,-1.183,0.376,-0.175,127.382,-7.611,-145.099,192.0,0.0
294996,-0.883,0.276,-0.082,93.328,3.076,-96.412,178.0,0.0
295093,-0.919,0.401,-0.078,77.588,25.191,-50.290,179.0,0.0
295186,-0.986,0.391,0.049,1.771,42.855,-13.878,178.0,0.0
295278,-1.167,0.278,0.160,-1.885,26.344,39.405,170.0,0.0
295370,-1.160,0.181,0.090,14.847,-5.901,115.382,158.0,0.0
295461,-1.299,0.199,-0.035,-31.748,-28.183,195.084,143.0,0.0
295552,-1.260,0.243,-0.099,-46.244,-68.069,164.496,130.0,0.0
295641,-0.707,0.196,0.040,-3.618,-50.580,102.794,199.0,93.0
295728,-0.739,0.306,-0.018,-5.351,-26.122,9.863,187.0,95.0
295825,-0.841,0.255,-0.001,20.069,-31.076,-84.672,186.0,0.0
295914,-1.199,0.234,-0.116,132.443,-29.023,-163.443,109.0,0.0
296002,-1.208,0.268,-0.250,158.855,-10.649,-168.031,114.0,155.0
296089,-1.076,0.309,-0.108,86.038,-25.290,-101.046,119.0,152.0
296179,-0.860,0.304,-0.144,153.481,-12.435,-39.374,123.0,0.0
296279,-0.746,0.446,-0.010,102.092,9.924,-26.664,0.0,193.0
296372,-0.941,0.447,0.213,8.901,33.756,-36.481,0.0,194.0
296465,-1.259,0.418,0.111,15.137,28.702,3.870,0.0,0.0
296558,-1.141,0.236,0.084,-27.122,6.427,110.565,0.0,0.0
296649,-1.336,0.220,-0.050,-55.962,-26.779,175.824,105.0,0.0
296742,-0.892,0.186,-0.040,-54.038,-40.924,154.145,0.0,0.0
296835,-0.695,0.295,-0.010,-27.328,-25.519,75.412,179.0,0.0
296927,-0.780,0.291,-0.058,-25.214,-25.992,-17.786,174.0,0.0
297020,-1.015,0.240,-0.057,48.107,-19.802,-88.443,0.0,0.0
297114,-1.165,0.203,-0.141,120.412,-20.336,-129.015,0.0,0.0
297207,-0.976,0.457,-0.151,125.672,10.969,-115.092,0.0,0.0
297300,-0.990,0.227,-0.028,48.496,13.038,-87.046,0.0,0.0
297397,-0.813,0.775,-0.819,36.053,27.588,-80.985,0.0,0.0
297491,-0.872,0.391,0.102,44.962,35.519,-29.473,0.0,0.0
297584,-1.075,0.368,0.118,-0.763,29.519,-12.779,0.0,0.0
297677,-1.056,0.310,0.087,-31.198,2.244,30.046,0.0,0.0
297771,-1.153,0.125,-0.001,-33.947,-35.977,95.527,0.0,0.0
297865,-1.299,0.233,-0.119,-5.710,-66.000,156.336,0.0,0.0
297958,-0.792,0.276,-0.076,-6.122,-46.160,133.389,0.0,0.0
298051,-0.779,0.386,-0.124,-42.122,-17.038,67.580,0.0,0.0
298145,-0.873,0.208,0.013,-17.511,-9.542,0.275,0.0,0.0
298242,-1.017,0.227,0.002,99.672,-23.763,-55.229,0.0,0.0
298335,-0.940,0.333,-0.092,165.183,-38.092,-126.962,0.0,0.0
298429,-1.067,0.526,-0.119,60.145,-10.168,-150.702,0.0,0.0
298521,-0.929,0.178,-0.004,67.061,-7.244,-96.122,186.0,0.0
298614,-0.855,0.358,-0.080,119.977,-6.962,-42.221,187.0,0.0
298707,-0.867,0.531,0.041,80.130,12.695,-22.557,186.0,0.0
298800,-1.061,0.389,0.065,-6.252,12.382,14.053,183.0,0.0
298892,-1.137,0.321,0.034,10.466,8.397,73.573,174.0,0.0
298983,-0.830,0.286,0.013,-47.542,11.397,108.863,154.0,0.0
299076,-1.404,0.169,-0.161,-52.168,-25.435,68.214,150.0,0.0
299170,-0.881,0.041,-0.020,33.053,-41.435,94.282,0.0,0.0
299264,-0.817,0.296,-0.154,46.221,-38.000,19.053,0.0,0.0
299358,-0.931,0.216,-0.064,65.565,-57.053,-38.405,0.0,0.0
299449,-0.781,0.336,-0.087,136.779,-37.366,-101.099,0.0,164.0
299539,-1.095,0.478,-0.100,50.015,12.489,-143.267,0.0,133.0
299628,-0.941,0.185,0.054,26.427,11.595,-98.313,0.0,129.0
299718,-0.980,0.382,0.023,53.229,24.771,-37.008,0.0,128.0
299810,-1.043,0.342,0.089,-1.420,17.069,-8.656,0.0,131.0
299900,-1.069,0.210,0.070,14.511,-3.153,29.855,0.0,138.0
299992,-0.969,0.367,0.016,6.450,7.733,41.351,0.0,147.0
300083,-1.157,0.224,-0.025,-88.977,-19.618,92.282,0.0,160.0
300176,-1.214,0.088,0.016,-60.450,-62.565,148.443,0.0,195.0
300270,-0.779,0.191,0.049,22.015,-65.901,78.237,199.0,0.0
300363,-0.752,0.338,0.063,-7.641,-42.069,9.840,192.0,0.0
300456,-1.106,0.261,-0.018,29.550,-46.527,-42.695,188.0,0.0
300550,-0.837,0.211,-0.028,119.641,-35.519,-56.427,186.0,0.0
300645,-0.984,0.427,-0.212,172.817,-28.710,-129.550,190.0,194.0
300739,-0.833,0.384,-0.115,165.817,14.893,-161.733,0.0,189.0
300832,-1.102,0.704,-0.132,-122.840,48.427,-105.038,0.0,188.0
300925,-1.046,-0.165,0.325,8.000,12.985,22.893,0.0,192.0
301019,-0.970,0.228,0.097,148.588,-13.198,58.038,0.0,197.0
301110,-0.918,0.460,0.034,93.710,10.863,43.092,0.0,147.0
301201,-0.878,0.561,-0.078,-102.672,40.145,1.267,0.0,158.0
301295,-1.379,-0.169,-0.058,-20.496,-51.237,-1.863,0.0,0.0
301389,-0.945,0.133,-0.402,162.672,-39.580,135.252,0.0,156.0
301481,-0.737,0.321,-0.208,-68.046,10.664,38.359,0.0,163.0
301573,-0.955,-0.106,-0.180,-15.954,-18.626,29.756,0.0,168.0
301665,-0.728,0.200,-0.209,133.809,-5.794,-20.557,0.0,168.0
301757,-1.959,0.635,-0.858,-3.183,-87.252,-131.290,0.0,168.0
301849,-0.426,-0.075,0.046,236.122,-2.107,208.427,0.0,167.0
301941,-0.775,1.057,-0.482,115.137,-46.160,-44.969,0.0,165.0
302033,-1.020,0.093,-0.154,-11.740,-57.290,-74.198,0.0,163.0
302126,-0.722,0.305,-0.188,131.947,7.435,-14.687,0.0,162.0
302220,-1.120,0.399,-0.350,14.458,-55.656,-77.489,0.0,159.0
302312,-0.854,0.044,-0.041,95.328,-38.710,-8.076,0.0,159.0
302406,-0.907,0.413,-0.248,81.443,-48.748,57.183,0.0,0.0
302492,-0.725,0.361,-0.126,-15.534,-60.664,48.176,0.0,57.0
302586,-0.749,0.232,-0.107,4.160,-78.916,61.252,0.0,0.0
302680,-0.682,0.278,-0.049,44.076,-123.634,130.443,0.0,0.0
302774,-0.859,0.599,0.232,-27.924,-228.809,210.794,0.0,0.0
302857,0.133,2.000,0.937,149.611,-142.176,193.069,187.0,16.0
302943,0.528,1.403,1.100,-114.603,-114.237,22.618,192.0,16.0
303026,1.625,0.619,0.411,-30.198,-53.206,-46.252,181.0,21.0
303110,0.348,0.470,-0.077,-101.893,3.328,-82.366,0.0,26.0
303194,0.006,0.168,0.139,-76.115,-6.718,17.130,0.0,29.0
303279,0.339,0.388,0.427,-73.534,-2.191,18.802,0.0,27.0
303363,0.307,0.522,0.950,-105.183,41.344,-34.099,0.0,31.0
303447,0.219,0.917,1.962,76.855,99.168,-50.153,0.0,29.0
303531,-0.192,0.875,1.467,-64.695,43.290,38.328,0.0,26.0
303616,-0.138,0.257,0.503,-120.962,18.252,18.168,0.0,31.0
303700,-0.253,0.213,1.085,-34.412,14.489,-16.893,105.0,78.0
303779,-0.411,0.212,1.103,95.733,-18.832,4.237,107.0,25.0
303874,-0.130,0.619,0.755,127.863,-7.832,21.405,0.0,0.0
303956,-0.136,0.832,0.531,15.511,2.221,4.298,0.0,21.0
304043,-0.253,0.618,0.848,-98.450,14.046,-14.206,0.0,57.0
304137,-0.260,0.295,0.966,-27.992,3.939,-2.702,0.0,0.0
304231,-0.196,0.512,0.765,41.847,-5.008,5.916,0.0,0.0
304325,-0.234,0.528,0.843,-25.244,3.939,-5.466,0.0,0.0
304419,-0.233,0.417,0.853,8.298,-1.817,0.137,0.0,0.0
304508,-0.215,0.544,0.810,2.260,1.672,-1.351,0.0,57.0
304603,-0.250,0.456,0.868,-9.153,1.863,-3.260,0.0,0.0
304696,-0.248,0.516,0.844,-7.466,0.931,-1.557,0.0,0.0
304785,-0.244,0.475,0.859,1.420,2.489,-2.389,107.0,0.0
304879,-0.244,0.489,0.874,2.962,-0.947,-0.824,0.0,0.0
304973,-0.232,0.496,0.824,-1.305,1.397,-0.840,0.0,0.0
305068,-0.235,0.475,0.853,-2.321,1.763,-1.351,0.0,0.0
305162,-0.319,0.603,1.005,-10.771,-1.786,12.504,0.0,0.0
305246,-0.145,0.677,0.943,-72.107,-60.786,11.985,0.0,30.0
305331,-0.229,0.458,0.715,-206.519,-47.542,-9.145,101.0,78.0
305410,-0.180,-0.293,0.829,-235.145,-81.015,25.893,47.0,83.0
305488,0.093,-0.559,0.976,-52.435,-84.863,41.916,37.0,88.0
305567,0.175,-0.332,0.795,-52.435,-65.992,26.031,42.0,92.0
305652,0.196,-0.481,0.846,-29.947,-52.450,23.794,42.0,0.0
305737,0.225,-0.506,0.808,2.137,-42.183,18.389,36.0,0.0
305822,0.354,-0.428,0.784,-18.893,-36.260,14.008,38.0,0.0
305907,0.378,-0.552,0.816,-11.313,-20.168,11.542,39.0,0.0
305992,0.355,-0.538,0.770,2.214,-12.863,2.397,37.0,0.0
306081,0.369,-0.499,0.764,29.534,3.466,1.817,41.0,0.0
306166,0.360,-0.495,0.800,-6.565,6.061,2.679,42.0,0.0
306251,0.372,-0.522,0.764,19.229,13.885,-3.115,38.0,0.0
306336,0.388,-0.698,0.772,70.649,30.366,-17.916,39.0,0.0
306415,0.268,-0.493,0.790,121.015,45.557,-28.176,46.0,93.0
306495,0.326,-0.087,0.918,108.626,57.649,-40.840,49.0,87.0
306576,0.218,0.051,1.038,20.435,34.679,-37.496,89.0,83.0
306658,0.205,-0.034,1.110,31.458,27.321,-20.137,98.0,80.0
306737,0.081,0.091,1.024,55.053,32.931,0.985,52.0,78.0
306822,0.040,0.102,0.947,12.206,32.305,7.458,104.0,75.0
306904,0.099,0.199,1.043,2.725,26.763,26.305,106.0,74.0
306985,0.258,0.107,0.971,13.031,32.588,50.321,109.0,74.0
307069,0.286,0.148,0.773,31.206,53.992,59.748,28.0,195.0
307151,0.182,0.186,0.596,61.595,92.435,34.893,30.0,155.0
307233,-0.079,0.244,0.453,131.282,177.130,-14.450,26.0,153.0
307326,-0.867,0.760,0.235,120.588,137.122,-69.695,0.0,163.0
307419,-1.396,0.680,0.352,-65.244,104.153,-42.672,0.0,157.0
307511,-1.543,0.463,0.308,109.931,129.053,-27.924,159.0,157.0
307601,-1.767,0.900,0.162,-2.336,61.802,-51.092,159.0,158.0
307699,-1.418,0.314,0.248,-74.427,28.656,-45.176,0.0,158.0
307790,-1.317,0.402,-0.037,3.389,25.206,-75.130,0.0,163.0
307883,-0.686,-0.020,-0.017,-72.298,-28.901,-21.481,0.0,181.0
307976,-0.367,-0.143,0.065,72.634,-44.618,1.000,0.0,182.0
308068,-0.528,0.071,-0.054,134.786,-23.641,-3.374,0.0,195.0
308162,-0.463,0.183,0.079,40.427,14.687,-21.031,0.0,198.0
308255,-0.615,0.213,0.185,37.756,52.145,-32.519,0.0,0.0
308352,-1.026,0.438,0.098,41.618,53.321,-72.221,0.0,0.0
308445,-0.984,0.357,0.160,-29.924,46.351,-11.092,0.0,0.0
308538,-1.002,0.565,0.052,-46.053,37.992,26.733,0.0,0.0
308631,-1.324,0.269,-0.194,-160.878,-16.275,61.725,0.0,0.0
308725,-1.363,-0.204,-0.230,-116.679,-72.168,137.244,0.0,0.0
308818,-0.818,0.074,-0.112,-7.481,-67.542,158.237,0.0,0.0
308913,-0.823,0.308,-0.115,-1.328,-23.618,51.656,0.0,0.0
309006,-0.950,0.191,-0.014,-14.634,-9.924,-24.031,0.0,0.0
309099,-0.988,0.200,0.048,86.000,20.298,-114.695,0.0,0.0
309195,-1.003,0.229,0.068,94.603,18.267,-139.031,0.0,0.0
309289,-1.050,0.156,0.011,102.191,-7.099,-113.389,0.0,0.0
309383,-0.861,0.305,-0.059,166.580,10.656,-50.534,0.0,0.0
309476,-1.033,0.406,0.086,17.565,10.756,-17.794,0.0,0.0
309570,-1.062,0.213,0.136,1.824,6.534,15.588,0.0,0.0
309663,-1.134,0.279,0.036,67.863,0.031,55.992,0.0,0.0
309756,-1.208,0.350,-0.032,-22.733,7.794,110.191,0.0,0.0
309851,-1.375,0.137,-0.081,-137.290,-36.924,159.802,0.0,0.0
309947,-0.420,0.082,0.247,10.771,-50.015,95.374,0.0,0.0
310040,-0.676,0.411,0.019,13.771,-11.626,-8.748,0.0,0.0
310134,-1.066,0.145,-0.002,50.115,-32.145,-67.282,0.0,0.0
310227,-1.052,0.216,-0.122,169.221,-30.763,-80.298,0.0,0.0
310320,-1.054,0.348,-0.209,173.779,-31.908,-100.855,0.0,164.0
310411,-1.023,0.453,-0.192,52.588,3.977,-114.282,0.0,154.0
310504,-0.774,0.117,0.052,75.771,7.450,-109.481,194.0,0.0
310597,-0.904,0.413,-0.103,129.244,16.763,-70.198,194.0,0.0
310690,-0.981,0.487,0.029,-13.901,45.870,-24.176,190.0,0.0
310786,-1.217,0.242,0.100,-98.183,24.015,25.244,181.0,0.0
310877,-1.174,0.047,0.106,18.519,-29.618,126.756,165.0,178.0
310967,-1.600,0.219,-0.109,16.649,-68.672,190.954,148.0,0.0
311057,-1.240,0.204,-0.121,5.802,-66.748,218.046,133.0,0.0
311145,-0.696,0.340,-0.073,-20.061,-39.710,125.450,193.0,95.0
311232,-0.573,0.287,0.015,-57.015,-13.511,13.061,184.0,97.0
311318,-0.710,0.182,0.102,-2.183,-5.130,-68.244,182.0,97.0
311407,-0.961,0.239,0.001,103.725,-8.557,-149.840,114.0,0.0
311499,-1.389,0.234,-0.165,187.916,-25.252,-192.931,115.0,0.0
311588,-1.279,0.370,-0.290,137.824,-21.534,-118.656,123.0,189.0
311678,-1.024,0.178,-0.155,92.344,-34.664,-54.573,129.0,0.0
311769,-0.823,0.263,-0.204,185.954,-34.779,-52.267,135.0,0.0
311862,-0.792,0.448,-0.249,143.023,-5.061,-52.473,0.0,0.0
311956,-0.940,0.529,-0.131,-33.160,56.557,-48.504,0.0,0.0
312049,-1.056,0.272,0.071,-117.534,68.962,1.786,0.0,0.0
312143,-1.232,0.007,0.186,-46.702,-3.786,110.542,0.0,0.0
312238,-1.584,0.154,-0.014,10.214,-50.924,195.763,0.0,0.0
312334,-0.831,0.307,-0.007,-29.229,-46.725,170.969,0.0,0.0
312421,-0.531,0.290,0.004,-52.756,-27.458,67.412,189.0,94.0
312515,-0.835,0.265,-0.006,-6.214,-26.206,-36.962,0.0,0.0
312609,-1.076,0.152,-0.022,102.282,-30.137,-86.221,0.0,0.0
312702,-1.179,0.316,-0.231,172.458,-20.237,-117.832,0.0,0.0
312797,-0.988,0.480,-0.163,32.573,0.656,-110.351,0.0,0.0
312891,-0.982,-0.001,0.013,50.626,-20.885,-91.115,0.0,0.0
312984,-0.867,0.298,-0.152,193.260,-8.298,-49.809,0.0,0.0
313078,-0.905,0.457,-0.131,93.519,5.954,-50.389,0.0,0.0
313176,-1.022,0.459,-0.011,-13.107,44.573,-52.634,0.0,0.0
313269,-1.311,0.240,0.108,-63.000,23.153,8.397,194.0,0.0
313362,-1.414,0.045,0.099,-18.695,-35.977,165.886,192.0,0.0
313456,-1.405,0.135,-0.137,16.626,-86.664,223.550,0.0,0.0
313550,-0.713,0.242,-0.044,18.412,-68.405,176.031,0.0,0.0
313641,-0.610,0.280,-0.029,-34.191,-50.130,61.122,162.0,0.0
313735,-0.746,0.185,0.015,30.221,-49.939,-48.664,170.0,0.0
313828,-0.994,0.489,-0.154,93.824,-43.977,-149.214,200.0,0.0
313925,-0.975,0.260,-0.093,102.458,16.145,-217.771,0.0,0.0
314016,-1.401,0.283,-0.257,119.847,30.779,-150.221,0.0,144.0
314106,-0.974,0.266,-0.086,94.550,23.496,-57.870,0.0,136.0
314196,-0.944,0.426,-0.073,63.603,26.504,-53.221,0.0,133.0
314287,-0.936,0.356,0.075,4.519,32.496,-29.511,0.0,134.0
314368,-1.147,0.277,0.124,-30.672,8.992,29.573,17.0,139.0
314459,-1.072,0.165,0.122,4.832,-17.511,80.832,0.0,150.0
314550,-1.025,0.308,-0.032,-20.092,-29.618,108.931,194.0,165.0
314644,-1.432,0.193,-0.091,-54.901,-53.496,128.832,0.0,0.0
314741,-1.002,0.152,-0.060,-15.634,-53.046,135.794,0.0,0.0
314835,-0.755,0.289,-0.075,-16.237,-18.725,86.863,0.0,0.0
314930,-0.890,0.282,-0.068,-23.244,-14.473,-17.412,0.0,0.0
315024,-1.187,0.177,-0.039,73.542,-30.702,-103.794,0.0,0.0
315116,-0.693,0.239,-0.026,174.092,-2.710,-135.153,166.0,0.0
315208,-1.250,0.402,-0.136,39.992,0.382,-145.649,170.0,0.0
315301,-0.917,0.071,0.104,87.565,9.000,-66.145,173.0,0.0
315394,-0.979,0.419,-0.118,99.565,13.802,-55.763,178.0,0.0
315491,-0.911,0.279,0.023,35.595,33.267,-28.198,0.0,0.0
315585,-1.162,0.273,-0.064,-1.008,55.664,20.099,0.0,0.0
315679,-0.148,0.869,-0.066,-153.275,90.977,-61.534,0.0,0.0
315764,-2.000,-0.939,-1.614,-250.137,-250.137,-112.809,37.0,0.0
315855,-0.387,-0.953,0.378,250.130,-132.641,250.130,141.0,0.0
315947,-0.279,1.685,-0.634,250.130,-83.366,145.519,198.0,155.0
316039,-1.179,0.328,-0.432,-61.107,-176.031,-26.695,0.0,160.0
316131,-0.722,-0.404,0.042,179.198,-125.557,38.160,0.0,156.0
316222,-0.435,1.172,-0.651,147.664,-44.305,-3.641,0.0,149.0
316308,-0.653,0.474,-0.358,-250.137,71.198,-225.939,44.0,146.0
316393,-0.954,0.004,0.312,0.924,41.557,-110.534,45.0,0.0
316484,-1.003,0.383,-0.089,249.351,-45.053,-22.168,0.0,133.0
316572,-0.888,0.456,-0.305,250.130,-136.702,23.794,0.0,102.0
316661,-0.624,0.661,-0.202,158.183,-107.580,64.947,0.0,101.0
316750,-1.256,0.741,0.285,12.626,-160.557,83.015,0.0,118.0
316839,-0.861,0.149,0.462,-80.153,-208.603,104.443,0.0,101.0
316934,-0.463,0.241,1.941,7.870,-149.710,20.435,0.0,0.0
317031,-0.155,1.493,1.067,-22.344,-52.107,-28.267,0.0,0.0
317115,0.429,0.353,0.694,-96.481,-10.557,-16.099,0.0,19.0
317199,0.296,-0.075,0.505,12.649,-17.183,-32.076,0.0,18.0
317283,0.115,0.073,0.286,60.183,35.847,-50.092,0.0,17.0
317367,-0.737,0.165,1.976,122.992,31.435,-11.710,0.0,16.0
317461,-0.234,1.753,0.519,-52.870,-37.725,-11.214,0.0,0.0
317545,-0.594,0.524,0.943,-172.427,17.885,-26.038,0.0,13.0
317629,-0.038,0.285,0.778,11.992,18.382,-20.458,0.0,16.0
317711,-0.172,0.397,0.869,-26.015,18.634,-44.031,168.0,17.0
317796,-0.385,0.029,0.939,-56.489,19.473,-46.336,166.0,16.0
317878,-0.484,0.160,0.823,10.198,6.740,-20.008,166.0,16.0
317960,-0.585,0.304,0.817,17.931,-5.702,-7.412,168.0,16.0
318042,-0.500,0.162,0.823,-48.649,-15.000,12.908,166.0,16.0
318124,-0.374,0.120,0.943,-10.290,-1.397,13.542,166.0,16.0
318205,-0.309,0.244,0.927,69.886,-13.924,12.771,167.0,16.0
318287,-0.307,0.552,0.857,21.901,-1.985,-1.664,169.0,17.0
318369,-0.365,0.372,0.858,-26.695,5.282,-4.870,168.0,16.0
318455,-0.448,0.188,0.889,-12.389,1.214,-1.298,167.0,19.0
318537,-0.383,0.153,0.881,31.870,-4.626,0.115,167.0,17.0
318621,-0.375,0.451,0.834,61.786,-4.618,4.847,0.0,16.0
318705,-0.355,0.505,0.828,-4.298,-0.626,-1.359,0.0,16.0
318789,-0.375,0.301,0.868,-5.840,0.626,-1.313,0.0,19.0
318873,-0.379,0.391,0.853,13.908,-0.344,1.275,0.0,17.0
318957,-0.359,0.425,0.841,-0.023,-0.481,-0.679,0.0,16.0
319041,-0.374,0.370,0.851,-2.282,0.198,-1.771,0.0,17.0
319125,-0.375,0.389,0.844,2.947,-0.046,-0.489,0.0,17.0
319217,-0.364,0.388,0.852,1.496,0.328,-0.344,0.0,17.0
319300,-0.371,0.376,0.851,-0.366,0.237,-1.092,0.0,17.0
319383,-0.371,0.375,0.845,2.115,0.351,-0.794,0.0,17.0
319465,-0.368,0.375,0.851,3.076,-0.412,-0.779,0.0,16.0
319548,-0.366,0.397,0.848,2.786,-0.023,-0.679,0.0,16.0
319631,-0.366,0.377,0.847,0.191,0.366,-0.939,0.0,16.0
319714,-0.373,0.386,0.846,1.611,0.466,-0.954,0.0,16.0
319797,-0.369,0.388,0.847,1.634,-0.084,-1.031,0.0,16.0
319880,-0.371,0.386,0.842,4.626,-1.313,-0.679,0.0,16.0
319965,-0.365,0.397,0.838,0.718,0.695,-1.168,0.0,16.0
320048,-0.370,0.382,0.851,1.176,0.389,-0.901,0.0,16.0
320131,-0.367,0.380,0.843,2.137,-0.496,-0.527,0.0,16.0
320214,-0.370,0.396,0.838,4.740,-0.756,-0.557,0.0,16.0
320296,-0.364,0.386,0.860,3.427,-1.000,-1.344,0.0,16.0
320379,-0.366,0.401,0.836,3.206,-0.733,-0.855,0.0,16.0
320462,-0.369,0.416,0.835,0.985,0.275,-0.664,0.0,16.0
320545,-0.371,0.395,0.837,2.618,-0.336,-0.450,0.0,16.0
320628,-0.366,0.411,0.834,1.305,0.115,-0.855,0.0,19.0
320711,-0.367,0.405,0.849,3.359,-0.328,-0.603,0.0,16.0
320797,-0.357,0.412,0.832,2.260,-0.031,-0.626,0.0,16.0
320880,-0.364,0.407,0.844,3.649,-0.244,-0.679,0.0,16.0
320963,-0.361,0.421,0.834,1.122,-0.183,-0.557,0.0,16.0
321046,-0.367,0.411,0.836,2.771,0.046,-0.389,0.0,16.0
321129,-0.366,0.423,0.832,1.282,-0.122,-0.672,0.0,16.0
321212,-0.362,0.405,0.837,2.458,-0.053,-0.718,0.0,16.0
321295,-0.362,0.420,0.834,1.168,0.008,-0.855,0.0,16.0
321378,-0.365,0.420,0.839,2.221,-0.015,-0.855,0.0,16.0
321461,-0.367,0.408,0.841,1.588,0.069,-0.641,0.0,16.0
321547,-0.350,0.421,0.842,0.038,1.267,-0.794,0.0,16.0
321630,-0.354,0.434,0.841,-5.947,5.260,-1.023,0.0,16.0
321713,-0.343,0.440,0.925,-4.336,12.290,5.756,0.0,16.0
321796,-0.285,0.457,0.986,-41.649,-7.725,25.198,0.0,16.0
321876,-0.222,0.348,0.905,-6.763,-18.435,27.298,169.0,16.0
321958,-0.229,0.422,0.853,9.817,-22.687,31.267,171.0,17.0
322041,-0.228,0.345,0.820,-6.969,-3.344,4.168,0.0,17.0
322129,-0.218,0.421,0.923,-60.221,23.672,-27.099,0.0,99.0
322217,-0.302,0.123,0.986,-67.275,10.573,-31.885,0.0,99.0
322308,-0.312,0.088,0.906,2.290,10.038,2.275,0.0,99.0
322396,-0.335,0.184,0.812,-3.305,-1.664,18.229,0.0,98.0
322485,-0.057,0.247,0.905,18.656,18.847,45.771,0.0,113.0
322572,0.079,0.406,0.892,-94.458,73.565,6.695,0.0,97.0
322660,-0.213,0.090,0.667,-87.321,72.786,4.771,0.0,99.0
322748,-0.267,0.068,0.472,23.252,63.802,35.473,0.0,100.0
322836,-0.653,0.280,0.291,30.809,92.634,23.351,0.0,102.0
322925,-1.158,0.218,0.438,-61.160,94.641,44.344,0.0,106.0
323013,-2.000,0.637,0.417,115.947,58.290,70.855,0.0,111.0
323105,-1.557,0.688,0.552,-117.901,39.275,98.099,0.0,119.0
323195,-1.242,0.235,0.679,-177.725,-28.634,41.779,0.0,138.0
323287,-0.955,0.115,0.757,-60.649,-59.641,61.611,0.0,149.0
323381,-0.494,0.481,0.509,-45.595,-79.992,41.000,0.0,0.0
323466,-0.500,0.133,0.648,-108.176,-50.511,14.031,42.0,0.0
323550,-0.349,-0.001,0.662,-79.817,-41.824,12.053,40.0,0.0
323635,-0.320,-0.096,0.564,-59.618,-41.702,13.305,45.0,0.0
323724,-0.242,-0.072,0.681,-37.435,-31.229,9.733,110.0,0.0
323816,-0.177,-0.107,0.804,-15.023,-24.344,6.458,113.0,0.0
323905,-0.209,-0.135,0.900,-7.321,-18.084,7.321,114.0,0.0
323993,-0.269,-0.181,0.972,7.901,-26.130,12.244,115.0,0.0
324083,-0.081,-0.192,0.959,-2.099,-28.214,18.389,118.0,0.0
324172,-0.126,-0.139,0.950,7.969,-23.924,14.573,123.0,0.0
324261,-0.098,-0.032,1.039,27.435,8.321,9.595,123.0,0.0
324352,-0.277,0.122,0.813,65.611,33.504,9.321,126.0,0.0
324444,-0.297,0.147,0.615,212.176,122.656,4.557,168.0,0.0
324536,-0.481,0.871,0.349,128.595,136.969,-50.351,171.0,0.0
324633,-0.831,0.601,0.706,98.015,142.962,1.313,0.0,0.0
324725,-0.749,0.907,0.607,114.565,31.412,-8.137,0.0,184.0
324818,-0.608,0.855,0.232,65.313,-0.450,-3.588,0.0,186.0
324913,-0.780,0.516,0.098,44.748,0.809,-45.847,0.0,190.0
325006,-1.084,0.381,-0.089,94.382,-10.618,-94.504,0.0,192.0
325099,-1.012,0.308,-0.191,108.527,-15.382,-101.794,0.0,192.0
325192,-0.937,0.289,-0.151,15.160,0.374,-77.924,0.0,185.0
325285,-0.837,0.163,0.004,52.931,2.519,-61.931,0.0,186.0
325379,-0.832,0.328,-0.018,84.183,9.695,-34.237,0.0,187.0
325476,-0.959,0.411,0.009,36.244,20.221,-33.893,0.0,192.0
325569,-1.193,0.364,-0.003,-1.939,30.824,-11.649,0.0,0.0
325663,-1.068,0.370,-0.034,-32.985,10.580,47.260,0.0,0.0
325757,-1.206,0.227,-0.117,-92.962,-22.321,111.496,0.0,0.0
325852,-1.082,0.138,-0.119,-38.542,-55.840,136.611,0.0,0.0
325946,-0.799,0.273,-0.111,3.733,-43.298,109.954,0.0,0.0
326040,-0.774,0.298,-0.132,-17.214,-32.130,43.290,0.0,0.0
326133,-0.908,0.220,-0.118,37.473,-25.794,-36.252,0.0,0.0
326231,-1.103,0.320,-0.177,120.214,-15.618,-118.420,0.0,0.0
326325,-0.890,0.367,-0.106,93.443,5.924,-131.031,0.0,0.0
326419,-1.083,0.267,-0.049,36.656,6.160,-101.244,0.0,0.0
326513,-0.863,0.255,-0.011,120.122,11.969,-53.076,0.0,0.0
326607,-0.923,0.402,-0.018,78.840,16.603,-29.137,0.0,0.0
326702,-0.997,0.505,0.032,-3.321,44.802,-30.214,0.0,0.0
326795,-1.440,0.321,0.046,-60.038,15.153,5.702,0.0,0.0
326888,-0.987,0.066,0.109,34.107,-36.924,144.023,174.0,0.0
326982,-1.418,0.329,-0.199,-30.351,-50.870,180.977,0.0,0.0
327079,-0.906,0.195,-0.062,-39.168,-54.664,150.878,0.0,0.0
327173,-0.661,0.245,-0.059,6.321,-51.511,68.992,176.0,0.0
327266,-0.812,0.267,-0.114,56.618,-36.969,-24.817,182.0,0.0
327360,-1.083,0.322,-0.239,93.618,-24.939,-115.435,0.0,0.0
327454,-0.948,0.225,-0.182,115.076,-19.924,-156.359,0.0,0.0
327548,-1.306,0.292,-0.296,137.015,-20.374,-138.817,0.0,0.0
327642,-0.892,0.265,-0.137,161.886,-11.771,-88.679,180.0,0.0
327735,-0.887,0.361,-0.164,128.603,2.061,-56.931,182.0,0.0
327828,-1.040,0.484,-0.094,70.267,27.878,-37.053,181.0,0.0
327918,-1.026,0.469,0.016,-0.702,42.710,2.962,174.0,0.0
328010,-0.937,0.247,0.075,-48.771,14.031,92.092,161.0,0.0
328101,-1.666,0.287,-0.090,-43.695,-7.573,199.557,144.0,0.0
328192,-1.321,0.160,-0.072,-48.412,-47.885,231.817,129.0,0.0
328280,-0.629,0.285,-0.018,-44.061,-46.321,154.603,0.0,91.0
328366,-0.625,0.274,-0.065,-19.824,-44.267,23.084,163.0,93.0
328453,-0.711,0.227,-0.103,71.893,-43.504,-74.924,181.0,92.0
328542,-1.326,0.250,-0.344,154.084,-50.618,-136.282,106.0,0.0
328633,-1.071,0.340,-0.245,143.473,-29.076,-151.588,108.0,172.0
328722,-1.278,0.261,-0.205,117.687,-51.817,-153.206,115.0,0.0
328817,-1.015,0.342,-0.193,110.099,-10.649,-135.611,0.0,0.0
328911,-0.954,0.407,-0.136,80.695,6.038,-77.183,0.0,0.0
329006,-1.019,0.470,-0.011,15.656,29.740,-19.344,0.0,0.0
329100,-1.314,0.377,0.041,10.832,24.679,56.611,0.0,0.0
329194,-1.270,0.289,-0.001,-17.557,12.863,182.137,0.0,0.0
329288,-1.557,0.299,-0.167,-72.824,-8.489,250.130,0.0,0.0
329379,-0.867,0.217,-0.114,-96.855,-42.763,193.481,182.0,92.0
329466,-0.628,0.218,-0.002,-32.000,-35.573,98.176,177.0,94.0
329553,-0.844,0.293,-0.096,9.481,-37.160,-27.695,172.0,94.0
329640,-0.902,0.220,-0.107,86.328,-43.466,-111.405,178.0,92.0
329735,-1.142,0.270,-0.262,192.229,-60.641,-217.046,0.0,0.0
329829,-1.487,0.399,-0.346,191.756,-46.160,-230.389,0.0,0.0
329923,-1.068,0.414,-0.271,51.099,-28.221,-174.893,0.0,0.0
330018,-0.915,0.320,-0.104,19.664,23.038,-103.557,0.0,0.0
330107,-0.945,0.382,0.026,36.779,35.687,-25.878,106.0,0.0
330205,-1.017,0.397,0.077,-15.229,31.870,44.031,0.0,0.0
330299,-1.417,0.177,0.047,-6.053,11.527,163.450,0.0,0.0
330394,-1.773,0.209,-0.154,-2.382,12.191,250.130,0.0,0.0
330488,-1.014,0.359,-0.176,-65.954,-12.122,230.626,0.0,0.0
330579,-0.554,0.235,-0.026,-64.145,-5.672,99.588,145.0,101.0
330670,-0.710,0.252,-0.057,-26.725,-9.542,-12.672,144.0,0.0
330762,-0.980,0.243,-0.125,61.023,-36.794,-125.672,180.0,0.0
330855,-1.195,0.271,-0.292,168.450,-51.664,-184.046,0.0,0.0
330952,-1.305,0.359,-0.333,182.832,-58.473,-230.794,0.0,0.0
331041,-1.156,0.348,-0.336,39.626,-38.267,-162.847,0.0,139.0
331131,-0.904,0.092,-0.103,131.160,5.313,-50.679,0.0,135.0
331218,-0.788,0.441,-0.177,146.580,12.359,-11.122,157.0,134.0
331307,-0.918,0.564,-0.073,23.832,47.710,-23.786,152.0,138.0
331394,-1.349,0.361,0.089,-39.870,53.443,47.573,141.0,148.0
331483,-1.392,0.004,0.193,-15.893,4.504,221.107,155.0,164.0
331575,-1.616,0.399,-0.130,-14.389,-15.565,250.130,0.0,187.0
331667,-0.835,0.286,-0.060,-88.740,-36.344,188.672,173.0,0.0
331761,-0.606,0.238,-0.006,-32.695,-40.374,61.107,151.0,0.0
331852,-0.750,0.250,-0.083,42.099,-54.824,-51.389,162.0,0.0
331945,-0.943,0.271,-0.193,131.290,-67.740,-129.160,0.0,0.0
332040,-1.252,0.386,-0.365,168.504,-78.534,-214.863,0.0,0.0
332133,-1.292,0.421,-0.250,127.115,-28.008,-227.855,0.0,0.0
332227,-1.063,0.136,-0.125,17.374,-23.374,-126.229,0.0,0.0
332320,-0.960,0.294,-0.188,162.595,19.397,-45.053,0.0,0.0
332410,-0.848,0.554,-0.112,54.649,28.565,-31.031,0.0,139.0
332506,-1.046,0.345,0.050,-40.725,45.771,20.557,0.0,176.0
332599,-1.348,0.284,0.105,-5.321,22.206,114.260,0.0,190.0
332691,-1.241,0.278,0.063,-37.084,-4.534,221.893,0.0,181.0
332785,-1.270,0.419,-0.131,-133.252,-24.634,182.466,0.0,0.0
332878,-0.794,0.249,0.009,-64.099,-48.878,132.733,0.0,0.0
332972,-0.624,0.453,-0.063,18.023,-33.359,83.588,181.0,0.0
333062,-0.677,0.527,-0.071,-0.046,-8.183,4.565,147.0,0.0
333154,-1.032,0.452,-0.059,12.427,7.443,-93.832,171.0,0.0
333248,-0.812,0.282,0.030,68.015,27.298,-156.847,0.0,0.0
333352,-1.209,0.255,0.058,90.672,-12.137,-176.870,0.0,0.0
333449,-0.937,0.701,-0.117,250.130,-38.275,-92.733,0.0,0.0
333545,-0.979,0.627,-0.179,-96.473,-15.908,-96.511,0.0,0.0
333636,-0.930,0.073,0.137,-58.962,25.221,-43.870,109.0,0.0
333726,-1.111,0.292,0.055,63.176,14.145,31.565,101.0,0.0
333822,-1.478,0.427,-0.115,3.443,31.687,85.366,0.0,0.0
333919,-1.150,0.068,-0.188,-150.206,-32.282,198.947,0.0,0.0
334015,-1.005,-0.204,-0.468,-1.382,-125.183,169.931,0.0,0.0
334113,-2.000,-0.189,0.294,250.130,169.573,-204.206,189.0,0.0
334210,-1.162,0.090,-0.455,-112.962,-185.130,81.412,0.0,0.0
334306,-0.413,-0.189,-0.172,250.130,-135.397,40.298,0.0,0.0
334402,-0.734,0.963,-0.769,250.130,-144.931,-35.542,0.0,0.0
334498,-0.733,0.498,-0.294,68.832,-77.038,-109.053,0.0,0.0
334588,-0.990,0.272,-0.247,114.450,-9.977,-85.321,0.0,90.0
334678,-0.955,0.520,-0.269,64.939,-22.763,-74.725,0.0,82.0
334767,-0.824,0.323,-0.113,28.115,-42.176,-62.305,0.0,75.0
334856,-1.007,0.251,-0.151,68.718,-79.435,-12.885,0.0,69.0
334948,-0.814,0.355,-0.069,67.389,-106.153,51.947,0.0,67.0
335041,-0.890,0.338,0.115,-12.802,-179.901,120.664,0.0,149.0
335135,-0.743,0.340,1.046,-64.221,-250.137,130.443,0.0,162.0
335221,-0.058,1.320,1.258,104.260,-190.725,139.382,0.0,22.0
335311,0.271,0.894,1.222,-80.496,-74.710,66.809,0.0,93.0
335408,0.623,0.114,0.914,-156.389,0.076,45.603,0.0,0.0
335501,0.030,-0.319,-0.190,-250.137,-91.107,-59.565,0.0,142.0
335593,0.175,-0.632,0.304,-36.786,-128.557,0.511,0.0,138.0
335682,0.697,-0.058,0.244,171.947,-59.359,63.084,80.0,135.0
335771,1.625,0.270,0.756,-90.046,18.771,31.947,78.0,0.0
335867,1.115,-0.946,0.805,-250.137,18.847,-8.542,0.0,0.0
335964,0.385,-0.779,0.767,144.786,76.443,47.359,0.0,0.0
336060,0.459,0.081,0.604,142.870,41.603,18.206,0.0,0.0
336150,0.257,-0.487,1.220,208.840,48.405,26.802,85.0,0.0
336231,0.069,0.280,1.043,142.481,5.931,8.565,88.0,57.0
336313,0.255,0.489,0.840,41.237,-22.847,-5.969,86.0,57.0
336396,0.455,0.319,0.702,-81.573,-1.145,-17.573,91.0,65.0
336487,0.337,-0.067,1.046,-17.107,15.679,1.321,0.0,66.0
336575,0.183,0.271,1.035,82.443,6.550,1.252,0.0,55.0
336657,0.255,0.401,0.888,-11.504,-7.206,-2.718,86.0,53.0
336738,0.327,0.176,0.889,-42.519,-1.008,1.206,86.0,57.0
336826,0.279,0.038,1.023,14.023,4.687,-2.450,0.0,55.0
336908,0.267,0.328,0.910,37.359,0.389,-4.725,85.0,52.0
336989,0.282,0.333,0.905,-9.107,-0.847,0.878,85.0,52.0
337070,0.280,0.161,0.953,-17.863,1.313,-0.252,85.0,53.0
337152,0.272,0.198,0.964,14.168,1.779,-0.458,86.0,53.0
337235,0.275,0.260,0.921,-3.954,0.176,-2.076,86.0,52.0
337317,0.271,0.228,0.948,-11.939,3.405,-2.634,85.0,53.0
337398,0.287,0.217,0.978,-10.229,2.069,-3.015,87.0,53.0
337486,0.213,0.310,1.081,-56.221,-7.397,1.947,0.0,57.0
337576,0.131,0.099,1.318,-151.229,-53.954,-11.969,83.0,0.0
337667,0.295,-0.080,1.213,-90.290,-145.305,-9.802,82.0,0.0
