Timestamp(ms),AccelX(g),AccelY(g),AccelZ(g),GyroX(deg/s),GyroY(deg/s),GyroZ(deg/s),DistanceLeft(cm),DistanceRight(cm)
28489,-0.177,-1.016,0.132,-1.092,4.229,0.382,73.0,177.0
28541,-0.171,-0.971,0.129,0.687,8.221,2.939,73.0,177.0
28593,-0.205,-1.014,0.154,-2.603,-4.130,3.275,73.0,177.0
28644,-0.146,-0.962,0.117,2.206,-8.496,-1.939,73.0,178.0
28696,-0.150,-0.978,0.116,0.252,-2.855,1.878,73.0,177.0
28747,-0.154,-0.987,0.107,1.298,3.397,1.672,74.0,177.0
28800,-0.156,-0.994,0.113,-1.885,-2.603,-0.740,73.0,176.0
28854,-0.155,-0.969,0.112,-1.328,-0.649,0.985,74.0,178.0
28905,-0.167,-0.995,0.112,-1.863,-0.443,-1.473,74.0,178.0
28956,-0.171,-0.974,0.135,-0.557,-0.641,0.191,73.0,166.0
29008,-0.179,-0.991,0.121,-0.977,1.153,0.305,73.0,177.0
29060,-0.172,-0.985,0.109,-0.023,-1.412,-0.122,74.0,177.0
29112,-0.185,-0.977,0.122,-2.740,1.160,-0.534,74.0,177.0
29163,-0.154,-0.979,0.096,-1.725,-0.290,-0.771,74.0,178.0
29215,-0.184,-0.981,0.129,-3.374,2.840,0.870,74.0,178.0
29266,-0.168,-0.990,0.135,-1.679,1.573,0.359,74.0,177.0
29322,-0.182,-0.977,0.128,-1.389,2.206,2.992,74.0,177.0
29373,-0.176,-1.009,0.132,-0.595,-1.519,0.710,74.0,177.0
29425,-0.164,-0.996,0.104,1.031,2.481,1.176,74.0,177.0
29476,-0.195,-0.990,0.142,-0.611,-0.374,1.115,74.0,179.0
29529,-0.155,-0.990,0.091,2.153,1.504,-1.420,74.0,177.0
29580,-0.195,-0.965,0.120,-0.519,2.328,0.473,73.0,178.0
29632,-0.183,-0.998,0.134,-0.336,-5.656,-0.252,74.0,176.0
29683,-0.146,-0.981,0.100,-0.122,-2.740,0.282,73.0,176.0
29735,-0.173,-0.977,0.125,-0.626,3.802,-1.069,73.0,178.0
29790,-0.172,-0.984,0.127,-0.168,-1.908,-0.160,73.0,176.0
29842,-0.175,-0.991,0.125,-1.435,-0.756,-0.924,73.0,177.0
29894,-0.138,-0.976,0.127,0.771,0.191,3.496,73.0,177.0
29945,-0.201,-1.000,0.151,1.595,-0.046,-2.038,73.0,177.0
29998,-0.170,-0.967,0.114,2.229,-3.794,-5.191,73.0,177.0
30049,-0.153,-0.969,0.098,0.542,4.427,1.328,73.0,177.0
30100,-0.191,-0.979,0.137,-0.328,4.458,1.359,73.0,168.0
30152,-0.166,-0.979,0.115,-0.687,1.840,1.382,73.0,167.0
30203,-0.179,-0.986,0.124,-1.382,-1.626,-0.573,73.0,177.0
30258,-0.155,-0.970,0.118,-0.565,0.084,-3.115,73.0,167.0
30310,-0.162,-0.980,0.127,-0.679,0.542,1.992,74.0,178.0
30361,-0.178,-0.985,0.134,0.107,2.450,-0.954,74.0,177.0
30413,-0.165,-0.974,0.118,-0.878,0.336,0.336,73.0,177.0
30466,-0.176,-0.984,0.110,-1.725,-0.084,-0.275,73.0,178.0
30518,-0.162,-0.979,0.114,-2.511,2.389,0.847,73.0,178.0
30569,-0.170,-0.998,0.137,-2.298,1.504,0.115,73.0,178.0
30621,-0.167,-0.979,0.135,0.023,2.939,1.023,73.0,178.0
30673,-0.168,-0.974,0.129,0.863,0.870,-0.901,73.0,178.0
30728,-0.179,-0.997,0.139,0.687,-3.153,-2.496,73.0,168.0
30779,-0.167,-0.985,0.122,1.580,-0.626,-2.115,73.0,167.0
30830,-0.162,-0.975,0.103,0.740,1.344,-0.756,74.0,165.0
30881,-0.179,-0.974,0.122,0.809,1.336,-0.015,74.0,167.0
30934,-0.173,-0.983,0.109,0.321,0.618,0.611,74.0,177.0
30986,-0.174,-0.988,0.122,-1.008,0.611,0.122,74.0,176.0
31037,-0.179,-0.979,0.131,0.588,-1.229,0.725,74.0,166.0
31131,-0.175,-0.990,0.121,0.809,0.198,0.137,74.0,167.0
31182,-0.179,-0.974,0.127,-0.374,-2.336,0.748,74.0,177.0
31238,-0.173,-0.990,0.132,-0.229,-2.679,0.061,74.0,167.0
31289,-0.161,-0.978,0.120,-0.237,-1.771,0.840,74.0,167.0
31340,-0.167,-0.990,0.145,-0.031,1.084,0.931,74.0,166.0
31391,-0.168,-0.987,0.145,-0.046,-0.947,0.725,74.0,165.0
31443,-0.170,-0.981,0.139,1.450,3.802,1.351,74.0,179.0
31495,-0.169,-0.970,0.129,2.435,3.504,1.557,74.0,164.0
31548,-0.200,-0.983,0.145,1.252,0.450,0.550,74.0,192.0
31599,-0.161,-0.986,0.114,0.282,-1.748,-1.634,74.0,163.0
31650,-0.177,-0.977,0.124,-1.221,3.527,-0.656,74.0,166.0
31706,-0.192,-0.982,0.144,-1.366,1.015,0.214,74.0,165.0
31758,-0.164,-0.969,0.123,-0.603,0.107,1.611,74.0,181.0
31810,-0.178,-0.968,0.145,-1.321,4.420,1.840,74.0,192.0
31861,-0.171,-0.987,0.153,-1.275,1.000,3.969,74.0,157.0
31915,-0.196,-0.998,0.146,-1.115,-1.870,-1.725,74.0,192.0
31968,-0.139,-0.967,0.118,0.855,3.863,-1.626,73.0,192.0
32019,-0.193,-0.966,0.156,-0.122,9.214,3.099,74.0,161.0
32071,-0.222,-0.995,0.171,0.359,-4.710,1.260,74.0,192.0
32124,-0.157,-0.975,0.118,0.916,-6.351,-2.794,74.0,193.0
32181,-0.178,-0.966,0.106,0.947,11.519,-2.298,74.0,195.0
32232,-0.217,-0.980,0.160,-1.756,1.115,1.321,74.0,163.0
32285,-0.187,-0.975,0.152,-3.679,-5.618,1.725,74.0,192.0
32337,-0.197,-0.976,0.175,-1.794,-4.328,2.809,74.0,179.0
32390,-0.177,-0.995,0.136,0.412,-6.962,0.687,74.0,164.0
32441,-0.164,-0.989,0.109,-0.053,7.298,-2.443,74.0,164.0
32493,-0.208,-0.984,0.142,-1.832,-1.771,-1.817,74.0,179.0
32544,-0.170,-0.978,0.112,-2.786,-1.740,-1.031,73.0,162.0
32596,-0.180,-0.949,0.121,-2.313,4.244,1.206,73.0,164.0
32651,-0.198,-0.977,0.116,-1.870,1.015,1.992,74.0,166.0
32703,-0.187,-0.980,0.132,-4.130,-5.885,-0.084,73.0,176.0
32755,-0.171,-0.981,0.112,-4.511,-5.672,0.107,73.0,176.0
32807,-0.170,-0.990,0.137,-3.695,-3.290,1.954,73.0,178.0
32860,-0.187,-0.988,0.152,-2.053,0.351,1.702,73.0,177.0
32912,-0.171,-1.011,0.121,-1.267,-4.924,-1.290,73.0,179.0
32965,-0.177,-0.965,0.116,-0.237,4.924,-0.053,74.0,178.0
33017,-0.204,-0.997,0.144,-0.695,-0.901,0.130,73.0,178.0
33073,-0.173,-0.982,0.115,0.565,-1.756,-1.351,73.0,178.0
33125,-0.180,-0.982,0.110,0.160,1.924,-0.885,74.0,177.0
33177,-0.188,-0.972,0.120,0.931,0.168,-0.664,74.0,168.0
33229,-0.187,-0.975,0.122,-0.427,-0.351,0.427,74.0,176.0
33282,-0.168,-0.982,0.097,-0.412,1.969,0.542,74.0,177.0
33334,-0.202,-0.975,0.129,-1.450,1.794,0.809,74.0,176.0
33386,-0.188,-0.980,0.128,-0.389,-2.214,0.221,74.0,167.0
33438,-0.202,-0.987,0.149,-1.282,-3.611,-0.160,74.0,177.0
33489,-0.176,-0.977,0.117,0.565,1.870,1.092,74.0,166.0
33546,-0.187,-0.988,0.110,0.344,-0.321,-0.366,74.0,177.0
33597,-0.197,-0.991,0.121,0.023,1.137,-0.527,74.0,166.0
33649,-0.198,-0.967,0.126,-0.908,-3.580,-0.969,74.0,176.0
33701,-0.195,-0.974,0.130,-0.450,-1.855,1.634,74.0,166.0
33797,-0.197,-0.976,0.137,-0.321,3.282,1.122,74.0,165.0
33848,-0.187,-0.966,0.134,-0.099,-0.679,1.260,74.0,163.0
33900,-0.186,-0.979,0.118,-0.061,-2.351,1.397,74.0,176.0
33952,-0.169,-0.983,0.109,-0.336,1.626,0.496,74.0,166.0
34004,-0.207,-0.973,0.135,-0.870,1.328,1.206,74.0,176.0
34060,-0.186,-0.982,0.120,-0.344,-2.015,0.183,75.0,166.0
34112,-0.189,-0.991,0.128,0.389,1.252,-2.076,74.0,164.0
34163,-0.211,-0.962,0.135,1.183,3.008,-2.092,74.0,166.0
34215,-0.221,-0.956,0.145,-0.603,0.191,2.267,75.0,165.0
34268,-0.181,-0.982,0.113,0.206,0.519,2.382,75.0,177.0
34320,-0.200,-0.970,0.140,-1.237,4.931,1.008,75.0,161.0
34371,-0.210,-0.984,0.138,-1.229,-4.198,0.099,75.0,161.0
34423,-0.180,-0.964,0.131,-1.435,-3.229,0.565,74.0,163.0
34475,-0.180,-0.970,0.132,-0.435,6.237,3.626,74.0,164.0
34530,-0.202,-1.002,0.132,-0.924,-0.366,0.374,75.0,161.0
34582,-0.183,-0.977,0.135,-1.160,-0.435,-0.832,75.0,162.0
34633,-0.192,-0.978,0.137,0.634,3.626,0.000,74.0,160.0
34684,-0.228,-0.970,0.154,0.733,-0.977,0.115,74.0,160.0
34737,-0.189,-0.969,0.112,1.496,-1.351,0.344,75.0,160.0
34788,-0.214,-0.980,0.147,0.489,2.901,0.206,75.0,160.0
34840,-0.210,-0.965,0.132,0.817,-2.084,-1.924,75.0,163.0
34891,-0.195,-0.958,0.129,-1.115,0.794,0.542,75.0,162.0
34944,-0.216,-1.002,0.136,0.962,0.527,0.504,75.0,164.0
34999,-0.206,-0.963,0.140,-0.305,0.221,-0.832,75.0,160.0
35052,-0.216,-0.970,0.148,1.008,-0.504,0.832,75.0,192.0
35109,-0.220,-0.972,0.149,-0.794,-7.557,-1.527,75.0,160.0
35161,-0.168,-0.966,0.099,-0.962,-7.504,-0.550,74.0,167.0
35213,-0.185,-0.970,0.125,-0.519,6.496,1.458,74.0,192.0
35265,-0.215,-0.969,0.153,-1.374,0.282,-1.557,74.0,194.0
35316,-0.199,-0.968,0.144,-1.198,-3.534,-0.847,75.0,164.0
35367,-0.176,-0.969,0.135,-0.519,-0.336,0.008,74.0,166.0
35419,-0.208,-0.982,0.147,-1.618,-0.298,-1.809,74.0,165.0
35472,-0.172,-0.961,0.121,-0.641,1.321,0.626,74.0,163.0
35525,-0.205,-0.969,0.147,-1.916,1.534,-1.023,75.0,192.0
35577,-0.175,-0.992,0.117,-0.954,-0.847,-2.885,75.0,187.0
35628,-0.204,-0.975,0.143,-1.634,1.328,-2.244,75.0,163.0
35679,-0.192,-0.965,0.118,-0.511,-2.145,-2.351,75.0,164.0
35730,-0.202,-0.968,0.131,-1.168,6.290,0.336,75.0,163.0
35781,-0.227,-0.997,0.149,-1.588,-6.084,-1.305,74.0,165.0
35832,-0.172,-0.968,0.108,-1.336,-5.870,-2.962,74.0,167.0
35884,-0.179,-0.966,0.115,-2.466,0.275,-0.053,74.0,164.0
35937,-0.195,-0.982,0.137,-2.458,-2.275,1.450,74.0,166.0
35989,-0.174,-0.980,0.135,-2.008,-5.305,0.290,74.0,178.0
36040,-0.182,-0.986,0.140,-1.870,-6.947,-2.221,74.0,165.0
36091,-0.164,-0.989,0.130,-0.595,3.015,-2.931,74.0,166.0
36143,-0.211,-0.987,0.163,-1.366,0.191,2.496,74.0,165.0
36193,-0.170,-0.993,0.137,0.908,-4.588,-2.229,74.0,164.0
36244,-0.164,-0.984,0.111,0.580,1.580,-4.076,74.0,164.0
36295,-0.204,-0.978,0.155,-0.588,-1.244,-2.756,74.0,169.0
36346,-0.154,-0.948,0.113,0.160,-2.649,-2.748,74.0,165.0
36444,-0.190,-0.979,0.135,-0.092,3.015,0.565,74.0,163.0
36495,-0.173,-0.996,0.137,-0.908,-0.275,-0.412,74.0,164.0
36546,-0.190,-0.971,0.144,0.229,-1.290,-1.977,74.0,179.0
36597,-0.153,-0.975,0.121,-0.115,4.481,0.198,74.0,165.0
36648,-0.198,-0.973,0.158,0.626,3.267,1.389,74.0,162.0
36701,-0.148,-0.981,0.112,-0.336,0.137,0.565,74.0,180.0
36752,-0.174,-0.992,0.129,-0.099,6.359,0.481,74.0,164.0
36803,-0.178,-0.975,0.129,-0.649,2.427,-1.427,74.0,165.0
36857,-0.174,-0.975,0.143,-1.626,0.000,-1.359,74.0,166.0
36908,-0.166,-0.978,0.123,-0.695,1.824,-2.038,74.0,160.0
36959,-0.190,-0.984,0.161,-1.550,-1.557,-1.817,74.0,163.0
37010,-0.172,-0.986,0.121,-0.580,-0.198,-1.947,74.0,164.0
37061,-0.172,-0.985,0.120,-1.214,2.374,-0.031,74.0,164.0
37112,-0.188,-0.983,0.143,-0.710,0.550,-0.061,74.0,164.0
37164,-0.156,-0.992,0.118,-0.427,-0.580,-0.817,74.0,164.0
37215,-0.190,-0.970,0.142,-0.634,8.221,0.107,75.0,161.0
37266,-0.197,-0.988,0.162,-2.008,-5.229,0.687,75.0,165.0
37321,-0.161,-0.994,0.117,-1.366,-4.023,-0.321,74.0,176.0
37372,-0.165,-0.961,0.123,0.160,5.893,1.863,74.0,164.0
37425,-0.198,-0.991,0.156,-0.985,-1.641,1.160,75.0,176.0
37476,-0.159,-0.975,0.103,-0.023,-2.382,0.580,74.0,177.0
37528,-0.167,-0.973,0.103,-2.290,3.023,1.427,74.0,177.0
37580,-0.186,-0.986,0.132,-1.710,-0.840,1.053,74.0,177.0
37632,-0.162,-0.985,0.103,-3.008,1.107,0.115,74.0,167.0
37683,-0.195,-0.985,0.128,-2.565,1.748,0.008,74.0,168.0
37735,-0.183,-0.981,0.132,-1.977,-4.183,-0.168,74.0,169.0
37790,-0.150,-0.989,0.095,-0.771,-0.573,-0.221,74.0,176.0
37841,-0.187,-0.993,0.122,-1.359,3.267,-1.817,75.0,177.0
37894,-0.180,-0.965,0.126,-0.015,1.176,-0.275,75.0,176.0
37946,-0.192,-0.990,0.128,-0.802,-2.802,-0.214,75.0,175.0
37997,-0.145,-0.991,0.083,-1.183,-1.191,-3.725,75.0,165.0
38048,-0.175,-0.983,0.138,-2.809,-0.840,-0.695,74.0,164.0
38100,-0.162,-0.980,0.127,-0.603,-1.420,-2.786,74.0,163.0
38152,-0.169,-0.983,0.123,-0.275,0.275,0.122,75.0,176.0
38204,-0.168,-1.000,0.120,0.985,1.412,-1.305,75.0,164.0
38258,-0.183,-0.993,0.126,-0.389,-0.473,-1.458,75.0,175.0
38310,-0.162,-0.964,0.106,1.153,3.084,-1.328,74.0,162.0
38362,-0.190,-0.979,0.118,-1.168,0.908,0.153,75.0,162.0
38413,-0.172,-0.985,0.128,-1.481,-3.176,3.252,75.0,163.0
38464,-0.164,-0.992,0.120,-1.275,-2.214,1.023,74.0,163.0
38516,-0.171,-0.991,0.128,-1.435,-0.069,-0.374,74.0,178.0
38568,-0.178,-0.964,0.135,-0.725,-3.374,-0.252,75.0,176.0
38621,-0.152,-0.998,0.122,-1.573,-2.901,2.191,74.0,177.0
38672,-0.167,-0.982,0.124,0.412,2.870,1.679,74.0,165.0
38726,-0.160,-0.989,0.105,0.038,5.611,0.557,74.0,165.0
38778,-0.206,-0.975,0.154,0.237,-0.260,-0.122,74.0,165.0
38830,-0.140,-0.987,0.092,-1.069,-2.427,-1.145,74.0,176.0
38882,-0.180,-0.992,0.119,-0.878,4.061,0.336,74.0,165.0
38933,-0.187,-0.999,0.132,-1.443,-2.542,-2.740,74.0,165.0
38985,-0.166,-0.972,0.124,-0.588,-2.191,-1.817,74.0,166.0
39079,-0.180,-1.001,0.115,1.137,2.420,-0.580,75.0,165.0
39132,-0.182,-0.987,0.125,-0.565,-2.237,-0.985,74.0,177.0
39184,-0.179,-0.981,0.116,-0.626,-3.221,-1.527,74.0,176.0
39239,-0.147,-0.984,0.104,-0.786,1.481,0.176,74.0,169.0
39290,-0.182,-0.970,0.130,-0.916,0.145,0.046,74.0,166.0
39343,-0.160,-0.977,0.141,-1.412,3.725,2.450,74.0,178.0
39395,-0.192,-1.011,0.156,-0.321,-4.756,1.260,74.0,167.0
39447,-0.150,-0.983,0.106,0.260,-3.260,-3.176,74.0,177.0
39499,-0.164,-0.978,0.128,0.031,3.550,2.015,74.0,177.0
39552,-0.182,-0.981,0.138,-0.023,-2.137,1.046,74.0,180.0
39604,-0.155,-0.972,0.111,-1.168,-1.641,0.626,73.0,177.0
39659,-0.188,-0.965,0.128,-1.756,-1.832,1.641,73.0,177.0
39711,-0.122,-0.996,0.079,-1.595,-2.664,1.985,74.0,168.0
39763,-0.165,-0.983,0.136,-1.740,6.298,1.008,73.0,177.0
39816,-0.170,-0.987,0.133,-1.649,-0.931,-2.832,74.0,176.0
39868,-0.166,-0.990,0.125,-1.527,-0.916,-1.763,74.0,177.0
39920,-0.159,-0.989,0.116,0.389,2.183,-2.893,74.0,177.0
39972,-0.178,-0.974,0.125,0.924,4.832,-0.840,74.0,177.0
40025,-0.188,-0.981,0.125,-0.160,0.634,0.443,74.0,177.0
40078,-0.147,-0.990,0.094,-0.137,-1.176,-0.504,74.0,179.0
40132,-0.185,-0.974,0.133,-0.710,8.122,0.840,74.0,167.0
40185,-0.184,-0.997,0.131,-0.863,-3.489,-0.046,74.0,177.0
40238,-0.151,-0.970,0.116,-1.244,-0.160,-0.237,74.0,178.0
40290,-0.163,-0.988,0.118,-0.389,1.908,0.977,74.0,177.0
40342,-0.167,-0.986,0.132,-0.405,0.832,0.519,74.0,178.0
40394,-0.169,-0.990,0.128,-0.969,-1.985,-0.229,74.0,176.0
40446,-0.161,-0.984,0.122,-0.718,-0.412,-0.214,74.0,167.0
40499,-0.180,-0.984,0.126,0.504,3.458,0.672,74.0,167.0
40550,-0.177,-0.988,0.112,0.427,3.206,0.908,74.0,168.0
40606,-0.188,-0.979,0.127,-0.374,-0.481,0.221,74.0,177.0
40657,-0.170,-0.990,0.114,-0.519,-3.198,0.924,74.0,166.0
40710,-0.158,-0.983,0.119,-0.244,4.000,1.580,74.0,177.0
40763,-0.183,-0.981,0.129,-0.397,1.908,1.191,74.0,177.0
40814,-0.183,-0.981,0.125,-0.061,-2.733,-0.802,74.0,168.0
40867,-0.169,-0.979,0.119,-0.931,-0.290,-0.038,73.0,177.0
40920,-0.179,-1.002,0.122,0.458,-1.908,1.137,73.0,178.0
40972,-0.163,-0.964,0.102,1.336,3.901,1.275,73.0,177.0
41024,-0.191,-0.990,0.142,-0.626,-0.160,1.221,74.0,177.0
41080,-0.155,-0.991,0.107,-2.046,-4.115,-0.802,73.0,177.0
41133,-0.169,-0.950,0.123,-0.985,2.542,-0.763,73.0,177.0
41186,-0.211,-0.999,0.164,-2.107,-1.992,0.038,73.0,177.0
41238,-0.155,-0.991,0.115,-0.389,-4.695,-1.763,73.0,177.0
41290,-0.164,-0.977,0.108,-2.092,-0.550,0.740,73.0,177.0
41344,-0.183,-1.002,0.133,-0.641,0.130,-0.366,73.0,178.0
41396,-0.163,-0.977,0.127,-1.359,0.664,-1.794,73.0,177.0
41448,-0.193,-0.965,0.144,0.252,2.328,2.092,74.0,178.0
41501,-0.169,-1.002,0.109,0.412,-1.481,0.458,73.0,178.0
41556,-0.184,-0.977,0.123,0.405,1.405,0.099,73.0,177.0
41610,-0.176,-0.984,0.120,0.534,-3.038,-0.824,73.0,177.0
41662,-0.165,-0.979,0.102,-0.198,0.557,-0.015,73.0,178.0
41757,-0.198,-0.982,0.137,-1.023,-3.008,0.359,73.0,178.0
41810,-0.152,-0.981,0.106,-1.076,0.382,1.107,73.0,179.0
41869,-0.190,-0.978,0.146,-0.771,0.740,0.458,73.0,178.0
41920,-0.157,-0.985,0.124,-0.427,-2.832,0.115,73.0,178.0
41971,-0.166,-0.996,0.125,-0.466,0.893,0.771,72.0,179.0
42023,-0.158,-0.973,0.127,-0.718,1.099,-1.252,72.0,179.0
42078,-0.176,-0.978,0.152,-0.405,-0.687,-0.718,72.0,179.0
42129,-0.153,-0.994,0.123,-0.672,-0.985,-3.206,73.0,178.0
42181,-0.177,-0.975,0.125,0.008,1.412,-2.748,72.0,178.0
42232,-0.187,-0.980,0.133,-1.115,-0.252,-0.985,72.0,178.0
42285,-0.168,-0.984,0.123,-0.458,-0.718,-0.893,73.0,178.0
42336,-0.157,-0.980,0.111,-0.038,3.344,-1.229,73.0,178.0
42388,-0.192,-1.001,0.139,-0.031,-0.198,-1.695,72.0,180.0
42439,-0.169,-0.965,0.116,0.252,-1.908,-2.817,72.0,179.0
42491,-0.170,-0.985,0.121,-0.618,1.504,0.405,73.0,179.0
42546,-0.165,-0.985,0.127,-0.191,2.107,1.809,72.0,178.0
42597,-0.167,-0.985,0.127,-1.542,-0.023,0.260,72.0,179.0
42649,-0.170,-0.986,0.143,-1.397,-1.611,0.023,72.0,179.0
42700,-0.138,-0.981,0.129,-0.824,1.977,-1.000,73.0,179.0
42753,-0.169,-0.997,0.142,-1.153,1.160,-2.023,72.0,179.0
42804,-0.157,-0.980,0.119,-0.397,-0.725,-2.985,72.0,179.0
42856,-0.171,-0.981,0.120,-1.962,0.542,-2.000,73.0,179.0
42908,-0.168,-0.974,0.122,-1.031,0.878,-2.107,72.0,180.0
42962,-0.175,-0.979,0.129,-1.641,-2.298,0.206,72.0,179.0
43015,-0.154,-0.996,0.121,-0.634,0.229,0.267,72.0,179.0
43066,-0.174,-0.993,0.135,-1.069,-2.305,0.802,72.0,180.0
43118,-0.153,-0.982,0.126,0.321,0.481,1.107,72.0,179.0
43169,-0.163,-0.979,0.133,-0.137,0.618,3.252,72.0,179.0
43222,-0.172,-0.984,0.125,-1.115,-3.313,0.893,72.0,179.0
43273,-0.135,-0.996,0.110,-0.779,-2.145,0.924,72.0,178.0
43325,-0.158,-0.986,0.131,-0.389,4.046,0.855,72.0,179.0
43376,-0.164,-0.993,0.140,0.084,-4.137,-1.962,72.0,178.0
43431,-0.153,-0.976,0.113,0.321,0.466,-0.550,72.0,179.0
43484,-0.150,-0.994,0.102,0.405,2.137,0.198,72.0,179.0
43535,-0.180,-0.966,0.136,0.595,8.191,1.092,72.0,178.0
43587,-0.179,-1.007,0.124,-1.084,-5.504,0.527,72.0,179.0
43638,-0.145,-0.968,0.102,-1.252,1.160,-0.076,73.0,179.0
43691,-0.180,-0.993,0.135,-1.588,0.206,1.809,72.0,179.0
43743,-0.157,-0.987,0.124,-1.427,-3.611,0.481,72.0,180.0
43794,-0.163,-0.989,0.140,-1.473,-4.053,-0.252,72.0,179.0
43846,-0.149,-0.977,0.133,0.802,1.687,1.603,73.0,179.0
43901,-0.163,-0.995,0.123,0.916,0.702,2.420,72.0,179.0
43953,-0.162,-0.985,0.116,0.336,3.626,0.687,72.0,179.0
44005,-0.169,-0.983,0.114,-0.115,0.649,-1.191,72.0,179.0
44057,-0.177,-0.969,0.128,-1.382,0.718,-0.679,72.0,178.0
44108,-0.168,-0.997,0.123,-1.649,-1.412,-0.061,73.0,177.0
44161,-0.178,-0.989,0.142,-1.260,-0.038,-0.794,73.0,178.0
44213,-0.175,-0.985,0.131,-0.496,0.252,-0.427,73.0,178.0
44265,-0.172,-0.979,0.132,0.031,1.053,0.641,73.0,177.0
44316,-0.182,-0.990,0.123,-0.061,2.435,2.420,73.0,178.0
44414,-0.179,-0.967,0.116,-0.832,4.366,2.382,73.0,178.0
44467,-0.166,-0.990,0.119,-0.817,1.580,3.305,73.0,177.0
44519,-0.167,-0.975,0.132,-1.725,-0.740,0.038,73.0,178.0
44570,-0.175,-0.989,0.138,-0.443,1.473,-1.863,73.0,179.0
44622,-0.187,-0.991,0.129,-0.618,-0.763,0.008,73.0,178.0
44675,-0.164,-0.983,0.120,-1.725,1.206,-0.252,74.0,179.0
44727,-0.186,-0.973,0.142,1.206,4.099,0.809,74.0,177.0
44779,-0.196,-0.998,0.141,-0.588,-0.962,-0.206,74.0,176.0
44830,-0.175,-0.984,0.114,1.687,1.573,-2.046,74.0,176.0
44886,-0.192,-0.977,0.128,-0.511,2.046,1.046,74.0,177.0
44938,-0.187,-0.971,0.129,0.366,1.481,0.397,73.0,176.0
44990,-0.189,-0.984,0.134,-1.595,-0.321,0.290,74.0,176.0
45042,-0.180,-0.973,0.122,-0.824,-3.260,0.359,74.0,178.0
45094,-0.183,-0.988,0.118,-0.496,1.947,-0.046,74.0,177.0
45146,-0.196,-0.973,0.147,-1.137,-3.206,0.649,74.0,177.0
45198,-0.165,-0.982,0.112,-0.672,-3.008,-2.069,74.0,177.0
45250,-0.175,-0.975,0.128,-1.061,0.618,1.435,74.0,176.0
45302,-0.177,-0.984,0.130,-0.191,-0.420,-0.534,74.0,178.0
45358,-0.172,-0.990,0.125,-0.954,0.038,-1.282,74.0,176.0
45410,-0.190,-0.987,0.126,-0.832,-0.397,-1.313,74.0,177.0
45462,-0.173,-0.979,0.122,-0.870,-0.565,-2.740,74.0,176.0
45514,-0.191,-0.973,0.146,-0.046,0.977,0.382,74.0,176.0
45566,-0.177,-0.994,0.131,-0.733,-5.450,0.183,74.0,176.0
45619,-0.156,-0.985,0.109,0.496,2.359,-0.305,74.0,177.0
45670,-0.195,-0.979,0.144,-0.290,0.870,0.122,74.0,178.0
45722,-0.177,-0.983,0.112,0.191,-2.489,-0.214,74.0,177.0
45774,-0.165,-0.981,0.120,-0.885,0.069,1.420,74.0,177.0
45830,-0.183,-0.979,0.144,-0.664,0.702,-0.244,74.0,176.0
45882,-0.170,-0.999,0.135,-1.313,-2.031,-0.725,74.0,177.0
45934,-0.174,-0.984,0.144,-0.397,0.573,-0.687,74.0,176.0
45986,-0.167,-0.980,0.129,0.664,1.832,-1.496,75.0,177.0
46039,-0.192,-0.975,0.148,0.313,-0.382,0.122,75.0,179.0
46091,-0.167,-0.986,0.114,0.634,-2.305,-1.908,75.0,176.0
46144,-0.166,-0.971,0.126,0.107,3.924,-0.099,74.0,177.0
46196,-0.188,-0.983,0.158,-0.496,-0.374,-0.069,74.0,177.0
46248,-0.155,-0.976,0.133,-0.634,0.290,-0.328,74.0,177.0
46304,-0.176,-0.989,0.138,-0.504,0.069,-0.527,75.0,180.0
46356,-0.158,-0.991,0.122,0.198,-0.115,-2.176,75.0,177.0
46409,-0.170,-0.972,0.122,-0.191,2.435,-2.206,75.0,191.0
46461,-0.193,-0.978,0.146,-0.733,-0.176,-1.870,75.0,179.0
46515,-0.166,-0.988,0.131,-0.786,0.534,-0.137,75.0,191.0
46567,-0.188,-0.971,0.153,-0.237,3.893,0.786,75.0,178.0
46620,-0.179,-0.981,0.130,0.427,-0.840,1.565,75.0,179.0
46672,-0.169,-0.980,0.123,-0.237,0.153,1.824,75.0,177.0
46725,-0.157,-0.974,0.123,-1.534,-1.588,0.580,75.0,178.0
46780,-0.162,-0.987,0.113,-1.985,0.588,-0.702,75.0,178.0
46833,-0.176,-0.971,0.138,-2.107,2.237,0.153,75.0,191.0
46886,-0.179,-0.985,0.144,-1.443,-1.489,0.473,75.0,178.0
46939,-0.156,-0.988,0.125,-1.473,-0.634,1.023,75.0,177.0
46991,-0.185,-0.994,0.150,-1.061,1.664,0.405,75.0,178.0
47086,-0.177,-0.990,0.116,0.206,-1.092,1.115,75.0,178.0
47139,-0.165,-0.981,0.105,0.733,0.840,0.947,75.0,192.0
47193,-0.179,-0.978,0.121,-1.252,-1.137,1.137,75.0,177.0
47248,-0.170,-0.980,0.119,-1.191,0.023,0.267,75.0,177.0
47300,-0.175,-0.990,0.131,-1.855,-0.756,-0.618,75.0,177.0
47353,-0.189,-0.975,0.141,-0.840,-0.969,0.267,75.0,178.0
47406,-0.167,-0.983,0.131,0.160,-0.580,-0.427,75.0,176.0
47458,-0.188,-0.985,0.143,0.870,1.710,1.092,75.0,177.0
47510,-0.168,-0.978,0.121,0.679,-1.160,0.046,75.0,177.0
47563,-0.184,-0.973,0.129,0.725,2.015,1.061,75.0,176.0
47616,-0.197,-0.979,0.137,0.107,-2.206,1.229,75.0,177.0
47668,-0.182,-0.980,0.129,-0.473,-1.321,1.191,75.0,176.0
47724,-0.171,-0.984,0.126,-0.168,3.405,1.061,75.0,176.0
47776,-0.192,-0.983,0.152,-1.107,-1.595,-0.420,74.0,177.0
47828,-0.167,-0.984,0.128,-0.244,-1.053,-0.282,74.0,177.0
47882,-0.183,-0.986,0.152,-0.817,-0.527,-1.267,75.0,178.0
47934,-0.173,-0.983,0.142,0.435,-0.328,-1.931,74.0,180.0
47987,-0.175,-0.983,0.146,0.191,0.336,-1.374,74.0,192.0
48040,-0.177,-0.984,0.146,0.679,1.595,-1.458,75.0,191.0
48095,-0.181,-0.972,0.138,0.733,-1.618,-2.122,75.0,191.0
48147,-0.181,-0.971,0.141,0.443,-0.359,-0.466,75.0,180.0
48203,-0.168,-0.984,0.123,0.214,0.641,-0.107,74.0,180.0
48256,-0.183,-0.974,0.154,-1.489,-0.817,0.099,74.0,180.0
48309,-0.161,-0.986,0.138,-0.573,-0.725,-1.786,74.0,178.0
48362,-0.178,-0.983,0.161,-0.885,-0.603,-1.435,75.0,179.0
48414,-0.168,-0.977,0.155,0.053,-1.359,-2.366,75.0,178.0
48467,-0.178,-0.979,0.143,-0.069,-2.725,-1.435,74.0,179.0
48520,-0.166,-0.979,0.135,-0.252,-1.763,-0.496,75.0,179.0
48573,-0.163,-0.977,0.133,-1.290,-0.664,0.061,74.0,179.0
48631,-0.174,-0.980,0.147,-1.489,-0.336,0.634,74.0,179.0
48686,-0.151,-0.978,0.132,-1.626,-0.527,0.282,75.0,179.0
48738,-0.172,-0.981,0.162,-1.382,-0.756,-0.321,74.0,193.0
48791,-0.167,-0.979,0.150,-0.565,0.443,0.718,74.0,193.0
48843,-0.158,-0.993,0.141,-0.710,-1.725,-0.168,74.0,192.0
48894,-0.154,-0.973,0.135,-0.420,1.771,-0.267,74.0,180.0
48955,-0.162,-0.982,0.134,-0.901,1.298,1.008,74.0,192.0
49007,-0.172,-0.976,0.130,-0.885,1.412,0.725,74.0,192.0
49059,-0.156,-0.986,0.122,-0.802,0.305,1.198,74.0,192.0
49112,-0.177,-0.975,0.153,-1.038,1.756,0.206,74.0,192.0
49167,-0.164,-0.989,0.154,-0.359,-0.595,0.702,74.0,179.0
49219,-0.171,-0.989,0.135,-0.244,3.260,0.260,74.0,191.0
49271,-0.183,-0.988,0.151,0.344,-1.366,-0.542,74.0,195.0
49325,-0.169,-0.979,0.136,-0.046,0.489,0.351,74.0,192.0
49377,-0.170,-0.980,0.127,0.168,2.573,0.809,74.0,192.0
49429,-0.193,-0.981,0.145,-0.916,1.275,0.916,74.0,192.0
49481,-0.174,-0.984,0.143,-0.115,-1.878,0.069,74.0,180.0
49533,-0.178,-0.973,0.135,-0.702,0.779,1.382,74.0,192.0
49585,-0.177,-0.975,0.141,-0.221,1.481,2.198,74.0,179.0
49640,-0.170,-0.983,0.145,-0.382,-0.412,0.443,74.0,180.0
49692,-0.175,-0.979,0.141,-0.542,-0.565,0.481,74.0,193.0
49787,-0.171,-0.975,0.148,-0.328,3.626,-0.405,74.0,193.0
49841,-0.188,-0.989,0.157,-1.015,-2.023,-1.122,74.0,192.0
49893,-0.152,-0.975,0.135,-0.374,1.015,-1.939,74.0,192.0
49945,-0.184,-0.990,0.145,-0.847,2.824,-1.069,74.0,193.0
49998,-0.180,-0.974,0.146,-0.198,-0.092,-1.412,74.0,193.0
50051,-0.175,-0.981,0.136,-0.435,-1.046,-2.023,74.0,192.0
50104,-0.188,-0.974,0.138,0.336,2.725,-0.885,74.0,192.0
50159,-0.193,-0.980,0.147,-1.115,-1.260,1.565,74.0,193.0
50211,-0.169,-0.983,0.136,-0.672,0.550,0.962,74.0,193.0
50264,-0.181,-0.979,0.144,-0.275,0.168,0.405,73.0,180.0
50315,-0.177,-0.980,0.152,-0.863,-2.313,1.389,73.0,179.0
50366,-0.162,-0.982,0.124,-0.267,-1.534,0.641,73.0,165.0
50418,-0.166,-0.989,0.141,-1.092,1.176,0.603,74.0,181.0
50469,-0.174,-0.977,0.151,-0.557,-1.931,-0.824,74.0,165.0
50522,-0.163,-0.976,0.149,-0.702,-0.015,-0.237,74.0,179.0
50576,-0.173,-0.985,0.147,-0.305,-0.824,-0.817,73.0,179.0
50628,-0.163,-0.969,0.145,-0.710,-0.038,-0.099,74.0,180.0
50680,-0.170,-0.991,0.129,-0.794,0.504,-0.466,73.0,179.0
50732,-0.173,-0.979,0.144,-1.244,0.313,-0.458,73.0,179.0
50784,-0.172,-0.978,0.133,-0.588,-0.061,-0.748,73.0,179.0
50835,-0.176,-0.981,0.149,-0.595,0.099,-0.206,74.0,165.0
50887,-0.169,-0.981,0.137,-0.321,0.122,-0.084,73.0,179.0
50938,-0.177,-0.978,0.157,-0.496,1.069,0.855,73.0,179.0
50991,-0.169,-0.982,0.148,-0.229,0.756,0.969,73.0,180.0
51046,-0.172,-0.981,0.145,-0.679,0.641,0.145,73.0,179.0
51097,-0.183,-0.974,0.150,-0.275,0.542,0.557,73.0,179.0
51149,-0.185,-0.981,0.146,-0.282,-2.160,0.916,73.0,180.0
51202,-0.156,-0.971,0.125,0.069,1.962,1.374,74.0,179.0
51254,-0.185,-0.981,0.156,-0.565,1.115,0.916,74.0,179.0
51306,-0.169,-0.973,0.135,-0.794,-1.863,-0.313,74.0,194.0
51358,-0.173,-0.984,0.142,-1.603,2.519,-0.328,73.0,179.0
51410,-0.167,-0.988,0.150,-0.656,-0.634,-1.626,73.0,179.0
51463,-0.188,-0.979,0.144,-1.450,0.496,-0.565,73.0,179.0
51517,-0.181,-0.978,0.140,-0.374,0.809,-0.489,73.0,179.0
51570,-0.185,-0.981,0.151,-0.824,-0.504,0.412,73.0,193.0
51622,-0.166,-0.986,0.117,-0.626,-0.817,-0.206,73.0,178.0
51675,-0.180,-0.968,0.145,-0.931,0.840,-0.183,73.0,178.0
51727,-0.163,-0.987,0.129,-1.344,-1.672,-0.802,74.0,193.0
51779,-0.179,-0.982,0.145,-0.901,2.679,-0.443,73.0,179.0
51831,-0.187,-0.978,0.154,-0.412,-1.252,-0.237,73.0,179.0
51884,-0.178,-0.986,0.150,-0.221,-1.557,-1.107,74.0,179.0
51936,-0.166,-0.971,0.129,0.733,2.977,-0.191,73.0,179.0
51991,-0.192,-0.979,0.153,-0.466,-0.443,-0.046,73.0,179.0
52043,-0.164,-0.984,0.136,-0.206,-1.893,-0.061,73.0,180.0
52096,-0.184,-0.982,0.151,-0.626,0.748,0.664,73.0,180.0
52148,-0.174,-0.970,0.151,-0.099,0.954,1.183,73.0,180.0
52200,-0.174,-0.982,0.148,-0.092,-1.954,0.115,73.0,180.0
52252,-0.165,-0.980,0.139,0.519,0.427,-0.450,73.0,179.0
52304,-0.193,-0.968,0.156,0.046,-0.641,-0.664,74.0,179.0
52357,-0.171,-0.977,0.142,-0.458,-2.130,0.282,73.0,180.0
52452,-0.184,-0.982,0.148,-0.634,1.573,1.351,73.0,179.0
52507,-0.177,-0.976,0.155,-0.733,-1.405,-0.099,73.0,179.0
52559,-0.167,-0.976,0.149,-0.603,0.794,0.687,73.0,179.0
52612,-0.191,-0.978,0.151,-0.550,0.069,0.053,73.0,181.0
52664,-0.170,-0.979,0.133,-0.542,-0.931,-0.634,73.0,179.0
52716,-0.176,-0.974,0.149,-0.626,2.260,0.458,73.0,179.0
52768,-0.180,-0.980,0.142,-0.733,-0.031,0.168,73.0,181.0
52820,-0.181,-0.977,0.144,-0.908,0.298,0.260,73.0,180.0
52873,-0.169,-0.976,0.139,-0.702,-0.115,-0.756,73.0,179.0
52925,-0.174,-0.974,0.144,-1.198,-0.420,-0.260,73.0,178.0
52979,-0.171,-0.977,0.142,-1.191,1.206,-1.221,73.0,164.0
53031,-0.179,-0.981,0.153,-1.275,-0.481,-1.328,73.0,179.0
53084,-0.170,-0.982,0.137,-1.115,0.366,-1.290,73.0,179.0
53136,-0.189,-0.972,0.150,-0.885,-1.595,-1.000,73.0,179.0
53188,-0.167,-0.978,0.125,-0.702,0.939,-0.252,73.0,178.0
53240,-0.186,-0.984,0.143,-0.527,1.504,0.084,73.0,179.0
53293,-0.183,-0.984,0.137,-0.588,0.275,-0.191,73.0,179.0
53345,-0.172,-0.981,0.140,-0.718,-0.496,0.473,73.0,178.0
53401,-0.169,-0.975,0.143,-0.885,1.611,0.878,73.0,179.0
53453,-0.180,-0.976,0.141,-0.290,-1.015,0.725,73.0,179.0
53506,-0.170,-0.980,0.128,-0.511,1.260,-0.595,73.0,178.0
53558,-0.192,-0.973,0.154,-0.756,-0.031,0.137,73.0,179.0
53610,-0.169,-0.977,0.142,-0.939,-0.779,-0.115,73.0,178.0
53662,-0.178,-0.976,0.147,-0.939,0.809,0.924,73.0,178.0
53714,-0.181,-0.981,0.153,-0.634,0.107,-0.328,73.0,178.0
53767,-0.177,-0.979,0.146,-0.527,-0.634,0.145,73.0,178.0
53819,-0.177,-0.984,0.139,-0.634,1.229,-0.237,73.0,178.0
53875,-0.178,-0.979,0.143,-0.733,-1.985,-0.305,73.0,180.0
53927,-0.179,-0.969,0.138,-0.847,-0.916,0.412,73.0,178.0
53980,-0.173,-0.977,0.137,-0.626,-0.275,0.878,73.0,178.0
54032,-0.182,-0.974,0.151,-0.779,0.099,1.504,73.0,178.0
54084,-0.167,-0.980,0.132,-0.176,-0.420,1.229,73.0,178.0
54136,-0.185,-0.979,0.143,-0.855,1.336,0.351,73.0,178.0
54190,-0.183,-0.977,0.147,-0.359,-1.344,1.267,73.0,178.0
54242,-0.163,-0.977,0.129,-0.626,-0.664,0.908,73.0,178.0
54294,-0.178,-0.973,0.138,-0.695,1.527,1.260,73.0,178.0
54349,-0.177,-0.982,0.146,-0.824,0.305,-0.618,73.0,179.0
54403,-0.176,-0.974,0.146,-1.023,-0.878,-1.191,73.0,178.0
54455,-0.183,-0.979,0.141,-0.855,0.977,-0.870,74.0,178.0
54507,-0.180,-0.977,0.137,-0.893,-1.382,-1.496,73.0,178.0
54559,-0.175,-0.987,0.130,-0.992,1.168,-0.260,74.0,178.0
54612,-0.177,-0.983,0.136,-0.588,1.000,-1.168,74.0,178.0
54665,-0.177,-0.983,0.146,-0.290,1.527,-0.664,74.0,178.0
54717,-0.184,-0.986,0.137,-0.137,0.160,-1.321,74.0,179.0
54770,-0.180,-0.974,0.139,-0.221,0.725,-0.985,74.0,179.0
54825,-0.186,-0.982,0.137,-0.786,-0.122,-0.763,74.0,179.0
54879,-0.181,-0.980,0.129,-0.725,1.122,0.527,74.0,180.0
54931,-0.176,-0.979,0.142,-0.466,1.710,0.672,74.0,181.0
54984,-0.183,-0.977,0.136,-0.611,-0.267,0.214,74.0,191.0
55037,-0.170,-0.976,0.129,-0.885,-0.557,-0.191,74.0,192.0
55135,-0.177,-0.974,0.150,-0.786,0.061,-1.046,74.0,192.0
55188,-0.177,-0.978,0.139,-0.458,-0.504,-0.908,74.0,192.0
55241,-0.184,-0.973,0.133,-0.473,-0.344,-0.779,74.0,192.0
55294,-0.164,-0.978,0.130,-0.160,-0.221,-0.191,74.0,193.0
55351,-0.198,-0.977,0.162,-0.573,1.328,0.718,74.0,193.0
55405,-0.174,-0.980,0.134,-0.229,-1.985,0.092,74.0,193.0
55457,-0.183,-0.984,0.135,-0.817,1.313,1.344,74.0,167.0
55511,-0.181,-0.985,0.146,-0.046,0.924,0.573,74.0,192.0
55564,-0.182,-0.979,0.138,-0.656,-0.328,0.908,74.0,192.0
55617,-0.174,-0.981,0.137,-0.321,-0.031,0.672,74.0,194.0
55670,-0.181,-0.971,0.145,-0.840,-0.321,1.183,74.0,192.0
55725,-0.175,-0.987,0.130,-1.099,0.725,1.244,74.0,194.0
55784,-0.187,-0.983,0.145,-1.191,-0.160,0.130,74.0,193.0
55838,-0.181,-0.970,0.142,-0.519,-0.359,0.901,74.0,180.0
55889,-0.177,-0.978,0.147,-0.672,-0.427,0.840,74.0,180.0
55942,-0.176,-0.970,0.144,-0.748,1.107,0.725,74.0,180.0
55993,-0.189,-0.992,0.160,-1.855,-4.992,-1.595,74.0,179.0
56045,-0.161,-0.978,0.124,-0.664,2.870,-1.267,74.0,179.0
56096,-0.209,-0.990,0.153,-1.420,0.901,-0.817,74.0,179.0
56150,-0.175,-0.978,0.139,0.092,-1.985,-0.450,74.0,193.0
56202,-0.176,-0.982,0.120,-0.107,2.557,1.160,74.0,192.0
56257,-0.194,-0.979,0.147,-0.328,1.885,-0.275,74.0,192.0
56309,-0.194,-0.980,0.137,-0.672,-1.511,0.046,74.0,192.0
56361,-0.188,-0.967,0.141,-0.443,-0.038,0.053,74.0,179.0
56414,-0.183,-0.984,0.128,-0.305,-0.405,0.634,74.0,180.0
56465,-0.192,-0.975,0.146,-0.962,0.725,1.687,74.0,179.0
56517,-0.188,-0.981,0.142,-0.763,-1.458,1.061,74.0,178.0
56568,-0.183,-0.975,0.143,-0.534,-0.405,1.443,74.0,178.0
56621,-0.184,-0.983,0.135,-0.260,-0.542,0.893,74.0,179.0
56672,-0.186,-0.969,0.147,-0.962,-1.397,0.168,74.0,178.0
56727,-0.174,-0.976,0.129,-0.794,-1.870,-0.122,74.0,178.0
56778,-0.190,-0.979,0.144,-0.763,1.061,0.573,74.0,178.0
56830,-0.187,-0.986,0.147,-0.443,-0.145,-0.740,74.0,179.0
56882,-0.190,-0.971,0.137,-0.214,0.740,-1.031,74.0,178.0
56934,-0.186,-0.976,0.144,-0.664,-1.290,-1.046,74.0,178.0
56986,-0.187,-0.969,0.136,-0.351,1.893,-0.122,74.0,177.0
57037,-0.196,-0.973,0.138,-0.664,0.206,0.137,74.0,177.0
57090,-0.189,-0.974,0.137,-0.527,-0.885,0.000,74.0,178.0
57141,-0.191,-0.972,0.139,-0.412,1.427,0.893,74.0,178.0
57196,-0.197,-0.983,0.143,-0.687,-1.427,0.305,74.0,178.0
57247,-0.175,-0.977,0.130,-0.550,0.611,0.412,74.0,178.0
57299,-0.185,-0.986,0.140,-1.076,0.229,-1.313,74.0,179.0
57352,-0.178,-0.965,0.152,-1.053,0.855,-0.794,74.0,179.0
57403,-0.184,-0.991,0.142,-0.458,-0.313,-0.969,74.0,178.0
57455,-0.184,-0.972,0.147,-0.435,1.229,-0.519,74.0,179.0
57507,-0.179,-0.986,0.129,-0.710,0.939,-0.863,74.0,179.0
57560,-0.182,-0.980,0.143,-0.718,1.565,-0.527,74.0,192.0
57612,-0.183,-0.983,0.141,-0.359,-0.076,-1.496,74.0,179.0
57667,-0.193,-0.982,0.151,-0.359,-1.618,-1.198,74.0,178.0
57719,-0.174,-0.971,0.122,-0.359,-0.351,-0.275,74.0,179.0
57814,-0.187,-0.986,0.145,-0.466,-1.473,0.290,74.0,179.0
57866,-0.162,-0.978,0.141,-0.626,1.229,-0.427,74.0,179.0
57918,-0.191,-0.982,0.147,-0.511,0.076,-1.084,74.0,179.0
57970,-0.184,-0.972,0.142,-0.939,-2.237,-0.763,74.0,178.0
58022,-0.171,-0.985,0.134,-0.802,-0.656,0.504,74.0,178.0
58074,-0.175,-0.969,0.140,-0.901,2.038,0.626,74.0,179.0
58126,-0.183,-0.984,0.150,-1.687,-1.382,-0.069,74.0,178.0
58181,-0.176,-0.978,0.148,-1.649,1.008,-1.427,74.0,179.0
58233,-0.197,-0.988,0.157,-0.611,-1.267,-1.573,74.0,178.0
58286,-0.173,-0.981,0.139,-0.550,-1.031,-0.802,74.0,178.0
58337,-0.180,-0.983,0.137,-0.405,0.511,0.023,73.0,178.0
58389,-0.184,-0.983,0.134,-0.382,1.321,0.466,74.0,179.0
58441,-0.178,-0.985,0.139,-0.611,-0.214,-0.328,73.0,178.0
58493,-0.185,-0.968,0.132,-0.664,1.534,0.313,74.0,178.0
58546,-0.186,-0.968,0.130,-1.710,-1.221,0.344,73.0,179.0
58597,-0.171,-0.970,0.144,-1.267,-0.328,1.359,74.0,178.0
58661,-0.167,-0.991,0.136,-1.153,-0.901,-0.092,73.0,178.0
58716,-0.175,-0.971,0.143,-1.527,0.618,-0.794,73.0,177.0
58770,-0.165,-0.976,0.132,-1.656,0.611,-0.397,73.0,179.0
58824,-0.181,-0.996,0.139,-1.183,3.260,-0.397,74.0,179.0
58880,-0.189,-0.982,0.149,-0.450,-1.550,-1.809,74.0,178.0
58934,-0.175,-0.974,0.138,0.527,1.031,-0.389,74.0,179.0
58988,-0.177,-0.984,0.131,0.061,3.092,1.908,74.0,179.0
59042,-0.184,-0.983,0.141,-0.710,-0.214,0.099,74.0,179.0
59101,-0.168,-0.983,0.128,0.046,0.153,-1.542,73.0,180.0
59155,-0.190,-0.981,0.150,-1.191,-0.695,-0.962,73.0,179.0
59209,-0.171,-0.964,0.138,0.702,0.107,-0.359,74.0,179.0
59264,-0.183,-0.981,0.133,0.023,2.351,0.985,74.0,179.0
59319,-0.184,-0.991,0.135,-0.901,-0.832,-0.878,73.0,178.0
59373,-0.175,-0.967,0.125,-0.802,0.267,1.038,73.0,180.0
59427,-0.187,-0.982,0.146,-0.695,1.611,1.382,73.0,178.0
59482,-0.173,-0.988,0.119,-0.015,-1.809,-1.191,73.0,178.0
59537,-0.181,-0.966,0.136,-1.328,3.733,0.374,73.0,179.0
59594,-0.182,-0.987,0.159,-0.634,-2.664,-0.603,73.0,179.0
59650,-0.177,-0.980,0.133,-0.779,-0.855,-0.641,73.0,179.0
59704,-0.172,-0.978,0.131,0.145,1.115,-0.511,74.0,178.0
59758,-0.180,-0.983,0.143,-1.023,-1.550,-0.198,73.0,179.0
59813,-0.175,-0.968,0.125,-0.565,0.939,0.023,73.0,179.0
59868,-0.189,-0.983,0.157,-0.321,-0.542,1.038,73.0,178.0
59922,-0.160,-0.979,0.124,-0.122,-0.802,0.542,73.0,179.0
59977,-0.184,-0.980,0.148,-0.443,2.252,1.359,73.0,179.0
60032,-0.178,-0.984,0.139,-0.298,-0.473,-2.321,74.0,178.0
60089,-0.180,-0.979,0.141,-1.031,-2.305,-2.237,73.0,178.0
60144,-0.181,-0.984,0.139,-0.786,1.168,-1.725,74.0,178.0
60198,-0.190,-0.967,0.150,-0.542,0.733,0.389,74.0,180.0
60254,-0.175,-0.987,0.132,-0.672,1.573,2.130,74.0,179.0
60308,-0.174,-0.988,0.138,-0.382,1.137,0.809,74.0,179.0
60363,-0.187,-0.987,0.149,-1.038,-2.000,-2.397,74.0,182.0
60418,-0.161,-0.961,0.135,-0.496,-0.290,-0.053,74.0,180.0
60473,-0.183,-1.000,0.147,-1.458,2.664,1.954,74.0,180.0
