Timestamp(ms),AccelX(g),AccelY(g),AccelZ(g),GyroX(deg/s),GyroY(deg/s),GyroZ(deg/s),DistanceLeft(cm),DistanceRight(cm)
33022,-0.146,-0.992,0.164,-0.359,-4.756,0.176,52.0,0.0
33075,-0.102,-0.999,0.124,1.183,-1.672,0.252,52.0,0.0
33126,-0.150,-0.979,0.164,0.389,2.718,1.847,52.0,0.0
33177,-0.128,-0.984,0.155,1.664,-1.008,1.046,52.0,0.0
33229,-0.133,-0.983,0.156,0.191,0.298,2.580,52.0,0.0
33281,-0.118,-0.982,0.136,0.618,1.794,1.786,52.0,0.0
33332,-0.137,-0.998,0.156,-0.824,1.145,1.947,52.0,0.0
33384,-0.116,-0.979,0.146,-0.260,2.878,0.771,52.0,0.0
33438,-0.134,-0.999,0.165,-1.511,0.344,0.863,51.0,0.0
33489,-0.128,-0.983,0.152,0.252,1.595,-0.450,52.0,0.0
33538,-0.130,-0.989,0.145,-0.038,2.061,0.344,52.0,128.0
33585,-0.141,-0.982,0.158,-0.359,1.038,1.328,52.0,128.0
33632,-0.132,-0.989,0.146,-0.122,-0.931,1.603,52.0,127.0
33680,-0.136,-0.993,0.141,-0.389,2.206,0.328,53.0,127.0
33727,-0.135,-0.978,0.161,-0.252,1.260,1.153,52.0,128.0
33774,-0.151,-0.982,0.162,-0.557,-0.832,0.748,52.0,127.0
33822,-0.114,-0.988,0.129,-0.481,-0.298,2.458,52.0,127.0
33872,-0.136,-0.980,0.148,-0.252,4.527,2.435,53.0,127.0
33920,-0.138,-0.985,0.153,0.015,0.863,0.580,53.0,127.0
33968,-0.135,-0.980,0.151,-0.573,-2.366,0.527,52.0,130.0
34015,-0.121,-0.989,0.134,-0.870,0.641,0.611,52.0,127.0
34063,-0.142,-0.971,0.140,-0.618,3.527,1.229,52.0,127.0
34110,-0.151,-0.992,0.151,-1.397,0.702,1.511,52.0,128.0
34157,-0.139,-0.975,0.152,-1.641,-1.252,1.443,52.0,127.0
34205,-0.130,-0.975,0.140,-1.809,-0.374,1.412,53.0,126.0
34252,-0.138,-0.997,0.154,-1.435,1.565,1.733,53.0,126.0
34304,-0.140,-0.990,0.147,-0.336,2.840,0.481,53.0,127.0
34351,-0.149,-0.996,0.149,-0.634,2.061,2.504,53.0,127.0
34398,-0.155,-0.981,0.162,0.710,1.908,1.092,53.0,126.0
34446,-0.155,-0.985,0.155,0.718,1.366,3.046,53.0,126.0
34493,-0.149,-0.990,0.148,1.344,1.153,2.679,53.0,126.0
34540,-0.143,-0.973,0.135,1.282,3.252,2.924,53.0,126.0
34588,-0.151,-0.987,0.133,0.046,1.824,1.756,53.0,126.0
34635,-0.153,-0.976,0.149,-0.130,1.076,1.702,52.0,126.0
34683,-0.146,-0.991,0.143,-0.137,-1.557,0.023,52.0,127.0
34734,-0.155,-0.979,0.147,-0.153,-1.366,-0.557,53.0,128.0
34782,-0.151,-0.992,0.157,-0.519,-1.046,-0.504,53.0,127.0
34829,-0.150,-0.983,0.156,-0.229,-1.908,-0.267,53.0,126.0
34877,-0.149,-0.990,0.150,0.115,-1.061,-0.893,52.0,126.0
34924,-0.150,-0.982,0.150,0.710,1.344,-0.305,52.0,126.0
34972,-0.152,-0.985,0.148,0.229,-1.160,-0.008,52.0,128.0
35019,-0.144,-0.986,0.146,1.069,1.061,0.214,52.0,126.0
35067,-0.143,-0.985,0.144,1.130,0.229,0.908,52.0,127.0
35115,-0.148,-0.979,0.146,0.267,0.885,0.366,52.0,127.0
35166,-0.146,-0.989,0.149,0.504,-2.206,0.710,52.0,128.0
35213,-0.128,-0.976,0.131,0.061,2.336,0.603,51.0,129.0
35261,-0.160,-0.982,0.167,-0.122,0.824,0.916,52.0,130.0
35313,-0.150,-0.988,0.146,-0.794,-2.412,0.511,52.0,0.0
35365,-0.136,-0.986,0.146,0.267,-1.786,1.420,52.0,0.0
35417,-0.141,-0.989,0.136,-0.069,2.008,0.817,52.0,0.0
35512,-0.147,-0.980,0.150,0.145,-0.809,0.351,51.0,0.0
35563,-0.135,-0.980,0.144,0.244,-0.260,0.313,51.0,188.0
35610,-0.144,-0.982,0.155,-0.069,-0.405,1.344,51.0,129.0
35661,-0.138,-0.981,0.138,-0.771,0.626,-0.031,50.0,128.0
35709,-0.140,-0.979,0.147,-0.344,1.069,1.878,51.0,127.0
35757,-0.146,-1.002,0.154,-0.878,-0.786,-0.389,51.0,128.0
35805,-0.141,-0.979,0.153,-0.687,-0.519,-0.260,51.0,127.0
35852,-0.147,-0.976,0.157,-1.672,0.565,0.802,50.0,128.0
35900,-0.147,-0.998,0.147,-0.885,-0.412,0.206,51.0,128.0
35948,-0.146,-0.977,0.157,-1.000,0.817,1.641,51.0,127.0
35995,-0.154,-1.003,0.150,-0.527,-0.458,0.435,51.0,127.0
36043,-0.146,-0.986,0.156,0.260,-1.206,-0.183,50.0,127.0
36094,-0.145,-0.982,0.150,-0.206,-0.168,1.809,50.0,128.0
36146,-0.137,-1.000,0.159,-0.221,-1.588,1.672,51.0,0.0
36198,-0.130,-0.991,0.142,0.656,-1.603,-0.878,50.0,0.0
36249,-0.145,-0.974,0.151,0.328,1.099,0.053,50.0,190.0
36301,-0.140,-0.993,0.138,0.282,-1.702,-0.954,50.0,191.0
36353,-0.142,-0.979,0.153,-0.557,0.580,1.595,50.0,189.0
36404,-0.128,-0.982,0.137,0.107,2.191,1.160,50.0,188.0
36456,-0.154,-0.982,0.164,-0.183,0.252,1.489,50.0,191.0
36504,-0.139,-0.990,0.151,1.160,-1.427,0.840,51.0,130.0
36554,-0.138,-0.983,0.136,0.298,1.053,0.542,51.0,129.0
36602,-0.159,-0.974,0.168,0.550,-0.305,0.985,50.0,128.0
36651,-0.149,-0.983,0.148,0.557,-1.092,1.649,50.0,127.0
36698,-0.142,-0.981,0.148,0.489,0.641,2.634,50.0,128.0
36746,-0.157,-0.983,0.158,-0.252,-0.771,2.382,50.0,127.0
36794,-0.143,-0.979,0.150,-0.076,-2.267,2.023,51.0,128.0
36842,-0.133,-0.993,0.139,-0.130,-0.710,1.511,51.0,129.0
36890,-0.147,-0.981,0.148,0.305,0.702,2.053,50.0,130.0
36937,-0.142,-0.982,0.145,0.527,-0.328,1.061,50.0,129.0
36988,-0.147,-0.985,0.163,0.305,-0.397,2.099,50.0,130.0
37037,-0.148,-0.983,0.150,0.779,-0.557,0.198,50.0,130.0
37089,-0.143,-0.978,0.151,0.374,-0.244,1.107,50.0,190.0
37140,-0.149,-0.982,0.150,-0.122,-3.237,0.084,50.0,190.0
37192,-0.137,-0.984,0.143,0.115,-1.832,0.809,50.0,191.0
37243,-0.151,-0.977,0.146,-0.443,2.893,0.053,50.0,189.0
37292,-0.164,-0.979,0.173,-0.183,1.023,0.809,50.0,131.0
37340,-0.156,-0.975,0.159,-0.389,-2.534,0.061,50.0,129.0
37388,-0.143,-0.990,0.136,0.183,1.260,0.947,50.0,130.0
37434,-0.160,-0.976,0.164,-0.244,1.496,1.305,50.0,129.0
37482,-0.161,-0.985,0.158,-0.061,-1.008,0.595,50.0,129.0
37530,-0.137,-0.982,0.146,-0.389,-1.244,0.420,51.0,128.0
37578,-0.157,-0.980,0.152,-1.008,2.061,1.282,51.0,128.0
37626,-0.157,-0.986,0.163,-0.802,-2.389,0.443,50.0,130.0
37675,-0.149,-0.981,0.159,-1.191,-2.145,0.954,50.0,129.0
37723,-0.148,-0.992,0.147,-0.908,-0.557,0.817,50.0,128.0
37771,-0.149,-0.973,0.160,-0.481,1.954,1.015,50.0,129.0
37822,-0.160,-0.985,0.160,-0.229,-0.992,0.679,51.0,129.0
37870,-0.138,-0.976,0.150,-0.366,-0.664,1.985,50.0,130.0
37918,-0.145,-0.996,0.153,-0.260,-0.435,0.824,50.0,129.0
38013,-0.148,-0.979,0.140,-0.176,0.786,0.733,50.0,0.0
38062,-0.155,-0.979,0.158,-0.076,0.290,0.977,50.0,130.0
38113,-0.143,-0.995,0.160,0.115,1.359,0.916,50.0,190.0
38165,-0.152,-0.979,0.153,0.260,2.107,1.718,50.0,191.0
38213,-0.152,-0.989,0.150,0.672,0.061,-0.359,50.0,129.0
38261,-0.145,-0.975,0.143,0.206,1.542,1.053,50.0,129.0
38317,-0.149,-0.981,0.152,-0.076,4.031,0.809,50.0,189.0
38368,-0.154,-0.975,0.151,-0.244,-0.359,0.794,50.0,190.0
38420,-0.149,-0.979,0.151,-0.328,0.405,0.298,50.0,191.0
38472,-0.160,-0.987,0.160,-0.198,1.351,0.756,50.0,191.0
38523,-0.157,-0.978,0.160,0.397,0.504,1.099,50.0,190.0
38576,-0.143,-0.978,0.131,0.565,2.466,1.489,50.0,0.0
38625,-0.165,-0.981,0.160,-0.237,1.473,1.489,50.0,128.0
38673,-0.144,-0.979,0.141,0.183,-0.908,0.237,51.0,129.0
38721,-0.153,-0.981,0.146,-0.702,-1.260,0.389,51.0,127.0
38772,-0.146,-0.979,0.147,-0.145,0.328,0.733,51.0,127.0
38820,-0.159,-0.983,0.165,-0.412,-0.038,0.832,50.0,127.0
38868,-0.150,-0.984,0.149,-0.107,-0.802,0.901,50.0,127.0
38917,-0.152,-0.983,0.150,-0.374,-0.893,0.092,50.0,128.0
38965,-0.146,-0.977,0.153,0.099,0.588,0.954,50.0,128.0
39013,-0.156,-0.991,0.160,-0.718,-0.695,0.221,50.0,128.0
39062,-0.142,-0.977,0.148,-0.466,0.802,0.359,51.0,127.0
39110,-0.167,-0.990,0.161,-1.282,-0.458,0.893,51.0,128.0
39158,-0.144,-0.994,0.146,-0.115,-1.092,-0.069,51.0,128.0
39209,-0.151,-0.976,0.160,0.000,-0.206,0.565,51.0,129.0
39264,-0.145,-0.983,0.158,0.824,0.588,0.977,51.0,128.0
39311,-0.146,-0.980,0.145,0.618,-0.893,0.214,50.0,129.0
39359,-0.146,-0.975,0.138,0.344,2.458,1.473,50.0,129.0
39406,-0.157,-0.990,0.152,0.168,1.000,0.702,50.0,129.0
39453,-0.156,-0.969,0.148,-0.313,0.878,-0.076,50.0,129.0
39500,-0.157,-0.986,0.165,-0.573,-1.015,1.145,50.0,128.0
39547,-0.146,-0.983,0.152,0.008,0.565,1.618,50.0,128.0
39595,-0.143,-0.982,0.161,0.542,2.237,1.458,50.0,128.0
39645,-0.159,-0.989,0.155,0.229,-0.053,0.916,50.0,129.0
39692,-0.143,-0.984,0.139,0.183,-0.046,0.511,50.0,129.0
39740,-0.160,-0.988,0.152,-0.313,0.336,0.389,50.0,129.0
39787,-0.150,-0.974,0.155,0.038,-0.336,0.137,51.0,128.0
39838,-0.156,-0.985,0.157,-0.412,-1.878,1.076,50.0,190.0
39885,-0.147,-0.974,0.145,-0.038,0.603,0.672,51.0,129.0
39937,-0.156,-0.991,0.148,-0.351,0.863,1.374,50.0,190.0
39988,-0.158,-0.977,0.155,0.267,-0.397,0.405,50.0,192.0
40035,-0.139,-0.986,0.148,0.198,-0.458,1.313,51.0,130.0
40086,-0.156,-0.987,0.153,0.489,1.618,0.580,50.0,130.0
40133,-0.158,-0.984,0.158,0.107,1.160,0.359,50.0,130.0
40180,-0.164,-0.981,0.157,0.076,-0.992,1.183,51.0,130.0
40228,-0.139,-0.985,0.155,0.374,-0.198,1.061,50.0,130.0
40275,-0.161,-0.971,0.149,0.267,0.733,1.366,50.0,131.0
40324,-0.165,-0.991,0.168,0.015,-2.573,1.237,50.0,130.0
40375,-0.141,-0.978,0.142,0.206,-2.214,0.221,50.0,0.0
40426,-0.138,-0.974,0.149,-0.290,2.885,1.641,50.0,190.0
40516,-0.140,-0.986,0.145,-0.672,-2.756,0.252,50.0,130.0
40567,-0.154,-0.981,0.164,-0.458,1.206,0.603,50.0,130.0
40614,-0.152,-0.986,0.168,0.313,-0.252,0.206,50.0,130.0
40663,-0.158,-0.984,0.169,0.267,-0.443,-0.565,50.0,130.0
40710,-0.140,-0.987,0.148,1.115,0.008,-0.206,50.0,129.0
40758,-0.157,-0.985,0.171,0.756,2.527,-0.435,50.0,129.0
40805,-0.159,-0.978,0.160,0.779,-2.275,-0.885,50.0,129.0
40852,-0.151,-0.971,0.148,-0.084,-2.267,0.122,50.0,129.0
40900,-0.140,-0.984,0.138,-0.160,-0.336,1.260,51.0,129.0
40947,-0.148,-0.967,0.153,-0.504,3.496,1.237,51.0,128.0
40998,-0.157,-0.984,0.174,-0.855,-2.389,1.206,50.0,129.0
41046,-0.137,-0.979,0.160,-0.901,-0.588,0.382,50.0,128.0
41094,-0.140,-0.983,0.154,-0.634,1.328,0.870,50.0,129.0
41141,-0.160,-0.978,0.154,-0.298,0.863,0.931,50.0,129.0
41189,-0.156,-0.988,0.161,-0.611,-2.870,-0.008,50.0,128.0
41236,-0.130,-0.986,0.133,-0.084,2.733,0.458,50.0,128.0
41284,-0.165,-0.977,0.174,-0.450,2.504,1.176,50.0,128.0
41331,-0.152,-0.984,0.165,0.198,-1.496,-0.321,50.0,128.0
41379,-0.147,-0.971,0.144,0.115,0.260,1.130,50.0,127.0
41430,-0.144,-0.987,0.156,-0.168,2.794,0.542,50.0,127.0
41477,-0.168,-0.980,0.162,-0.122,-0.672,0.977,50.0,128.0
41525,-0.135,-0.977,0.156,-0.763,0.260,1.366,50.0,128.0
41572,-0.153,-0.988,0.154,-0.046,1.160,1.405,50.0,127.0
41620,-0.152,-0.979,0.158,-0.130,0.084,0.840,50.0,128.0
41668,-0.158,-0.989,0.158,-0.504,-0.954,0.817,50.0,128.0
41715,-0.146,-0.979,0.160,0.229,-1.718,-0.122,51.0,128.0
41763,-0.146,-0.983,0.146,-0.031,0.519,0.893,50.0,129.0
41810,-0.156,-0.982,0.163,-0.115,-0.137,0.718,50.0,129.0
41862,-0.150,-0.983,0.165,0.191,-0.656,0.878,50.0,129.0
41910,-0.142,-0.991,0.163,-0.374,-0.779,0.893,50.0,129.0
41957,-0.144,-0.979,0.160,0.573,-0.076,0.634,50.0,127.0
42005,-0.139,-0.983,0.157,0.336,1.053,0.595,51.0,128.0
42052,-0.150,-0.981,0.158,0.168,0.252,0.817,51.0,128.0
42100,-0.144,-0.966,0.157,0.099,-0.153,0.168,51.0,127.0
42148,-0.152,-0.984,0.159,-0.534,-0.809,1.321,50.0,128.0
42195,-0.145,-0.981,0.142,-0.527,0.382,1.473,51.0,128.0
42244,-0.154,-0.982,0.152,-1.099,0.756,2.168,50.0,127.0
42294,-0.146,-0.992,0.155,-0.618,-0.542,0.664,50.0,128.0
42342,-0.148,-0.975,0.167,-0.985,0.198,2.137,50.0,129.0
42390,-0.146,-0.990,0.147,-0.496,-0.061,0.771,50.0,127.0
42437,-0.154,-0.972,0.163,-0.496,1.275,1.748,51.0,127.0
42485,-0.154,-0.990,0.150,-0.534,0.084,1.115,51.0,129.0
42533,-0.154,-0.980,0.152,0.046,-0.290,0.924,51.0,127.0
42580,-0.146,-0.982,0.149,-0.153,1.603,1.130,50.0,127.0
42629,-0.153,-0.981,0.155,0.412,3.229,0.901,50.0,127.0
42677,-0.168,-0.981,0.152,0.252,0.275,0.641,50.0,128.0
42728,-0.159,-0.981,0.134,-0.450,-1.061,0.000,50.0,128.0
42775,-0.172,-0.972,0.154,-0.427,1.092,0.878,50.0,129.0
42823,-0.171,-0.987,0.148,-0.573,1.176,1.763,50.0,129.0
42871,-0.160,-0.980,0.157,-0.458,-0.672,1.634,50.0,128.0
42962,-0.160,-0.978,0.140,-0.061,1.153,1.191,50.0,129.0
43011,-0.169,-0.979,0.163,-0.359,-0.397,1.740,51.0,129.0
43059,-0.150,-0.994,0.146,-0.366,-1.924,0.481,50.0,129.0
43106,-0.156,-0.974,0.156,-0.290,0.664,1.427,50.0,129.0
43154,-0.160,-0.982,0.150,-0.076,-1.626,0.473,50.0,128.0
43205,-0.161,-0.979,0.151,0.359,0.267,1.023,50.0,128.0
43253,-0.158,-0.983,0.162,-0.183,-0.267,0.847,51.0,129.0
43301,-0.157,-0.991,0.148,1.008,0.611,0.397,51.0,128.0
43348,-0.164,-0.971,0.159,0.069,0.053,0.771,49.0,127.0
43397,-0.159,-0.995,0.146,0.847,-0.191,0.740,49.0,127.0
43445,-0.156,-0.974,0.158,0.634,1.122,1.092,49.0,128.0
43493,-0.165,-0.981,0.159,0.153,-0.328,1.237,50.0,127.0
43540,-0.156,-0.973,0.140,0.412,-0.679,0.756,50.0,127.0
43588,-0.157,-0.976,0.155,-0.435,0.763,1.214,50.0,127.0
43639,-0.156,-0.986,0.150,-0.450,0.595,0.427,50.0,126.0
43687,-0.167,-0.972,0.158,-0.847,1.084,1.542,51.0,127.0
43736,-0.157,-0.986,0.153,-0.656,-1.389,-0.336,50.0,126.0
43784,-0.154,-0.968,0.157,-0.298,0.588,1.107,50.0,127.0
43831,-0.161,-0.991,0.154,-0.588,-1.031,0.870,50.0,126.0
43879,-0.142,-0.981,0.151,0.359,0.969,0.496,50.0,126.0
43927,-0.164,-0.983,0.161,-0.573,0.985,-0.412,50.0,127.0
43975,-0.160,-0.968,0.161,-0.160,-0.634,-1.023,50.0,128.0
44023,-0.146,-0.974,0.146,-0.382,-0.580,-0.153,50.0,127.0
44075,-0.172,-0.982,0.149,-0.069,1.695,0.420,50.0,126.0
44123,-0.162,-0.979,0.156,-0.443,-0.519,0.176,50.0,126.0
44171,-0.153,-0.984,0.152,-0.450,-0.351,0.038,50.0,128.0
44219,-0.157,-0.973,0.143,-0.344,0.221,0.305,50.0,126.0
44266,-0.163,-0.982,0.152,-0.595,-0.206,0.817,50.0,126.0
44314,-0.148,-0.984,0.142,-0.573,-1.641,0.313,50.0,126.0
44362,-0.151,-0.981,0.167,-0.870,1.191,1.031,50.0,126.0
44410,-0.166,-0.984,0.159,-0.511,-0.718,0.405,50.0,127.0
44459,-0.147,-0.980,0.153,-0.336,0.702,0.939,50.0,127.0
44510,-0.162,-0.994,0.147,-0.176,0.603,0.282,50.0,126.0
44558,-0.161,-0.972,0.145,-0.130,-0.153,0.687,50.0,128.0
44606,-0.162,-0.991,0.155,-0.489,-1.427,1.214,50.0,128.0
44654,-0.142,-0.983,0.137,0.031,1.405,1.634,50.0,127.0
44702,-0.161,-0.992,0.160,-0.443,0.809,1.893,50.0,128.0
44750,-0.146,-0.983,0.153,-0.023,-0.336,0.130,50.0,127.0
44798,-0.156,-0.976,0.157,-0.191,0.206,0.511,50.0,128.0
44847,-0.159,-0.983,0.155,-0.481,0.076,0.725,50.0,128.0
44895,-0.154,-0.978,0.144,-0.298,-0.275,0.336,50.0,129.0
44947,-0.165,-0.982,0.151,-0.656,0.733,1.519,50.0,127.0
44995,-0.154,-0.992,0.142,-0.267,0.069,0.427,51.0,127.0
45043,-0.161,-0.976,0.155,-0.473,0.687,1.901,50.0,128.0
45091,-0.152,-0.985,0.150,0.023,0.366,0.557,50.0,127.0
45139,-0.158,-0.986,0.161,0.061,0.573,0.794,50.0,128.0
45188,-0.153,-0.977,0.143,0.160,-0.351,0.046,50.0,127.0
45236,-0.156,-0.984,0.149,-0.122,0.344,1.084,50.0,129.0
45284,-0.157,-0.974,0.145,0.412,1.023,1.023,50.0,127.0
45332,-0.160,-0.987,0.150,-0.298,0.221,0.687,50.0,127.0
45427,-0.167,-0.973,0.150,-0.481,0.061,1.221,50.0,127.0
45475,-0.158,-0.984,0.140,-0.328,-0.458,0.527,50.0,128.0
45530,-0.159,-0.987,0.153,-0.412,-0.397,1.275,50.0,128.0
45577,-0.152,-0.979,0.157,-0.328,0.511,0.969,50.0,128.0
45624,-0.153,-0.978,0.154,-0.252,0.466,0.672,50.0,127.0
45671,-0.161,-0.980,0.147,-0.168,0.328,0.718,50.0,129.0
45718,-0.151,-0.988,0.141,-0.031,0.260,-0.618,50.0,129.0
45765,-0.167,-0.971,0.161,-0.603,-0.076,0.305,50.0,129.0
45812,-0.156,-0.984,0.145,-0.840,-0.366,0.298,50.0,127.0
45862,-0.161,-0.981,0.148,-0.351,0.282,1.221,50.0,127.0
45911,-0.159,-0.980,0.144,0.275,0.748,0.756,50.0,127.0
45958,-0.171,-0.981,0.141,-0.206,-0.206,1.351,50.0,127.0
46005,-0.155,-0.989,0.137,-0.359,0.031,0.985,50.0,129.0
46052,-0.159,-0.971,0.148,-0.206,2.183,1.695,50.0,127.0
46099,-0.175,-0.988,0.156,-0.725,-1.557,1.725,50.0,127.0
46146,-0.146,-0.983,0.133,-0.443,-0.756,1.611,49.0,128.0
46194,-0.148,-0.983,0.142,-0.885,1.466,2.374,50.0,128.0
46241,-0.166,-0.979,0.152,-0.053,2.130,1.450,50.0,129.0
46291,-0.163,-0.995,0.162,0.718,0.366,1.397,50.0,127.0
46339,-0.144,-0.985,0.139,0.153,1.244,0.496,49.0,127.0
46386,-0.170,-0.973,0.155,0.863,2.244,0.573,49.0,128.0
46433,-0.164,-0.987,0.154,0.351,-0.153,1.115,49.0,127.0
46481,-0.152,-0.973,0.138,0.809,2.275,0.756,50.0,129.0
46528,-0.171,-0.982,0.144,0.504,2.519,1.405,50.0,126.0
46575,-0.170,-0.969,0.152,0.412,1.504,0.824,50.0,126.0
46622,-0.175,-0.981,0.146,0.023,0.115,1.076,50.0,126.0
46670,-0.172,-0.978,0.152,0.092,0.000,0.466,50.0,128.0
46721,-0.173,-0.983,0.148,-0.328,-0.817,0.725,49.0,126.0
46768,-0.161,-0.973,0.152,0.107,0.191,0.725,49.0,128.0
46815,-0.174,-0.980,0.153,-0.397,-0.618,1.573,49.0,127.0
46862,-0.157,-0.992,0.142,0.336,-0.214,0.733,50.0,126.0
46910,-0.164,-0.981,0.149,-0.221,0.237,0.145,50.0,126.0
46957,-0.170,-0.975,0.156,0.244,0.145,0.229,50.0,128.0
47004,-0.170,-0.985,0.154,0.450,-1.458,-0.046,50.0,127.0
47052,-0.157,-0.968,0.139,0.740,0.893,0.969,50.0,126.0
47099,-0.171,-0.991,0.159,0.023,-0.412,0.344,50.0,126.0
47150,-0.156,-0.965,0.144,0.397,-0.198,-0.015,50.0,126.0
47197,-0.169,-0.988,0.151,-0.817,-0.588,0.939,50.0,126.0
47245,-0.156,-0.987,0.149,-0.115,-0.214,0.053,51.0,127.0
47292,-0.171,-0.986,0.161,-0.023,-0.542,0.130,51.0,126.0
47339,-0.161,-0.976,0.156,0.061,-0.756,0.511,51.0,126.0
47387,-0.162,-0.984,0.150,0.595,-0.008,0.382,49.0,126.0
47434,-0.166,-0.979,0.156,0.313,1.802,1.015,51.0,127.0
47481,-0.167,-0.993,0.153,0.107,-0.748,0.237,49.0,126.0
47529,-0.147,-0.966,0.141,0.344,0.565,-0.450,51.0,127.0
47580,-0.176,-0.979,0.155,-0.740,0.053,0.939,50.0,127.0
47628,-0.155,-0.981,0.149,-0.061,-1.061,0.107,50.0,127.0
47675,-0.161,-0.982,0.143,-0.664,1.015,0.947,50.0,127.0
47723,-0.161,-0.979,0.142,0.023,0.130,-0.420,50.0,128.0
47770,-0.171,-0.975,0.163,-0.305,-1.008,0.656,50.0,128.0
47861,-0.169,-0.980,0.163,-0.267,1.198,0.824,50.0,128.0
47908,-0.162,-0.985,0.154,-0.550,-0.924,-0.168,51.0,129.0
47956,-0.163,-0.974,0.161,-0.130,-0.740,1.656,51.0,129.0
48005,-0.157,-0.984,0.153,-0.412,-0.168,0.725,51.0,127.0
48050,-0.162,-0.977,0.143,0.489,2.076,0.954,51.0,128.0
48098,-0.172,-0.981,0.165,0.015,-1.405,0.878,51.0,128.0
48145,-0.147,-0.974,0.151,0.031,-0.053,0.588,49.0,128.0
48193,-0.162,-0.980,0.154,-0.099,1.359,1.832,49.0,128.0
48240,-0.157,-0.980,0.146,0.053,-0.099,0.756,50.0,127.0
48287,-0.159,-0.969,0.148,-0.282,1.824,1.435,50.0,127.0
48335,-0.172,-0.978,0.158,-0.565,0.481,0.458,50.0,128.0
48384,-0.162,-0.974,0.150,-0.221,-0.466,0.611,50.0,127.0
48434,-0.163,-0.983,0.146,-0.794,-0.450,0.962,50.0,127.0
48482,-0.163,-0.984,0.152,-0.298,1.527,0.534,50.0,127.0
48529,-0.172,-0.986,0.168,-0.519,-0.504,0.580,50.0,127.0
48577,-0.152,-0.981,0.152,-0.366,-0.557,0.824,50.0,127.0
48625,-0.161,-0.986,0.154,-0.527,0.893,0.893,50.0,127.0
48672,-0.165,-0.982,0.159,0.321,0.565,0.916,50.0,127.0
48720,-0.161,-0.979,0.152,-0.267,-0.305,0.366,50.0,128.0
48768,-0.165,-0.981,0.141,0.122,0.252,0.809,50.0,128.0
48816,-0.163,-0.984,0.150,-0.504,0.603,0.702,50.0,128.0
48867,-0.163,-0.974,0.148,0.115,1.160,0.931,50.0,128.0
48914,-0.170,-0.982,0.145,-0.679,0.198,0.702,50.0,129.0
48962,-0.162,-0.974,0.145,-0.489,0.328,0.817,50.0,127.0
49010,-0.152,-0.979,0.140,-0.817,1.038,0.557,50.0,129.0
49057,-0.169,-0.986,0.147,-0.977,-0.313,1.176,50.0,128.0
49105,-0.156,-0.979,0.143,-0.863,-0.023,0.420,50.0,129.0
49154,-0.165,-0.983,0.166,-1.015,0.198,1.252,50.0,128.0
49202,-0.151,-0.981,0.152,-0.565,1.580,0.679,50.0,128.0
49250,-0.167,-0.988,0.155,0.229,1.336,1.038,49.0,130.0
49300,-0.156,-0.988,0.150,0.458,0.855,-0.366,49.0,128.0
49348,-0.173,-0.975,0.152,0.466,-0.374,-0.160,50.0,129.0
49396,-0.163,-0.980,0.138,-0.595,-0.473,0.656,50.0,128.0
49444,-0.165,-0.979,0.143,-0.282,0.870,1.275,50.0,130.0
49492,-0.163,-0.982,0.157,-0.534,1.420,1.069,50.0,128.0
49540,-0.166,-0.991,0.142,0.198,-0.244,-0.206,50.0,128.0
49588,-0.164,-0.976,0.152,0.405,0.885,1.122,50.0,128.0
49636,-0.171,-0.990,0.147,0.641,-0.305,1.115,49.0,129.0
49684,-0.156,-0.987,0.139,0.580,-0.229,1.122,50.0,128.0
49735,-0.169,-0.983,0.148,0.198,0.550,0.977,49.0,128.0
49783,-0.164,-0.973,0.143,0.084,-0.634,0.298,49.0,129.0
49831,-0.157,-0.990,0.154,0.206,-0.153,0.565,50.0,129.0
49879,-0.158,-0.986,0.150,0.740,0.565,-0.069,50.0,129.0
49927,-0.162,-0.992,0.158,1.031,1.130,-0.099,50.0,128.0
49975,-0.175,-0.969,0.159,0.557,-0.069,0.290,50.0,128.0
50023,-0.158,-0.983,0.137,1.221,-1.260,0.863,50.0,127.0
50071,-0.170,-0.979,0.137,0.313,1.817,1.763,50.0,129.0
50119,-0.161,-0.986,0.160,0.344,-0.481,0.748,50.0,127.0
50170,-0.160,-0.974,0.156,-0.076,-0.435,1.695,50.0,128.0
50219,-0.169,-0.985,0.147,-0.817,-0.618,0.779,49.0,127.0
50310,-0.168,-0.976,0.170,-0.496,-1.206,0.481,50.0,128.0
50358,-0.151,-0.980,0.146,0.496,-0.214,0.069,50.0,127.0
50406,-0.163,-0.980,0.158,-0.008,0.695,1.053,50.0,128.0
50454,-0.162,-0.975,0.144,-0.092,-0.290,0.832,50.0,129.0
50502,-0.158,-0.985,0.144,0.244,1.779,0.198,50.0,128.0
50550,-0.174,-0.981,0.159,-0.458,-0.053,-0.031,50.0,128.0
50598,-0.159,-0.974,0.154,-0.046,-1.069,-0.481,50.0,128.0
50650,-0.157,-0.982,0.145,0.031,0.649,0.595,50.0,130.0
50698,-0.171,-0.978,0.148,0.389,1.160,0.710,50.0,128.0
50746,-0.169,-0.984,0.152,0.137,-0.183,0.672,50.0,129.0
50794,-0.159,-0.971,0.138,0.046,-0.519,0.061,50.0,128.0
50842,-0.166,-0.979,0.156,-0.534,-0.137,0.603,50.0,129.0
50890,-0.160,-0.980,0.152,-0.443,0.053,1.748,50.0,130.0
50938,-0.161,-0.983,0.146,-0.832,-0.359,0.962,51.0,129.0
50987,-0.163,-0.975,0.156,-0.290,-0.450,1.046,51.0,129.0
51036,-0.155,-0.978,0.149,-0.481,-0.069,1.809,50.0,129.0
51087,-0.150,-0.985,0.153,0.160,1.099,1.466,50.0,129.0
51135,-0.168,-0.990,0.152,-0.031,-0.527,0.344,50.0,129.0
51183,-0.169,-0.978,0.152,-0.221,-0.305,0.595,50.0,129.0
51231,-0.158,-0.976,0.154,-0.130,-0.023,0.588,50.0,129.0
51279,-0.161,-0.978,0.153,-0.176,2.046,0.931,50.0,129.0
51329,-0.164,-0.975,0.160,0.122,0.076,0.718,51.0,129.0
51377,-0.157,-0.979,0.149,0.023,-0.313,0.107,51.0,128.0
51425,-0.166,-0.974,0.154,-0.366,-0.015,0.870,51.0,128.0
51473,-0.153,-0.978,0.135,-0.427,0.427,0.916,50.0,129.0
51525,-0.170,-0.983,0.151,-0.305,0.786,1.534,50.0,130.0
51573,-0.167,-0.979,0.145,-0.176,-0.099,1.427,50.0,128.0
51621,-0.165,-0.976,0.157,-0.786,-0.382,2.099,50.0,128.0
51670,-0.148,-0.972,0.137,0.092,2.176,0.878,50.0,128.0
51724,-0.178,-0.985,0.167,-0.527,0.412,1.939,50.0,130.0
51771,-0.156,-0.994,0.156,-0.374,-2.504,-1.038,51.0,128.0
51818,-0.169,-0.963,0.155,0.229,0.176,0.397,50.0,127.0
51865,-0.169,-0.981,0.162,-0.573,-1.511,1.733,50.0,128.0
51912,-0.158,-0.978,0.145,0.863,0.832,1.763,50.0,130.0
51962,-0.168,-0.981,0.147,-0.718,1.344,0.557,51.0,128.0
52011,-0.171,-0.977,0.160,-0.878,0.618,0.481,50.0,130.0
52058,-0.163,-0.979,0.150,-1.221,-1.313,-0.565,51.0,129.0
52105,-0.177,-0.976,0.155,-0.924,1.374,0.817,51.0,128.0
52152,-0.176,-0.983,0.160,-0.740,-0.656,0.023,50.0,129.0
52200,-0.164,-0.968,0.144,-0.656,0.221,0.763,50.0,128.0
52247,-0.169,-0.976,0.157,-0.305,-0.015,1.962,50.0,130.0
52294,-0.165,-0.985,0.153,-0.290,-0.176,1.176,50.0,128.0
52341,-0.165,-0.980,0.153,-0.473,0.237,0.679,50.0,129.0
52392,-0.170,-0.971,0.146,0.229,0.916,1.099,50.0,130.0
52440,-0.182,-0.988,0.157,-0.229,-1.466,1.298,50.0,129.0
52487,-0.162,-0.977,0.143,0.290,0.115,1.679,50.0,128.0
52534,-0.173,-0.975,0.163,-0.298,0.473,2.183,50.0,128.0
52582,-0.160,-0.990,0.150,-0.397,-0.412,1.252,50.0,129.0
52629,-0.166,-0.973,0.155,-0.267,0.962,1.160,50.0,130.0
52676,-0.182,-0.997,0.157,-0.076,-1.534,0.840,51.0,128.0
52767,-0.176,-0.959,0.142,0.015,-0.863,2.008,51.0,128.0
52814,-0.173,-0.980,0.126,-0.267,-1.244,3.603,50.0,127.0
52865,-0.160,-0.969,0.128,-1.664,2.473,3.733,50.0,127.0
52913,-0.177,-0.983,0.147,-2.397,1.435,4.053,51.0,127.0
52960,-0.161,-0.978,0.152,-2.511,-2.237,2.374,51.0,127.0
53007,-0.153,-0.978,0.140,-1.504,-0.267,0.374,51.0,128.0
53055,-0.176,-0.983,0.152,-2.405,-0.344,0.649,50.0,127.0
53102,-0.181,-0.984,0.155,-1.221,-2.779,-0.992,50.0,127.0
53149,-0.162,-0.967,0.126,-1.061,-1.824,-1.282,51.0,128.0
53197,-0.181,-0.980,0.129,-1.985,1.015,1.740,50.0,129.0
53244,-0.168,-0.984,0.137,-1.733,-1.771,0.878,50.0,128.0
53300,-0.169,-0.977,0.135,-1.931,-1.168,0.954,51.0,0.0
53351,-0.168,-0.997,0.140,-0.481,0.092,1.466,51.0,0.0
53403,-0.168,-1.000,0.151,-0.802,4.206,1.328,52.0,0.0
53452,-0.195,-0.991,0.181,0.809,1.595,-0.221,71.0,130.0
53499,-0.173,-0.977,0.139,2.321,-1.061,-2.229,51.0,128.0
53548,-0.195,-0.972,0.140,3.351,4.550,1.069,51.0,128.0
53595,-0.190,-0.987,0.132,1.969,2.069,1.015,51.0,127.0
53643,-0.184,-0.960,0.127,1.084,1.382,1.809,52.0,127.0
53690,-0.178,-0.991,0.133,-0.542,-0.252,1.374,51.0,128.0
53740,-0.174,-0.972,0.141,-0.618,1.061,2.359,51.0,126.0
53788,-0.177,-0.980,0.148,-0.527,0.191,1.244,51.0,127.0
53835,-0.180,-0.979,0.154,1.107,-0.725,0.305,52.0,126.0
53883,-0.181,-0.985,0.150,1.061,-2.023,0.977,51.0,127.0
53931,-0.164,-0.972,0.146,1.595,0.588,0.321,52.0,128.0
53979,-0.190,-0.983,0.146,1.412,1.008,0.412,51.0,127.0
54026,-0.181,-0.974,0.138,1.038,-0.595,-1.145,52.0,127.0
54074,-0.179,-0.969,0.139,0.473,-1.130,-0.244,51.0,126.0
54121,-0.190,-0.964,0.147,0.069,-1.328,-0.099,51.0,126.0
54172,-0.187,-0.984,0.154,-1.137,-1.481,0.405,52.0,127.0
54219,-0.190,-0.970,0.150,-1.008,-2.046,0.450,52.0,127.0
54267,-0.177,-0.974,0.154,-0.733,-0.939,2.313,52.0,128.0
54316,-0.190,-0.984,0.158,0.321,-0.466,1.962,52.0,128.0
54363,-0.171,-0.975,0.144,0.924,0.145,2.511,52.0,126.0
54411,-0.182,-0.969,0.158,-0.275,0.069,3.092,52.0,127.0
54459,-0.168,-0.998,0.143,0.206,-1.038,1.275,51.0,126.0
54506,-0.167,-0.967,0.149,-0.183,2.817,2.328,51.0,126.0
54554,-0.183,-0.985,0.158,-0.466,-0.267,1.985,52.0,126.0
54604,-0.168,-0.991,0.137,0.038,-0.023,-0.534,52.0,126.0
54652,-0.177,-0.971,0.157,-0.015,3.885,1.038,52.0,126.0
54701,-0.190,-0.981,0.147,0.031,1.420,0.130,51.0,128.0
54748,-0.170,-0.990,0.142,0.649,0.107,0.191,52.0,129.0
54796,-0.173,-0.972,0.146,1.000,5.771,-0.809,52.0,127.0
54844,-0.203,-0.981,0.164,1.198,1.870,0.374,52.0,127.0
54891,-0.165,-0.975,0.132,1.092,0.023,-1.298,51.0,127.0
54939,-0.183,-0.974,0.148,0.565,4.137,-0.069,52.0,127.0
54987,-0.191,-0.978,0.153,0.420,2.870,-0.328,52.0,128.0
55038,-0.194,-0.974,0.156,-0.015,0.145,0.237,51.0,129.0
55086,-0.180,-0.988,0.149,-0.053,-1.000,0.573,51.0,127.0
55134,-0.167,-0.977,0.145,0.634,4.099,1.046,52.0,128.0
55225,-0.171,-0.974,0.150,0.489,-2.687,0.412,51.0,127.0
55273,-0.168,-0.969,0.131,0.015,0.405,0.870,52.0,128.0
55321,-0.182,-0.977,0.151,-0.084,2.420,1.458,51.0,128.0
55368,-0.184,-0.970,0.166,-0.214,-0.405,0.382,51.0,128.0
55416,-0.173,-0.975,0.141,-0.344,-0.695,1.275,52.0,128.0
55464,-0.173,-0.983,0.154,-0.260,2.115,1.496,51.0,129.0
55516,-0.185,-0.977,0.160,0.198,1.153,0.947,51.0,129.0
55564,-0.183,-0.974,0.159,-0.137,-1.275,0.473,52.0,129.0
55612,-0.167,-0.973,0.142,-0.511,-1.191,0.565,52.0,129.0
55660,-0.166,-0.971,0.153,-0.885,0.771,2.000,52.0,128.0
55713,-0.168,-0.983,0.146,-0.656,1.603,0.382,69.0,0.0
55762,-0.180,-0.973,0.150,-0.695,1.565,-0.076,69.0,129.0
55812,-0.188,-0.980,0.157,-1.023,-1.496,0.519,69.0,130.0
55861,-0.170,-0.983,0.151,-0.893,0.137,0.954,69.0,129.0
55910,-0.182,-0.979,0.162,0.389,3.275,1.328,69.0,129.0
55962,-0.195,-0.969,0.172,0.748,0.458,1.664,69.0,130.0
56010,-0.177,-0.979,0.156,0.748,-3.206,0.061,69.0,129.0
56059,-0.169,-0.971,0.136,0.908,0.481,1.252,52.0,130.0
56108,-0.190,-0.969,0.164,0.069,-0.450,1.092,51.0,131.0
56156,-0.175,-0.977,0.144,-0.206,-3.344,0.718,51.0,130.0
56204,-0.173,-0.973,0.150,-0.237,-0.137,1.992,51.0,130.0
56252,-0.186,-0.984,0.166,-0.084,-1.626,1.267,52.0,131.0
56301,-0.181,-0.982,0.160,0.908,-0.160,2.359,71.0,130.0
56349,-0.181,-0.976,0.158,1.214,-0.634,1.053,51.0,130.0
56400,-0.180,-0.973,0.149,1.634,0.481,2.565,51.0,129.0
56449,-0.185,-0.987,0.149,1.634,-0.603,1.756,51.0,127.0
56497,-0.183,-0.972,0.149,1.580,0.481,1.916,57.0,127.0
56545,-0.183,-0.982,0.152,1.137,0.290,1.374,52.0,128.0
56594,-0.185,-0.973,0.161,1.176,1.275,1.275,69.0,127.0
56643,-0.191,-0.967,0.161,1.420,2.137,1.412,69.0,128.0
56692,-0.179,-0.969,0.156,1.046,1.313,0.977,71.0,127.0
56741,-0.182,-0.969,0.154,0.252,1.099,0.565,69.0,127.0
56791,-0.190,-0.968,0.151,-0.588,1.779,0.756,70.0,127.0
56843,-0.182,-0.965,0.165,-1.382,1.206,0.298,69.0,128.0
56892,-0.192,-0.987,0.167,-1.084,2.679,0.374,52.0,128.0
56940,-0.195,-0.974,0.181,-0.122,0.794,-0.878,52.0,126.0
56988,-0.184,-0.980,0.167,0.519,0.359,0.198,52.0,127.0
57037,-0.186,-0.979,0.156,1.321,4.374,-0.061,70.0,126.0
57086,-0.189,-0.961,0.152,1.611,3.008,0.679,70.0,126.0
57136,-0.195,-0.984,0.154,-0.122,-1.153,-0.672,70.0,127.0
57184,-0.174,-0.951,0.139,-0.473,0.252,-0.725,52.0,127.0
57232,-0.197,-0.976,0.151,-1.634,2.626,1.000,52.0,127.0
57283,-0.204,-0.982,0.172,-0.870,-0.908,-0.344,53.0,128.0
57336,-0.193,-0.977,0.168,-0.740,-0.092,-0.427,52.0,0.0
57389,-0.199,-0.975,0.156,0.313,-0.679,0.901,53.0,0.0
57441,-0.179,-0.971,0.157,-0.183,1.053,1.519,52.0,0.0
57494,-0.191,-0.982,0.156,0.023,0.405,1.489,52.0,0.0
57542,-0.189,-0.969,0.162,-1.359,-2.260,0.076,52.0,129.0
57590,-0.177,-0.971,0.158,-0.389,0.603,0.908,51.0,128.0
57638,-0.196,-0.980,0.169,0.107,1.328,1.290,51.0,127.0
57731,-0.178,-0.963,0.148,-0.015,-1.076,0.168,52.0,128.0
57782,-0.181,-0.985,0.164,-0.221,0.168,0.840,51.0,126.0
57830,-0.185,-0.969,0.157,-0.099,0.985,0.687,51.0,128.0
57878,-0.204,-0.972,0.167,-0.397,0.069,1.015,51.0,127.0
57927,-0.187,-0.975,0.156,0.420,-1.649,0.313,51.0,126.0
57975,-0.171,-0.977,0.158,0.183,2.565,1.198,52.0,128.0
58029,-0.198,-0.981,0.161,0.282,1.046,1.183,52.0,126.0
58076,-0.186,-0.966,0.154,0.183,-0.824,-0.397,51.0,126.0
58123,-0.183,-0.974,0.158,-0.046,-1.069,-0.092,52.0,126.0
58171,-0.185,-0.968,0.158,-0.740,0.366,0.534,52.0,128.0
58220,-0.188,-0.970,0.156,-0.725,-0.771,0.779,51.0,126.0
58268,-0.181,-0.980,0.158,-1.282,-0.748,0.557,52.0,126.0
58315,-0.183,-0.976,0.166,-1.115,-0.443,-0.458,52.0,127.0
58362,-0.174,-0.967,0.164,-0.443,1.878,-0.565,51.0,128.0
58409,-0.194,-0.967,0.181,-0.107,1.053,0.687,52.0,126.0
58458,-0.187,-0.976,0.159,-0.214,-1.794,-0.443,52.0,126.0
58505,-0.177,-0.962,0.139,0.435,2.176,0.313,53.0,126.0
58552,-0.204,-0.969,0.155,-0.221,3.672,2.221,53.0,125.0
58599,-0.195,-0.977,0.156,-0.473,-1.725,1.145,53.0,126.0
58649,-0.173,-0.971,0.144,-0.832,1.397,2.099,53.0,126.0
58697,-0.193,-0.974,0.155,-0.450,2.656,1.977,52.0,126.0
58744,-0.194,-0.974,0.157,-0.076,0.336,2.244,53.0,126.0
58791,-0.177,-0.982,0.161,-0.481,-1.153,1.527,53.0,125.0
58839,-0.178,-0.973,0.157,0.351,1.023,0.641,53.0,125.0
58887,-0.195,-0.967,0.155,-0.176,1.290,1.107,53.0,126.0
58934,-0.189,-0.976,0.156,-0.412,-0.267,-0.122,53.0,125.0
58981,-0.191,-0.969,0.156,-0.855,-0.519,0.481,52.0,124.0
59029,-0.194,-0.975,0.148,-0.519,1.595,0.611,53.0,125.0
59079,-0.197,-0.965,0.156,0.557,0.527,1.664,53.0,125.0
59126,-0.197,-0.979,0.143,-0.962,-0.229,3.122,53.0,125.0
59173,-0.175,-0.975,0.147,-0.542,1.130,2.397,53.0,126.0
59222,-0.192,-0.970,0.157,-0.382,3.733,2.855,53.0,126.0
59269,-0.200,-0.984,0.178,-0.153,-1.115,1.176,52.0,126.0
59316,-0.171,-0.974,0.134,0.260,-1.336,-1.061,52.0,127.0
59364,-0.190,-0.971,0.153,-0.229,1.656,0.511,53.0,127.0
59411,-0.193,-0.980,0.158,0.359,-0.832,-0.504,53.0,127.0
59462,-0.184,-0.978,0.138,0.191,-1.038,-2.160,53.0,126.0
59509,-0.189,-0.965,0.156,-1.084,1.351,-0.588,53.0,127.0
59556,-0.198,-0.981,0.169,-0.389,-1.328,-0.832,53.0,126.0
59604,-0.172,-0.973,0.145,-0.573,0.313,-1.595,52.0,126.0
59652,-0.207,-0.977,0.170,-0.565,0.382,0.160,54.0,126.0
59700,-0.186,-0.973,0.152,-0.237,-2.740,-1.656,52.0,127.0
59747,-0.167,-0.969,0.161,0.557,-0.038,0.275,53.0,127.0
59795,-0.185,-0.980,0.153,0.176,0.321,0.198,52.0,127.0
59842,-0.188,-0.975,0.153,0.756,-0.168,0.534,53.0,127.0
59893,-0.183,-0.981,0.156,0.031,0.069,0.282,53.0,126.0
59940,-0.179,-0.967,0.150,0.565,1.695,1.275,53.0,127.0
59988,-0.192,-0.968,0.160,-0.069,-0.336,1.863,53.0,126.0
60036,-0.170,-0.973,0.137,-0.176,-0.733,1.977,52.0,127.0
60084,-0.182,-0.981,0.160,-0.817,1.496,2.076,53.0,129.0
60175,-0.175,-0.968,0.173,-0.603,-1.275,0.840,52.0,129.0
60223,-0.171,-0.988,0.155,-0.321,0.031,-0.061,54.0,129.0
60274,-0.175,-0.966,0.152,1.198,4.374,1.519,53.0,0.0
60324,-0.202,-0.986,0.158,-0.313,-0.672,1.260,52.0,166.0
60376,-0.162,-0.966,0.152,-0.237,1.008,1.191,53.0,128.0
60426,-0.190,-0.975,0.156,0.145,4.618,1.863,53.0,166.0
60474,-0.192,-0.980,0.154,0.542,2.374,1.412,53.0,128.0
60521,-0.201,-0.978,0.164,1.107,1.908,1.031,53.0,127.0
60569,-0.195,-0.977,0.152,1.107,-0.038,0.366,53.0,128.0
60616,-0.190,-0.968,0.147,1.244,1.191,0.977,53.0,127.0
60664,-0.198,-0.971,0.145,0.382,-0.183,2.305,53.0,127.0
60712,-0.186,-0.965,0.132,-0.489,-0.534,1.351,53.0,127.0
60760,-0.194,-0.969,0.154,-0.916,0.481,1.771,53.0,127.0
60811,-0.196,-0.979,0.166,-1.595,-1.542,2.061,54.0,127.0
60859,-0.184,-0.975,0.156,-0.588,0.397,1.573,54.0,127.0
60907,-0.204,-0.974,0.176,0.328,0.321,2.489,54.0,126.0
60954,-0.195,-0.982,0.160,0.687,-0.954,1.840,53.0,129.0
61002,-0.188,-0.966,0.150,1.359,1.611,2.557,53.0,127.0
61050,-0.202,-0.970,0.170,0.382,0.695,3.183,54.0,128.0
61099,-0.187,-0.972,0.147,0.374,-1.351,2.405,53.0,127.0
61146,-0.190,-0.971,0.151,-0.145,0.252,1.344,53.0,127.0
61194,-0.200,-0.963,0.164,0.198,1.153,1.137,53.0,127.0
61254,-0.208,-0.981,0.160,-0.511,-3.466,1.802,53.0,126.0
61304,-0.190,-0.964,0.148,0.672,0.519,0.450,53.0,127.0
61355,-0.220,-0.963,0.176,0.504,0.672,1.611,54.0,128.0
61405,-0.203,-0.967,0.158,0.847,-2.527,0.481,53.0,128.0
61455,-0.180,-0.963,0.143,0.557,0.779,1.336,53.0,128.0
61505,-0.206,-0.960,0.168,0.145,1.511,1.786,53.0,127.0
61555,-0.200,-0.976,0.154,-0.603,-3.084,-0.137,54.0,127.0
61606,-0.178,-0.958,0.152,0.153,3.588,1.008,53.0,127.0
61657,-0.219,-0.973,0.182,-0.435,-0.282,-0.092,54.0,126.0
61710,-0.182,-0.968,0.147,0.626,-1.252,-0.695,54.0,127.0
61760,-0.198,-0.965,0.157,-0.084,2.832,-0.626,53.0,128.0
61811,-0.220,-0.963,0.165,0.176,0.351,0.313,53.0,126.0
61870,-0.200,-0.970,0.146,-0.725,-0.908,0.840,71.0,126.0
61920,-0.208,-0.964,0.159,-0.672,2.008,0.878,57.0,127.0
61970,-0.212,-0.977,0.160,-0.794,-0.153,1.031,54.0,127.0
62019,-0.193,-0.977,0.160,-0.580,-1.794,0.748,53.0,126.0
62069,-0.191,-0.978,0.164,0.076,2.382,0.847,53.0,127.0
62118,-0.201,-0.974,0.173,0.481,0.397,0.191,54.0,125.0
62172,-0.203,-0.975,0.150,0.099,-0.260,0.183,54.0,126.0
62221,-0.197,-0.964,0.161,0.168,-0.321,-0.221,54.0,126.0
62271,-0.201,-0.972,0.165,-0.008,2.221,1.031,54.0,125.0
62320,-0.210,-0.979,0.164,0.366,-1.244,0.481,54.0,127.0
62370,-0.192,-0.957,0.144,-0.282,1.931,0.649,54.0,127.0
62420,-0.221,-0.973,0.184,-0.031,0.298,1.550,54.0,127.0
62470,-0.194,-0.975,0.150,0.092,-2.130,0.458,54.0,126.0
62520,-0.193,-0.961,0.167,0.084,1.947,2.603,54.0,126.0
62569,-0.210,-0.974,0.167,0.214,-0.756,-0.580,54.0,126.0
62622,-0.206,-0.961,0.161,-0.733,-1.687,1.122,53.0,126.0
