Timestamp(ms),AccelX(g),AccelY(g),AccelZ(g),GyroX(deg/s),GyroY(deg/s),GyroZ(deg/s),DistanceLeft(cm),DistanceRight(cm)
50944,-0.15,-0.992,0.345,-3.023,-9.687,25.695,62,78
50993,-0.14,-0.888,0.313,-5.305,-18.527,29.588,61,76
51041,-0.208,-0.874,0.358,-9.435,-20.519,37.252,60,76
51093,-0.248,-0.952,0.355,-8.298,-38.573,28,7,197
51138,-0.16,-0.869,0.27,-10.351,-23.443,23.008,7,77
51186,-0.206,-0.883,0.304,-8.344,-6.099,29.084,57,78
51234,-0.241,-0.993,0.316,-1.916,-7.634,28.893,56,79
51281,-0.217,-0.983,0.305,3.588,-12.916,25.122,54,17
51325,-0.196,-0.938,0.301,1.237,-10.176,20.664,58,18
51369,-0.214,-0.974,0.35,-0.092,-13.847,13.611,52,14
51414,-0.166,-1.005,0.31,1.267,-11.176,1.305,51,14
51458,-0.137,-1,0.323,-5.458,5.763,-8.618,50,16
51502,-0.192,-1.082,0.353,-3.206,5.855,-17.725,47,16
51546,-0.124,-1.081,0.313,7.145,11.099,-31.122,46,16
51589,-0.151,-1.092,0.331,5.305,19.786,-34.924,45,14
51633,-0.138,-0.886,0.316,8.412,15.565,-32.916,46,13
51679,-0.062,-0.894,0.283,20.802,12.702,-21.168,46,13
51723,0,-0.915,0.202,24.626,28.71,-21.206,46,14
51767,-0.006,-0.897,0.194,22.282,50.328,-17.023,47,14
51811,-0.092,-0.909,0.251,15.824,54.557,-17.015,49,15
51855,-0.111,-0.823,0.278,7.481,40.725,-19.13,51,15
51899,-0.159,-0.836,0.376,1.366,11.924,-12.71,52,15
51943,-0.14,-0.837,0.386,3.656,-14.634,-16.893,52,17
51988,-0.05,-0.789,0.345,5.45,-14.908,-16.626,52,16
52032,0.004,-0.729,0.354,-2.038,11.786,-6.595,53,16
52079,-0.057,-0.746,0.411,-6.847,28.374,5.565,53,16
52123,-0.084,-0.785,0.437,-5.351,22.137,11.687,53,17
52168,-0.112,-0.868,0.453,-6.756,2.137,8.336,54,22
52212,-0.058,-0.813,0.386,-8.16,-14.626,4.931,54,19
52257,0.004,-0.592,0.286,-4.939,-13.702,19.282,54,19
52302,-0.028,-0.575,0.269,-8.282,-3.519,28.229,56,20
52346,-0.094,-0.762,0.292,-8.42,-4.55,19.901,56,18
52391,-0.084,-0.838,0.263,5.038,-12.084,20.55,57,18
52436,-0.087,-1.056,0.247,11.412,-3.664,30.366,57,18
52484,-0.176,-1.501,0.245,-0.412,35.58,0.954,59,17
52529,-0.262,-1.328,0.315,-2.595,51.008,-23.382,59,19
52574,-0.261,-1.056,0.315,3.573,43.763,-12.947,60,16
52619,-0.288,-1.051,0.361,-11.71,42.481,-0.504,62,16
52664,-0.312,-1.035,0.37,-14.855,22.084,-13.511,64,15
52709,-0.292,-0.904,0.343,-0.458,0.183,-21.099,66,14
52754,-0.186,-0.739,0.251,7.382,8.718,-15.382,67,14
52799,-0.195,-0.714,0.245,5.786,36.008,-4.16,67,14
52844,-0.224,-0.719,0.272,8.565,48.969,-2.954,72,13
52884,-0.275,-0.783,0.316,11.771,48.618,-6.832,16,13
52929,-0.313,-0.866,0.357,11.45,35.313,-16.611,70,16
52975,-0.284,-0.867,0.405,6.397,9.878,-26.519,77,16
53020,-0.172,-0.982,0.356,7.42,-8.382,-26.656,76,16
53066,-0.136,-1.346,0.331,-14.71,4.206,-46.466,74,16
53112,-0.109,-1.477,0.384,-42.71,21.443,-62.344,73,17
53157,-0.082,-0.856,0.471,-33.183,-2.962,-15.427,72,17
53246,-0.061,-0.894,0.3,0.573,-50.29,6.519,71,16
53297,0.037,-0.775,0.208,5.359,-11.756,-16.008,70,42
53342,0.01,-0.694,0.288,-3.542,18.809,6.824,69,16
53387,-0.086,-0.846,0.417,-14.824,8.206,20.634,68,16
53432,-0.125,-0.965,0.339,-0.412,-30.779,23.351,68,16
53478,-0.018,-0.766,0.231,19.84,-44.863,20.527,74,14
53523,0.041,-0.681,0.134,16.427,-17.992,24.977,74,14
53569,0.017,-0.688,0.127,5.481,19.092,31.214,72,14
53614,-0.11,-0.883,0.181,-0.45,28.763,32.382,72,15
53660,-0.157,-1.174,0.18,-1.939,14.718,26.382,72,12
53708,-0.121,-1.248,0.111,-0.939,15.206,7.519,71,14
53753,-0.182,-1.32,0.148,-9.435,23.672,-12.809,71,16
53799,-0.212,-1.055,0.202,-5.84,12.198,-20.145,71,15
53846,-0.092,-0.808,0.18,-1.481,10.786,1,72,16
53891,-0.158,-0.866,0.209,-5.504,29.786,-2.008,72,16
53937,-0.268,-0.966,0.271,3.511,30.71,-11.115,74,16
53983,-0.267,-0.968,0.165,27.74,19.023,-3.74,79,20
54029,-0.216,-0.9,0.119,26.427,49.443,7.603,79,17
54075,-0.276,-0.889,0.202,11.809,78.244,3.313,79,18
54124,-0.339,-0.892,0.295,0.244,72.725,-10.878,89,17
54171,-0.347,-0.899,0.35,-6.298,38.947,-20,88,17
54219,-0.307,-0.991,0.324,-11.588,6.053,-28.359,98,24
54266,-0.269,-1.082,0.357,-25.282,-12.076,-37.84,97,17
54313,-0.216,-1.026,0.382,-27.885,-35.252,-29.534,94,16
54361,-0.162,-1.132,0.345,-18.481,-52.695,-18.382,92,17
54407,-0.106,-1.007,0.298,-14.298,-48.809,-21.321,91,16
54454,-0.035,-0.867,0.227,-5.588,-31,-10.313,88,18
54501,-0.058,-0.814,0.281,-1.496,-11.794,5.092,85,18
54549,-0.092,-0.84,0.328,-0.389,-14.603,14.206,73,17
54595,-0.085,-0.849,0.333,10.466,-34.511,22.427,72,23
54641,-0.059,-0.765,0.288,17.008,-49.168,29.366,72,17
54687,-0.04,-0.736,0.205,19.878,-50.824,31.145,70,15
54733,-0.006,-0.724,0.129,21.649,-40.588,28.351,76,16
54778,-0.005,-0.975,0.038,24.74,-14.496,25.511,74,15
54824,-0.107,-1.158,0.039,28.748,-2.405,12.962,71,12
54871,-0.109,-1.225,0.009,15.656,15.939,-2.473,70,23
54919,-0.13,-1.143,0.053,-5.489,38.916,-17.924,68,12
54965,-0.123,-0.963,0.12,-12.595,43.16,-10.771,70,12
55010,-0.212,-0.965,0.251,-21.863,31.122,-8,73,13
55056,-0.267,-1.011,0.292,-13.679,-6.359,-17.252,74,16
55102,-0.12,-0.846,0.174,4.71,-18.214,-13.733,73,12
55148,-0.064,-0.837,0.107,4.802,22.031,-9.008,80,13
55194,-0.161,-0.892,0.165,0.55,68.916,-13.092,90,13
55241,-0.245,-0.866,0.251,-1.084,83.023,-15.42,90,15
55289,-0.268,-0.813,0.312,-2.427,63.931,-10.237,102,16
55340,-0.264,-1.061,0.349,-10.595,36.237,-15.435,101,16
55388,-0.247,-1.249,0.371,-19.687,9.893,-31.099,107,17
55436,-0.15,-1.18,0.351,-18.573,-14.122,-25.244,97,20
55486,-0.106,-0.978,0.39,-15.695,-42.13,8.626,113,58
55535,-0.171,-1.077,0.379,-14.466,-63.122,2.733,113,22
55625,0.031,-0.711,0.239,6.13,-32.015,6.634,98,17
55672,-0.062,-0.7,0.285,-0.275,-13.282,27.168,88,17
55719,-0.135,-0.831,0.325,0.008,-21.603,22.656,86,17
55766,-0.143,-0.921,0.255,8.137,-44.191,10.45,83,17
55816,-0.044,-0.718,0.143,16.252,-41.832,16.992,83,16
55862,-0.068,-0.716,0.103,12.771,-30.466,38.611,82,13
55908,-0.149,-1.023,0.088,10.771,-31.229,44.344,81,12
55954,-0.116,-1.217,-0.029,17.458,-19.893,28.267,81,10
56011,-0.072,-1.176,-0.043,21.504,20.16,8.244,86,0
56058,-0.09,-1.111,0.039,12.832,58.565,6.55,83,16
56105,-0.192,-1.265,0.142,-9.008,79.725,-9.229,86,20
56152,-0.283,-0.929,0.282,-14.382,46.061,-13.405,86,17
56202,-0.25,-0.865,0.265,-10.847,-3.321,-13.061,86,21
56255,-0.262,-0.854,0.183,-6.931,-16.206,-23.313,87,124
56302,-0.206,-0.817,0.116,4.275,5.588,-16.328,86,17
56349,-0.189,-0.796,0.064,7.924,39.298,-12.824,94,17
56397,-0.273,-0.822,0.148,5.809,63.618,-11.076,95,23
56445,-0.3,-0.83,0.238,5.809,57.45,-9.573,102,25
56494,-0.271,-0.971,0.267,5.824,41.687,-12.954,105,17
56543,-0.236,-1.171,0.293,-3.183,29.466,-27.55,106,42
56591,-0.221,-1.244,0.407,-16.84,8.588,-31.183,106,16
56642,-0.176,-1.188,0.39,-10.832,-27.496,-13.809,109,18
56700,-0.123,-0.91,0.357,-6.58,-43.977,-2.168,92,0
56755,-0.114,-0.858,0.286,-4.366,-38.687,-1.031,103,128
56803,-0.14,-0.84,0.328,-4.931,-36.954,-5.092,101,23
56857,-0.165,-0.864,0.354,0.16,-58.336,3.687,99,17
56903,-0.103,-0.827,0.284,11.473,-70.641,16.969,88,16
56949,-0.039,-0.813,0.168,20.84,-59.137,24.878,87,17
56995,-0.017,-0.729,0.128,24.244,-30.26,29.603,84,23
57041,-0.013,-0.8,0.049,27.473,1.275,32.725,83,17
57091,-0.049,-0.91,0.052,23.214,32.733,32.351,82,16
57136,-0.091,-0.987,0.048,12.977,44.885,26.733,82,14
57185,-0.141,-1.197,0.071,-2.298,47.344,7.267,81,69
57231,-0.173,-1.136,0.117,-10.802,29.992,-14.824,82,17
57277,-0.154,-1.23,0.105,-19.061,11.015,-25.924,84,18
57324,-0.146,-1.001,0.164,-26.275,5.87,-30.725,108,19
57371,-0.177,-0.777,0.23,-27.511,-8.359,-18.565,88,19
57418,-0.182,-0.848,0.18,-16.191,-8.779,-22.359,109,19
57468,-0.138,-0.825,0.1,1.389,19.053,-21.046,91,21
57516,-0.15,-0.908,0.09,16.038,60.145,-18.015,117,20
57565,-0.178,-0.891,0.171,23.924,93.969,-7.985,121,23
57612,-0.213,-1.115,0.295,20.641,95.092,11.351,92,24
57659,-0.32,-1.358,0.418,6.58,60.084,-0.557,96,27
57708,-0.351,-1.166,0.537,-15.924,-7.595,-19.763,120,30
57756,-0.296,-1.026,0.445,-16.405,-86.977,-12.481,119,17
57804,-0.136,-0.979,0.234,-6.313,-103.763,-9.496,120,17
57856,-0.011,-0.715,0.167,-3.84,-52.588,-2.389,166,21
57907,-0.127,-0.696,0.308,-12.13,-11.679,19.069,113,23
57954,-0.242,-0.722,0.399,-12.412,-32.588,27.466,112,16
58002,-0.232,-0.714,0.298,-0.885,-74.191,30.924,110,16
58092,-0.122,-0.761,0.079,2.145,-50.687,28.29,109,17
58140,-0.13,-0.916,0.04,2.198,-39.237,41.244,108,12
58187,-0.113,-1.257,-0.07,3.122,-24.588,36.176,111,12
58234,-0.143,-1.478,-0.064,6.427,4.336,6.656,113,13
58285,-0.123,-1.172,0.044,17.924,13.298,4.588,153,14
58333,-0.093,-1.067,0.089,8.588,28.038,16.031,115,16
58385,-0.187,-0.899,0.202,-4.046,39.702,9.313,143,16
58434,-0.286,-0.863,0.327,4.603,17.878,-2.099,141,12
58484,-0.291,-0.803,0.218,19.466,1.237,-0.634,140,28
58533,-0.283,-0.738,0.153,22.092,17.962,3.794,139,16
58583,-0.385,-0.776,0.209,15.053,30.344,0.985,146,16
58631,-0.476,-0.817,0.281,7.901,9.771,-7.756,119,16
58679,-0.456,-0.955,0.352,-2.534,-17.053,-18.366,123,16
58729,-0.397,-1.217,0.412,-13.794,-29.443,-35.412,136,16
58780,-0.47,-1.23,0.575,-24.534,-60.076,-40.137,133,16
58830,-0.392,-1.027,0.569,-20.336,-102.504,-11.412,144,17
58880,-0.281,-0.991,0.26,-12.748,-153.382,-0.664,141,17
58933,-0.178,-0.926,0.195,-6.389,-131.389,-10.191,0,16
58990,-0.081,-0.745,0.154,-1.275,-87.908,-7.466,0,18
59043,-0.156,-0.649,0.263,-9.45,-63.046,10.046,0,21
59097,-0.23,-0.786,0.281,-7.351,-84.221,12.763,0,23
59150,-0.132,-0.814,0.209,3.679,-102.198,12.847,0,26
59204,-0.038,-0.711,0.147,8.168,-81.962,27.618,0,31
59260,-0.071,-0.681,0.173,-0.771,-49.26,43.031,0,33
59315,-0.118,-0.73,0.185,-3.901,-45.588,43.282,0,37
59369,-0.135,-1.027,0.082,0.809,-46.962,42.023,0,40
59424,-0.147,-1.371,-0.021,-0.099,-16.893,28.282,0,45
59479,-0.233,-1.564,-0.001,-8.611,18.687,-5.008,0,44
59533,-0.214,-1.176,0.091,-19.076,15.336,-4.412,0,47
59588,-0.28,-1.066,0.267,-52.595,-6.267,9.695,0,48
59643,-0.304,-0.949,0.39,-33.069,-70.313,-1.16,0,48
59698,-0.18,-0.748,0.335,-1.702,-83.267,4,0,47
59756,-0.092,-0.571,0.242,15.595,-48.847,26.779,0,49
59810,-0.231,-0.869,0.211,15.16,-14.855,20.649,0,50
59866,-0.363,-0.932,0.243,15.878,-24.313,-11.58,0,53
59922,-0.309,-0.868,0.223,14.16,-50.878,-27.053,0,56
59975,-0.221,-0.856,0.224,3.42,-56.076,-25.748,0,35
60029,-0.196,-1.143,0.229,-13.718,-42.832,-30.924,0,31
60084,-0.12,-1.364,0.34,-29.901,-42.366,-38.267,0,31
60138,-0.226,-1.264,0.72,-32.626,-71.397,-3.84,0,36
60203,-0.079,-1.3,0.417,0.748,-162.282,32.595,0,163
60256,0.091,-0.661,0.192,20.244,-103.565,31.26,0,18
60309,-0.007,-0.37,0.2,3.71,-49.519,34.099,0,17
60362,-0.163,-0.455,0.245,-11.351,-47.695,29.489,0,17
60418,-0.25,-0.896,0.221,-12.214,-75.74,12.748,0,58
60472,-0.231,-1.188,0.115,-4.771,-79.985,1.603,0,35
60526,-0.315,-1.173,0.209,9.115,-101.992,32.71,0,35
60575,-0.307,-1.328,0.133,19.55,-131.618,25.26,99,37
60623,-0.191,-1.131,0.061,36.748,-131.924,23.221,96,39
60675,-0.146,-0.806,0.173,31.336,-108.145,39.87,95,42
60767,-0.232,-0.803,0.296,43.046,-145.221,51.634,94,49
60816,-0.178,-0.848,0.279,55.893,-154.435,53.45,95,53
60865,-0.131,-0.866,0.357,58.969,-143.29,54.511,88,58
60915,-0.147,-0.881,0.505,53.992,-131.466,53.099,85,74
60965,-0.035,-0.872,0.52,45.015,-117.107,34.977,91,78
61025,-0.013,-0.743,0.647,23.092,-99.519,31.473,0,120
61084,-0.058,-0.728,0.763,19.496,-130.252,51.336,0,115
61131,0.09,-0.839,0.522,16.359,-135.847,47.481,9,116
61188,-0.036,-1.035,0.559,-21.275,-80.038,41.718,11,0
61247,-0.135,-1.139,0.663,-16.405,-99.069,51.29,184,138
61309,0.027,-0.965,0.507,-1.817,-113.023,72.893,184,0
61372,-0.021,-0.721,0.523,-7.092,-99.336,85.817,170,0
61422,-0.088,-0.695,0.532,-4.557,-132.817,90.176,9,154
61471,-0.014,-0.703,0.421,1.863,-130.328,92.84,7,136
61528,-0.068,-0.771,0.38,0.427,-104.969,86.382,170,109
61586,-0.089,-0.877,0.357,-2.183,-71.107,74.985,190,105
61636,-0.231,-1.027,0.407,-9.87,-57.221,61.229,11,103
61692,-0.264,-1.057,0.406,-6.786,-66.359,57.527,173,102
61751,-0.157,-1.038,0.299,-21.412,-45.313,39.115,188,102
61808,-0.222,-0.936,0.369,-30.817,-30.336,31.863,187,107
61856,-0.132,-0.865,0.337,-45.565,-22.916,29.344,16,104
61914,-0.229,-0.951,0.424,-61.374,-20.092,19.824,186,105
61968,-0.106,-0.927,0.35,-66.374,-20.733,13.076,110,110
62023,-0.195,-1.032,0.318,-61.458,-13.817,14.351,122,121
62076,-0.144,-0.956,0.269,-51.855,-11.344,6.511,109,110
62137,-0.22,-1.03,0.278,-35.305,-28.58,4.26,180,113
62191,-0.11,-0.897,0.22,-24.221,-22.656,-4.473,104,115
62244,-0.157,-0.879,0.272,-29.611,1.145,-4.191,101,117
62299,-0.19,-0.912,0.302,-23.023,-7.008,-10.641,106,123
62354,-0.167,-0.891,0.274,-14.908,-16.664,-13.542,98,156
62409,-0.14,-1.115,0.232,-10.183,-21.679,-15.84,93,138
62465,-0.144,-1.65,0.112,-23.84,-5.802,-43.221,93,164
62521,-0.133,-1.678,0.038,-27.573,-3.397,-43.511,89,167
62578,0.039,-1.399,-0.123,-14.298,-1.672,-35.618,87,143
62635,0.216,-0.909,-0.248,12.221,30.061,-35.45,89,173
62690,0.335,-0.585,-0.245,15.611,59.221,-17.13,86,162
62744,0.24,-0.871,-0.182,-9.489,91.947,-16.168,83,155
62799,0.231,-0.785,0.002,-9.687,80.771,-6.634,85,156
62855,0.247,-0.695,0.101,0.214,56.275,1.275,93,157
62910,0.198,-0.632,0.093,8.656,58.366,-5.962,93,158
62967,0.078,-0.716,0.108,2.947,79.687,-4.351,115,167
63023,-0.026,-0.841,0.183,-6.779,78.611,2.069,98,157
63082,-0.061,-0.902,0.279,-9.992,50.298,6.84,104,158
63138,-0.044,-0.889,0.346,-14.221,10.405,10.397,103,172
63196,0.074,-0.922,0.31,-5.992,-17.855,7.893,100,174
63252,0.199,-0.918,0.227,6.908,-10.29,5.26,98,175
63309,0.227,-0.983,0.131,-5.336,27.16,4.489,93,178
63365,0.184,-1.1,0.003,-14.542,56.26,8.527,84,174
63421,0.186,-1.543,-0.181,-8.855,79.893,9.069,80,176
63476,0.145,-1.154,-0.058,-9.802,118.511,8.634,76,179
63580,0.12,-1.055,0.041,18.076,69.305,31.16,72,0
63636,0.119,-0.938,0.032,25.466,84.977,11.893,70,0
63698,-0.043,-0.945,0.155,2.55,83.756,9.71,69,0
63755,-0.133,-0.896,0.235,1.756,55.489,2.313,68,0
63810,-0.085,-0.672,0.184,6.321,26.382,10.611,67,0
63865,-0.077,-0.65,0.148,-0.313,35.107,15.351,66,0
63921,-0.13,-0.758,0.167,-0.221,46.115,12.947,64,0
63976,-0.113,-1.061,0.129,0.237,45.527,3.901,63,0
64031,-0.109,-1.427,0.08,-3.641,45.321,-4.733,61,0
64087,-0.084,-1.545,0.067,-6.565,35.198,-5.137,59,0
64145,0.006,-1.396,-0.02,-5.924,29.137,-3.397,58,0
64199,0.04,-1.313,-0.033,-17.344,39.481,-28.282,57,0
64254,0.176,-0.719,-0.02,14.382,41.534,-27.092,58,0
64310,0.228,-0.51,0.023,22.725,61.466,-2.832,57,0
64364,0.103,-0.577,0.122,18.74,90.763,-10.16,50,0
64420,-0.031,-0.809,0.186,21.359,98.061,-17.153,68,0
64473,-0.121,-0.869,0.286,15.328,94.527,-14.107,72,144
64526,-0.212,-0.958,0.325,11.053,78.771,8.626,74,137
64579,-0.3,-0.946,0.429,2.916,47.878,17.74,79,101
64629,-0.234,-0.848,0.36,3.443,12.26,27.519,79,103
64680,-0.122,-0.724,0.261,-6.26,8.313,45.298,79,106
64733,-0.17,-1.04,0.195,-33.962,19.504,38.504,85,109
64784,-0.231,-1.388,0.091,-42.847,11.641,1.634,83,113
64836,-0.228,-0.966,0.132,-21.412,-36.786,11.496,83,120
64892,-0.173,-0.909,-0.042,-3.412,-84.931,20.748,74,0
64949,-0.054,-0.979,-0.225,-3.229,-55.076,8.092,72,0
65004,-0.095,-0.859,-0.106,-13.084,-6.466,-2.344,66,0
65063,-0.197,-0.769,0.056,-18.198,-3.87,-1.42,71,0
65120,-0.239,-0.765,0.133,-13.458,-35.458,-0.611,83,0
65166,-0.152,-0.804,0.064,1.305,-52.824,10.985,71,22
65221,-0.088,-1.037,-0.024,7.565,-31.908,10.687,67,0
65266,-0.104,-1.587,-0.086,0.74,7.046,-3.145,64,21
65311,-0.134,-1.683,-0.13,3.16,21.702,-16.374,63,20
65356,-0.167,-1.588,-0.073,0.282,14.076,-23.939,63,19
65402,-0.134,-1.248,-0.026,3.168,1.802,-34.733,63,20
65447,-0.082,-0.912,-0.011,10.229,-0.206,-37.863,63,22
65496,0.068,-0.561,-0.029,30.565,5.802,-18.656,63,20
65541,0.101,-0.462,-0.025,36.229,41.573,-6,65,21
65587,0.016,-0.58,0.042,21.702,76.924,-7.229,72,23
65633,-0.086,-0.698,0.109,11.672,77.863,-11.481,83,21
65679,-0.161,-0.869,0.191,3.382,52.656,-19.42,78,21
65724,-0.158,-0.877,0.245,-4.374,23.137,-28.008,57,23
65769,-0.194,-1.025,0.272,-8.695,-1.275,-25.427,58,23
65814,-0.183,-1.041,0.27,-1.748,-15.504,-18.214,58,24
65865,-0.146,-1,0.257,3,-12.908,-4.336,58,131
65913,-0.128,-0.884,0.24,-0.374,1.641,12.321,53,25
65958,-0.138,-0.953,0.222,-2.534,10.679,25.29,54,27
66003,-0.156,-1.119,0.163,-1.969,11.527,29.611,51,29
66049,-0.172,-1.154,0.126,-5.13,8.366,26.198,50,31
66095,-0.176,-0.859,0.225,-7.565,-16.695,40.542,83,22
66184,-0.144,-0.908,0.085,3.107,-53.389,17.626,79,27
66231,-0.116,-0.818,0.057,3.557,-55.229,11.672,72,29
66277,-0.112,-0.846,0.041,-2.511,-47.786,5.794,69,34
66326,-0.14,-0.879,0.077,-12.069,-42.313,-2.466,61,36
66372,-0.134,-1.053,0.072,-13.435,-55.863,-3.916,59,38
66418,-0.101,-1.178,0.024,-6.55,-63.679,-3.878,58,41
66465,-0.075,-1.318,-0.045,-4.198,-62.763,-7.901,57,44
66511,-0.008,-1.246,-0.107,-2.794,-44.237,-6.878,57,48
66558,0.015,-1.32,-0.146,-7.992,-22.26,-9.427,55,51
66604,0.069,-1.158,-0.116,-9.328,19.328,-26.672,55,26
66649,0.064,-0.772,0.033,-7.626,38.076,-27.16,54,26
66694,0.095,-0.633,0.151,-5.702,25.794,-17.183,54,28
66741,0.087,-0.682,0.168,8.359,16.71,-24.618,44,27
66786,0.097,-0.725,0.187,8.435,31.458,-36.435,45,30
66831,0.026,-0.825,0.208,2.58,48.481,-35.603,46,29
66876,-0.033,-0.899,0.265,-1.695,54.565,-26.664,55,27
66921,-0.093,-1.04,0.26,-3.756,50.87,-13.756,49,30
66966,-0.123,-1.052,0.31,4.069,32.55,-13.29,45,28
67011,-0.073,-1.009,0.268,7.046,16.282,-4.87,45,37
67056,-0.047,-0.953,0.254,0.878,19.458,8.84,49,29
67101,-0.06,-0.889,0.272,-6.313,21.336,23.267,47,29
67149,-0.112,-1.059,0.274,-14.573,10.405,29.634,47,30
67194,-0.159,-1.208,0.271,-21.947,-0.229,20.16,41,32
67239,-0.156,-0.928,0.281,-10.351,-26.58,23.733,42,36
67284,-0.158,-0.845,0.257,3.435,-55.176,33.473,42,36
67331,-0.153,-0.947,0.149,12.206,-72.863,30.313,65,28
67377,-0.113,-0.926,0.044,21.641,-66.542,28.748,65,25
67422,-0.119,-0.837,0.049,17.687,-48.305,26.924,58,26
67467,-0.169,-0.887,0.101,8.359,-40.267,23.496,56,25
67512,-0.231,-1.029,0.152,4.702,-55.519,11.595,54,25
67560,-0.125,-1.237,0.017,13.115,-68.779,10.962,53,26
67606,0.007,-1.372,-0.119,20.176,-44.58,19.695,52,34
67651,0.042,-1.263,-0.082,9.16,5.435,28.282,51,16
67695,-0.073,-1.218,-0.015,-5.847,32.901,15.977,51,17
67740,-0.033,-1.066,-0.008,-17.107,32.534,-11.458,51,28
67786,0.024,-1.013,-0.054,-21.924,30.786,-42.305,51,30
67831,0.112,-0.817,0.022,-8.344,38.389,-40.634,51,29
67877,0.14,-0.744,0.056,10.26,61.16,-20.519,57,28
67926,0.052,-0.721,0.15,9.015,89.336,-14.015,59,29
67971,-0.067,-0.846,0.248,5.092,88.718,-27.198,42,35
68017,-0.151,-0.907,0.308,6.519,71.466,-41.527,46,36
68062,-0.229,-1.01,0.318,0.908,54.176,-44.427,45,35
68107,-0.25,-0.984,0.357,-6.206,38.374,-38.557,45,35
68153,-0.27,-0.951,0.365,-11.153,18.405,-27.649,47,33
68198,-0.25,-0.856,0.347,-15.702,0.954,-11.412,48,35
68243,-0.207,-0.732,0.316,-20.45,-13.786,12.229,48,30
68288,-0.208,-0.934,0.269,-29.802,-18.183,21.481,44,30
68336,-0.275,-1.173,0.285,-32.206,-26.931,11.099,44,18
68380,-0.275,-0.924,0.303,-6.023,-71.55,31.336,43,19
68424,-0.261,-0.901,0.203,21.008,-107.656,45.565,44,17
68512,-0.217,-0.99,0.025,58.244,-116.427,60.588,57,16
68557,-0.183,-0.896,0.08,60.275,-84.229,71.527,54,16
68602,-0.292,-0.982,0.179,55.198,-69.74,75.275,53,17
68647,-0.338,-1.112,0.235,51.656,-79.229,64.924,51,10
68691,-0.315,-1.172,0.237,45.649,-92.565,51.885,51,11
68737,-0.344,-1.359,0.245,36.267,-99.023,39.641,50,17
68784,-0.241,-1.245,0.286,24.214,-82.092,27.954,48,21
68829,-0.211,-1.083,0.327,15.527,-71.649,25.153,49,16
68873,-0.149,-0.955,0.272,7.947,-58.557,18.702,47,16
68918,-0.094,-0.768,0.331,-3.519,-39.122,7.298,48,15
68962,-0.087,-0.725,0.338,-5.565,-22.947,0.863,50,15
69007,-0.12,-0.725,0.442,8.588,-15.985,4.649,53,16
69052,-0.105,-0.664,0.552,26.771,-26.908,12.985,53,16
69097,-0.159,-0.723,0.579,34.832,-41.924,11.695,53,16
69145,-0.081,-0.697,0.592,38.137,-30.275,6.771,54,16
69190,-0.13,-0.738,0.634,34.252,-9.275,3.802,54,17
69234,-0.186,-0.717,0.702,26.137,-5.489,-2.954,40,16
69279,-0.142,-0.653,0.692,18.153,-5.336,-0.511,56,16
69321,-0.148,-0.636,0.697,10.26,-1.344,4.351,16,15
69365,-0.17,-0.624,0.731,7.962,-13.282,8.496,40,15
69408,-0.14,-0.63,0.704,9.962,-21.466,16.489,17,14
69452,-0.148,-0.653,0.674,7.634,-10.573,22.137,38,12
69496,-0.281,-0.789,0.711,-5.489,5.55,18.336,38,12
69549,-0.361,-0.747,0.703,-8.473,8.397,21.26,39,11
69591,-0.36,-0.654,0.667,0.344,-5.603,32.443,16,10
69635,-0.363,-0.662,0.628,-3.275,-11.374,24.916,60,10
69679,-0.326,-0.636,0.621,-4.855,-7.237,21.275,60,10
69723,-0.316,-0.604,0.653,-4.084,-7.565,19.992,59,11
69768,-0.275,-0.611,0.643,-2.221,-2.702,15.954,59,11
69812,-0.287,-0.599,0.696,-2.534,-0.588,16.84,59,11
69856,-0.301,-0.61,0.723,-2.893,-11.832,17.26,59,11
69900,-0.236,-0.619,0.668,-0.511,-16.183,11.687,58,13
69947,-0.253,-0.625,0.681,1.267,-6.863,7.305,60,12
69992,-0.288,-0.621,0.715,2.702,-5.313,5.023,57,16
70036,-0.276,-0.603,0.699,-0.603,-5.015,-0.046,57,16
70080,-0.307,-0.647,0.749,-13.725,7.366,-6.725,56,16
70125,-0.394,-0.841,0.843,-26.374,5.221,-14.916,55,24
70170,-0.298,-1.064,0.716,-32.84,13.13,-26.679,55,24
70214,-0.261,-0.99,0.607,-38.878,54.321,-32.13,54,17
70258,-0.439,-1.06,0.674,-55.45,71.252,-40.145,53,18
70302,-0.432,-1.107,0.582,-42.924,46.29,-40.618,52,16
70349,-0.145,-0.755,0.368,-21.42,62.588,-27.656,52,16
70394,-0.111,-0.666,0.378,-1.305,87.473,-22.878,52,16
70438,-0.188,-0.69,0.545,19,86.878,-31.618,52,17
70482,-0.245,-0.783,0.704,49.015,38.931,-29.855,54,16
70526,-0.116,-0.724,0.614,64.313,13.565,-21.481,45,17
70571,-0.067,-0.578,0.556,60.389,40.321,-11.046,51,15
70615,-0.227,-0.588,0.631,44.649,50.168,-10.611,51,14
70659,-0.365,-0.75,0.672,21.069,28.794,-23.237,44,16
70703,-0.419,-0.727,0.65,6.679,-0.275,-18.924,51,16
70793,-0.229,-0.469,0.454,-49.252,29.122,16.87,50,16
70837,-0.439,-0.749,0.549,-65.481,23.718,25.443,51,16
70881,-0.536,-1.051,0.49,-61.695,10.588,-2.458,51,13
70925,-0.493,-1.005,0.513,-59.87,9.542,-5.695,51,11
70969,-0.489,-0.946,0.456,-38.947,-16.756,15.511,51,10
71013,-0.373,-0.829,0.345,-15.076,-10.198,14.542,51,10
71057,-0.357,-0.761,0.319,-0.046,5.397,21.168,52,11
71101,-0.362,-0.696,0.302,13.511,28,15.504,52,12
71148,-0.405,-0.74,0.368,16.954,30.824,20.42,53,17
71198,-0.402,-0.753,0.401,21.42,21.916,25.458,58,114
71248,-0.386,-0.783,0.385,31.55,12.031,24.802,57,112
71306,-0.347,-0.7,0.412,44.473,28.626,30.298,0,83
71358,-0.529,-0.701,0.49,49.298,31.519,44.511,88,116
71410,-0.586,-0.775,0.56,60.481,21.573,40.992,91,114
71463,-0.606,-0.718,0.539,56.328,46.275,34.885,141,78
71520,-0.871,-0.896,0.762,49.427,36.656,26.015,0,82
71576,-0.797,-0.653,0.617,64.389,15.458,6.71,0,80
71638,-0.803,-0.498,0.512,30.313,27.55,-18.809,0,116
71695,-0.73,-0.604,0.376,3.389,-28.756,-29.947,0,94
71753,-0.499,-0.544,0.225,-17.237,-33.053,-25.626,0,98
71813,-0.402,-0.719,0.301,-16.947,-8.779,-38.817,0,130
71872,-0.722,-0.669,0.703,1.985,-31.153,-13.466,0,126
71931,-0.41,-0.488,0.487,14.115,-37.656,6.397,0,136
71992,-0.328,-0.667,0.533,-3.916,40.061,13.847,0,139
72052,-0.482,-0.874,0.658,24.023,-22.748,-15.305,0,140
72113,-0.494,-0.155,0.321,-7.695,24.45,-0.084,0,142
72175,-0.8,-0.747,0.762,4.802,-24.176,20.511,0,145
72237,-0.229,-0.203,0.503,-8.267,-3.13,15.702,0,148
72300,-1.052,-0.523,0.743,-40.901,-12.641,37.901,0,0
72359,-0.545,-0.177,0.426,-49.046,-64.107,43.985,0,134
72420,-0.845,-0.491,0.695,-71.145,-48.466,69.481,0,135
72471,-0.455,-0.535,0.208,-61.924,-74.198,68.603,51,136
72530,-0.399,-0.934,0.123,-64.542,-15.153,60.053,0,139
72591,-0.368,-1.048,0.447,-82.725,-39.42,13.939,0,138
72654,-0.613,-0.701,0.659,-59.679,-18.183,-2.641,0,143
72715,-0.696,-0.618,0.48,-34.679,-24.817,-1.076,0,144
72774,-0.679,-0.541,0.254,-33.069,-16.87,4.695,0,132
72835,-0.809,-0.515,0.25,-42.779,-25.885,19.351,0,130
72894,-0.74,-0.773,0.57,-39.496,-35.397,39,0,131
72953,-0.5,-0.831,0.511,-13.183,-37.489,23.756,0,133
73018,-0.787,-0.591,0.34,-15.664,-4.244,24.137,0,0
73076,-0.651,-0.571,0.153,-18.603,-46.748,33,0,120
73136,-0.21,-0.926,0.32,-21.344,-23.466,9.397,0,120
73198,-0.63,-0.702,0.53,-8.908,8.496,-14.573,0,120
73256,-0.823,-0.594,0.434,-3.527,-7.137,-2.977,0,119
73316,-0.743,-0.532,0.449,-1.595,-4.183,15.344,0,121
73371,-0.737,-0.662,0.499,2.13,-16.481,26.053,146,104
73425,-0.656,-0.66,0.535,6.221,-13.824,28.985,144,100
73481,-0.677,-0.655,0.581,8.641,-14.229,32.397,142,99
73535,-0.63,-0.65,0.598,24.611,-23.84,32.672,141,101
73633,-0.618,-0.437,0.351,22.947,-12.252,17.008,137,103
73688,-0.708,-0.448,0.438,4.504,-8.45,29.45,136,103
73745,-0.552,-0.419,0.495,7.282,-4.344,30.786,136,103
73799,-0.662,-0.424,0.588,14.038,12.962,30.656,134,103
73853,-0.878,-0.44,0.639,3.45,12.527,37.794,129,105
73908,-0.867,-0.518,0.817,11.45,-16.191,40.962,127,105
73962,-0.591,-0.515,0.793,25.725,-22.237,29.725,125,106
74016,-0.644,-0.372,0.589,30.397,-7.305,7.412,123,107
74071,-0.988,-0.204,0.59,27.374,-10.313,22.069,123,109
74125,-0.631,-0.321,0.592,27.153,-33.618,29.038,122,111
74182,-0.432,-0.278,0.614,25.443,-5.74,10.206,121,112
74231,-0.694,-0.272,0.615,21.359,3.443,0.901,39,112
74283,-0.693,-0.19,0.6,13.038,-2.053,-0.298,120,57
74334,-0.675,-0.217,0.682,7.672,-1.031,-1.947,120,57
74380,-0.661,-0.484,0.886,27.496,-3.191,-1.313,36,54
74429,-0.564,0.063,0.63,30.634,9.412,-19.931,37,112
74478,-1.09,0.135,0.704,9.908,21.885,3.504,36,112
74527,-0.888,-0.156,0.747,0.939,-27.046,23.641,36,112
74576,-0.492,-0.242,0.691,11.763,-15.634,16.542,35,113
74629,-0.694,-0.074,0.733,8.443,5.29,10.115,36,113
74678,-0.77,-0.139,0.707,6.748,-12.107,11.145,35,114
74727,-0.692,-0.11,0.684,11.122,-9.023,13.16,36,115
74777,-0.699,-0.166,0.777,10.405,-7.099,14.099,35,115
74826,-0.632,-0.107,0.692,14.672,-6.527,7.924,36,115
74875,-0.73,-0.091,0.762,14.473,8.954,9.13,36,115
74921,-0.703,-0.061,0.731,9.496,-4.786,6.817,36,57
74969,-0.691,-0.071,0.716,7.817,-4.55,5.809,38,57
75015,-0.634,-0.059,0.733,9.794,-1.183,-0.115,42,57
75067,-0.695,0.028,0.679,6.382,2.221,-6.313,39,115
75117,-0.775,-0.008,0.719,0.42,2.786,-3.267,37,115
75166,-0.716,-0.036,0.787,-1.267,-5.137,-2.282,37,115
75215,-0.68,0.021,0.696,-2.992,0.008,-3.565,36,116
75266,-0.765,0.001,0.762,-4.061,10.076,1.466,36,115
75312,-0.691,0.042,0.68,1.42,-6.389,-2.473,36,57
75358,-0.719,-0.028,0.718,-7.382,12.641,2.969,36,54
75407,-0.791,-0.132,0.824,-2.191,-3.618,4.16,36,114
75456,-0.708,0.037,0.76,5.908,-2.031,6.58,36,114
75509,-0.747,-0.003,0.701,-5.366,4.458,8.191,36,114
75555,-0.687,-0.135,0.685,-9.481,-10.26,-5.42,36,58
75601,-0.583,-0.192,0.695,-15.374,-2.145,-19.626,37,57
75648,-0.651,-0.142,0.688,-15.962,5.565,-34.679,36,58
75698,-0.787,-0.074,0.695,-14.901,6.382,-33.756,36,113
75747,-0.833,-0.064,0.738,-16.275,-3.351,-21.939,35,113
75796,-0.727,-0.012,0.7,-16.061,-3.992,-12.649,35,113
75852,-0.818,-0.128,0.89,-6.595,3.466,4.267,35,112
75900,-0.759,-0.091,0.865,11.916,-14.458,10.878,35,112
75952,-0.755,-0.004,0.654,9.809,-2.405,22.855,37,113
75998,-0.849,-0.14,0.645,3.542,0.527,32.496,39,53
76043,-0.702,-0.188,0.697,2,-13.023,33.916,39,58
76091,-0.542,-0.225,0.803,1.542,-10.618,19.634,68,57
76181,-0.832,-0.138,0.791,0.229,0.183,7.183,68,59
76227,-0.636,-0.207,0.808,8.076,-18.481,1.13,38,59
76272,-0.568,-0.097,0.751,12.573,-3.664,-6.519,36,57
76318,-0.733,-0.028,0.713,7.908,-3.374,-6.748,35,57
76366,-0.684,-0.052,0.709,5.122,-3.779,-4.992,34,57
76411,-0.69,-0.048,0.77,8.733,-2.092,-0.389,34,57
76456,-0.662,-0.001,0.758,9.481,-3.817,-0.656,35,54
76503,-0.648,-0.019,0.768,14.076,0.733,-1.489,37,58
76552,-0.664,-0.067,0.743,20.351,-0.656,0.649,35,117
76597,-0.677,-0.046,0.723,15.74,11.649,-2.45,35,56
76642,-0.713,-0.02,0.798,9.466,-4.55,-6.023,34,54
76687,-0.726,0.061,0.76,7.954,0.992,-4.84,34,54
76733,-0.789,0.083,0.763,3.863,-1.527,0.885,34,56
76781,-0.669,0.003,0.802,2.962,-14.115,1.405,35,55
76826,-0.613,0.011,0.757,9.489,-4.664,-1.832,38,53
76875,-0.73,0.028,0.758,7.84,-3.313,0.145,105,54
76921,-0.649,0.02,0.677,0.985,-12.038,-2.679,43,54
76967,-0.698,0.057,0.717,-8.931,0.252,0.84,43,54
77012,-0.709,-0.008,0.817,-9.107,-10.26,1.656,44,53
77063,-0.612,0.026,0.817,-2.985,-5.847,1.466,118,53
77113,-0.628,0.04,0.772,-3.076,1.313,1.168,118,55
77158,-0.694,-0.05,0.795,-0.191,-1,0.252,36,44
77203,-0.67,0.012,0.765,-0.298,-6.328,0.756,38,44
77251,-0.687,-0.013,0.782,-8.611,-8.504,2.626,36,50
77296,-0.585,0,0.773,-11.748,-0.565,0.298,36,53
77342,-0.646,-0.079,0.911,-6.435,4.786,-2.115,37,53
77387,-0.63,0.033,0.806,-5.282,-9.496,-8.718,37,54
77433,-0.659,-0.01,0.722,-10.321,9.748,-1.954,37,54
77478,-0.743,-0.08,0.828,-5.046,-6.756,-2.069,36,58
77524,-0.593,-0.02,0.743,-7.435,-8.42,-3.031,37,55
77571,-0.643,-0.049,0.761,-14.412,-2.298,-3.397,36,55
77619,-0.731,-0.09,0.835,-10.359,-3.947,-2.718,38,57
77665,-0.656,-0.046,0.777,-10.183,-11.534,-1.313,36,53
77710,-0.616,-0.104,0.802,-11.008,-0.74,-0.275,38,53
77756,-0.672,-0.12,0.85,-5.542,-1.55,0.069,37,54
77805,-0.666,-0.04,0.798,-5.42,1.458,4.023,118,41
77850,-0.673,-0.096,0.828,3.206,-6.702,6.137,37,41
77895,-0.647,-0.072,0.815,6.198,-1.565,9.206,37,41
77940,-0.654,-0.042,0.785,4.458,-1.595,8.588,37,43
77989,-0.656,-0.109,0.795,2.366,-0.908,9.908,119,41
78038,-0.585,-0.122,0.827,8.214,-1.153,2.473,37,41
78083,-0.56,-0.141,0.832,8.351,-0.527,-3.573,38,41
78133,-0.616,-0.017,0.759,8.71,1.511,-8.107,118,55
78182,-0.77,0.076,0.766,-1.145,8.855,3.351,106,55
78232,-0.629,-0.178,0.934,3.901,-20.481,2.786,118,44
78282,-0.458,0.013,0.863,18.573,8.58,-12.511,119,53
78327,-0.818,0.093,0.769,6.496,6.794,-5.863,36,51
78372,-0.727,-0.062,0.695,0.725,-13.282,4.992,37,42
78420,-0.457,-0.094,0.787,5.977,-2.206,-1.817,97,40
78469,-0.567,-0.094,0.868,5.313,2.863,-13.611,45,40
78558,-0.778,-0.006,0.781,3.038,-3.939,5.534,36,52
78604,-0.612,-0.018,0.846,9.084,5.573,9.359,35,52
78649,-0.719,0.052,0.903,13.115,1.672,10.061,34,51
78694,-0.658,-0.009,0.808,13.931,-4.504,13.405,36,52
78740,-0.596,-0.046,0.768,17.328,-3.466,8.695,42,51
78785,-0.582,0.01,0.755,15.313,9.885,4.435,37,39
78830,-0.659,0.049,0.794,13.794,3.71,0.504,35,40
78874,-0.605,0.054,0.777,8.565,1.748,-0.359,34,40
78920,-0.636,0.024,0.791,6.977,7.924,-4.542,35,51
78977,-0.711,0.107,0.803,3.916,6.878,-3.947,34,51
79025,-0.743,0.169,0.82,1.092,-2.672,1.718,34,52
79073,-0.617,0.069,0.796,-0.565,-6.618,5.847,33,51
79120,-0.546,0.027,0.742,-2.557,-7.481,-4.084,33,51
79168,-0.632,0.042,0.7,-13.603,5.26,-10.374,36,44
79219,-0.74,0.055,0.781,-18.053,5.931,-7.504,98,53
79267,-0.64,0.074,0.823,-19.321,-4.702,-6.214,36,52
79315,-0.616,0.02,0.81,-17.817,0.947,-6.015,36,53
79364,-0.703,-0.02,0.829,-16.305,6.427,-1.939,37,53
79418,-0.707,-0.016,0.821,-9.29,0.244,3.008,98,44
79469,-0.704,0.055,0.859,-0.305,-1.191,10.328,98,49
79517,-0.717,0.004,0.806,4.679,-3.74,19.397,35,53
79564,-0.648,-0.037,0.74,1.176,-5.29,17.321,41,41
79612,-0.708,-0.054,0.864,-0.107,-0.756,16.931,33,43
79661,-0.585,-0.003,0.844,6.412,-10.664,8.618,34,57
79708,-0.579,0.01,0.767,6.031,-1.687,-0.519,34,43
79755,-0.65,-0.019,0.741,0.122,-2.046,-6.336,33,41
79803,-0.629,0.007,0.722,-4.382,-0.824,-7.031,34,41
79853,-0.68,0.021,0.835,-3.145,3.122,-6.099,33,57
79902,-0.658,0.03,0.821,-5.489,0.099,-4.366,33,58
79950,-0.665,0.038,0.817,0.244,1.107,-0.603,33,57
79998,-0.684,0.098,0.835,1.252,-2.389,2.046,33,55
80046,-0.622,-0.025,0.804,-4.71,-7.565,0.809,35,41
80093,-0.578,-0.031,0.788,-7.893,-1.542,-8.534,36,41
80141,-0.681,0.068,0.777,-8.458,1.863,-10.16,38,41
80188,-0.719,0.029,0.804,-12.863,-1.435,-1.763,33,41
80236,-0.682,-0.056,0.84,-7.046,-4.519,4.168,32,57
80287,-0.604,-0.032,0.825,-1.229,-4.985,4.718,33,55
80335,-0.621,-0.009,0.792,0.122,-3.55,2.008,38,53
80384,-0.674,-0.034,0.817,4.267,2.328,3.069,33,54
80431,-0.621,-0.025,0.8,1.153,-4.87,0.893,34,41
80479,-0.564,-0.058,0.769,-4.939,0.977,-4.351,36,42
80526,-0.603,-0.044,0.743,-9.336,4.466,-11.985,34,44
80575,-0.732,-0.025,0.824,-13.282,-4.885,-9.145,37,54
80623,-0.606,-0.016,0.781,-13.733,-0.901,-5.58,34,53
80672,-0.661,-0.064,0.843,-6.13,3.786,-8.031,44,54
80722,-0.681,-0.051,0.824,-3.565,6.992,-2.977,38,40
80771,-0.615,-0.099,0.77,-9.603,-6.496,-8.183,37,52
80819,-0.666,-0.075,0.781,-11.458,5.466,-6.214,38,42
80867,-0.686,-0.031,0.818,-8.672,-7.893,-5.046,36,45
80915,-0.643,-0.18,0.815,-8.336,-1.13,-2.351,38,52