Timestamp(ms),AccelX(g),AccelY(g),AccelZ(g),GyroX(deg/s),GyroY(deg/s),GyroZ(deg/s),DistanceLeft(cm),DistanceRight(cm)
35699,-0.095,-0.944,0.344,4.076,0.649,-0.374,48,13
35743,-0.078,-0.92,0.345,8.786,9.771,4.198,50,13
35787,-0.126,-0.909,0.375,8.481,15.321,5.237,50,12
35830,-0.142,-0.894,0.37,6.672,6.412,4.389,50,12
35874,-0.13,-0.84,0.357,4.099,3.244,3.282,51,12
35918,-0.136,-0.821,0.353,6.42,5.924,9.58,51,12
35962,-0.188,-0.909,0.387,2.863,5.023,8.473,52,13
36005,-0.229,-1.033,0.398,-1.168,-7.962,0.221,53,12
36052,-0.135,-1.036,0.313,-4.458,-15.511,-11.206,55,15
36098,-0.084,-0.898,0.284,-9.038,2.672,-5.985,54,17
36142,-0.116,-0.843,0.353,-10.702,9.573,-3.153,56,15
36186,-0.094,-0.769,0.348,-3.611,6.298,-7.557,55,16
36231,-0.108,-0.715,0.359,6.695,5.336,-8.29,55,16
36275,-0.119,-0.789,0.341,17.664,9.16,-12.038,56,16
36319,-0.12,-0.862,0.312,27.168,23.84,-14.389,56,19
36364,-0.143,-0.903,0.355,26.153,35.908,-12.893,57,18
36411,-0.164,-0.809,0.425,24.748,30.573,-14.985,57,17
36456,-0.13,-0.744,0.479,23.237,31.718,-18.26,59,18
36500,-0.247,-0.826,0.609,13.763,22.496,-21.87,59,17
36545,-0.271,-0.938,0.623,8.992,-7.107,-29.649,61,17
36587,-0.122,-0.917,0.537,15.626,-21.733,-23.802,16,18
36632,-0.018,-0.867,0.487,14.916,-3.733,-6.878,61,17
36677,-0.056,-1.062,0.512,3.863,1.817,-5.29,58,18
36721,-0.049,-1.014,0.502,6.802,-3.534,-14.702,57,18
36766,0.018,-1.083,0.419,4.656,1.244,-15.061,57,19
36813,0.019,-0.973,0.415,-4.137,20.038,-8.733,56,19
36858,-0.007,-0.84,0.426,-1.954,19.519,6.084,56,19
36902,-0.064,-0.814,0.467,-9.809,9.672,3.282,56,18
36947,-0.049,-0.742,0.469,-18.641,-4.985,-1.679,56,19
36993,-0.021,-0.739,0.478,-17.061,-14.046,3.015,56,19
37037,0.011,-0.744,0.476,-11.122,-11.015,7.26,55,19
37082,0.01,-0.748,0.455,-10.496,-0.962,10.565,55,19
37126,-0.031,-0.734,0.462,-7.908,-1.344,13.55,57,19
37171,-0.042,-0.735,0.453,-3.389,-7.725,13.412,56,19
37219,-0.029,-0.733,0.426,-1.038,-13.115,12.809,57,19
37263,-0.018,-0.689,0.393,3.29,-10.244,19.229,56,18
37308,-0.081,-0.867,0.391,8.763,-5.015,23.191,57,18
37352,-0.143,-1.246,0.376,5.702,-4.229,12.718,57,17
37397,-0.099,-1.241,0.328,4.634,11.893,3.061,57,17
37442,-0.151,-1.242,0.333,-8.969,34.313,-5.786,57,17
37486,-0.178,-1.127,0.38,-17.626,37.687,-14.809,57,17
37531,-0.206,-0.989,0.444,-23.565,26.45,-12.763,58,16
37576,-0.145,-0.822,0.417,-15.481,4.405,-11.328,59,16
37623,-0.073,-0.764,0.349,-0.557,8.282,-13.321,59,16
37668,-0.073,-0.8,0.303,7.519,35.542,-19.397,60,16
37713,-0.146,-0.798,0.298,15.641,55.45,-14.565,61,16
37758,-0.176,-0.784,0.307,16.985,65.076,-10.672,62,16
37804,-0.215,-0.815,0.313,11.336,71.321,-15.26,63,17
37849,-0.243,-0.811,0.356,0.237,69.336,-24.771,71,16
37895,-0.22,-0.858,0.41,1.214,54.962,-29.397,68,17
37983,-0.123,-1.277,0.468,-25.221,39.382,-42.489,67,18
38029,-0.109,-1.033,0.529,-36.679,27.725,-33.809,67,20
38077,-0.124,-0.896,0.594,-26.557,-9,-9.962,67,29
38123,-0.099,-1.049,0.447,-15.84,-36.832,-17.74,66,21
38168,0.017,-0.936,0.309,-11.168,-11.84,-29.634,64,19
38215,-0.001,-0.8,0.348,-15.107,15.718,-11.977,64,47
38261,-0.06,-0.778,0.401,-11.466,15.908,8.176,63,20
38306,-0.087,-0.823,0.432,0.435,-8.504,17.26,62,19
38351,-0.014,-0.894,0.341,7.71,-20.511,14.84,62,19
38396,0.027,-0.882,0.295,6.229,-6.336,17.748,63,18
38445,-0.033,-0.751,0.319,3.053,-0.878,24.321,63,18
38490,-0.045,-0.665,0.29,4.412,-7.321,28.374,67,19
38536,-0.084,-0.755,0.206,5.198,-7.13,34.687,66,18
38581,-0.114,-0.887,0.155,2.427,7.618,45.092,67,17
38626,-0.168,-1.162,0.11,0.053,34.817,48.588,67,17
38672,-0.311,-1.368,0.179,-10,55.298,37.511,68,16
38717,-0.456,-1.266,0.335,-19.542,31.359,9.534,68,18
38763,-0.377,-1.116,0.338,-8.992,-23.168,6.573,68,17
38808,-0.271,-1.065,0.292,-11.916,-40.008,2.382,72,18
38857,-0.19,-0.953,0.249,-6.076,-24.046,2.489,75,16
38903,-0.214,-0.898,0.245,4.023,-11.847,5.74,70,17
38948,-0.233,-0.903,0.226,10.542,-11.786,1.725,70,16
38994,-0.191,-0.806,0.193,17.115,-11.008,-2.023,70,17
39041,-0.113,-0.696,0.168,17.069,5.275,-0.099,67,25
39086,-0.204,-0.824,0.229,7.55,27.466,-2.824,69,16
39132,-0.352,-0.932,0.351,5.122,18.527,-10.763,74,17
39177,-0.319,-0.926,0.333,9.496,2.496,-17.351,68,16
39223,-0.298,-0.848,0.341,0.885,11.023,-21.641,68,17
39271,-0.293,-0.948,0.386,-3.832,22.771,-20.634,70,17
39317,-0.321,-0.919,0.405,8.122,38.053,-26.351,72,17
39363,-0.379,-0.818,0.447,6.527,27.42,-19.733,72,21
39409,-0.368,-0.841,0.435,4.55,-0.053,-19.679,72,20
39455,-0.299,-0.844,0.408,5.504,-23.519,-20.038,72,17
39500,-0.194,-0.869,0.358,4.511,-25.809,-21.679,71,14
39546,-0.137,-0.858,0.342,2,-18.817,-20.878,69,16
39592,-0.098,-0.971,0.332,0.595,-12.214,-22.511,69,17
39638,-0.055,-1.026,0.308,0.969,-4.191,-26.679,69,19
39687,-0.08,-1.15,0.311,-11.985,6.931,-34.595,74,16
39733,-0.075,-1.208,0.322,-18.87,6.939,-40.427,72,17
39779,-0.042,-0.983,0.339,-9.611,-5.427,-16.336,68,17
39824,-0.049,-0.925,0.329,-5.145,-14.534,0.649,68,17
39870,-0.021,-0.855,0.292,-4.504,-12.649,-0.137,71,16
39915,-0.033,-0.729,0.321,-8.634,-5.359,0.878,66,16
39961,-0.099,-0.746,0.418,-18.183,-16.779,1.565,64,17
40006,-0.096,-0.848,0.454,-13.656,-48.504,0.405,63,16
40051,-0.049,-1.004,0.435,-7.992,-72.092,-0.74,62,17
40100,0.064,-0.979,0.306,7.366,-69.672,2.328,62,17
40145,0.135,-0.817,0.238,14.603,-32.427,15.237,62,17
40190,0.07,-0.839,0.226,12.87,7.374,21.977,61,16
40236,0.007,-0.856,0.259,9.771,25.962,18.221,60,16
40324,-0.056,-0.84,0.311,2.084,20.802,18.053,60,16
40370,-0.057,-0.797,0.313,-2.496,8.481,23.397,61,17
40415,-0.046,-0.779,0.299,-7.084,3.305,23.031,61,16
40460,-0.031,-0.716,0.27,-8.023,12.237,21.947,62,14
40505,-0.152,-0.777,0.302,-7.42,22.679,30.176,64,14
40553,-0.277,-1.069,0.321,-10.985,9.641,25.84,63,14
40599,-0.22,-1.203,0.222,-5.092,4.954,18.939,64,15
40644,-0.228,-1.262,0.197,-8.382,20.885,14.542,67,14
40690,-0.263,-1.24,0.231,-14.198,28.008,9.122,71,14
40736,-0.269,-1.143,0.252,-6.916,10.595,6.153,68,16
40782,-0.206,-1.037,0.237,-10.496,0.557,2.313,70,16
40827,-0.18,-0.862,0.247,-5.45,-3.443,1.939,69,14
40873,-0.18,-0.837,0.215,0.87,0.328,-3.115,71,12
40919,-0.187,-0.837,0.169,9.237,13.252,-5.863,74,12
40969,-0.212,-0.793,0.137,8.046,41.214,-3.191,91,13
41016,-0.357,-0.862,0.259,-4.962,51.076,-3.16,79,17
41064,-0.426,-0.997,0.282,3.557,21.489,-5.099,108,16
41110,-0.268,-0.928,0.211,12.107,17.977,2.076,83,17
41157,-0.253,-0.963,0.216,0.664,45.718,0.511,83,17
41204,-0.307,-0.975,0.272,4.832,69.412,-2.687,88,17
41250,-0.413,-0.906,0.377,9.817,61.969,-3.939,89,16
41297,-0.406,-0.851,0.36,7.595,32.496,-3.794,90,17
41349,-0.339,-0.819,0.342,11.702,11.527,0.756,89,37
41396,-0.347,-0.848,0.263,10.733,6.794,-7.046,87,16
41443,-0.428,-0.867,0.278,8.977,-5.74,-12.443,87,22
41502,-0.363,-0.823,0.219,7.382,-31.74,-14.656,87,17
41549,-0.262,-0.834,0.215,1.13,-21.908,-15.008,94,30
41595,-0.244,-0.952,0.278,-0.061,1.244,-15.053,88,24
41643,-0.234,-1.046,0.33,4.824,10.351,-21.763,91,19
41689,-0.207,-1.113,0.31,7.145,11.756,-24.71,90,17
41735,-0.187,-1.123,0.329,2.214,19.084,-22.649,89,15
41784,-0.203,-0.99,0.359,-2.71,5.168,-11.664,88,16
41830,-0.198,-0.936,0.306,-2,-9.908,-2.939,88,16
41877,-0.192,-0.837,0.23,-1.015,-32.527,-12.267,87,30
41923,-0.1,-0.73,0.185,-5.282,-25.038,-10.809,86,17
41969,-0.111,-0.709,0.234,-17.427,-11.45,-6.183,84,17
42016,-0.167,-0.801,0.314,-20.779,-20.634,-5.786,84,36
42062,-0.189,-1.035,0.34,-17.405,-36.527,-15.809,78,29
42108,-0.13,-1.048,0.315,-12.427,-45.366,-14.427,77,17
42155,-0.074,-0.934,0.305,-4.786,-39.489,4.779,77,31
42204,-0.051,-0.829,0.282,1.443,-21.672,19.023,76,17
42249,-0.081,-0.81,0.281,5.527,-6.786,19.718,79,17
42295,-0.1,-0.797,0.282,5.893,3.023,13.847,78,16
42341,-0.104,-0.782,0.26,5.992,4.664,14.58,79,16
42387,-0.127,-0.784,0.255,2.702,2.618,15.267,87,17
42432,-0.147,-0.812,0.228,-5.137,-3.573,14.244,79,17
42478,-0.131,-0.963,0.213,-6.55,-6.985,15.198,77,17
42524,-0.208,-1.094,0.206,-3.649,-6.099,20.458,77,30
42570,-0.23,-1.117,0.193,-1.672,4.588,25.237,79,17
42618,-0.265,-1.075,0.199,-6.168,16.275,18.71,77,17
42707,-0.321,-1.154,0.198,-5.55,14.046,-8.947,79,17
42754,-0.27,-1.038,0.196,-6.977,14.382,-12.855,78,17
42800,-0.232,-0.899,0.214,-8.939,13.802,-4.031,78,15
42845,-0.201,-0.784,0.232,-5.802,7.511,1.313,79,17
42891,-0.167,-0.714,0.243,-1.779,0.656,-1.809,82,13
42937,-0.158,-0.808,0.201,-1.466,8.328,-12.252,81,16
42983,-0.241,-0.902,0.23,3.878,13.855,-15.809,81,15
43028,-0.254,-0.988,0.16,14.695,16.664,-8.397,82,14
43077,-0.258,-0.994,0.158,12.198,41.42,-4.58,82,16
43123,-0.313,-0.966,0.206,7.504,51.214,-4.702,83,15
43169,-0.369,-0.943,0.25,5.473,39.321,-9.473,88,16
43216,-0.35,-0.906,0.26,4.489,19.672,-18.214,91,15
43262,-0.325,-0.887,0.25,1.618,11,-24.176,91,17
43310,-0.31,-0.892,0.294,0.137,16.405,-23.153,89,17
43356,-0.311,-0.908,0.329,5.214,19.206,-19.931,89,19
43403,-0.276,-1.017,0.34,9.916,11.252,-14.153,95,19
43449,-0.23,-1.122,0.306,8.962,2.985,-13.397,87,17
43499,-0.183,-1.088,0.293,5.672,-1.992,-10.527,83,27
43547,-0.158,-1.007,0.313,6.458,-17.45,-0.176,82,65
43594,-0.096,-1.074,0.221,14.305,-23.275,1.893,80,28
43640,-0.043,-0.939,0.157,11.405,-6.206,-1.206,79,18
43686,-0.098,-0.846,0.228,-0.87,8.626,0.603,78,22
43732,-0.155,-0.746,0.323,-8.511,-8.382,-4.183,77,19
43779,-0.139,-0.722,0.33,-11.305,-35.588,-10.214,76,19
43825,-0.107,-0.805,0.272,-11.756,-43.756,-18.565,76,33
43874,-0.089,-0.942,0.27,-12.863,-36.794,-23.641,76,20
43920,-0.089,-0.989,0.333,-13.382,-28.977,-18.664,75,20
43966,-0.067,-0.982,0.333,-6.069,-27.702,-4.901,76,19
44012,-0.059,-0.955,0.326,-1,-16.71,3.221,77,19
44058,-0.048,-0.909,0.305,3.366,-3.298,7.336,76,18
44105,-0.06,-0.829,0.289,7.069,7.58,13.206,76,33
44150,-0.075,-0.824,0.278,7.26,11.71,16.656,74,20
44198,-0.072,-0.828,0.264,5.672,12.893,20.321,98,21
44243,-0.071,-0.787,0.242,1.924,13.489,23.092,75,18
44295,-0.085,-0.686,0.273,-4.473,9.603,25.924,103,18
44342,-0.125,-0.921,0.27,-15,0.985,14.527,102,18
44390,-0.147,-1.124,0.224,-17.374,4.412,-6.267,106,17
44437,-0.175,-1.097,0.169,-2.634,13,9.672,107,17
44485,-0.238,-1.216,0.205,-6.397,21.863,10.168,108,21
44533,-0.262,-1.256,0.156,-7.115,29.313,-7.954,108,23
44581,-0.255,-1.046,0.173,-5.267,18.198,-12.466,109,18
44627,-0.196,-0.856,0.176,-14.992,15.435,-5.824,90,16
44675,-0.222,-0.818,0.247,-17.069,4.496,-2.176,86,25
44727,-0.197,-0.745,0.255,-4.992,-18.511,-7.237,112,29
44774,-0.063,-0.688,0.145,8.542,-9.084,-2.084,87,23
44822,-0.095,-0.91,0.117,8.84,30.344,-4.71,111,29
44869,-0.224,-1.181,0.181,10.351,48.321,-18.802,90,17
44917,-0.272,-1.104,0.217,13.427,36.366,-15.901,115,16
44965,-0.266,-1.006,0.239,5.931,19.809,-10.061,113,17
45014,-0.281,-0.977,0.271,-2.557,3.26,-16.847,115,17
45106,-0.207,-0.825,0.244,-0.542,-12.008,-24.931,114,27
45153,-0.195,-0.81,0.259,3.962,-1.069,-11.893,91,16
45204,-0.187,-0.946,0.28,9.115,2.374,-4.336,113,16
45252,-0.145,-1.066,0.259,9.565,6.733,-3.145,112,21
45301,-0.178,-1.217,0.311,2.916,4.779,-7.344,111,35
45349,-0.162,-1.147,0.349,2.321,-11.031,-8.832,111,20
45399,-0.139,-0.916,0.406,-0.214,-38.008,14.702,110,29
45447,-0.11,-0.821,0.308,5.763,-57.29,23.71,110,30
45495,-0.051,-0.809,0.216,12.229,-50.779,15.206,107,20
45543,-0.018,-0.829,0.167,12.183,-21.695,0.779,107,20
45596,-0.015,-0.854,0.199,7.573,3.321,6.756,144,21
45646,-0.09,-0.969,0.275,-0.954,-2.489,8.664,147,21
45697,-0.104,-1.04,0.335,-8.931,-24.588,1.176,147,22
45748,-0.073,-1.001,0.329,-11.397,-37.878,-6.099,145,22
45798,-0.035,-0.891,0.304,-11.618,-33.733,-6.847,145,21
45848,-0.038,-0.806,0.318,-14.412,-17.374,-5.252,145,21
45898,-0.092,-0.782,0.361,-13.038,-15.84,-4.221,144,20
45948,-0.103,-0.874,0.358,-10.87,-23.748,-6.305,142,20
45999,-0.065,-0.846,0.32,-9.122,-25.023,-0.725,143,19
46052,-0.092,-0.712,0.334,-8.595,-23.824,15.145,141,18
46102,-0.078,-0.724,0.302,-6.427,-33.183,22.527,142,19
46152,-0.059,-1.042,0.183,-6.053,-20.13,11.26,143,18
46205,-0.075,-1.356,0.084,-0.817,2.412,-7.786,0,19
46256,-0.058,-1.156,0.063,7.802,33.603,-0.855,143,18
46306,-0.139,-1.053,0.14,-11.679,45.275,13.053,141,17
46355,-0.274,-1.133,0.262,-24.176,20.618,-4.099,141,16
46405,-0.302,-0.987,0.32,-21.908,-36.176,-24.672,142,16
46455,-0.167,-0.758,0.249,-10.924,-70.954,-13.069,143,16
46503,-0.073,-0.719,0.158,0.557,-60.672,-3.16,144,17
46557,-0.034,-0.692,0.123,4.489,-25.87,1.802,0,17
46610,-0.147,-1.063,0.177,-0.366,3.191,-7.206,0,17
46663,-0.204,-1.092,0.231,5.305,-5.252,-10.84,0,17
46717,-0.196,-1.066,0.233,4.542,-22.214,-0.473,0,19
46771,-0.174,-1.016,0.223,-0.183,-20.71,2.534,0,19
46824,-0.189,-0.875,0.287,-1.267,-22.901,5.237,0,21
46878,-0.213,-0.862,0.33,2.511,-34.084,2.374,0,23
46936,-0.167,-0.984,0.316,10.748,-48.985,-7.435,0,26
46990,-0.093,-1.042,0.297,12.053,-41.405,-6.534,0,29
47044,-0.226,-1.359,0.446,-6.84,-55.725,-5.809,0,32
47098,-0.196,-1.086,0.464,5.275,-122.618,9.168,0,36
47154,0.032,-0.848,0.154,36.237,-131.992,41.824,0,40
47208,0.131,-0.783,0.032,41.107,-39.603,37.267,0,43
47263,-0.018,-0.855,0.125,19.42,31.962,20.84,0,47
47319,-0.184,-0.919,0.308,1.023,21.473,19.985,0,50
47375,-0.24,-0.985,0.343,-2.366,-51.832,25.038,0,56
47433,-0.11,-0.765,0.204,-13.443,-83.275,29.191,0,57
47490,-0.054,-0.658,0.228,-27.496,-68.443,37.137,0,52
47545,-0.102,-0.846,0.296,-36.275,-60.603,23.023,0,55
47601,-0.109,-0.884,0.36,-35.809,-73.069,10,0,60
47656,-0.061,-0.907,0.334,-25.534,-77.145,12.42,0,51
47755,-0.079,-0.809,0.306,-24.626,-53.191,25.115,0,36
47809,-0.225,-0.906,0.314,-24.702,-70.061,21.084,0,30
47873,-0.195,-1.038,0.169,-2.718,-86.542,35.496,0,93
47926,-0.167,-1.361,0.103,-1.969,-40.153,20.656,0,20
47976,-0.264,-1.349,0.188,-0.718,-12.206,-5.115,101,21
48023,-0.253,-1.206,0.202,0.252,-18.191,-0.863,99,18
48070,-0.203,-1.094,0.219,-11.885,-14.916,4.389,99,19
48117,-0.235,-0.931,0.272,-15.916,-23.145,2.107,98,18
48163,-0.195,-0.798,0.261,-14.069,-42.198,-0.901,99,17
48210,-0.206,-0.816,0.218,-6.061,-47.229,-3.687,101,18
48258,-0.303,-0.907,0.257,6.137,-66.725,-2.71,97,17
48305,-0.201,-0.971,0.188,10.87,-65.183,-0.603,96,17
48351,-0.245,-0.998,0.256,7.466,-54.809,0.122,95,18
48401,-0.185,-0.992,0.258,5.015,-51.473,-9.702,95,22
48449,-0.147,-0.955,0.296,0.229,-32.115,-8.13,94,50
48503,-0.205,-0.999,0.401,0.282,-30.832,-3.794,0,43
48558,-0.219,-0.952,0.47,8.237,-63.305,-10.672,0,43
48613,-0.166,-0.906,0.457,20.153,-109.435,-11.16,0,46
48667,0.204,-0.795,0.25,24.641,-94.053,-8.061,0,47
48721,0.18,-0.845,0.312,25.718,-14.794,12.412,0,49
48777,0.05,-0.958,0.438,36.885,-16.969,12.496,0,51
48831,0.151,-0.963,0.366,38.435,-16.977,11.748,0,53
48889,0.068,-0.959,0.45,29.214,2.405,12.099,0,54
48934,0.09,-0.805,0.446,25.328,-3.962,9.046,16,56
48989,0.08,-0.742,0.462,15.298,1.443,9.756,0,56
49044,0.073,-0.713,0.513,9.931,-1.374,7.641,0,57
49088,0.031,-0.684,0.535,11.16,-7.191,13.237,9,57
49132,0.036,-0.664,0.548,14.053,-17.313,15.855,11,57
49177,0.063,-0.64,0.548,17.74,-16.573,17.183,11,58
49221,0.043,-0.682,0.575,16.542,-14.351,14.328,9,58
49276,0.03,-0.736,0.578,13.534,-10.183,9.336,0,58
49325,0.012,-0.72,0.611,19.115,-7.763,11.466,16,60
49369,0.028,-0.732,0.622,28.71,-10.939,14.053,7,60
49414,-0.001,-0.796,0.67,38.557,-11.031,19.015,17,60
49459,-0.072,-0.964,0.707,38.107,-3.802,14.863,8,60
49503,-0.165,-0.98,0.763,29.092,1.916,9.771,10,60
49548,-0.213,-1.046,0.779,15.16,1.237,2.252,7,60
49603,-0.189,-1.004,0.749,-1.534,14.298,-3.542,0,60
49658,-0.176,-0.852,0.748,-2.42,1.031,9.389,0,61
49714,-0.133,-0.731,0.738,-15.573,-0.939,6.855,0,62
49773,-0.126,-0.707,0.733,-13.802,-10.443,6.901,0,63
49829,-0.084,-0.669,0.67,-11.053,-4.489,-0.427,0,64
49885,-0.139,-0.671,0.705,-8.802,3.534,-5.504,0,64
49931,-0.125,-0.674,0.689,-5.267,3.359,-10.832,16,66
49976,-0.161,-0.687,0.742,-4.565,9.389,-10.893,16,67
50032,-0.168,-0.739,0.757,-3.374,0.191,-12.107,0,69
50088,-0.132,-0.782,0.763,-0.107,5.405,-12.802,0,71
50135,-0.117,-0.797,0.734,0.229,18.603,-18.557,16,74
50180,-0.168,-0.831,0.793,-2.664,20.397,-13.076,9,75
50229,-0.129,-0.818,0.756,4.573,-0.504,-3.901,8,78
50324,0.039,-0.696,0.616,14.924,5.542,3.145,7,0
50376,0.03,-0.749,0.621,9.565,1.534,-3.321,7,0
50423,0.053,-0.799,0.618,4.855,0.901,-2.031,10,91
50476,0.053,-0.761,0.619,3.191,0.824,-0.359,9,0
50522,0.032,-0.669,0.646,0.29,-4.137,1.542,9,94
50575,0.044,-0.64,0.633,-5.481,-2.611,-0.725,17,0
50628,0.01,-0.676,0.669,-13.641,0.916,-3.656,17,0
50681,-0.005,-0.701,0.684,-15.092,-1.672,-1.046,9,0
50729,0.004,-0.686,0.702,-14.168,1.046,4.206,9,69
50775,0.017,-0.684,0.703,-12.947,0.076,3.924,9,70
50820,0.065,-0.694,0.687,-11.206,8.389,-0.931,10,65
50870,0.035,-0.678,0.665,-15.824,21.115,-6.046,98,67
50920,-0.045,-0.721,0.743,-16.29,13.252,-4.336,103,61
50970,0.018,-0.758,0.674,-11.008,4.344,1.702,112,57
51025,0.02,-0.815,0.577,-28.427,39.893,-8.076,0,54
51070,-0.155,-0.933,0.548,-51.985,66.443,-20.756,16,51
51120,-0.138,-0.843,0.417,-56.267,51.863,-34.405,99,45
51172,-0.259,-0.921,0.439,-54.893,38.061,-21.748,99,43
51221,-0.165,-1.025,0.356,-57.679,13.908,-25.42,98,41
51270,-0.199,-1.102,0.362,-51.725,0.542,-14.847,98,42
51318,-0.078,-0.948,0.252,-40.794,-3.649,-9.298,98,38
51367,-0.072,-0.892,0.261,-37.748,32.931,5.725,99,38
51416,-0.176,-0.951,0.319,-22.176,26.344,0.069,100,38
51466,-0.109,-0.893,0.257,-10.13,49.771,-2.435,123,37
51515,-0.224,-0.912,0.321,-3.947,57.275,-1.244,100,39
51564,-0.229,-0.901,0.331,-2.252,49.244,-4.229,112,38
51616,-0.258,-0.995,0.346,-0.771,33.908,-11.87,103,40
51665,-0.229,-1.023,0.333,3.13,25.71,-16.191,101,41
51715,-0.133,-0.953,0.27,12.817,34.924,-16.038,99,45
51764,-0.13,-1.153,0.244,8.977,58.053,-18.061,96,47
51814,-0.132,-1.129,0.253,-3.901,72.053,-22.122,96,50
51863,-0.135,-0.898,0.288,-1.756,63.527,-7.725,95,51
51912,-0.107,-0.83,0.348,3.87,46.511,-2.802,94,51
51961,-0.07,-0.883,0.332,12.031,25.504,-3.153,92,53
52014,-0.012,-0.937,0.283,16.046,17.282,-1.74,90,54
52063,0.033,-1.013,0.35,17.374,20.321,-3.893,87,57
52109,-0.061,-0.937,0.437,22.496,9.427,5.183,83,17
52156,-0.173,-0.93,0.472,38.099,-20.878,20.969,84,16
52203,-0.132,-0.754,0.434,40.817,-25.588,30.687,82,17
52249,-0.209,-0.785,0.438,38.802,-23.634,36.351,81,16
52296,-0.206,-0.755,0.381,31.137,-13.702,37.84,81,17
52342,-0.185,-0.709,0.298,7.718,-4.069,46.901,80,18
52389,-0.272,-0.783,0.358,-20.74,-12.412,46.481,79,19
52439,-0.184,-0.841,0.477,-23.015,-52.076,29.16,78,20
52486,-0.206,-1.107,0.527,-28.695,-63.916,13.924,78,19
52532,-0.201,-1.044,0.484,-12.527,-79.679,4.962,77,20
52579,-0.166,-1.046,0.352,-6.679,-79.069,9.611,77,20
52625,-0.11,-1.1,0.193,1.901,-56.824,-22.679,77,20
52672,0.071,-0.82,0.119,1.122,-12.336,-2.924,77,21
52719,-0.283,-0.716,0.328,-8.672,11.389,-0.992,78,22
52810,-0.166,-0.92,0.355,26.725,-52.382,11.893,79,49
52859,-0.145,-0.91,0.481,18.221,3.389,27.87,79,50
52911,-0.329,-0.815,0.572,8.878,-22.565,24.809,79,48
52959,-0.236,-0.784,0.402,1.985,-26.756,24.382,79,49
53008,-0.38,-0.801,0.54,5.969,-6.397,37.511,79,50
53056,-0.351,-0.906,0.552,14.763,-36.13,32.931,79,50
53104,-0.173,-0.823,0.429,11.794,-13.557,29.481,78,50
53152,-0.224,-0.812,0.505,13.702,-12.13,18.084,78,51
53201,-0.211,-0.894,0.569,18.641,-12.084,8.55,77,51
53250,-0.255,-0.946,0.564,29.885,10.756,0.573,78,51
53297,-0.284,-0.884,0.601,38.618,6.405,-6.336,77,20
53348,-0.179,-0.674,0.562,22.977,14.176,-12.573,77,52
53395,-0.293,-0.706,0.662,16.275,11.099,-11.573,77,18
53441,-0.22,-0.682,0.629,23.649,19.702,-16.374,77,20
53488,-0.376,-0.632,0.716,21.496,20.26,-7.893,79,19
53537,-0.313,-0.631,0.708,15.16,-2.008,-0.45,79,52
53583,-0.329,-0.716,0.746,15.115,5.115,2.511,79,19
53630,-0.324,-0.762,0.798,24.046,4.939,1.137,81,18
53673,-0.329,-0.695,0.758,25.733,0.725,2.214,19,19
53716,-0.33,-0.66,0.734,27.344,-7,3.954,18,19
53764,-0.35,-0.636,0.73,30.344,-1.947,7.366,16,23
53807,-0.277,-0.677,0.743,28.092,-13.771,4.687,16,21
53851,-0.211,-0.582,0.716,24.748,-5.786,2.763,17,23
53896,-0.276,-0.6,0.768,23.855,-2.718,0.443,17,57
53951,-0.275,-0.572,0.775,22.794,-10.298,-1.924,75,58
53995,-0.302,-0.531,0.818,20.695,-4.832,1.466,16,58
54043,-0.285,-0.542,0.839,20.817,-5.137,4.809,75,59
54092,-0.176,-0.489,0.799,21.16,-6.756,1.069,74,85
54140,-0.335,-0.543,0.947,16.275,-2.214,5.687,16,61
54185,-0.238,-0.536,0.859,23.718,-9.863,3.008,16,61
54231,-0.312,-0.452,0.912,25.672,-6.122,6.42,16,62
54276,-0.171,-0.437,0.814,23.641,-9.931,7.779,17,62
54324,-0.245,-0.479,0.887,20.924,-0.496,4.321,76,63
54372,-0.257,-0.387,0.889,19.939,-0.565,4.099,74,64
54420,-0.288,-0.345,0.916,21.092,-4.786,7.458,74,63
54465,-0.242,-0.33,0.907,20.847,3.794,8.947,16,65
54510,-0.289,-0.296,0.926,19.847,1.466,10.618,16,64
54558,-0.261,-0.349,0.937,17.527,15.389,14.481,16,66
54606,-0.297,-0.369,0.975,21.687,4.374,13.824,74,66
54652,-0.153,-0.436,0.922,23.649,6.634,6.16,16,65
54701,-0.268,-0.37,0.992,30.008,20.389,1.336,75,67
54749,-0.374,-0.247,1.055,37.275,9.664,0.458,75,66
54798,-0.258,-0.265,0.92,42.832,17.786,4.206,78,67
54846,-0.427,-0.235,1.043,46.878,32.42,14.229,74,67
54895,-0.284,-0.118,0.875,45.763,-13.313,0.221,74,67
54943,-0.257,-0.08,0.845,30.031,24,-3.962,73,67
54995,-0.56,-0.073,1.09,27.656,6.42,2.374,73,68
55044,-0.265,-0.093,0.894,27.687,-4,4.908,73,68
55092,-0.352,-0.058,0.989,23.718,19.275,-0.496,73,69
55138,-0.405,-0.021,1.028,28.061,-2.58,-1.618,19,68
55229,-0.511,0.068,1.068,36.137,9.412,11.282,73,69
55278,-0.361,0.083,0.942,31.214,-1.244,15.176,73,70
55327,-0.358,0.084,0.958,28.672,6.198,13.58,73,70
55375,-0.401,0.047,0.982,29.359,5.962,11.053,73,71
55425,-0.327,0.115,0.909,28.084,2.786,6.634,76,72
55477,-0.403,0.166,0.916,19.542,8.344,3.916,76,72
55526,-0.382,0.122,0.91,12.939,5.137,1.405,73,72
55574,-0.392,0.125,0.932,2.031,5.847,-3.42,73,72
55623,-0.375,0.195,0.958,-4.458,11.336,-4,74,72
55672,-0.45,0.204,0.979,3.977,8.305,-5.802,73,72
55720,-0.405,0.17,0.942,5.359,0.962,-4.473,73,73
55768,-0.458,0.168,0.96,13.504,16.763,2.206,30,73
55814,-0.487,0.225,0.97,18.992,6.046,7.977,30,72
55860,-0.445,0.276,0.953,19.779,-4.87,11.359,30,73
55907,-0.472,0.281,0.95,21.939,2.26,14.534,30,73
55956,-0.399,0.293,0.867,18.618,-4.229,12.664,30,75
56003,-0.402,0.153,0.932,10.947,7.847,13.092,29,75
56050,-0.407,0.284,0.93,11.885,-0.695,5.298,30,77
56096,-0.373,0.292,0.885,7.802,4.366,3.023,30,76
56143,-0.457,0.24,0.952,8.053,4.702,2.679,29,75
56189,-0.4,0.32,0.871,10.214,-0.229,3.374,30,77
56244,-0.333,0.34,0.813,0.145,5.107,-3.893,29,0
56290,-0.495,0.266,0.968,1.763,8.458,-1.901,28,76
56337,-0.426,0.358,0.981,12.298,3.305,4.321,29,76
56388,-0.381,0.338,0.899,12.191,-0.092,0.45,28,113
56435,-0.448,0.344,0.874,7.763,5.092,-4.351,28,76
56481,-0.447,0.274,0.907,4.328,-4.794,-1.573,30,76
56530,-0.38,0.394,0.814,7.008,3.374,-4.252,28,114
56580,-0.484,0.405,0.877,5.924,5.641,3.763,30,116
56634,-0.44,0.344,0.906,5.634,-2.023,5.664,30,0
56687,-0.426,0.449,0.946,8.374,3.473,5.534,27,0
56741,-0.401,0.384,0.938,10.412,-1.405,5.412,29,0
56795,-0.329,0.325,0.76,5.473,5.038,-5.237,30,0
56852,-0.402,0.438,0.681,-10.954,9.29,-10.466,30,0
56906,-0.45,0.335,0.857,-27.542,9.527,-9.748,28,0
56961,-0.376,0.357,0.94,-24.008,15.282,-9.328,27,0
57007,-0.464,0.429,0.906,-10.817,12.969,-9.305,29,76
57054,-0.555,0.353,0.953,-9.26,13.328,2.527,27,76
57102,-0.529,0.315,0.965,6.435,13.55,14.298,25,113
57156,-0.438,0.384,0.879,10.008,12.26,15.504,26,0
57210,-0.456,0.263,0.848,11.458,7.107,13.359,27,0
57264,-0.589,0.378,0.972,22.763,21.427,23.351,27,0
57321,-0.35,0.348,0.791,21.725,1.649,13.71,28,0
57370,-0.519,0.364,0.85,27.282,5.763,0.924,26,114
57423,-0.458,0.439,0.743,14.924,-0.099,-1.397,26,0
57478,-0.559,0.447,0.762,10.649,12.756,4.832,26,0
57527,-0.374,0.506,0.813,2.763,-4.252,1.985,26,117
57576,-0.433,0.589,0.717,1.458,10.595,-10.13,27,114
57624,-0.536,0.576,0.751,-6.809,11.481,-5.229,26,114
57678,-0.436,0.476,0.651,-30.015,5.641,-9.55,26,0
57776,-0.599,0.455,1.019,-4.076,18.527,-1.679,25,0
57832,-0.601,0.57,0.763,18.328,6.779,20.885,24,0
57881,-0.464,0.424,0.703,11.504,4.26,25.603,24,114
57934,-0.541,0.427,0.854,11.702,4.374,19.145,24,0
57989,-0.472,0.456,0.77,15.351,-13.977,9.924,25,0
58043,-0.464,0.364,0.766,7.153,-4.649,-2.313,24,0
58096,-0.471,0.416,0.716,-3.145,-4.267,-14.473,26,0
58150,-0.527,0.494,0.799,-7.786,-1.405,-15.824,25,0
58205,-0.507,0.539,0.834,-1.962,-0.557,-10.824,25,0
58258,-0.504,0.55,0.752,4.351,-4.679,-4.901,24,0
58312,-0.515,0.516,0.757,4.145,-5.237,0.061,25,0
58370,-0.435,0.496,0.73,2.458,1.588,0.595,24,0
58423,-0.552,0.51,0.83,2.511,-1.137,3.557,26,0
58477,-0.441,0.444,0.76,0.122,-3.565,2.153,24,0
58530,-0.479,0.479,0.772,2.313,-2.672,1.198,25,0
58585,-0.476,0.483,0.786,-4.87,-0.756,-2.573,25,0
58639,-0.472,0.512,0.774,1.87,-1.191,0,26,0
58692,-0.527,0.47,0.88,4.069,-2.252,4.183,26,0
58746,-0.461,0.512,0.778,9.198,0.824,7.962,24,0
58801,-0.374,0.508,0.768,7.885,-3.008,-0.267,24,0
58857,-0.489,0.538,0.728,12.359,-0.389,-1.489,25,0
58911,-0.449,0.645,0.624,-2.481,1.344,0.023,24,0
58966,-0.479,0.371,0.969,-18.282,2.42,1.16,24,0
59019,-0.354,0.647,0.823,18.634,2.191,-13.58,24,0
59073,-0.633,0.573,0.734,6.756,-3.748,6.947,25,0
59127,-0.365,0.437,0.726,3.603,-2.55,13.023,24,0
59181,-0.425,0.63,0.862,7.763,3.473,7.26,24,0
59235,-0.432,0.58,0.772,19.244,-11.344,9.939,24,0
59289,-0.379,0.541,0.718,12.779,-1.282,-2.435,27,0
59346,-0.418,0.567,0.697,3.794,1.817,-7.313,25,0
59401,-0.46,0.634,0.782,-4.305,4.58,-3.168,25,0
59454,-0.381,0.594,0.772,3.122,-2.618,-5.145,25,0
59508,-0.489,0.659,0.779,8.206,2.702,4.55,26,0
59563,-0.497,0.666,0.761,20.511,-3.626,15.954,27,0
59617,-0.279,0.684,0.579,5.802,-3.679,7.107,25,0
59671,-0.282,0.439,0.608,-31.916,8.779,-25.802,25,0
59725,-0.631,0.589,1.011,-13.45,5.832,-22.397,25,0
59780,-0.363,0.661,0.777,0.42,-13.58,-10.412,25,0
59833,-0.474,0.662,0.718,12.252,1.443,-0.458,25,0
59891,-0.409,0.566,0.744,11.817,-4.275,11.26,30,0
59940,-0.398,0.599,0.764,13.679,2.183,4.412,25,112
59994,-0.365,0.586,0.685,6.779,-2.962,-2.176,25,0
60048,-0.439,0.615,0.74,6.504,-4.176,-2.588,27,0
60102,-0.483,0.536,0.809,3.267,2.618,4.29,27,0
60163,-0.354,0.604,0.755,15.748,-2.641,-1.267,28,0
60216,-0.425,0.731,0.607,16.221,2.718,-5.351,26,0
60269,-0.457,0.594,0.769,5.191,-0.153,3.053,27,0
60322,-0.219,0.721,0.658,1.58,-3.214,-18.382,27,0
60380,-0.664,0.552,0.811,-10.298,19.359,-8.687,28,0
60433,-0.263,0.781,0.645,0,-15.947,-5.321,27,0
60529,-0.486,0.676,0.754,9.237,-1.069,5.565,27,0
60582,-0.262,0.672,0.625,2.023,-2.893,1.557,26,0
60636,-0.581,0.574,0.869,8.74,7.366,7.198,25,0
60689,-0.227,0.682,0.613,10.71,-15.962,-4.71,23,0
60743,-0.438,0.622,0.613,-19.267,12.656,-22.626,24,0
60796,-0.43,0.549,0.761,-22.031,-3.595,-26.496,26,0
60850,-0.373,0.647,0.754,-24.183,-2.962,-31.313,24,0
60908,-0.542,0.64,0.808,-10.397,-2.252,-14.527,51,0
60961,-0.434,0.604,0.756,8.557,-6.542,0.641,28,0
61015,-0.377,0.678,0.678,-4.55,1.183,-7.565,25,0
61063,-0.509,0.509,0.738,-19.473,7.626,-8.878,28,99
61111,-0.443,0.626,0.769,-14.069,0,-9.382,26,99
61158,-0.437,0.606,0.786,-18.824,1.679,-4.053,26,99
61206,-0.454,0.496,0.758,-20.13,4.336,-4.832,28,98
61259,-0.45,0.521,0.767,-20.695,-0.359,-11.763,25,0
61307,-0.468,0.505,0.746,-29.466,10.672,-11.336,27,101
61358,-0.474,0.502,0.844,-26.748,0.298,-6.786,24,101
61406,-0.412,0.453,0.833,-18.397,2.42,-5.542,24,108
61454,-0.5,0.419,0.837,-13.977,7.29,-2.496,25,101
61502,-0.44,0.447,0.771,-5.924,-5.168,-4.771,26,103
61549,-0.55,0.421,0.876,-6.382,8.046,-1.687,25,98
61597,-0.483,0.448,0.885,-3.947,-0.779,2.809,25,99
61644,-0.49,0.462,0.884,0.534,-0.718,1.748,24,99
61692,-0.415,0.427,0.661,-8.321,-0.687,-2.275,24,99
61741,-0.504,0.323,0.777,-18.565,9.885,-5.267,24,115
61792,-0.399,0.343,0.878,-17.481,-1.351,-15.809,25,98
61839,-0.528,0.425,0.922,-4.557,10.611,-11.504,24,97
61887,-0.532,0.362,0.873,5.626,-7.053,-6.763,27,97
61934,-0.563,0.355,0.889,11.641,3.634,2.275,27,98
61982,-0.49,0.42,0.894,23.931,-8.939,4.718,26,98
62029,-0.515,0.458,0.802,29.756,-1.145,8.031,16,99
62076,-0.532,0.484,0.746,25.275,2.885,20.26,16,99
62125,-0.46,0.391,0.845,23.511,-0.924,19.565,25,114
62179,-0.349,0.479,0.812,31.527,0.206,11.649,28,0
62230,-0.495,0.553,0.687,24.649,-2.023,6.351,30,103
62278,-0.432,0.534,0.651,2.641,4.55,3.779,30,109
62332,-0.422,0.592,0.781,0.794,0.321,0.992,30,0
62381,-0.492,0.567,0.832,8.977,1.87,2.832,26,102
62428,-0.447,0.631,0.761,12.305,1.649,9.015,26,101
62476,-0.388,0.619,0.683,4.954,7.229,5.069,28,104
62525,-0.499,0.509,0.852,5.511,6.015,5.824,25,116
62578,-0.312,0.65,0.62,4.962,0.947,-3.328,26,0
62632,-0.568,0.614,0.768,-7.527,9.336,5.87,29,0
62689,-0.453,0.471,0.922,22.168,-6.672,20.916,25,0
62743,-0.26,0.64,0.63,20.74,-4.053,0.641,24,0
62796,-0.57,0.627,0.698,11.992,0.664,2.954,25,0
62850,-0.284,0.621,0.719,10.656,-5.733,-2.13,24,0
62904,-0.386,0.633,0.695,-8.672,0.321,-19.198,25,0
62957,-0.454,0.686,0.684,-12.885,2.344,-20.008,24,0
63011,-0.433,0.692,0.797,-19.206,0.664,-10.786,24,0
63108,-0.511,0.733,0.648,-6.069,4.267,5.046,25,0
63162,-0.347,0.547,0.691,-24.015,12.725,7.794,24,0
63215,-0.386,0.62,0.811,-7.466,6.626,-11.931,25,0
63272,-0.591,0.652,0.677,-27.718,13.939,7.931,25,0
63321,-0.383,0.421,0.871,-11.557,2.183,11.382,30,102
63375,-0.477,0.552,0.911,14.458,4.802,9.305,30,0
63428,-0.486,0.591,0.703,9.527,-7.015,14.985,27,0
63482,-0.38,0.541,0.749,7.802,5.29,5.076,26,0
63536,-0.379,0.513,0.785,7.29,-9.802,-8.863,24,0
63590,-0.406,0.576,0.628,-7.641,2.198,-20.687,24,0
63643,-0.429,0.624,0.637,-27.053,0.099,-16.282,32,0
63697,-0.503,0.566,0.996,-17.115,3.611,-7.557,24,0
63755,-0.464,0.653,0.752,13.382,-4.237,7.145,26,0
63808,-0.5,0.588,0.737,18.061,-0.985,18.511,28,0
63862,-0.411,0.581,0.819,21.122,4.618,22.145,26,0
63917,-0.391,0.517,0.81,32.473,-8.099,18.496,23,0
63970,-0.317,0.619,0.648,12.87,-8.634,-2.183,23,0
64023,-0.48,0.639,0.653,-0.664,0.542,-5.176,23,0
64077,-0.379,0.656,0.746,-11.695,-6.557,-6.099,23,0
64132,-0.323,0.7,0.782,-5.153,2.634,-10.16,25,0
64185,-0.405,0.642,0.729,-8.076,-4.29,-11.023,24,0
64252,-0.325,0.635,0.62,-17.55,0.153,-10.168,24,0
64309,-0.379,0.661,0.737,-20.763,3.626,-11.557,39,0
64365,-0.445,0.612,0.821,-28.466,2.237,-8.427,27,0
64416,-0.339,0.571,0.786,-22.878,4.389,-11.847,30,103
64473,-0.437,0.528,0.814,-23.718,6.565,-15.282,27,0
64528,-0.426,0.528,0.736,-27.779,0.374,-13.855,23,0
64579,-0.481,0.507,0.866,-26.206,8.313,-7.191,23,105
64635,-0.411,0.461,0.808,-21.702,7.855,-2.954,27,0
64692,-0.503,0.439,0.923,-12.931,0.992,-2.885,29,0
64750,-0.464,0.459,0.858,-7.939,8.733,0.244,25,0
64806,-0.458,0.461,0.805,-11.237,0.626,-0.122,23,0
64863,-0.455,0.393,0.891,-8.015,-3.626,1.053,23,0
64914,-0.386,0.385,0.812,-6.344,2.099,-2.748,26,120
64970,-0.51,0.42,0.862,-0.496,-3.74,1.718,26,0
65027,-0.403,0.412,0.875,10.374,-3.618,9.099,29,0
65083,-0.439,0.433,0.952,18.435,-3.664,6.71,29,0
65139,-0.437,0.445,0.861,25.145,-2.214,5.618,30,0
65196,-0.407,0.472,0.797,19.015,-6.443,2.916,28,0
65255,-0.406,0.518,0.745,13.55,-3.176,2.885,34,0
65311,-0.414,0.494,0.884,18.298,-5.359,6.366,30,0
65368,-0.309,0.572,0.793,25.924,-6.947,-3.481,29,0
65424,-0.515,0.643,0.745,18.565,5.542,1.702,30,0
65480,-0.312,0.601,0.696,5.473,5,6.023,30,0
65538,-0.36,0.559,0.921,12.107,-3.641,-2.809,31,0
65594,-0.404,0.715,0.76,14.832,-0.443,-0.611,30,0
65650,-0.376,0.653,0.629,-7.069,5.366,5.42,30,0
65707,-0.347,0.562,0.896,-10.588,0.756,4.443,30,0
65766,-0.291,0.669,0.752,10.527,-3.672,-3.427,30,0
65822,-0.448,0.586,0.661,-4.076,1.504,5.969,30,0