Timestamp(ms),AccelX(g),AccelY(g),AccelZ(g),GyroX(deg/s),GyroY(deg/s),GyroZ(deg/s),DistanceLeft(cm),DistanceRight(cm)
389211,0.698,-0.316,-0.698,13.870,0.046,-0.588,139.0,115.0
389268,0.720,-0.334,-0.723,11.634,2.450,-10.840,0.0,114.0
389326,0.715,-0.386,-0.768,62.076,13.107,-21.359,0.0,115.0
389385,0.735,-0.279,-0.817,42.153,28.885,-39.511,0.0,115.0
389435,0.602,-0.462,-0.664,85.244,46.870,-35.298,45.0,143.0
389496,0.668,-0.164,-0.737,41.740,60.130,-35.290,162.0,148.0
389545,0.628,-0.448,-0.536,74.244,76.160,-23.214,43.0,122.0
389595,0.710,-0.135,-0.589,51.214,89.053,-27.840,46.0,121.0
389645,0.700,-0.347,-0.396,61.863,103.496,-24.267,47.0,118.0
389691,0.700,-0.141,-0.404,70.771,113.084,-26.901,50.0,58.0
389737,0.787,-0.272,-0.236,73.336,133.565,-39.252,50.0,57.0
389789,0.755,-0.224,-0.142,115.260,154.366,-45.618,164.0,50.0
389839,0.780,-0.028,0.080,88.855,171.214,-64.107,119.0,48.0
389892,0.702,-0.143,0.466,80.397,181.718,-78.763,120.0,47.0
389942,0.560,0.088,0.680,103.496,170.763,-84.672,122.0,48.0
389992,0.489,0.238,0.923,83.427,151.038,-100.550,125.0,50.0
390041,0.432,0.283,1.061,104.046,130.809,-101.435,126.0,49.0
390092,0.380,0.550,1.082,81.519,118.466,-92.779,129.0,50.0
390142,0.187,0.591,1.121,43.237,79.084,-74.664,132.0,57.0
390195,0.309,0.711,1.148,50.763,55.359,-36.450,165.0,37.0
390248,0.227,0.689,0.969,2.687,25.412,-31.840,0.0,40.0
390311,0.249,0.533,0.882,0.702,16.183,-4.725,0.0,0.0
390372,0.222,0.422,0.816,24.878,-3.244,-6.389,0.0,116.0
390430,0.302,0.620,0.756,23.733,11.359,-7.466,0.0,115.0
390494,0.550,0.643,0.987,-10.214,31.542,-21.802,0.0,0.0
390556,0.145,0.480,0.972,-3.244,12.550,-16.176,0.0,0.0
390620,0.117,0.691,0.884,5.450,-3.443,1.267,0.0,0.0
390682,0.158,0.576,0.927,5.145,-19.580,15.977,0.0,0.0
390740,0.280,0.686,0.974,-2.771,-29.298,25.176,0.0,116.0
390795,0.274,0.851,1.056,-19.145,-40.534,44.382,0.0,36.0
390847,0.245,0.772,1.159,-10.084,-82.290,81.763,166.0,43.0
390900,0.349,0.755,1.084,-16.359,-118.344,125.763,130.0,57.0
390951,0.338,0.558,1.010,-5.634,-155.908,160.053,127.0,49.0
391002,0.480,0.493,0.845,-19.084,-176.046,183.214,125.0,51.0
391048,0.541,0.228,0.682,-5.718,-198.550,196.229,61.0,54.0
391095,0.568,0.098,0.408,1.496,-205.176,202.893,52.0,59.0
391140,0.540,-0.124,0.206,5.656,-203.481,197.649,46.0,52.0
391186,0.457,-0.221,-0.003,25.427,-189.244,200.542,39.0,53.0
391233,0.394,-0.499,-0.098,42.069,-161.847,203.725,45.0,73.0
391289,0.329,-0.274,-0.414,22.656,-126.855,211.290,34.0,0.0
391347,0.316,-0.660,-0.441,-81.000,-101.122,180.176,91.0,0.0
391400,0.189,-0.982,-0.414,-68.740,-87.137,145.015,28.0,0.0
391454,0.104,-0.731,-0.534,-32.931,-71.771,130.214,27.0,0.0
391507,-0.079,-0.793,-0.631,-78.679,-83.916,102.076,24.0,0.0
391561,-0.198,-0.807,-0.672,-24.160,-89.107,107.084,24.0,0.0
391610,-0.235,-0.656,-0.781,-47.092,-75.931,96.458,29.0,125.0
391658,-0.307,-0.898,-0.761,-44.061,-56.229,78.779,20.0,125.0
391710,-0.346,-0.852,-0.784,-0.405,-35.656,71.382,19.0,127.0
391759,-0.323,-0.735,-0.774,-29.244,-16.863,51.412,29.0,115.0
391818,-0.387,-0.773,-0.705,-36.947,-5.237,33.137,0.0,114.0
391917,-0.450,-0.637,-0.672,-0.992,-4.450,28.947,0.0,82.0
391964,-0.475,-0.712,-0.609,13.031,-16.244,24.176,28.0,82.0
392020,-0.454,-0.649,-0.656,19.840,-19.511,21.359,0.0,81.0
392077,-0.442,-0.654,-0.649,-14.214,-10.214,10.725,0.0,82.0
392134,-0.429,-0.635,-0.622,1.168,5.145,9.695,0.0,82.0
392190,-0.432,-0.595,-0.655,-19.641,9.863,5.954,0.0,88.0
392251,-0.478,-0.644,-0.622,-4.458,8.931,13.084,0.0,90.0
392307,-0.460,-0.602,-0.669,-3.977,-3.710,14.145,0.0,82.0
392365,-0.476,-0.661,-0.660,-0.374,-9.969,11.634,0.0,83.0
392421,-0.453,-0.583,-0.644,16.504,-6.870,11.634,0.0,79.0
392477,-0.457,-0.588,-0.630,3.053,-0.137,11.595,0.0,78.0
392534,-0.491,-0.562,-0.623,-1.565,5.748,17.115,0.0,78.0
392590,-0.500,-0.575,-0.599,-10.794,-0.786,16.931,0.0,78.0
392646,-0.503,-0.619,-0.596,-1.550,-9.550,17.573,0.0,78.0
392702,-0.496,-0.560,-0.641,3.496,-10.695,16.863,0.0,79.0
392763,-0.516,-0.572,-0.649,-0.550,-6.420,13.168,0.0,79.0
392819,-0.556,-0.547,-0.669,0.031,-2.847,12.183,0.0,78.0
392876,-0.567,-0.521,-0.678,-7.466,2.450,9.908,0.0,78.0
392932,-0.539,-0.550,-0.638,0.832,5.008,11.206,0.0,79.0
392988,-0.645,-0.591,-0.722,-30.359,9.389,-3.626,0.0,79.0
393046,-0.637,-0.583,-0.621,22.573,4.725,1.374,0.0,78.0
393091,-0.609,-0.458,-0.721,20.969,1.740,3.305,17.0,79.0
393147,-0.657,-0.504,-0.740,-4.076,0.931,-3.756,0.0,78.0
393204,-0.668,-0.621,-0.741,2.908,11.863,-12.634,0.0,78.0
393264,-0.642,-0.616,-0.712,4.611,17.534,-36.916,0.0,78.0
393320,-0.594,-0.698,-0.675,13.336,13.359,-59.076,0.0,78.0
393367,-0.563,-0.639,-0.680,38.260,3.695,-73.954,24.0,81.0
393423,-0.473,-0.667,-0.683,33.664,0.427,-86.160,0.0,83.0
393483,-0.397,-0.694,-0.642,35.206,8.870,-94.092,0.0,115.0
393531,-0.310,-0.681,-0.651,46.542,22.344,-96.191,20.0,114.0
393590,-0.186,-0.744,-0.589,31.534,36.084,-102.176,0.0,129.0
393649,-0.046,-0.800,-0.523,27.656,63.015,-109.168,25.0,0.0
393704,0.026,-0.796,-0.478,15.099,83.237,-117.427,25.0,0.0
393757,0.116,-0.866,-0.401,11.763,91.298,-127.710,25.0,0.0
393809,0.192,-0.872,-0.407,35.305,100.183,-135.137,27.0,0.0
393863,0.277,-0.741,-0.412,23.130,107.580,-150.832,30.0,0.0
393914,0.413,-0.753,-0.306,26.176,107.397,-163.389,83.0,117.0
393960,0.498,-0.603,-0.244,34.641,112.092,-173.954,36.0,74.0
394005,0.550,-0.489,-0.157,42.756,104.397,-182.679,37.0,69.0
394051,0.629,-0.333,-0.083,54.595,103.115,-188.198,52.0,50.0
394100,0.657,-0.146,0.037,64.061,98.221,-193.824,57.0,60.0
394146,0.782,0.026,0.162,84.969,97.908,-194.496,63.0,57.0
394193,0.646,0.216,0.215,119.336,82.527,-198.282,71.0,52.0
394249,0.693,0.801,0.140,121.886,55.282,-177.939,0.0,72.0
394307,0.800,0.771,0.351,8.550,50.260,-181.481,0.0,137.0
394370,0.547,0.927,0.387,21.603,63.519,-146.321,0.0,0.0
394432,0.529,0.864,0.562,-3.656,49.962,-132.260,0.0,0.0
394494,0.380,1.014,0.527,-18.275,39.656,-100.870,0.0,0.0
394558,0.345,0.870,0.571,-8.740,31.389,-67.023,0.0,0.0
394622,0.278,0.945,0.493,-20.031,17.221,-58.198,0.0,0.0
394719,0.230,0.846,0.482,-28.176,22.534,-64.733,0.0,16.0
394770,0.235,0.924,0.547,-19.405,30.550,-48.023,0.0,8.0
394822,0.042,0.936,0.533,-16.649,21.504,-56.359,0.0,7.0
394888,0.021,0.897,0.628,-20.863,18.145,-36.237,0.0,0.0
394950,-0.030,1.168,0.594,-14.275,5.008,-14.939,0.0,0.0
395014,0.056,0.845,0.550,-7.565,1.084,2.405,0.0,0.0
395076,-0.015,0.910,0.560,-27.710,5.748,-8.198,0.0,0.0
395139,0.014,0.761,0.608,-23.191,3.511,-3.565,0.0,0.0
395204,-0.011,0.748,0.673,0.260,-0.756,-0.466,0.0,0.0
395267,-0.010,0.813,0.610,15.336,-4.573,-0.832,0.0,0.0
395329,0.020,0.853,0.562,3.542,-0.214,1.809,0.0,0.0
395392,-0.007,0.782,0.637,1.824,-1.420,3.664,0.0,0.0
395454,-0.020,1.030,0.604,5.336,-8.130,27.115,0.0,0.0
395516,-0.008,0.950,0.717,13.466,-25.328,56.206,0.0,0.0
395579,0.101,0.956,0.742,-1.779,-45.298,78.237,0.0,0.0
395642,0.277,1.162,0.700,1.374,-51.817,92.183,0.0,0.0
395705,0.238,1.042,0.729,-16.771,-66.542,118.099,0.0,0.0
395762,0.346,0.979,0.657,-18.840,-86.122,166.603,0.0,57.0
395813,0.435,0.785,0.601,-18.191,-98.069,192.527,132.0,71.0
395865,0.563,0.553,0.509,-32.870,-102.603,207.817,128.0,58.0
395912,0.643,0.315,0.448,-26.160,-107.939,198.458,62.0,59.0
395958,0.660,0.134,0.323,-13.901,-107.252,190.763,57.0,65.0
396005,0.661,0.095,0.103,-27.985,-100.198,182.886,52.0,61.0
396051,0.665,-0.007,-0.026,-84.870,-93.519,169.191,46.0,62.0
396104,0.631,-0.332,0.010,-101.618,-97.618,160.214,174.0,67.0
396151,0.602,-0.582,-0.035,-33.588,-101.702,162.656,44.0,70.0
396208,0.548,-0.623,-0.162,16.275,-103.458,165.733,36.0,0.0
396265,0.458,-0.556,-0.271,5.397,-92.924,154.893,101.0,0.0
396327,0.403,-0.757,-0.292,-33.550,-85.466,131.443,0.0,0.0
396381,0.225,-0.862,-0.381,-54.366,-72.412,112.534,31.0,0.0
396434,0.086,-0.850,-0.497,-23.328,-76.496,89.649,30.0,0.0
396488,-0.003,-0.714,-0.520,-12.817,-82.183,93.748,34.0,0.0
396541,-0.068,-0.750,-0.578,-18.863,-84.687,101.595,37.0,0.0
396602,-0.144,-0.771,-0.618,-17.473,-75.412,108.099,0.0,162.0
396663,-0.256,-0.777,-0.662,-29.145,-45.344,106.939,0.0,111.0
396722,-0.390,-0.898,-0.698,-26.450,-7.275,88.435,0.0,111.0
396778,-0.436,-0.849,-0.690,-35.550,21.313,62.771,0.0,79.0
396833,-0.431,-0.795,-0.621,-28.046,31.885,44.817,0.0,79.0
396890,-0.416,-0.741,-0.609,-24.756,21.290,39.985,0.0,79.0
396946,-0.491,-0.734,-0.602,-18.046,-0.206,29.756,0.0,76.0
397001,-0.497,-0.705,-0.627,11.771,-14.794,29.618,0.0,75.0
397058,-0.509,-0.634,-0.660,7.122,-18.328,23.015,0.0,75.0
397113,-0.465,-0.545,-0.625,-14.664,-6.939,18.519,0.0,75.0
397172,-0.448,-0.640,-0.588,-5.489,0.053,21.130,0.0,76.0
397229,-0.495,-0.543,-0.659,-23.779,-1.237,19.962,0.0,76.0
397284,-0.501,-0.413,-0.978,-75.282,4.901,5.878,0.0,76.0
397340,-0.605,-0.994,-0.516,-10.198,6.412,-11.366,0.0,77.0
397396,-0.576,-0.443,-0.861,84.069,-0.099,9.298,0.0,77.0
397453,-0.567,-0.499,-0.744,0.115,-6.885,0.786,0.0,77.0
397508,-0.564,-0.649,-0.734,-19.748,5.702,-6.527,0.0,76.0
397607,-0.558,-0.675,-0.736,16.282,24.634,-39.817,0.0,76.0
397667,-0.603,-0.727,-0.722,31.412,20.595,-62.710,0.0,81.0
397723,-0.480,-0.761,-0.753,31.321,6.672,-81.740,0.0,80.0
397782,-0.328,-0.740,-0.715,55.275,18.275,-99.672,0.0,111.0
397830,-0.212,-0.755,-0.659,39.626,28.481,-117.168,21.0,123.0
397881,-0.115,-0.744,-0.598,51.656,47.359,-118.450,26.0,163.0
397935,0.051,-0.753,-0.570,32.290,63.840,-120.649,36.0,0.0
397988,0.114,-0.822,-0.497,18.313,71.084,-128.107,26.0,0.0
398042,0.231,-0.823,-0.409,28.550,79.015,-129.160,28.0,0.0
398095,0.270,-0.736,-0.391,24.855,82.771,-128.954,30.0,0.0
398160,0.354,-0.651,-0.340,40.954,85.198,-122.435,34.0,0.0
398215,0.537,-0.608,-0.297,31.023,90.947,-121.000,37.0,0.0
398269,0.533,-0.508,-0.248,12.947,102.229,-117.565,169.0,78.0
398322,0.652,-0.514,-0.135,4.282,106.962,-121.748,170.0,57.0
398369,0.601,-0.434,-0.038,-0.229,121.427,-125.473,43.0,69.0
398416,0.649,-0.326,0.017,-11.405,143.183,-134.832,48.0,66.0
398464,0.514,-0.200,0.027,-36.412,153.115,-146.611,55.0,61.0
398511,0.708,-0.251,0.300,-5.198,146.229,-174.275,59.0,57.0
398561,0.578,-0.160,0.515,59.137,131.427,-193.588,66.0,54.0
398611,0.467,0.380,0.769,146.511,117.679,-183.939,126.0,50.0
398662,0.563,1.243,0.714,100.725,93.626,-157.718,129.0,66.0
398714,0.386,0.971,0.948,-24.351,85.061,-147.427,132.0,56.0
398769,0.284,0.888,0.911,-58.321,70.748,-75.137,0.0,54.0
398827,0.332,0.619,0.990,-25.977,41.962,-46.695,0.0,115.0
398881,0.208,0.521,0.849,-19.794,19.450,-17.618,0.0,44.0
398940,0.374,0.659,0.789,33.214,3.832,0.092,0.0,117.0
399003,0.351,0.654,0.706,-20.489,4.985,0.504,0.0,0.0
399065,0.941,0.974,0.862,35.443,32.809,-24.137,0.0,116.0
399123,0.385,0.537,0.896,-41.397,14.168,-5.656,0.0,115.0
399181,0.240,0.672,0.823,-9.359,10.863,12.176,0.0,115.0
399241,0.269,0.542,0.854,-15.702,-5.153,10.031,0.0,116.0
399299,0.316,0.507,0.820,1.160,-9.527,10.031,0.0,116.0
399357,0.338,0.498,0.816,6.954,-15.130,1.496,0.0,116.0
399416,0.322,0.559,0.813,8.817,-20.053,1.863,0.0,117.0
399479,0.331,0.680,0.781,21.977,-32.550,10.954,0.0,0.0
399543,0.324,0.699,0.761,8.908,-41.206,35.244,0.0,0.0
399600,0.426,0.712,0.751,3.618,-55.496,61.336,0.0,45.0
399654,0.485,0.629,0.707,-19.687,-68.092,87.588,0.0,50.0
399710,0.628,0.460,0.629,0.901,-77.176,103.405,0.0,52.0
399761,0.811,0.436,0.537,-12.649,-68.695,105.695,130.0,57.0
399812,0.888,0.312,0.499,-8.519,-54.160,106.992,125.0,53.0
399862,0.951,0.302,0.425,-31.115,-39.756,104.153,123.0,55.0
399910,0.958,0.104,0.432,-43.931,-29.115,94.931,80.0,55.0
399959,0.918,0.024,0.420,-38.985,-14.893,90.489,77.0,57.0
400007,0.881,-0.028,0.381,-49.863,-4.481,79.084,77.0,58.0
400058,0.847,-0.166,0.413,-47.809,3.153,64.695,75.0,59.0
400105,0.816,-0.231,0.439,-24.756,6.168,59.603,44.0,62.0
400151,0.817,-0.199,0.407,-21.282,6.824,56.221,41.0,65.0
400197,0.800,-0.248,0.422,-47.229,6.947,46.847,39.0,66.0
400244,0.791,-0.382,0.451,-39.733,5.527,44.702,38.0,66.0
400334,0.780,-0.453,0.442,-29.191,10.565,34.870,36.0,70.0
400380,0.779,-0.456,0.455,-27.206,10.908,26.939,36.0,70.0
400428,0.797,-0.480,0.469,-25.221,7.901,22.992,36.0,72.0
400479,0.797,-0.469,0.485,-21.282,6.351,22.885,65.0,74.0
400527,0.832,-0.481,0.454,-13.824,6.076,23.328,39.0,78.0
400578,0.904,-0.459,0.398,-15.733,11.115,25.947,63.0,131.0
400630,0.876,-0.454,0.379,-19.534,21.206,34.153,33.0,78.0
400684,0.886,-0.425,0.394,-9.977,25.244,55.550,55.0,179.0
400736,0.871,-0.400,0.384,7.939,27.527,83.519,36.0,181.0
400788,0.923,-0.404,0.363,19.405,27.366,115.328,37.0,185.0
400842,0.878,-0.457,0.303,41.519,38.855,150.924,58.0,0.0
400905,0.558,-0.523,0.227,75.725,33.313,154.382,0.0,0.0
400970,0.309,-0.328,0.362,125.344,79.244,135.511,0.0,0.0
401027,-0.291,-0.129,0.682,78.145,98.366,99.550,27.0,0.0
401089,-0.595,-0.322,0.995,19.527,93.008,78.977,0.0,0.0
401149,-0.584,-0.359,1.222,34.931,54.756,119.947,159.0,0.0
401210,-0.543,-0.292,1.070,-2.000,1.595,141.649,157.0,0.0
401269,-0.531,-0.436,0.855,22.756,-41.252,146.664,152.0,0.0
401326,-0.447,-0.333,0.756,89.443,-50.519,153.763,25.0,0.0
401371,-0.533,-0.094,0.707,34.924,-41.611,138.389,24.0,61.0
401416,-0.531,-0.240,0.864,18.374,-26.580,127.496,38.0,61.0
401474,-0.512,-0.017,0.874,0.130,-13.267,111.069,0.0,88.0
401529,-0.480,-0.030,0.917,29.214,-21.107,107.626,0.0,63.0
401582,-0.498,0.159,0.861,66.084,-43.198,99.031,21.0,0.0
401638,-0.404,0.261,0.837,42.664,-35.832,91.496,20.0,0.0
401682,-0.331,0.148,0.909,27.893,-31.672,82.595,21.0,60.0
401725,-0.237,0.181,0.908,54.756,-32.611,61.313,20.0,41.0
401769,-0.229,0.289,0.869,71.420,-41.145,61.870,19.0,56.0
401813,-0.129,0.387,0.851,47.595,-42.198,51.740,22.0,51.0
401860,-0.252,0.512,0.993,-0.160,-37.076,47.603,19.0,51.0
401903,-0.224,0.493,1.098,-16.145,-29.779,30.878,19.0,51.0
401947,-0.280,0.475,1.076,-18.504,-28.733,35.878,19.0,50.0
401990,-0.080,0.481,0.988,-24.053,-39.496,23.015,19.0,50.0
402034,-0.024,0.223,0.971,18.374,-33.427,19.336,18.0,51.0
402076,0.069,0.353,0.941,5.298,-6.282,7.817,16.0,24.0
402120,-0.073,0.227,0.970,-62.420,44.176,2.000,17.0,50.0
402163,0.006,0.005,1.141,44.237,-0.863,-14.847,16.0,50.0
402207,0.125,0.510,0.698,99.031,27.534,12.420,16.0,51.0
402251,0.198,0.573,0.811,38.374,39.176,-9.267,16.0,16.0
402293,-0.616,1.088,1.415,-36.122,4.290,7.153,17.0,16.0
402334,0.162,0.132,0.720,1.565,-16.702,3.634,16.0,16.0
402376,0.029,0.659,0.868,-42.519,20.542,-10.718,16.0,16.0
402417,-0.191,0.175,1.173,16.656,-9.366,3.321,16.0,18.0
402459,-0.133,0.241,1.069,45.321,2.168,0.779,16.0,16.0
402503,-0.021,0.248,0.939,67.168,-4.611,7.565,18.0,51.0
402547,-0.019,0.771,0.717,63.740,-6.802,0.145,18.0,57.0
402592,-0.072,0.346,0.975,70.107,-3.847,12.595,20.0,71.0
402639,-0.049,0.615,0.836,73.244,-1.168,17.031,21.0,71.0
402681,0.006,0.802,0.676,59.023,-0.305,14.252,23.0,9.0
402726,-0.017,0.687,0.831,30.626,3.817,10.977,27.0,71.0
402816,0.036,0.645,0.714,19.412,0.313,4.267,26.0,71.0
402871,-0.066,0.721,0.722,-14.420,13.359,13.855,0.0,71.0
402926,0.060,0.806,0.580,-11.160,3.740,5.458,0.0,71.0
402971,-0.024,0.690,0.749,-44.664,14.649,7.870,16.0,71.0
403026,-0.041,0.671,0.822,-48.229,10.618,5.298,0.0,71.0
403072,0.076,0.745,0.697,-35.672,10.137,13.664,20.0,71.0
403120,-0.129,0.438,0.943,-34.321,12.595,5.412,19.0,71.0
403162,-0.037,0.558,0.849,20.450,-2.328,5.321,20.0,16.0
403207,-0.043,0.434,0.848,22.748,0.794,-6.779,21.0,71.0
403249,-0.099,0.852,0.685,-0.084,1.916,-11.542,24.0,17.0
403295,-0.065,0.495,0.920,-6.718,-0.298,-4.427,25.0,71.0
403337,0.004,0.994,0.488,6.947,-2.389,-7.878,29.0,17.0
403380,-0.107,0.565,0.907,-73.702,7.366,-7.229,26.0,16.0
403425,-0.040,0.360,0.872,23.573,11.061,18.901,29.0,71.0
403468,-0.037,0.528,0.880,-86.336,-0.687,-22.015,29.0,16.0
403513,-0.330,0.226,0.965,45.435,5.901,22.954,32.0,16.0
403556,0.024,0.808,0.708,-1.305,-6.779,-22.702,30.0,16.0
403599,-0.173,0.363,0.894,3.405,-1.550,-0.969,32.0,16.0
403641,-0.005,0.706,0.790,3.053,0.313,4.328,33.0,16.0
403684,0.041,0.753,0.862,-24.603,-4.206,-2.389,38.0,17.0
403730,-0.009,1.008,0.767,31.427,-1.672,66.183,33.0,72.0
403773,0.271,1.496,0.686,14.275,-26.435,97.809,31.0,16.0
403819,0.045,0.709,0.480,61.298,-30.168,134.756,27.0,78.0
403865,-0.034,0.421,0.597,62.267,-13.046,103.817,23.0,82.0
403914,-0.013,0.251,0.794,75.588,-1.855,32.344,19.0,87.0
403960,-0.310,0.198,0.999,21.336,-22.756,-38.771,17.0,90.0
404018,-0.090,0.552,1.163,46.573,46.573,-1.481,0.0,93.0
404064,0.063,0.505,0.729,77.107,6.969,-6.275,16.0,93.0
404116,0.139,0.839,0.533,124.427,11.298,14.427,17.0,0.0
404172,0.356,0.782,0.468,-20.336,52.763,-20.344,16.0,0.0
404214,0.033,1.097,0.665,29.687,39.519,10.221,19.0,16.0
404267,-0.009,0.867,0.601,-10.924,20.427,12.969,17.0,0.0
404323,0.039,0.627,0.701,8.954,21.939,0.939,17.0,0.0
404379,0.026,0.825,0.630,12.183,20.901,16.580,18.0,0.0
404434,0.099,0.938,0.544,4.282,1.015,13.832,17.0,0.0
404488,0.090,0.656,0.666,13.382,-1.115,-1.557,17.0,0.0
404544,0.075,0.950,0.472,34.672,-5.901,-2.763,16.0,0.0
404596,0.091,0.788,0.566,17.695,-4.412,4.985,16.0,0.0
404653,0.173,1.007,0.365,25.061,4.168,7.435,17.0,0.0
404705,0.008,0.841,0.551,-1.321,11.550,6.718,18.0,0.0
404761,0.095,0.935,0.490,-4.885,5.137,6.038,16.0,0.0
404813,0.150,0.907,0.442,-23.985,12.130,-0.618,15.0,0.0
404858,-0.012,0.738,0.591,6.107,13.931,1.191,14.0,5.0
404899,0.004,0.979,0.491,-25.527,9.603,2.565,14.0,3.0
404940,-0.011,0.763,0.625,-17.504,1.519,2.924,13.0,4.0
404993,0.091,0.764,0.538,22.412,2.916,6.985,14.0,0.0
405049,0.102,1.027,0.409,-26.420,3.954,0.130,12.0,0.0
405101,0.106,0.768,0.579,-10.885,8.687,-5.122,14.0,0.0
405157,0.020,0.897,0.603,-8.031,2.924,-1.397,16.0,0.0
405210,0.048,0.740,0.534,16.206,-3.084,-1.435,16.0,0.0
405306,0.001,0.806,0.598,7.969,2.794,1.916,17.0,0.0
405362,0.090,0.858,0.549,15.336,-4.527,4.771,16.0,0.0
405417,0.076,0.922,0.454,11.466,-6.145,4.252,16.0,0.0
405471,0.023,0.801,0.528,5.901,0.481,-4.802,17.0,0.0
405527,0.113,0.943,0.475,0.626,-5.832,0.870,16.0,0.0
405579,0.031,0.881,0.498,5.229,-4.916,-5.748,16.0,0.0
405636,0.104,0.866,0.506,-5.214,0.748,-4.023,17.0,0.0
405679,0.063,0.896,0.441,6.260,-2.015,0.733,37.0,5.0
405721,0.082,0.879,0.514,-15.817,1.450,-1.626,16.0,16.0
405773,0.048,0.891,0.515,13.527,-0.076,7.771,13.0,0.0
405829,0.058,0.812,0.530,-11.595,1.626,-0.763,14.0,0.0
405874,0.086,0.906,0.502,3.412,-3.160,2.107,16.0,5.0
405915,0.066,0.894,0.472,-1.397,0.954,-0.405,16.0,5.0
405957,0.065,0.879,0.500,-4.023,0.427,0.313,18.0,5.0
405998,0.038,0.843,0.552,2.656,-0.969,-0.397,13.0,5.0
406050,0.084,0.942,0.448,6.107,-2.168,2.237,13.0,0.0
406107,0.045,0.814,0.544,-3.130,1.893,-2.489,16.0,0.0
406170,0.087,0.901,0.458,2.252,-2.405,1.511,0.0,0.0
406234,0.035,0.929,0.504,6.870,-1.466,0.237,0.0,0.0
406290,0.072,0.802,0.519,-1.405,-1.672,-1.626,16.0,0.0
406346,0.074,0.998,0.423,-2.473,-0.756,2.855,16.0,0.0
406402,0.062,0.815,0.537,5.069,-1.634,-1.267,13.0,0.0
406455,0.065,0.914,0.466,-9.954,0.481,-0.366,13.0,0.0
406511,0.071,0.890,0.516,7.565,-3.069,1.313,16.0,0.0
406563,0.072,0.892,0.465,-6.450,1.015,-1.092,0.0,5.0
406619,0.038,0.881,0.471,4.603,-2.695,1.252,0.0,5.0
406661,0.059,0.859,0.527,-3.023,-0.099,-1.427,17.0,5.0
406714,0.052,0.910,0.459,6.542,-1.763,0.985,16.0,0.0
406769,0.055,0.821,0.546,-4.008,0.435,-2.115,14.0,0.0
406814,0.101,0.934,0.428,-3.924,2.069,-0.733,14.0,4.0
406856,0.050,0.862,0.522,-1.107,1.794,-0.939,13.0,4.0
406897,0.022,0.936,0.450,0.725,-1.794,0.519,15.0,4.0
406939,0.073,0.875,0.493,-0.534,-1.969,1.099,15.0,4.0
406986,0.054,0.916,0.463,-0.672,0.221,-0.076,15.0,4.0
407026,0.072,0.846,0.502,-1.229,-1.580,-1.176,15.0,4.0
407067,0.052,0.914,0.473,5.450,-0.313,-0.282,15.0,4.0
407107,0.082,0.897,0.460,-3.534,-1.466,1.710,15.0,4.0
407148,0.050,0.850,0.530,1.916,-0.336,-1.130,15.0,4.0
407188,0.055,0.937,0.434,5.458,-1.740,1.458,13.0,4.0
407231,0.061,0.845,0.481,-7.481,1.321,-1.954,13.0,4.0
407272,0.054,0.906,0.515,7.221,-1.595,1.298,15.0,4.0
407312,0.084,0.928,0.408,-3.916,-0.099,0.260,15.0,4.0
407353,0.028,0.834,0.541,-0.115,-0.351,-0.473,13.0,4.0
407393,0.071,0.939,0.425,-0.550,-0.641,1.107,13.0,4.0
407434,0.061,0.852,0.515,1.290,-0.740,-0.450,14.0,4.0
407485,0.051,0.929,0.436,2.176,-1.015,0.344,13.0,0.0
407540,0.070,0.865,0.499,0.580,-0.450,-0.588,14.0,0.0
407581,0.070,0.944,0.434,0.954,-1.664,0.336,14.0,7.0
407625,0.064,0.877,0.483,-0.573,-0.298,-0.473,14.0,7.0
407666,0.083,0.936,0.449,0.382,-0.771,0.870,14.0,7.0
407750,0.063,0.915,0.443,6.237,-1.809,0.534,14.0,6.0
407790,0.065,0.905,0.456,-8.443,0.977,-1.092,13.0,7.0
407831,0.044,0.837,0.528,6.695,-2.618,0.878,13.0,7.0
407872,0.084,0.946,0.413,-1.374,-0.588,-0.641,15.0,3.0
407912,0.062,0.887,0.494,-3.397,0.053,0.168,15.0,6.0
407953,0.069,0.873,0.463,5.336,-1.855,-0.649,13.0,3.0
407994,0.065,0.940,0.445,-2.443,0.840,-0.710,16.0,3.0
408037,0.056,0.847,0.501,2.527,-1.366,0.924,16.0,3.0
408078,0.083,0.962,0.416,-2.366,-0.588,-1.061,16.0,3.0
408119,0.061,0.879,0.489,-2.443,0.534,0.092,16.0,3.0
408159,0.066,0.888,0.446,1.229,0.038,-0.290,17.0,3.0
408200,0.053,0.902,0.491,-0.733,-0.817,-0.389,16.0,3.0
408241,0.076,0.886,0.440,3.137,-1.008,0.473,15.0,3.0
408281,0.037,0.910,0.464,-1.542,-0.641,-0.321,15.0,3.0
408322,0.085,0.896,0.459,0.496,-0.748,0.542,16.0,3.0
408363,0.060,0.883,0.472,0.412,-1.305,-0.313,16.0,5.0
408415,0.060,0.929,0.437,2.282,-0.649,-0.160,15.0,0.0
408469,0.066,0.890,0.483,0.275,-1.351,0.061,15.0,0.0
408525,0.059,0.909,0.430,1.786,-1.153,0.458,15.0,0.0
408577,0.058,0.841,0.506,-5.412,-0.916,-1.160,15.0,0.0
408633,0.063,0.954,0.418,4.489,-1.160,-0.374,16.0,0.0
408674,0.061,0.831,0.514,-3.550,-0.573,0.252,17.0,8.0
408715,0.063,0.927,0.427,5.443,-1.389,-0.649,18.0,5.0
408756,0.084,0.930,0.431,-4.916,0.580,0.038,16.0,5.0
408797,0.040,0.865,0.496,0.977,-0.947,-0.595,16.0,6.0
408838,0.096,0.946,0.435,1.290,-0.466,0.107,16.0,4.0
408881,0.052,0.872,0.476,-1.099,0.130,-0.832,15.0,4.0
408922,0.051,0.953,0.425,-3.137,-1.069,-0.214,14.0,4.0
408963,0.060,0.844,0.496,-1.137,-1.489,-0.359,14.0,4.0
409015,0.053,0.939,0.425,4.191,-0.405,-0.947,14.0,0.0
409070,0.064,0.870,0.460,-8.305,0.267,-0.603,14.0,0.0
409111,0.044,0.895,0.462,6.702,-1.939,-0.382,13.0,5.0
409163,0.066,0.917,0.452,-2.313,-0.855,-1.046,13.0,0.0
409219,0.064,0.929,0.439,5.107,-1.389,0.130,14.0,0.0
409271,0.039,0.877,0.490,-6.771,0.176,-0.115,14.0,0.0
409315,0.055,0.918,0.407,6.366,-1.588,0.618,13.0,5.0
409367,0.064,0.908,0.479,-8.763,-0.580,-0.718,13.0,0.0
409422,0.050,0.917,0.425,4.550,-0.008,0.687,13.0,0.0
409475,0.080,0.896,0.433,-2.893,0.580,-0.267,15.0,0.0
409531,0.042,0.890,0.485,3.824,-2.244,0.580,15.0,0.0
409583,0.066,0.909,0.458,-4.916,0.611,-1.099,17.0,0.0
409638,0.065,0.899,0.442,3.351,-0.992,0.740,17.0,0.0
409680,0.069,0.915,0.452,1.160,-0.206,-1.405,16.0,4.0
409721,0.041,0.910,0.433,-1.679,1.038,-0.809,16.0,4.0
409774,0.038,0.890,0.468,1.206,-0.718,-1.160,16.0,0.0
409829,0.057,0.932,0.451,0.206,-1.298,-0.290,17.0,0.0
409884,0.044,0.894,0.460,-0.443,-1.931,3.496,16.0,0.0
409925,0.085,0.892,0.440,0.504,-0.511,0.008,16.0,4.0
409977,0.020,0.922,0.463,-10.076,-0.611,0.901,16.0,0.0
410034,0.084,0.925,0.438,2.786,-2.847,1.954,17.0,0.0
410130,0.047,0.938,0.459,0.550,-0.099,2.260,17.0,0.0
410185,0.089,0.874,0.474,-12.977,3.908,0.374,13.0,0.0
410226,0.063,0.995,0.378,4.916,1.511,-2.511,13.0,6.0
410278,0.018,0.893,0.529,-20.794,4.672,-6.389,12.0,0.0
410322,0.094,0.977,0.319,-10.687,4.298,-5.366,13.0,6.0
410363,-0.065,0.828,0.617,-28.756,2.855,-11.954,14.0,3.0
410417,0.080,0.662,0.691,-23.878,-21.061,-25.580,15.0,0.0
410472,0.126,1.085,0.211,0.420,-10.336,-14.450,16.0,0.0
410525,0.064,0.990,0.306,-92.931,9.557,-3.374,17.0,0.0
410582,-0.025,0.654,0.822,-27.748,5.916,-3.809,19.0,0.0
410636,0.044,0.997,0.418,26.115,-7.099,-3.115,46.0,0.0
410692,0.028,0.785,0.661,-30.336,5.901,-0.229,19.0,0.0
410744,0.023,0.914,0.534,0.046,-0.611,-1.237,18.0,0.0
410801,-0.001,0.834,0.606,-30.481,5.198,-1.206,20.0,0.0
410853,0.005,0.766,0.657,-17.519,2.351,-0.916,21.0,0.0
410916,-0.016,0.723,0.707,3.168,-1.427,-1.321,0.0,0.0
410973,-0.009,0.816,0.623,-12.237,0.901,-1.733,19.0,0.0
411026,0.005,0.722,0.664,11.420,-1.527,-0.489,21.0,0.0
411082,-0.003,0.885,0.522,5.214,-2.229,-0.695,19.0,0.0
411134,0.005,0.772,0.642,-35.260,4.924,-4.000,19.0,0.0
411198,-0.023,0.699,0.705,6.542,-2.237,-2.130,0.0,0.0
411254,-0.018,0.820,0.606,-6.420,0.305,-3.191,19.0,0.0
411319,0.018,0.802,0.603,0.618,-0.893,-5.916,22.0,0.0
411374,0.085,0.726,0.721,-13.962,3.962,-4.122,24.0,0.0
411426,-0.073,0.797,0.637,-10.550,1.840,-3.000,25.0,0.0
411483,-0.067,0.824,0.598,-29.962,-4.023,-9.046,30.0,0.0
411536,-0.157,0.937,0.542,-72.351,-5.969,-15.214,28.0,0.0
411583,-0.103,0.851,0.634,-46.748,-30.153,-43.099,30.0,94.0
411625,-0.266,0.746,0.767,-58.198,-13.115,-30.382,37.0,16.0
411672,-0.383,0.385,0.742,68.886,8.840,32.244,30.0,97.0
411719,0.020,1.087,0.463,-31.435,48.901,60.534,29.0,99.0
411768,0.172,0.509,1.076,-148.763,36.947,32.107,30.0,100.0
411817,0.028,0.238,1.102,-48.763,19.695,63.649,51.0,102.0
411866,0.010,0.515,0.842,6.221,-3.206,46.695,45.0,105.0
411914,-0.165,0.614,0.783,-17.824,-1.901,17.969,47.0,107.0
411962,-0.376,0.378,1.028,-27.504,15.115,-21.244,44.0,107.0
412010,-0.351,0.313,1.123,-63.168,44.069,-5.183,43.0,108.0
412058,-0.138,0.174,1.089,-103.130,62.412,-8.878,40.0,106.0
412106,-0.114,0.008,1.116,-54.931,67.153,-37.137,41.0,104.0
412153,-0.113,0.333,0.871,6.679,78.206,-58.305,36.0,102.0
412201,-0.222,0.453,0.944,-39.137,70.366,-88.206,39.0,50.0
412246,-0.204,0.270,0.848,-18.260,73.580,-58.885,39.0,48.0
412290,-0.154,0.405,0.812,3.099,84.336,-44.931,39.0,30.0
412333,-0.429,0.333,0.717,-34.595,73.008,-55.626,40.0,31.0
412378,-0.444,0.116,0.924,-22.122,49.710,-48.427,39.0,43.0
412422,-0.488,0.153,0.760,14.214,46.000,-36.954,39.0,36.0
412466,-0.479,0.107,0.802,7.359,39.473,-49.435,40.0,36.0
412510,-0.552,0.195,0.765,17.527,45.420,-27.679,41.0,32.0
412556,-0.687,0.141,1.110,7.931,18.015,-7.351,40.0,36.0
412600,-0.564,0.272,0.665,20.985,10.878,-0.496,40.0,31.0
412687,-0.755,-0.010,0.736,30.252,-2.053,4.550,40.0,31.0
412732,-0.664,0.322,0.578,7.092,2.748,1.641,40.0,42.0
412775,-0.684,0.091,0.818,0.802,2.496,-2.397,40.0,31.0
412819,-0.680,0.251,0.650,22.275,2.740,1.176,42.0,30.0
412863,-0.690,0.179,0.742,-7.183,6.252,-2.359,41.0,32.0
412906,-0.678,0.113,0.724,11.710,7.962,-1.885,40.0,30.0
412951,-0.702,0.264,0.744,15.794,8.298,-3.496,41.0,41.0
412998,-0.698,0.143,0.669,7.069,9.710,-4.565,41.0,41.0
413042,-0.720,0.203,0.705,-1.672,10.351,-3.756,42.0,32.0
413086,-0.710,0.129,0.645,9.145,10.305,0.931,40.0,31.0
413130,-0.726,0.194,0.667,-13.893,10.779,-1.176,40.0,41.0
413174,-0.739,0.095,0.669,4.137,7.099,1.191,41.0,41.0
413218,-0.711,0.252,0.617,-4.237,5.366,-1.206,42.0,30.0
413262,-0.738,0.197,0.657,3.756,4.481,-2.130,41.0,31.0
413306,-0.736,0.177,0.614,0.519,2.695,-2.893,40.0,41.0
413350,-0.749,0.151,0.656,-2.740,1.511,0.130,41.0,29.0
413398,-0.735,0.191,0.632,2.947,-0.328,1.901,42.0,41.0
413443,-0.723,0.189,0.642,-4.840,-1.321,-0.252,42.0,41.0
413487,-0.745,0.143,0.633,6.618,-3.817,1.183,41.0,32.0
413531,-0.737,0.208,0.631,-5.466,-6.115,-0.954,41.0,41.0
413575,-0.740,0.125,0.641,2.328,-8.847,1.008,41.0,41.0
413620,-0.720,0.226,0.628,5.275,-9.656,1.160,41.0,41.0
413664,-0.726,0.196,0.689,0.702,-10.137,-0.672,41.0,41.0
413709,-0.706,0.159,0.715,9.534,-8.107,0.733,42.0,41.0
413753,-0.703,0.210,0.717,-2.496,-3.427,0.092,42.0,41.0
413801,-0.724,0.132,0.755,1.992,0.534,2.237,42.0,41.0
413845,-0.697,0.217,0.654,5.557,0.511,3.519,41.0,42.0
413890,-0.691,0.237,0.652,-6.351,4.366,-0.427,41.0,41.0
413934,-0.739,0.214,0.686,0.298,4.122,-1.420,42.0,31.0
413978,-0.725,0.192,0.662,13.023,3.099,-0.282,42.0,41.0
414022,-0.699,0.280,0.593,-21.863,4.702,-6.115,41.0,31.0
414067,-0.727,0.029,0.698,-15.366,3.534,-6.397,41.0,42.0
414111,-0.719,0.213,0.651,31.550,0.702,2.412,42.0,41.0
414155,-0.723,0.236,0.643,-7.183,1.931,-4.573,42.0,30.0
414199,-0.734,0.158,0.670,9.229,2.420,-1.076,41.0,31.0
414247,-0.725,0.246,0.638,-2.267,4.069,-1.809,41.0,43.0
414291,-0.738,0.159,0.651,-14.069,3.771,-2.840,41.0,30.0
414336,-0.741,0.137,0.649,-1.420,3.321,0.336,42.0,30.0
414380,-0.721,0.246,0.605,-12.458,2.519,-0.443,42.0,30.0
414424,-0.753,0.086,0.675,-17.214,2.481,-2.153,42.0,36.0
414469,-0.757,0.197,0.635,13.924,-2.145,3.443,41.0,42.0
414513,-0.721,0.250,0.620,1.267,-1.511,-0.473,41.0,30.0
414557,-0.743,0.147,0.656,3.649,-3.740,-0.053,42.0,31.0
414604,-0.729,0.199,0.634,9.176,-3.702,0.618,42.0,30.0
414648,-0.739,0.180,0.657,-3.534,-4.328,-0.374,42.0,31.0
414693,-0.733,0.149,0.661,3.924,-3.992,1.588,41.0,30.0
414737,-0.720,0.264,0.653,0.153,-2.802,0.252,41.0,42.0
414782,-0.731,0.121,0.640,-1.099,-2.885,0.786,41.0,42.0
414826,-0.736,0.209,0.623,2.397,-4.198,3.046,41.0,41.0
414871,-0.733,0.214,0.674,-1.634,-6.137,1.145,41.0,41.0
414959,-0.720,0.243,0.665,0.130,-5.069,-1.885,41.0,41.0
415004,-0.719,0.146,0.675,3.344,-4.260,-0.176,41.0,41.0
415049,-0.713,0.214,0.668,1.481,-2.626,1.794,41.0,41.0
415096,-0.705,0.201,0.659,-3.122,-1.634,1.267,41.0,41.0
415141,-0.725,0.188,0.655,0.061,-3.496,2.740,42.0,41.0
415186,-0.707,0.242,0.657,2.679,-5.985,1.000,42.0,41.0
415232,-0.700,0.210,0.670,3.275,-6.809,-1.588,42.0,41.0
415276,-0.708,0.213,0.671,7.076,-7.328,-2.191,42.0,41.0
415321,-0.694,0.217,0.684,4.740,-6.000,-1.664,41.0,30.0
415365,-0.707,0.188,0.670,-4.031,-4.947,-0.664,41.0,30.0
415409,-0.697,0.195,0.690,-0.076,-5.450,1.267,41.0,30.0
415454,-0.695,0.216,0.632,-1.511,-7.550,1.748,41.0,40.0
415501,-0.689,0.248,0.679,1.305,-9.924,0.687,42.0,30.0
415545,-0.691,0.219,0.697,5.824,-11.779,-1.214,42.0,30.0
415589,-0.671,0.235,0.706,-0.374,-10.947,-3.076,42.0,30.0
415634,-0.679,0.202,0.733,3.450,-9.985,-3.160,43.0,30.0
415678,-0.672,0.214,0.728,3.389,-8.634,-2.626,42.0,29.0
415722,-0.664,0.211,0.720,-0.664,-5.557,-0.718,42.0,29.0
415766,-0.666,0.208,0.752,-3.328,-2.550,0.168,42.0,29.0
415811,-0.662,0.223,0.733,0.076,-1.336,0.389,42.0,29.0
415858,-0.668,0.221,0.713,-2.435,-0.366,-0.115,42.0,29.0
415902,-0.656,0.222,0.702,-3.092,-1.336,-1.305,42.0,29.0
415947,-0.670,0.195,0.710,-0.565,-2.145,-0.740,42.0,29.0
415991,-0.666,0.209,0.722,-0.359,-3.366,-1.221,42.0,29.0
416035,-0.656,0.241,0.730,-0.695,-1.771,-1.641,42.0,29.0
416079,-0.683,0.125,0.842,6.595,-4.000,-1.832,42.0,29.0
416124,-0.627,0.232,0.764,29.863,-4.328,5.328,41.0,29.0
416168,-0.645,0.359,0.753,-6.519,-3.725,0.527,41.0,30.0
416214,-0.541,0.206,0.738,-15.664,-19.397,-6.817,41.0,36.0
416262,-0.541,0.215,0.616,6.802,-6.122,-0.779,42.0,41.0
416306,-0.578,0.240,0.727,-10.298,-12.626,-15.252,45.0,30.0
416351,-0.680,0.123,0.683,34.695,-2.160,-4.771,42.0,30.0
416396,-0.900,0.330,0.468,16.427,6.000,-9.412,44.0,41.0
416441,-0.751,0.081,0.776,-5.626,-8.786,-7.840,44.0,42.0
416487,-0.624,0.180,0.827,10.359,-1.252,1.412,50.0,42.0
416536,-0.586,0.204,0.886,-4.992,2.679,-0.046,130.0,29.0
416585,-0.652,0.255,0.678,13.809,6.626,4.687,129.0,30.0
416635,-0.645,0.240,0.736,-11.298,11.466,2.008,128.0,43.0
416685,-0.639,0.266,0.701,16.649,6.931,4.084,44.0,42.0
416729,-0.647,0.307,0.680,-8.137,9.710,0.786,43.0,29.0
416774,-0.672,0.177,0.738,3.641,5.099,0.863,43.0,29.0
416819,-0.640,0.305,0.671,4.397,5.000,0.344,43.0,43.0
416863,-0.678,0.256,0.700,-10.191,3.351,-2.962,43.0,29.0
416908,-0.652,0.237,0.694,6.824,1.504,-1.824,45.0,41.0
416954,-0.668,0.262,0.682,-1.626,0.885,-3.534,43.0,41.0
416999,-0.674,0.214,0.718,1.878,-0.237,-2.405,43.0,42.0
417044,-0.677,0.228,0.679,-3.313,0.122,-1.855,43.0,42.0
417093,-0.676,0.272,0.691,2.305,-2.565,-1.916,43.0,42.0
417138,-0.669,0.267,0.688,0.252,-2.595,-4.809,43.0,43.0
417187,-0.660,0.227,0.665,0.542,-5.038,-4.634,45.0,29.0
417275,-0.666,0.214,0.723,3.405,-10.031,-0.023,43.0,44.0
417320,-0.677,0.213,0.713,0.977,-10.389,1.481,43.0,43.0
417364,-0.639,0.275,0.761,0.588,-7.817,1.107,43.0,42.0
417408,-0.651,0.210,0.774,4.748,-4.389,-0.145,42.0,30.0
417453,-0.639,0.252,0.762,5.000,-0.046,-0.214,42.0,42.0
417497,-0.644,0.184,0.807,4.855,5.687,1.344,43.0,44.0
417544,-0.674,0.222,0.922,31.885,9.947,5.893,43.0,42.0
417588,-0.673,0.300,0.949,31.893,13.557,1.626,44.0,43.0
417633,-0.880,0.459,0.826,61.267,-20.588,10.908,43.0,41.0
417681,-1.021,0.334,0.877,57.435,-83.626,20.832,129.0,36.0
417730,-0.668,0.386,0.746,139.328,-93.237,88.779,129.0,38.0
417789,-0.490,0.490,0.548,153.061,-83.641,99.069,141.0,0.0
417852,-0.327,0.304,0.510,215.641,-49.664,93.504,0.0,0.0
417914,-0.139,0.983,0.127,168.374,-9.504,75.153,0.0,0.0
417968,-0.173,0.944,0.249,-32.015,10.214,34.099,0.0,23.0
418013,-0.177,0.808,0.358,-49.351,23.160,21.855,30.0,27.0
418056,-0.165,0.832,0.342,-62.183,26.733,12.695,30.0,24.0
418109,-0.200,0.836,0.409,-96.427,20.229,3.870,30.0,0.0
418165,-0.169,0.753,0.475,-99.389,21.847,-6.885,28.0,0.0
418209,-0.207,0.789,0.485,-177.122,25.275,-22.313,29.0,58.0
418264,-0.249,0.353,0.747,-127.962,34.344,-24.328,142.0,101.0
418313,-0.281,0.499,0.710,-88.649,37.977,-24.267,124.0,47.0
418358,-0.214,0.240,0.762,-74.863,37.374,-45.847,44.0,45.0
418407,-0.260,0.218,0.758,-25.527,48.427,-71.626,124.0,46.0
418455,-0.482,0.403,0.691,-23.718,48.786,-83.473,44.0,43.0
418500,-0.568,0.352,0.866,-37.588,57.122,-66.603,45.0,43.0
418544,-0.551,0.528,1.094,-38.420,36.206,-46.702,43.0,41.0
418588,-0.562,0.466,0.777,-54.015,33.802,-35.267,42.0,36.0
418632,-0.635,0.244,0.831,-53.412,26.366,-36.275,42.0,37.0
418677,-0.760,0.214,0.724,-28.588,24.565,-19.794,42.0,37.0
418721,-0.693,0.095,0.715,-28.611,20.221,-15.679,43.0,39.0
418766,-0.596,0.053,0.627,-8.908,36.733,-15.695,42.0,42.0
418813,-1.687,-0.147,0.674,8.214,28.397,-19.298,41.0,42.0
418857,-0.690,0.437,0.773,87.886,-38.481,4.679,43.0,43.0
418903,-0.713,0.165,0.446,21.389,-15.366,0.351,41.0,44.0
418948,-0.643,0.226,0.932,13.702,-13.382,3.443,42.0,42.0
418992,-0.656,0.229,0.756,-5.496,-13.748,0.191,42.0,42.0
419036,-0.642,0.140,0.821,-1.374,-3.565,3.939,41.0,30.0
419080,-0.616,0.221,0.721,1.397,-1.145,5.214,42.0,42.0
419125,-0.656,0.254,0.711,-9.840,3.244,4.542,41.0,42.0
419169,-0.660,0.148,0.719,10.237,-4.870,6.511,41.0,44.0
419216,-0.628,0.305,0.645,-5.481,-6.466,1.733,41.0,30.0
419260,-0.654,0.168,0.746,5.992,-15.565,0.389,41.0,30.0
419304,-0.605,0.317,0.745,7.267,-14.702,-1.427,42.0,43.0
419349,-0.633,0.187,0.837,4.313,-13.855,-3.458,41.0,43.0
419394,-0.575,0.269,0.761,7.214,-6.985,-2.031,42.0,43.0
419438,-0.634,0.193,0.819,-5.565,-0.511,-2.374,41.0,44.0
419483,-0.583,0.232,0.749,5.450,2.351,1.038,41.0,43.0
419527,-0.631,0.226,0.769,-13.542,6.153,-0.275,41.0,43.0
419572,-0.608,0.197,0.735,2.656,2.366,2.832,41.0,43.0