Timestamp(ms),AccelX(g),AccelY(g),AccelZ(g),GyroX(deg/s),GyroY(deg/s),GyroZ(deg/s),DistanceLeft(cm),DistanceRight(cm)
322711,0.827,-0.261,0.115,-11.359,-28.626,-112.359,58.0,105.0
322761,0.847,0.265,-0.102,-15.679,-5.626,-145.351,73.0,99.0
322818,0.797,0.401,-0.049,-73.908,25.947,-171.863,177.0,91.0
322874,0.621,0.646,0.042,-102.053,51.366,-146.351,0.0,86.0
322933,0.646,0.636,0.266,-52.595,36.435,-129.275,0.0,85.0
322990,0.762,1.006,0.221,-28.817,29.000,-100.221,0.0,76.0
323047,0.727,0.896,0.322,-129.321,57.237,-114.298,0.0,103.0
323102,0.500,0.973,0.408,-128.626,61.496,-92.924,0.0,67.0
323159,0.438,0.639,0.587,-80.313,61.252,-65.954,0.0,66.0
323221,0.429,0.868,0.518,-79.351,64.817,-64.634,0.0,0.0
323278,0.317,0.638,0.798,-68.145,71.427,-51.855,0.0,96.0
323336,0.261,0.707,0.906,-4.634,48.542,-35.252,0.0,96.0
323393,0.183,0.653,0.890,32.160,33.733,-22.466,0.0,97.0
323459,0.176,0.778,0.819,6.489,32.557,-16.756,0.0,0.0
323516,0.212,0.632,0.790,14.611,36.092,-20.672,0.0,99.0
323567,0.073,0.644,0.732,-9.260,53.458,-42.435,84.0,99.0
323623,-0.069,0.629,0.786,-17.160,43.786,-42.527,82.0,0.0
323680,-0.072,0.705,0.811,-32.153,26.260,-21.870,84.0,0.0
323743,-0.069,0.584,0.889,20.702,17.992,-14.267,0.0,0.0
323799,-0.153,0.942,0.819,-4.076,4.809,-2.817,60.0,0.0
323854,-0.019,0.503,0.906,-0.893,-0.321,1.985,59.0,0.0
323908,-0.060,0.718,0.650,39.137,-2.466,0.298,58.0,0.0
323966,-0.061,0.596,0.737,-19.305,3.061,-1.519,59.0,0.0
324022,-0.072,0.683,0.835,0.481,-3.229,0.076,59.0,0.0
324078,-0.082,0.674,0.691,22.099,-6.191,3.756,87.0,0.0
324133,-0.072,0.751,0.716,-8.008,-4.664,5.794,59.0,0.0
324189,-0.007,0.723,0.773,3.802,0.885,6.000,59.0,0.0
324245,-0.070,0.604,0.747,2.351,-2.099,2.313,81.0,0.0
324301,-0.009,0.710,0.779,11.221,-2.145,1.115,81.0,0.0
324358,-0.053,0.711,0.735,17.588,-6.603,3.305,86.0,0.0
324415,-0.020,0.733,0.701,40.863,-8.420,5.374,87.0,0.0
324474,-0.001,0.768,0.683,35.076,-4.504,4.924,81.0,0.0
324538,0.059,0.887,0.541,-6.496,1.893,1.496,0.0,0.0
324600,-0.050,0.709,0.735,-33.626,10.084,-1.122,0.0,0.0
324664,-0.042,0.762,0.641,15.374,-0.328,7.008,0.0,0.0
324727,-0.020,0.740,0.694,-10.160,1.748,-1.351,0.0,0.0
324791,-0.025,0.731,0.696,11.214,-2.740,2.718,0.0,0.0
324853,-0.027,0.805,0.633,0.000,-1.168,0.084,0.0,0.0
324917,-0.034,0.726,0.704,-4.656,-0.702,-0.282,0.0,0.0
324980,-0.026,0.753,0.679,8.748,-2.328,0.527,0.0,0.0
325047,-0.003,0.800,0.646,1.863,-1.130,0.321,0.0,0.0
325110,-0.021,0.784,0.663,-4.786,0.336,-0.969,0.0,0.0
325173,-0.033,0.745,0.685,-9.176,1.084,-0.687,0.0,0.0
325236,-0.026,0.732,0.683,4.351,-1.450,0.489,0.0,0.0
325300,-0.020,0.773,0.654,8.427,-2.542,1.198,0.0,0.0
325363,-0.015,0.765,0.657,-2.969,-0.481,-0.053,0.0,0.0
325427,-0.016,0.773,0.661,-1.366,-0.748,-0.145,0.0,0.0
325489,-0.022,0.755,0.669,2.603,-1.435,0.229,0.0,0.0
325553,-0.017,0.770,0.665,-3.794,0.168,-0.267,0.0,0.0
325619,-0.020,0.765,0.663,1.275,-0.992,-0.015,0.0,0.0
325727,-0.012,0.784,0.649,-2.702,-0.473,0.015,0.0,0.0
325789,-0.022,0.759,0.670,-3.244,0.061,-0.191,0.0,0.0
325853,-0.021,0.764,0.662,-0.954,-0.649,0.275,0.0,0.0
325921,-0.024,0.759,0.686,-2.107,-0.206,-0.305,0.0,0.0
325984,-0.021,0.770,0.665,1.298,-0.855,0.779,0.0,0.0
326046,-0.044,0.772,0.683,0.321,-2.053,3.267,0.0,0.0
326108,-0.087,0.759,0.786,42.267,-15.153,27.588,0.0,0.0
326170,-0.020,1.135,0.712,32.687,-43.336,66.366,0.0,0.0
326233,0.012,1.051,0.645,5.397,-63.214,111.260,0.0,0.0
326298,0.105,0.929,0.620,-14.168,-80.053,152.153,0.0,0.0
326361,0.238,0.753,0.531,-20.145,-91.817,185.519,0.0,0.0
326416,0.526,0.372,0.456,32.634,-87.046,200.252,0.0,74.0
326471,0.673,0.433,0.272,36.237,-64.641,203.496,0.0,80.0
326528,0.726,0.179,0.276,-8.137,-49.649,186.397,0.0,84.0
326581,0.823,-0.015,0.271,-23.153,-37.794,181.702,158.0,84.0
326630,0.846,-0.112,0.223,-13.969,-31.198,176.710,78.0,92.0
326685,0.818,-0.227,0.163,-47.191,-28.244,160.901,150.0,111.0
326744,0.832,-0.623,0.190,-54.130,-23.305,139.794,173.0,114.0
326802,0.838,-0.778,0.128,-32.214,-18.527,101.710,0.0,116.0
326860,0.871,-0.852,0.138,-14.847,-8.489,46.000,0.0,118.0
326918,0.849,-0.750,0.131,7.863,0.275,3.603,0.0,117.0
326975,0.850,-0.626,0.136,3.847,6.626,-23.672,0.0,117.0
327033,0.876,-0.748,0.136,-4.885,9.748,-52.565,0.0,116.0
327080,0.891,-0.714,0.139,6.985,19.626,-93.466,16.0,115.0
327136,0.883,-0.555,0.101,7.817,34.534,-129.260,171.0,113.0
327187,0.865,-0.469,0.165,3.863,55.038,-158.931,75.0,112.0
327245,0.802,-0.307,0.190,18.702,75.863,-176.473,0.0,88.0
327302,0.744,-0.053,0.246,26.107,90.748,-192.687,0.0,87.0
327358,0.632,0.216,0.249,-27.588,106.763,-209.763,0.0,81.0
327413,0.589,0.500,0.549,-77.069,130.420,-204.183,0.0,75.0
327471,0.139,0.453,0.915,-54.817,127.206,-140.290,0.0,105.0
327528,0.214,0.742,0.974,82.672,69.954,-72.473,0.0,106.0
327590,0.299,0.960,0.812,14.137,26.924,-55.817,0.0,0.0
327653,0.254,0.524,0.842,7.443,15.847,-27.733,0.0,0.0
327716,0.299,0.771,0.730,18.595,1.763,-14.580,0.0,0.0
327781,0.290,0.628,0.758,5.015,-2.427,-3.679,0.0,0.0
327844,0.336,0.707,0.677,1.832,-1.405,-0.626,0.0,0.0
327907,0.291,0.651,0.760,-10.458,0.214,1.359,0.0,0.0
327969,0.198,0.816,0.908,-3.947,-22.908,26.397,0.0,0.0
328032,0.216,0.773,0.941,18.389,-68.908,72.962,0.0,0.0
328089,0.308,0.736,0.709,9.695,-98.855,119.176,0.0,105.0
328146,0.502,0.573,0.551,6.679,-105.511,147.817,0.0,108.0
328203,0.706,0.380,0.414,2.282,-91.191,162.107,0.0,82.0
328258,0.878,0.189,0.284,-23.366,-72.290,146.840,0.0,84.0
328317,1.060,-0.038,0.369,-50.260,-65.664,108.450,0.0,85.0
328368,1.265,-0.097,0.490,-23.595,-50.244,99.412,85.0,86.0
328425,1.204,-0.006,0.479,-18.061,-60.260,100.580,0.0,107.0
328476,0.965,-0.028,0.406,-41.702,-101.565,96.397,65.0,126.0
328534,0.755,-0.127,0.256,-2.832,-138.985,109.435,0.0,114.0
328592,0.651,-0.208,0.034,-4.130,-165.779,124.794,0.0,116.0
328692,0.619,-0.628,-0.294,-1.053,-166.092,107.695,0.0,96.0
328753,0.571,-0.718,-0.463,12.832,-134.344,86.557,0.0,165.0
328803,0.515,-0.662,-0.560,-20.290,-88.687,60.649,28.0,95.0
328850,0.485,-0.802,-0.540,-20.924,-59.985,46.573,25.0,94.0
328896,0.414,-0.723,-0.623,-0.557,-31.389,34.229,21.0,94.0
328946,0.366,-0.714,-0.646,-14.229,-8.328,23.061,30.0,151.0
328996,0.351,-0.744,-0.639,-4.267,12.962,17.870,21.0,151.0
329047,0.332,-0.711,-0.595,-0.534,19.458,15.702,25.0,153.0
329096,0.361,-0.699,-0.573,11.809,17.511,13.779,25.0,139.0
329146,0.346,-0.716,-0.583,8.328,8.153,15.359,20.0,160.0
329196,0.435,-0.750,-0.510,3.473,-1.687,4.389,24.0,156.0
329249,0.425,-0.815,-0.525,14.924,-9.015,0.863,22.0,158.0
329300,0.457,-0.731,-0.515,26.038,-6.191,6.626,22.0,172.0
329351,0.420,-0.728,-0.545,6.916,4.031,4.053,23.0,153.0
329401,0.319,-0.854,-0.488,19.191,11.168,14.275,22.0,166.0
329452,0.287,-0.745,-0.453,19.565,14.344,13.718,23.0,166.0
329503,0.210,-0.881,-0.351,9.137,3.092,-0.038,22.0,169.0
329554,0.301,-0.786,-0.509,-8.046,7.687,-10.061,23.0,181.0
329606,0.321,-0.857,-0.515,-25.458,20.702,-26.237,22.0,171.0
329660,0.540,-0.842,-0.375,24.244,33.450,-21.947,23.0,172.0
329711,0.674,-0.294,-0.681,71.420,7.275,3.687,22.0,171.0
329773,0.536,-0.878,-0.349,-47.443,8.847,6.267,0.0,170.0
329835,0.474,-0.968,-0.423,3.115,25.588,2.351,0.0,0.0
329888,0.462,-0.849,-0.321,76.084,35.313,8.473,22.0,0.0
329951,0.501,-0.735,-0.307,33.779,29.313,0.802,0.0,0.0
330004,0.552,-0.855,-0.318,5.282,32.977,7.160,22.0,0.0
330056,0.558,-0.857,-0.265,32.519,39.450,5.412,23.0,0.0
330109,0.493,-0.820,-0.222,5.000,36.802,-0.695,23.0,0.0
330175,0.570,-1.027,-0.124,0.679,29.389,-23.053,0.0,0.0
330228,0.641,-1.070,-0.188,53.313,28.046,-54.290,26.0,0.0
330281,0.625,-0.851,-0.207,39.244,36.580,-80.344,26.0,0.0
330335,0.727,-0.881,0.087,79.122,27.282,-107.588,30.0,0.0
330386,0.563,-0.610,-0.073,139.656,-9.229,-101.366,110.0,82.0
330437,0.748,-0.377,-0.075,104.626,-17.290,-96.802,103.0,78.0
330483,0.805,-0.373,-0.099,70.695,20.992,-73.405,38.0,76.0
330533,0.889,-0.237,-0.176,64.672,71.679,-64.687,110.0,61.0
330587,0.809,-0.320,-0.120,32.038,110.412,-61.809,156.0,64.0
330642,0.643,-0.198,0.051,57.969,156.901,-39.489,160.0,58.0
330692,0.593,-0.156,0.336,54.519,157.053,-20.527,108.0,59.0
330741,0.493,-0.174,0.642,13.855,154.244,-9.374,100.0,61.0
330791,0.366,-0.331,1.090,77.519,143.458,-5.611,97.0,69.0
330840,0.174,0.063,1.284,102.443,113.832,-5.427,84.0,66.0
330889,-0.009,0.020,1.608,32.489,65.481,-7.359,81.0,67.0
330937,-0.117,-0.146,1.732,17.260,-14.122,20.458,80.0,68.0
330986,-0.010,-0.092,1.517,33.618,-88.344,43.603,83.0,67.0
331035,0.070,-0.048,1.186,24.756,-160.611,71.260,37.0,68.0
331081,0.216,-0.048,0.844,51.534,-196.771,111.122,32.0,69.0
331132,0.511,0.074,0.490,27.412,-199.985,147.344,110.0,68.0
331179,0.671,-0.008,0.301,-56.145,-194.000,162.260,38.0,70.0
331230,0.815,-0.326,0.198,-100.069,-198.702,153.725,101.0,87.0
331327,0.778,-0.938,-0.079,-36.908,-205.420,155.595,36.0,0.0
331380,0.654,-0.909,-0.292,44.542,-181.924,165.725,28.0,0.0
331435,0.408,-0.802,-0.419,52.443,-130.145,155.870,30.0,0.0
331488,0.198,-0.837,-0.431,-4.237,-111.244,137.374,30.0,0.0
331544,0.028,-0.994,-0.426,6.924,-80.656,106.985,26.0,0.0
331598,0.001,-1.169,-0.384,6.992,-54.458,48.168,34.0,0.0
331652,-0.188,-1.111,-0.424,21.733,-21.000,-3.137,35.0,0.0
331706,-0.162,-1.033,-0.360,48.565,0.053,-49.939,35.0,0.0
331760,-0.014,-0.985,-0.264,56.389,20.137,-97.954,30.0,0.0
331823,0.129,-0.931,-0.119,35.924,31.916,-141.389,0.0,0.0
331877,0.273,-0.726,0.018,76.962,43.885,-145.328,32.0,0.0
331930,0.487,-0.514,0.160,46.443,38.954,-133.786,32.0,0.0
331987,0.865,-0.409,0.379,22.504,14.504,-95.779,35.0,0.0
332051,1.354,-0.499,0.511,19.366,-8.298,-25.931,0.0,0.0
332105,1.331,-0.443,0.437,-33.626,-16.679,60.412,44.0,0.0
332169,0.909,-0.397,0.316,-65.023,-23.916,123.366,0.0,0.0
332223,0.535,-0.621,0.136,-93.847,-50.359,180.802,36.0,0.0
332276,0.248,-0.773,-0.054,-87.886,-71.802,193.252,30.0,0.0
332331,0.020,-0.843,-0.305,-84.160,-62.893,174.939,35.0,0.0
332385,-0.216,-0.884,-0.419,-81.153,-25.466,136.061,31.0,0.0
332438,-0.382,-0.906,-0.577,-60.664,0.939,94.962,33.0,186.0
332494,-0.472,-0.942,-0.656,-46.947,6.916,39.565,37.0,177.0
332556,-0.468,-0.927,-0.668,-0.473,-1.580,4.344,0.0,172.0
332618,-0.359,-0.933,-0.583,6.664,4.382,-39.405,0.0,184.0
332681,-0.244,-0.971,-0.521,28.725,25.924,-71.282,0.0,186.0
332735,-0.128,-0.909,-0.473,30.557,46.664,-104.046,25.0,0.0
332788,-0.108,-0.852,-0.423,50.962,50.649,-113.771,25.0,0.0
332843,0.034,-0.726,-0.343,57.389,38.069,-114.656,37.0,0.0
332896,0.167,-0.619,-0.199,65.206,26.023,-99.504,29.0,0.0
332953,0.479,-0.620,-0.104,25.718,15.458,-84.733,29.0,0.0
333012,0.788,-0.826,0.039,6.069,10.374,-62.595,40.0,0.0
333066,0.920,-0.883,0.078,42.344,2.809,-31.832,31.0,0.0
333118,0.888,-0.771,0.037,9.840,2.908,-8.336,30.0,0.0
333170,0.760,-0.838,0.009,-3.832,6.992,10.573,31.0,0.0
333223,0.575,-0.838,-0.039,-15.427,5.939,16.092,31.0,0.0
333277,0.510,-0.861,-0.106,-5.588,1.954,20.603,31.0,0.0
333329,0.492,-0.842,-0.162,-9.863,1.244,15.748,30.0,0.0
333382,0.480,-0.881,-0.157,-7.519,1.481,11.237,36.0,0.0
333438,0.487,-0.877,-0.161,-5.725,6.267,2.901,38.0,0.0
333491,0.472,-0.865,-0.136,-8.145,10.893,-5.656,31.0,0.0
333544,0.482,-0.866,-0.126,-2.588,10.809,-9.916,30.0,0.0
333596,0.479,-0.827,-0.117,-2.099,7.427,-10.473,30.0,0.0
333649,0.520,-0.816,-0.108,1.985,6.664,-7.229,29.0,0.0
333702,0.556,-0.812,-0.121,-1.076,9.435,-2.466,29.0,0.0
333755,0.565,-0.854,-0.092,-5.443,7.282,-0.542,30.0,0.0
333808,0.565,-0.889,-0.080,0.206,0.817,0.664,39.0,0.0
333861,0.576,-0.800,-0.104,7.924,-2.588,0.542,41.0,0.0
333918,0.489,-0.851,-0.087,-7.344,2.137,-0.328,40.0,0.0
333971,0.503,-0.870,-0.079,-4.802,7.924,-1.985,30.0,0.0
334023,0.469,-0.857,-0.093,-5.725,3.603,-8.885,29.0,0.0
334119,0.496,-0.880,-0.133,7.695,-1.748,-26.710,29.0,0.0
334172,0.538,-0.797,-0.155,5.634,2.771,-34.878,23.0,0.0
334225,0.609,-0.767,-0.130,1.771,6.595,-38.603,26.0,0.0
334287,0.695,-0.733,-0.089,3.427,7.206,-32.763,0.0,0.0
334348,0.745,-0.706,-0.075,5.511,9.611,-23.718,168.0,0.0
334409,0.729,-0.693,-0.077,8.000,11.252,-19.099,170.0,0.0
334465,0.706,-0.680,-0.041,2.893,13.412,-14.992,30.0,0.0
334528,0.708,-0.701,-0.010,3.176,12.076,-13.527,0.0,0.0
334580,0.742,-0.694,0.014,7.954,6.824,-14.962,23.0,0.0
334632,0.749,-0.652,0.016,5.573,2.099,-11.977,29.0,0.0
334686,0.767,-0.666,0.023,1.137,0.931,-4.298,30.0,0.0
334739,0.773,-0.666,0.037,2.374,1.252,-0.863,30.0,0.0
334791,0.749,-0.663,0.037,-2.901,0.565,2.038,30.0,0.0
334844,0.748,-0.698,0.020,-2.427,-0.664,1.427,30.0,0.0
334898,0.725,-0.682,0.004,-2.916,-1.565,1.511,30.0,0.0
334951,0.725,-0.686,-0.021,-1.740,-2.496,-0.099,30.0,0.0
335006,0.720,-0.674,-0.026,-1.427,-1.046,-0.107,30.0,0.0
335059,0.752,-0.677,-0.019,-1.267,0.099,-0.786,30.0,0.0
335113,0.742,-0.687,-0.003,-2.878,-0.420,0.008,30.0,0.0
335166,0.757,-0.688,-0.002,1.901,-1.313,1.160,30.0,0.0
335218,0.746,-0.675,-0.001,-3.038,-0.069,0.718,30.0,0.0
335271,0.721,-0.679,-0.005,-1.328,-0.511,2.740,30.0,0.0
335325,0.733,-0.668,-0.016,0.489,-1.534,2.649,30.0,0.0
335378,0.725,-0.696,-0.002,-3.748,-0.725,0.038,29.0,0.0
335430,0.724,-0.683,-0.008,1.511,-0.084,-0.275,30.0,0.0
335486,0.749,-0.694,-0.016,-1.840,-0.893,-1.939,30.0,0.0
335540,0.729,-0.690,0.000,0.344,-0.527,-1.038,30.0,0.0
335593,0.739,-0.665,-0.011,1.008,-0.611,-0.336,30.0,0.0
335646,0.733,-0.682,-0.009,-2.046,0.153,0.176,30.0,0.0
335699,0.748,-0.698,0.005,-1.176,0.443,-0.992,31.0,0.0
335752,0.733,-0.677,-0.001,0.405,0.580,-0.618,30.0,0.0
335805,0.732,-0.684,-0.006,-2.069,-0.275,0.916,30.0,0.0
335858,0.741,-0.693,0.001,0.145,-1.687,-1.855,30.0,0.0
335911,0.738,-0.664,-0.005,1.641,-0.229,-0.527,30.0,0.0
335968,0.733,-0.669,0.001,-0.924,0.794,2.366,30.0,0.0
336021,0.742,-0.687,-0.005,-1.702,0.550,2.702,30.0,0.0
336083,0.740,-0.695,0.009,-2.779,0.290,-0.214,0.0,0.0
336146,0.745,-0.674,-0.005,0.924,-0.237,-0.908,0.0,0.0
336209,0.740,-0.687,0.010,-2.901,-0.084,-0.878,0.0,0.0
336272,0.729,-0.667,-0.008,0.168,-1.176,2.000,0.0,0.0
336325,0.722,-0.668,-0.010,-2.435,0.168,0.176,30.0,0.0
336388,0.728,-0.683,-0.009,-1.069,3.359,0.748,0.0,0.0
336451,0.754,-0.712,0.005,-5.924,2.504,-1.389,0.0,0.0
336525,0.760,-0.689,0.003,2.031,-1.626,-0.802,0.0,0.0
336588,0.748,-0.666,0.000,-0.702,0.542,-2.748,0.0,0.0
336651,0.745,-0.656,0.004,-2.260,1.573,1.626,0.0,0.0
336714,0.724,-0.680,0.012,-1.214,-1.260,3.611,0.0,0.0
336777,0.725,-0.678,0.001,-2.229,-2.260,4.565,0.0,0.0
336840,0.735,-0.707,0.003,-1.924,-0.641,1.221,0.0,0.0
336903,0.729,-0.691,0.004,-1.763,0.679,-0.405,0.0,0.0
337009,0.735,-0.690,-0.016,-0.130,-1.618,0.305,0.0,0.0
337072,0.740,-0.678,-0.001,-0.191,-0.405,1.527,0.0,0.0
337138,0.731,-0.702,0.005,-2.534,0.611,-0.305,0.0,0.0
337201,0.724,-0.700,0.003,-0.817,-0.588,-1.718,0.0,0.0
337264,0.733,-0.671,-0.007,0.397,-1.771,-1.725,0.0,0.0
337327,0.737,-0.672,-0.002,-0.702,-0.977,-0.084,0.0,0.0
337390,0.729,-0.675,-0.010,-1.489,-0.718,2.557,0.0,0.0
337454,0.729,-0.722,0.008,-0.695,-0.427,1.763,0.0,0.0
337516,0.724,-0.685,-0.005,-1.817,0.053,-1.634,0.0,0.0
337580,0.728,-0.697,0.006,0.954,-1.214,-1.756,0.0,0.0
337642,0.731,-0.668,-0.010,-2.237,-1.664,-0.824,0.0,0.0
337698,0.714,-0.693,0.002,-1.916,0.664,1.809,26.0,0.0
337752,0.744,-0.685,-0.018,-2.176,0.221,1.718,30.0,0.0
337815,0.807,-0.693,0.021,0.847,0.191,-4.809,0.0,0.0
337878,0.732,-0.669,0.014,-3.824,2.763,1.374,0.0,0.0
337941,0.691,-0.700,-0.002,-1.916,-4.084,9.573,0.0,0.0
338003,0.692,-0.700,-0.029,0.565,-5.252,4.817,0.0,0.0
338067,0.731,-0.703,-0.027,1.107,3.344,-5.656,0.0,0.0
338130,0.736,-0.750,0.022,-3.244,11.908,-18.389,0.0,0.0
338184,0.731,-0.679,0.144,-13.397,41.878,-41.008,27.0,0.0
338244,0.707,-0.711,0.155,-66.679,119.931,-71.710,168.0,131.0
338298,0.738,-0.581,0.150,-96.000,176.290,-79.725,165.0,78.0
338344,0.748,-0.689,0.168,-122.611,174.542,-101.336,30.0,68.0
338393,0.819,-0.562,0.197,-94.145,156.061,-112.092,58.0,65.0
338442,0.782,-0.528,0.299,-56.511,148.023,-113.130,120.0,50.0
338492,0.696,-0.262,0.292,-42.916,149.076,-113.656,121.0,46.0
338539,0.688,-0.221,0.422,-79.641,136.160,-126.962,70.0,43.0
338586,0.659,-0.298,0.632,-48.344,122.901,-121.000,70.0,43.0
338633,0.628,-0.255,0.733,19.443,101.725,-117.679,75.0,39.0
338683,0.652,-0.044,0.738,79.878,89.260,-107.282,81.0,37.0
338731,0.630,0.245,0.712,45.611,81.809,-105.748,92.0,32.0
338785,0.590,0.243,0.833,5.046,84.427,-95.053,0.0,31.0
338829,0.444,0.252,0.864,-16.534,81.069,-84.870,36.0,30.0
338873,0.383,0.206,0.905,-20.443,75.802,-76.832,38.0,30.0
338917,0.311,0.153,0.949,1.145,76.031,-61.710,38.0,36.0
338961,0.239,0.163,0.993,22.244,61.359,-59.321,38.0,30.0
339006,0.226,0.155,1.014,57.618,49.168,-59.061,38.0,33.0
339065,0.117,0.366,0.993,59.374,54.237,-47.046,0.0,77.0
339112,0.082,0.502,0.989,-17.840,35.160,-42.626,39.0,75.0
339160,0.083,0.259,1.057,0.153,31.641,-29.847,40.0,76.0
339204,0.097,0.384,0.956,20.786,23.679,-22.015,41.0,30.0
339258,0.073,0.407,0.939,8.298,23.534,-25.336,40.0,0.0
339302,0.036,0.315,0.996,5.573,27.992,-22.244,39.0,29.0
339349,0.046,0.387,1.099,14.542,32.405,-22.099,41.0,77.0
339394,-0.176,0.205,1.215,78.756,3.473,-11.573,41.0,29.0
339447,-0.078,0.803,0.783,35.832,-10.244,10.168,0.0,29.0
339497,0.036,0.378,0.888,-38.053,-0.771,5.206,42.0,75.0
339543,0.049,0.368,0.886,-0.924,6.504,4.565,40.0,30.0
339587,0.003,0.406,0.934,-7.626,4.176,-10.328,42.0,30.0
339631,-0.035,0.376,0.959,10.237,1.221,-5.580,42.0,28.0
339719,-0.017,0.408,0.900,-7.939,5.481,-3.366,41.0,29.0
339764,-0.019,0.424,0.905,-7.397,10.473,-1.305,42.0,28.0
339808,-0.034,0.411,0.929,-5.740,13.076,0.832,40.0,28.0
339852,-0.032,0.432,0.933,-11.603,13.695,-0.771,40.0,29.0
339897,-0.087,0.300,1.004,-5.962,6.664,-6.618,41.0,29.0
339949,-0.094,0.395,0.953,4.435,3.649,0.954,41.0,29.0
339992,-0.075,0.389,0.941,-6.160,2.137,-0.618,41.0,29.0
340036,-0.065,0.398,0.936,3.527,0.405,0.450,41.0,30.0
340079,-0.064,0.433,0.914,-10.122,1.031,0.405,41.0,29.0
340122,-0.065,0.367,0.939,-7.450,0.443,0.450,40.0,29.0
340166,-0.068,0.369,0.935,-5.885,0.641,0.137,40.0,30.0
340209,-0.079,0.332,0.965,1.969,-1.443,-0.863,40.0,30.0
340252,-0.071,0.375,0.946,9.511,-0.527,0.084,40.0,29.0
340296,-0.070,0.402,0.974,8.756,-3.076,1.031,41.0,30.0
340342,-0.108,0.367,0.987,22.397,-7.550,1.145,41.0,30.0
340386,-0.130,0.520,0.927,-9.817,-14.282,6.863,40.0,28.0
340429,-0.044,0.380,1.036,3.863,-18.580,4.321,41.0,28.0
340472,-0.039,0.479,0.956,3.756,-18.595,16.901,41.0,29.0
340519,0.080,0.477,1.033,2.656,-23.855,15.191,40.0,77.0
340562,0.041,0.553,0.998,-3.511,-24.992,16.023,40.0,29.0
340625,0.031,0.480,1.011,-14.802,-32.756,22.802,0.0,0.0
340687,-0.008,0.478,0.944,15.573,-44.038,39.870,0.0,0.0
340743,0.085,0.463,0.879,-0.466,-47.557,53.084,0.0,79.0
340799,0.174,0.388,0.853,-11.557,-45.397,59.740,0.0,36.0
340856,0.249,0.330,0.825,-10.641,-39.275,57.580,0.0,37.0
340910,0.285,0.360,0.806,-22.359,-32.489,56.824,0.0,34.0
340967,0.355,0.267,0.837,-13.168,-27.626,58.115,0.0,62.0
341020,0.328,0.270,0.857,-14.290,-27.160,59.664,0.0,36.0
341065,0.359,0.193,0.951,-3.924,-33.603,60.664,38.0,38.0
341111,0.322,0.130,0.966,12.603,-57.069,61.534,90.0,39.0
341158,0.483,0.084,0.959,49.237,-92.924,54.885,87.0,36.0
341206,0.652,0.007,0.915,139.130,-118.466,54.542,87.0,40.0
341255,0.866,0.505,0.487,140.023,-93.901,69.863,83.0,39.0
341302,0.948,0.562,0.412,10.489,-41.550,66.725,82.0,40.0
341348,0.875,0.337,0.430,-62.221,19.214,59.733,79.0,42.0
341395,0.725,0.199,0.441,-97.198,60.618,53.687,76.0,40.0
341440,0.533,0.130,0.577,-123.305,49.481,48.115,71.0,38.0
341486,0.554,-0.053,0.774,-135.321,0.832,43.756,71.0,39.0
341536,0.728,-0.263,1.029,-66.473,-55.962,40.107,130.0,42.0
341582,0.952,-0.158,1.003,20.656,-105.435,43.374,65.0,41.0
341627,1.060,-0.149,0.805,54.427,-111.954,59.252,61.0,42.0
341680,1.013,-0.002,0.527,34.908,-92.779,84.992,126.0,43.0
341725,0.950,0.004,0.212,-29.641,-62.176,96.160,38.0,44.0
341774,0.958,-0.230,0.149,-107.412,-35.763,77.450,121.0,48.0
341821,0.925,-0.477,0.220,-94.542,-2.588,47.282,57.0,62.0
341871,0.811,-0.479,0.270,-62.718,17.931,32.176,118.0,67.0
341917,0.709,-0.454,0.310,-81.542,14.298,15.832,50.0,66.0
341968,0.620,-0.588,0.314,-100.519,2.061,-0.405,114.0,73.0
342019,0.684,-0.718,0.388,-35.427,-13.718,-22.977,112.0,70.0
342068,0.705,-0.688,0.301,47.427,-19.802,-20.405,47.0,72.0
342159,0.818,-0.358,0.135,-8.344,-9.924,-23.992,50.0,71.0
342209,0.805,-0.429,0.154,-36.878,0.008,-30.008,121.0,71.0
342256,0.846,-0.443,0.176,-47.847,5.443,-26.618,45.0,72.0
342308,0.850,-0.495,0.270,-36.481,7.840,-32.901,158.0,63.0
342362,0.789,-0.538,0.307,-20.344,-2.855,-41.550,158.0,62.0
342414,0.814,-0.455,0.396,16.992,-19.427,-61.595,158.0,71.0
342467,0.796,-0.423,0.413,37.542,-41.809,-63.351,158.0,69.0
342513,0.806,-0.229,0.218,39.901,-45.153,-62.267,37.0,67.0
342569,0.754,-0.157,0.017,4.267,-46.023,-58.405,159.0,65.0
342616,0.882,-0.278,-0.068,-37.008,-35.214,-53.779,38.0,68.0
342665,0.877,-0.317,-0.081,-32.985,-30.076,-60.137,46.0,109.0
342720,0.750,-0.135,-0.200,-9.863,-31.031,-70.458,163.0,106.0
342769,0.857,-0.133,-0.144,15.458,-39.908,-71.809,51.0,101.0
342817,0.882,0.105,-0.267,36.763,-34.214,-75.031,57.0,97.0
342866,1.025,0.348,-0.251,-13.779,-30.122,-88.351,67.0,92.0
342916,1.043,0.346,-0.146,-37.511,-12.221,-105.618,71.0,89.0
342969,0.917,0.588,-0.156,8.725,8.046,-94.305,82.0,84.0
343024,0.969,0.758,-0.145,-10.832,27.489,-71.099,185.0,81.0
343079,0.936,0.825,-0.125,-85.901,37.855,-70.527,0.0,79.0
343136,0.769,0.560,0.046,-103.573,39.985,-57.603,0.0,78.0
343192,0.675,0.469,0.148,-62.786,30.954,-38.542,0.0,82.0
343248,0.762,0.412,0.225,-23.603,8.855,-35.595,0.0,78.0
343304,0.803,0.496,0.205,22.740,-1.389,-62.863,0.0,75.0
343367,0.762,0.809,0.167,14.863,1.481,-73.145,0.0,0.0
343430,0.601,0.832,0.164,9.115,3.573,-65.397,0.0,0.0
343496,0.549,0.888,0.115,-42.931,17.527,-62.389,0.0,0.0
343559,0.563,0.903,0.138,-51.137,36.634,-54.893,0.0,0.0
343622,0.633,0.960,0.278,-70.076,52.374,-71.672,0.0,0.0
343674,0.402,0.808,0.509,-45.985,39.252,-85.962,0.0,16.0
343741,0.276,0.981,0.452,-3.046,31.015,-68.656,0.0,0.0
343794,0.191,0.934,0.471,-18.939,13.511,-38.565,0.0,16.0
343861,0.202,0.890,0.482,1.282,4.244,-18.374,0.0,0.0
343913,0.274,0.986,0.433,8.198,6.519,-26.122,0.0,17.0
343965,0.125,0.911,0.428,-10.786,10.031,-39.710,0.0,9.0
344020,0.102,0.911,0.379,6.802,5.824,-21.809,0.0,9.0
344073,0.136,0.963,0.383,-10.153,8.901,-17.435,0.0,9.0
344135,0.128,0.878,0.440,3.405,12.145,-19.527,0.0,0.0
344199,0.083,0.961,0.449,-18.603,13.435,-25.710,0.0,0.0
344254,0.019,0.845,0.523,1.313,8.366,-19.214,65.0,0.0
344298,0.021,0.970,0.461,11.122,4.924,-18.611,65.0,3.0
344350,0.010,0.971,0.444,-14.977,5.672,-19.824,0.0,4.0
344406,-0.032,0.875,0.493,-3.305,2.847,-15.206,61.0,0.0
344450,-0.034,0.945,0.498,12.313,-1.489,-1.130,61.0,4.0
344508,-0.010,1.127,0.487,16.099,-5.603,7.603,67.0,0.0
344564,-0.045,1.152,0.529,6.214,-11.092,22.214,82.0,0.0
344620,-0.010,1.094,0.544,-1.382,-23.534,46.817,60.0,0.0
344672,0.059,1.106,0.460,14.664,-31.473,64.053,0.0,16.0
344725,0.109,1.016,0.449,-6.244,-34.863,72.191,0.0,16.0
344777,0.179,0.900,0.429,15.634,-37.137,78.122,0.0,17.0
344841,0.264,0.930,0.367,26.748,-36.458,74.580,0.0,0.0
344947,0.410,0.876,0.311,31.618,-32.855,72.817,0.0,0.0
345011,0.463,0.909,0.239,27.489,-33.954,86.847,0.0,0.0
345077,0.561,0.856,0.201,37.389,-33.359,96.473,0.0,0.0
345135,0.634,0.782,0.109,16.954,-28.969,105.344,0.0,107.0
345192,0.668,0.618,0.095,27.389,-29.992,112.221,0.0,86.0
345248,0.708,0.513,0.035,31.168,-32.130,128.275,0.0,88.0
345306,0.844,0.311,0.020,43.656,-30.916,124.511,0.0,93.0
345356,0.958,0.243,-0.019,53.435,-18.733,105.557,68.0,98.0
345405,0.898,0.148,-0.057,40.893,-13.053,85.382,62.0,99.0
345454,0.898,0.055,-0.049,46.191,-8.588,80.603,55.0,103.0
345503,0.890,0.041,-0.073,33.611,-3.580,77.740,50.0,105.0
345563,0.951,-0.113,-0.019,27.153,-4.420,78.382,160.0,106.0
345612,0.926,-0.157,-0.051,19.664,-2.626,65.489,40.0,112.0
345661,0.972,-0.261,0.018,27.359,-5.580,50.534,36.0,114.0
345715,0.938,-0.286,0.004,35.191,-5.008,39.969,154.0,98.0
345769,0.964,-0.197,-0.031,26.053,-2.237,27.771,153.0,76.0
345823,0.931,-0.284,-0.031,1.527,-3.496,25.924,152.0,78.0
345878,0.931,-0.331,-0.059,3.885,-1.840,21.206,151.0,101.0
345933,1.006,-0.321,-0.103,4.282,2.061,9.313,151.0,101.0
345987,0.963,-0.323,-0.108,2.015,8.641,3.023,150.0,78.0
346043,0.943,-0.297,-0.146,-5.763,13.878,2.916,150.0,78.0
346097,0.941,-0.324,-0.173,-3.763,18.763,3.427,150.0,76.0
346150,0.972,-0.369,-0.192,10.924,25.076,3.290,151.0,75.0
346204,0.945,-0.319,-0.227,25.061,38.511,-3.702,152.0,74.0
346258,0.923,-0.341,-0.182,43.206,53.221,-7.954,154.0,73.0
346311,0.829,-0.298,-0.146,51.588,70.000,-10.779,154.0,71.0
346364,0.871,-0.279,-0.003,54.924,88.374,-24.458,156.0,60.0
346417,0.759,-0.269,0.136,40.550,100.107,-38.641,158.0,57.0
346474,0.640,-0.136,0.256,23.374,113.855,-39.450,161.0,56.0
346524,0.628,-0.107,0.427,9.305,121.321,-48.084,114.0,51.0
346574,0.505,-0.139,0.505,15.718,115.237,-43.412,116.0,51.0
346625,0.616,-0.011,0.760,134.550,118.656,-58.664,119.0,56.0
346680,0.585,0.430,0.798,86.092,124.557,-70.122,122.0,51.0
346729,0.324,0.580,0.839,18.565,138.618,-83.779,124.0,51.0
346779,0.233,0.406,1.166,-10.802,131.435,-65.977,125.0,51.0
346828,0.145,0.372,1.220,8.786,103.237,-45.664,125.0,51.0
346878,0.033,0.350,1.209,15.763,70.160,-29.695,126.0,56.0
346931,0.101,0.466,1.206,25.252,57.893,-10.466,127.0,46.0
346980,0.047,0.354,1.103,-6.565,39.282,-27.443,127.0,43.0
347029,0.053,0.238,1.016,-1.275,39.435,-16.145,124.0,45.0
347079,0.016,0.229,0.991,3.084,32.939,-19.366,125.0,58.0
347137,0.002,0.350,0.956,12.313,38.985,-27.069,0.0,119.0
347191,-0.054,0.415,1.085,1.634,33.473,-21.542,0.0,59.0
347246,-0.134,0.385,1.241,-3.511,15.756,-12.939,0.0,65.0
347303,-0.157,0.473,1.435,-10.458,-15.435,13.053,0.0,119.0
347361,-0.189,0.447,1.426,-13.405,-65.847,29.695,0.0,57.0
347413,-0.144,0.386,1.271,-25.000,-102.099,41.168,159.0,46.0
347463,-0.022,0.359,1.125,-19.954,-126.443,56.107,125.0,54.0
347512,0.091,0.331,1.008,-27.321,-137.840,57.870,125.0,52.0
347563,0.212,0.238,0.943,-18.924,-145.176,63.115,124.0,52.0
347656,0.477,0.203,0.709,-23.321,-141.679,68.366,121.0,55.0
347706,0.568,0.082,0.601,-34.305,-133.786,58.695,119.0,60.0
347755,0.723,0.075,0.491,-30.130,-116.473,50.969,118.0,50.0
347804,0.795,0.002,0.402,-56.397,-103.443,37.824,118.0,50.0
347856,0.746,-0.082,0.356,-41.649,-92.122,32.420,118.0,52.0
347902,0.724,-0.170,0.302,-14.779,-93.817,36.183,40.0,63.0
347954,0.749,-0.212,0.258,14.321,-93.672,35.710,160.0,55.0
348007,0.733,-0.254,0.155,5.420,-97.817,33.000,160.0,66.0
348052,0.761,-0.356,0.140,6.145,-98.206,21.298,30.0,66.0
348104,0.807,-0.334,0.045,5.603,-92.015,14.710,157.0,67.0
348157,0.897,-0.184,-0.054,-24.870,-77.687,-10.336,157.0,69.0
348212,0.867,-0.269,-0.103,-53.992,-75.855,-24.565,157.0,94.0
348270,0.758,-0.168,-0.236,-45.275,-75.267,-18.603,158.0,107.0
348324,0.867,-0.078,-0.347,-51.947,-80.061,-31.290,158.0,94.0
348378,0.852,-0.139,-0.406,-30.885,-86.679,-28.947,159.0,81.0
348433,0.774,-0.005,-0.491,-6.046,-89.168,-15.885,159.0,94.0
348487,0.879,0.046,-0.547,-9.756,-81.145,-18.198,160.0,101.0
348542,0.801,0.121,-0.664,-25.527,-73.282,-22.389,160.0,100.0
348596,0.715,0.072,-0.691,-35.053,-68.374,-17.160,160.0,69.0
348649,0.751,0.047,-0.806,8.405,-75.092,-12.725,160.0,68.0
348702,0.673,0.136,-0.903,5.992,-64.473,5.618,160.0,69.0
348758,0.691,0.219,-0.944,-42.542,-44.145,8.351,159.0,68.0
348811,0.640,0.057,-0.863,-86.282,-26.183,1.137,159.0,71.0
348866,0.676,0.073,-0.840,-45.366,-19.206,-1.908,158.0,101.0
348918,0.628,0.146,-0.875,-23.069,-28.252,-16.107,158.0,68.0
348972,0.640,0.258,-0.933,-47.794,-8.130,-10.496,158.0,71.0
349027,0.648,0.187,-0.896,-54.099,2.916,-17.008,158.0,97.0
349081,0.613,0.228,-0.880,-18.450,1.061,-9.588,157.0,104.0
349134,0.604,0.314,-0.893,-7.947,5.328,-8.863,157.0,64.0
349190,0.541,0.266,-0.822,-12.153,9.489,1.565,157.0,63.0
349242,0.595,0.275,-0.799,0.244,11.511,8.710,157.0,64.0
349295,0.605,0.263,-0.745,2.443,7.366,8.305,158.0,73.0
349348,0.629,0.259,-0.735,14.435,3.718,5.565,158.0,71.0
349402,0.668,0.329,-0.816,11.344,4.687,1.763,158.0,71.0
349455,0.645,0.292,-0.850,13.038,7.656,8.611,158.0,71.0
349509,0.680,0.334,-0.905,43.122,11.260,25.076,157.0,102.0
349564,0.702,0.322,-0.980,36.313,21.740,41.282,157.0,103.0
349620,0.708,0.237,-0.948,33.557,40.672,51.435,156.0,105.0
349677,0.736,0.090,-0.877,45.504,56.656,46.695,156.0,106.0
349732,0.764,0.032,-0.745,40.885,67.153,34.557,154.0,107.0
349788,0.735,0.054,-0.653,33.588,77.153,24.519,154.0,108.0
349842,0.824,0.008,-0.500,13.718,86.916,22.763,153.0,101.0
349897,0.798,0.060,-0.446,-22.466,95.664,19.603,152.0,102.0
349952,0.790,-0.143,-0.307,-44.145,92.511,25.718,151.0,105.0
350008,0.824,-0.225,-0.187,-20.412,80.870,28.198,151.0,122.0
350063,0.780,-0.254,-0.134,-4.038,53.267,25.374,149.0,124.0
350116,0.882,-0.228,-0.085,6.901,33.649,22.893,37.0,122.0
350172,0.902,-0.271,-0.067,22.557,21.435,25.389,148.0,121.0
350226,0.939,-0.252,-0.053,40.809,19.435,24.145,148.0,105.0
350274,0.945,-0.207,-0.062,24.969,18.626,21.947,25.0,106.0
350371,0.937,-0.347,0.034,-14.000,16.916,12.916,146.0,107.0
350419,0.901,-0.353,0.019,8.412,7.382,10.321,16.0,107.0
350467,0.917,-0.361,0.012,28.649,2.962,12.481,16.0,107.0
350521,0.935,-0.300,-0.011,23.229,1.031,10.885,145.0,107.0
350575,0.990,-0.380,0.005,-0.809,-0.901,-1.634,144.0,107.0
350632,0.947,-0.307,-0.044,-9.611,6.565,-11.641,144.0,107.0
350688,0.935,-0.332,-0.039,-13.115,8.748,-11.992,144.0,106.0
350735,0.946,-0.295,-0.025,-10.015,6.496,-9.695,17.0,107.0
350782,0.957,-0.332,-0.004,1.008,1.252,-2.160,14.0,107.0
350829,0.944,-0.274,-0.018,21.878,-1.145,0.321,17.0,106.0
350876,0.957,-0.210,-0.039,11.710,-2.420,5.244,16.0,106.0
350923,1.002,-0.235,-0.013,-1.748,-0.443,1.366,16.0,106.0
350978,0.986,-0.254,-0.026,-7.756,2.122,-0.786,145.0,106.0
351027,0.956,-0.276,-0.017,-3.489,2.794,-1.206,17.0,85.0
351074,0.967,-0.271,-0.007,-4.740,1.107,1.740,16.0,106.0
351121,0.961,-0.294,-0.003,1.786,0.412,2.931,17.0,105.0
351167,0.958,-0.277,-0.012,1.023,-0.580,3.023,16.0,83.0
351213,0.962,-0.283,-0.020,0.450,-0.550,4.099,16.0,83.0
351258,0.970,-0.292,-0.007,0.336,-0.786,3.954,16.0,83.0
351304,0.970,-0.298,-0.001,0.069,-0.733,1.519,16.0,83.0
351357,0.951,-0.296,-0.000,3.084,-1.771,2.198,145.0,83.0
351411,0.966,-0.262,-0.018,-1.908,-0.275,3.076,145.0,84.0
351467,0.979,-0.320,-0.026,-14.427,0.084,-6.420,145.0,84.0
351522,0.932,-0.271,-0.024,-5.641,0.412,-0.191,145.0,106.0
351577,0.975,-0.296,-0.014,-19.771,-1.771,1.191,145.0,106.0
351632,0.971,-0.316,0.004,5.916,0.053,2.053,144.0,107.0
351686,0.963,-0.296,-0.003,0.817,-2.458,-0.763,144.0,107.0
351733,0.974,-0.252,-0.049,-4.489,-1.412,2.496,16.0,107.0
351781,0.965,-0.340,-0.002,-1.832,0.145,1.252,17.0,107.0
351828,0.956,-0.261,-0.042,2.420,-1.878,0.740,10.0,107.0
351875,0.961,-0.275,-0.033,-7.740,-1.779,3.313,10.0,107.0
351925,0.966,-0.332,-0.023,-2.771,-1.313,1.511,9.0,107.0
351972,0.949,-0.293,-0.033,-0.473,-1.710,2.962,10.0,107.0
352019,0.945,-0.320,-0.029,-3.198,-2.061,-1.863,10.0,107.0
352066,0.963,-0.303,-0.034,0.168,-1.679,0.168,11.0,107.0
352113,0.965,-0.293,-0.032,-1.458,-0.061,-1.427,11.0,107.0
352160,0.970,-0.269,-0.049,-4.084,-0.611,1.359,11.0,108.0
352207,0.969,-0.298,-0.025,-3.031,-0.031,0.244,11.0,108.0
352254,0.941,-0.291,-0.042,-5.122,-0.603,1.206,11.0,108.0
352302,0.954,-0.323,-0.029,-7.802,-0.122,3.191,16.0,108.0
352360,0.959,-0.322,-0.032,-1.008,-1.534,2.641,144.0,108.0
352415,0.968,-0.306,-0.021,4.557,-1.420,1.069,144.0,108.0
352470,0.968,-0.274,-0.034,-0.641,-1.740,0.916,144.0,108.0
352525,0.960,-0.310,-0.031,-1.977,-0.397,-0.374,144.0,108.0
352580,0.947,-0.301,-0.028,-3.748,-0.695,-0.718,144.0,108.0
352634,0.948,-0.334,-0.018,-0.420,-2.779,-2.046,144.0,108.0
352690,0.916,-0.297,-0.056,3.023,-4.023,1.893,144.0,108.0
352738,0.926,-0.341,-0.036,-11.771,-11.672,5.565,17.0,108.0
352796,0.717,-0.550,0.022,30.145,-40.595,19.725,145.0,108.0
352843,0.595,-0.404,-0.069,77.366,-76.153,54.366,17.0,107.0
352945,0.809,-0.628,-0.178,-33.687,-74.290,76.725,148.0,158.0
352999,0.785,-0.484,-0.265,52.076,-79.794,92.519,37.0,0.0
353053,0.895,-0.476,-0.348,18.992,-85.832,79.473,37.0,0.0
353107,0.919,-0.605,-0.459,-4.992,-81.878,76.473,36.0,0.0
353162,0.828,-0.765,-0.477,-19.206,-57.069,64.985,30.0,0.0
353215,0.762,-0.884,-0.556,0.504,-19.733,45.061,24.0,0.0
353268,0.677,-0.810,-0.533,-10.756,7.679,26.458,24.0,0.0
353326,0.540,-0.807,-0.474,-17.969,22.046,9.794,24.0,0.0
353389,0.457,-0.828,-0.351,-5.137,12.183,2.237,0.0,0.0
353458,0.494,-0.663,-0.492,-8.687,-0.046,-1.893,0.0,0.0
353510,0.498,-0.787,-0.463,-5.962,1.099,-3.489,25.0,0.0
353562,0.625,-0.895,-0.478,-1.130,5.374,-16.511,24.0,0.0
353614,0.706,-1.040,-0.405,-3.076,23.618,-59.679,29.0,0.0
353668,0.583,-0.942,-0.387,16.809,51.947,-97.969,37.0,0.0
353728,0.535,-0.693,-0.347,-4.595,74.588,-123.496,160.0,0.0
353785,0.560,-0.509,-0.288,-52.473,89.321,-138.282,109.0,0.0
353844,0.632,-0.418,-0.216,-84.473,91.198,-135.206,158.0,117.0
353893,0.653,-0.332,-0.141,-82.542,84.733,-134.779,55.0,106.0
353942,0.669,-0.210,-0.118,-57.939,69.000,-140.122,58.0,101.0
353991,0.754,-0.025,-0.079,-39.557,55.840,-145.260,66.0,96.0
354045,0.873,0.178,-0.044,-12.427,43.786,-158.092,176.0,91.0
354102,0.876,0.439,-0.038,18.702,35.802,-169.382,0.0,84.0
354157,0.745,0.640,0.008,-8.084,46.412,-163.298,0.0,80.0
354213,0.575,0.826,-0.008,3.382,41.618,-138.473,0.0,77.0
354278,0.637,0.918,0.113,-32.084,36.023,-107.305,0.0,0.0
354341,0.586,1.011,0.161,-61.939,32.191,-77.298,0.0,0.0
354404,0.589,0.983,0.219,-78.496,40.443,-63.672,0.0,0.0
354466,0.539,0.937,0.336,-88.244,49.885,-58.145,0.0,0.0
354529,0.440,0.785,0.447,-141.076,54.962,-64.802,0.0,0.0
354585,0.304,0.660,0.598,-71.855,49.298,-42.069,0.0,96.0
354641,0.310,0.723,0.714,-48.275,44.840,-32.412,0.0,94.0
354694,0.226,0.576,0.791,55.718,33.840,-26.183,0.0,16.0
354760,0.196,1.035,0.606,64.794,19.901,-19.550,0.0,0.0
354826,0.183,1.045,0.545,-2.267,21.374,-16.328,0.0,0.0
354888,0.117,0.699,0.733,-46.908,19.603,-16.847,0.0,0.0
354942,0.142,0.804,0.644,0.718,14.435,-10.282,59.0,0.0
355005,0.104,0.739,0.677,-3.710,14.160,-17.313,0.0,0.0
355068,0.080,0.731,0.711,-10.947,11.802,-18.282,0.0,0.0
355131,0.024,0.692,0.723,20.008,1.214,-13.557,0.0,0.0
355187,0.053,0.905,0.628,-21.588,2.397,-10.061,89.0,0.0
355241,0.060,0.719,0.712,-22.481,3.214,-11.672,61.0,0.0
355297,0.032,0.739,0.662,-12.824,3.145,-12.725,61.0,0.0
355354,0.020,0.730,0.636,11.809,1.710,-8.084,60.0,0.0
355410,0.035,0.754,0.656,-0.344,4.458,-8.420,89.0,0.0
355465,0.018,0.752,0.657,6.130,6.099,-10.420,60.0,0.0
355520,-0.010,0.777,0.657,1.405,7.527,-11.489,60.0,0.0
355574,-0.026,0.782,0.652,-2.168,8.153,-9.855,60.0,0.0
355629,-0.051,0.815,0.731,6.344,-0.878,2.420,59.0,0.0
355684,-0.011,0.785,0.699,-8.748,-0.969,0.168,59.0,0.0
355738,-0.017,0.773,0.637,-1.985,-1.084,-1.664,60.0,0.0