Timestamp(ms),AccelX(g),AccelY(g),AccelZ(g),GyroX(deg/s),GyroY(deg/s),GyroZ(deg/s),DistanceLeft(cm),DistanceRight(cm)
487801,1.015,-0.161,0.038,5.771,-0.908,-5.611,16.0,61.0
487845,0.992,-0.188,0.109,-5.260,-1.473,-8.847,9.0,61.0
487888,0.968,-0.152,0.029,0.458,5.191,-9.374,11.0,60.0
487932,0.956,-0.177,0.104,-14.740,-2.794,-9.832,16.0,60.0
487976,1.020,-0.113,0.059,-11.221,2.550,-21.275,17.0,59.0
488033,1.005,-0.133,0.098,-3.656,1.420,-23.718,170.0,58.0
488077,0.974,-0.025,0.122,-3.641,-3.779,-23.038,22.0,58.0
488122,1.007,0.050,0.063,-11.092,0.458,-17.435,29.0,58.0
488166,1.031,0.014,0.132,-25.542,-1.527,-20.870,28.0,58.0
488211,0.976,0.120,0.020,-19.443,2.924,-18.634,31.0,58.0
488256,0.996,-0.010,0.093,-28.824,1.931,-21.313,32.0,61.0
488301,1.005,0.022,0.143,-5.939,-3.496,-17.092,34.0,60.0
488354,0.990,0.061,0.090,10.115,-2.908,-2.878,173.0,60.0
488402,1.006,0.101,0.063,-12.756,-9.313,4.924,36.0,61.0
488456,1.057,-0.033,0.134,-0.641,-2.573,9.260,172.0,61.0
488501,1.003,0.054,0.042,-1.840,-3.618,8.855,35.0,62.0
488547,1.042,-0.061,0.114,6.634,-2.267,11.725,37.0,62.0
488592,0.957,0.037,-0.002,11.496,5.695,16.550,36.0,60.0
488637,0.976,-0.049,0.103,-8.290,0.458,13.351,37.0,59.0
488682,1.013,-0.081,0.097,-0.573,0.511,11.084,37.0,59.0
488735,1.026,-0.136,0.080,20.290,-1.626,7.718,170.0,59.0
488788,0.956,0.022,-0.012,14.313,0.412,3.611,170.0,58.0
488844,1.032,-0.116,0.132,1.947,-1.748,1.809,170.0,58.0
488897,0.994,-0.029,0.084,3.603,-0.573,5.885,170.0,60.0
488950,1.010,-0.074,0.089,1.137,2.290,2.031,170.0,58.0
489004,0.994,-0.076,0.120,-10.214,0.092,1.580,170.0,59.0
489057,0.996,-0.087,0.080,0.160,0.573,-1.160,170.0,59.0
489109,0.992,-0.082,0.103,1.511,-2.053,1.573,170.0,59.0
489162,0.990,-0.059,0.068,-0.656,-1.046,3.611,170.0,59.0
489208,1.017,-0.084,0.089,-8.824,-1.115,3.015,38.0,59.0
489253,1.007,-0.106,0.072,-8.412,0.687,-2.855,38.0,59.0
489302,0.987,-0.144,0.113,-3.176,-1.099,-3.756,36.0,59.0
489348,0.974,-0.176,0.086,0.977,-0.351,-3.885,37.0,59.0
489393,0.964,-0.228,0.117,-9.977,-5.794,-9.687,39.0,60.0
489438,0.955,-0.279,0.099,-8.153,-4.168,-26.336,38.0,59.0
489484,0.937,-0.274,0.059,-13.000,-1.740,-43.328,42.0,61.0
489537,0.926,-0.260,0.066,-18.359,-0.221,-55.809,176.0,57.0
489584,0.870,-0.219,0.049,-31.458,3.084,-77.038,50.0,71.0
489630,0.775,-0.185,0.072,-28.840,2.427,-89.969,57.0,51.0
489679,0.756,0.076,0.043,-23.023,5.511,-106.237,64.0,81.0
489738,0.709,0.268,0.115,-6.740,12.015,-108.489,194.0,74.0
489793,0.719,0.760,0.053,10.534,-6.435,-66.099,200.0,68.0
489848,1.044,0.773,0.083,2.542,3.595,-47.344,0.0,64.0
489903,0.759,0.647,0.197,-48.893,9.656,-65.145,0.0,60.0
489958,0.679,0.687,0.190,8.962,3.527,-33.137,0.0,57.0
490012,0.760,0.667,0.110,-28.725,0.405,-21.702,0.0,55.0
490067,0.880,0.548,0.180,-28.832,15.153,-51.786,0.0,55.0
490122,0.766,0.622,0.183,-40.534,25.046,-71.886,0.0,51.0
490176,0.639,0.533,0.215,-34.580,25.664,-92.542,0.0,50.0
490252,0.640,0.807,0.159,10.840,28.504,-97.756,0.0,0.0
490358,0.512,1.148,0.253,-35.328,37.298,-94.168,0.0,0.0
490411,0.343,1.083,0.422,29.786,20.718,-62.664,0.0,16.0
490467,0.371,1.290,0.344,6.855,15.061,-38.405,0.0,17.0
490519,0.312,1.048,0.388,-17.504,15.176,-21.908,0.0,16.0
490575,0.237,1.002,0.379,-17.771,5.305,-11.321,0.0,16.0
490628,0.239,0.883,0.408,-1.702,-0.885,-3.099,0.0,16.0
490695,0.276,0.980,0.383,6.198,-7.511,6.863,0.0,0.0
490747,0.364,1.240,0.408,22.290,-18.229,28.473,0.0,16.0
490803,0.428,1.371,0.527,7.443,-34.237,56.038,0.0,16.0
490866,0.392,1.410,0.437,5.908,-48.221,95.282,0.0,0.0
490930,0.424,1.123,0.414,4.618,-61.748,120.763,0.0,0.0
490984,0.508,0.874,0.242,49.534,-68.886,132.046,0.0,52.0
491039,0.571,0.986,-0.017,77.145,-48.496,140.015,0.0,55.0
491095,0.497,0.701,-0.096,-18.321,-31.412,144.405,0.0,63.0
491150,0.553,0.219,-0.118,-0.832,-26.137,150.282,199.0,71.0
491199,0.735,0.071,-0.139,38.977,-15.420,128.198,78.0,77.0
491248,0.783,-0.139,-0.215,26.260,-2.008,112.191,64.0,83.0
491298,0.858,-0.228,-0.140,33.771,7.321,81.359,56.0,69.0
491345,0.970,-0.260,-0.085,67.420,16.420,50.664,50.0,57.0
491392,0.923,-0.170,-0.088,54.527,26.237,33.198,46.0,57.0
491438,0.979,-0.161,-0.085,47.626,32.107,21.298,46.0,54.0
491483,0.936,-0.117,-0.120,15.588,43.840,11.962,41.0,57.0
491529,1.020,-0.077,-0.162,-17.748,57.382,6.733,42.0,53.0
491575,0.971,-0.178,-0.117,-9.275,69.313,3.115,42.0,51.0
491628,0.912,-0.056,-0.124,6.969,83.374,4.336,175.0,53.0
491680,0.844,-0.192,-0.011,68.412,96.366,20.290,175.0,43.0
491738,0.711,-0.077,0.030,95.168,119.092,9.076,176.0,48.0
491790,0.691,-0.008,0.223,131.313,136.794,7.679,177.0,40.0
491843,0.513,0.359,0.395,42.107,158.565,-15.412,177.0,41.0
491894,0.440,0.087,0.830,-23.466,161.916,-49.321,128.0,51.0
491944,0.203,0.080,0.978,-2.214,152.504,-43.321,127.0,51.0
491995,0.160,0.186,1.070,72.992,128.099,-30.397,127.0,49.0
492046,-0.014,0.168,1.062,45.878,102.649,-18.176,127.0,51.0
492096,0.183,0.509,1.141,32.450,101.611,-29.565,127.0,50.0
492150,-0.032,0.251,1.193,19.168,80.015,-45.275,127.0,50.0
492200,-0.000,0.456,1.234,2.176,66.405,-29.618,127.0,50.0
492252,-0.063,0.319,1.271,15.992,39.206,-14.229,127.0,57.0
492302,-0.102,0.303,1.445,12.473,14.191,-1.397,127.0,51.0
492353,-0.092,0.552,1.330,-6.504,-9.695,7.763,127.0,57.0
492404,-0.174,0.351,1.384,-30.260,-39.817,19.031,127.0,51.0
492454,-0.173,0.662,1.468,4.740,-66.618,26.931,127.0,51.0
492505,-0.122,0.374,1.559,-92.504,-104.412,21.840,126.0,51.0
492556,-0.157,0.251,1.527,-45.969,-151.802,34.931,126.0,50.0
492610,-0.200,0.303,1.157,-43.786,-199.573,48.649,126.0,52.0
492660,-0.143,0.169,0.868,-32.641,-228.328,78.901,126.0,43.0
492713,0.055,0.057,0.593,15.847,-245.458,94.473,175.0,53.0
492760,0.250,0.015,0.239,15.794,-233.779,85.137,39.0,50.0
492813,0.416,0.046,-0.012,-37.969,-203.382,55.115,173.0,51.0
492867,0.449,-0.107,-0.187,-120.443,-177.412,15.962,172.0,57.0
492921,0.516,-0.368,-0.174,-110.740,-186.015,-6.969,171.0,64.0
493020,0.576,-0.143,-0.911,-10.802,-170.534,-24.450,171.0,79.0
493078,0.709,0.054,-1.170,-71.634,-121.824,8.298,171.0,83.0
493132,0.712,-0.233,-1.039,-46.710,-102.458,-1.168,171.0,59.0
493192,0.837,-0.058,-1.076,0.679,-74.389,0.427,171.0,57.0
493245,0.760,0.023,-0.995,-47.847,-47.450,-24.603,172.0,58.0
493299,0.616,-0.037,-0.838,-45.863,-42.527,-35.214,173.0,84.0
493352,0.548,0.051,-0.811,24.733,-48.176,-34.046,174.0,57.0
493406,0.558,0.129,-0.852,26.534,-48.771,-28.344,175.0,70.0
493460,0.526,0.153,-0.933,17.740,-45.176,-13.992,175.0,65.0
493515,0.500,0.152,-1.010,7.588,-41.748,-2.000,175.0,62.0
493569,0.533,0.083,-1.009,15.580,-34.580,10.305,175.0,57.0
493622,0.457,0.046,-1.049,8.359,-30.595,14.099,175.0,55.0
493676,0.454,0.041,-1.009,6.534,-17.092,11.947,175.0,82.0
493729,0.448,0.020,-0.972,3.130,-12.626,7.672,175.0,57.0
493784,0.378,-0.025,-0.972,-8.389,-11.229,9.458,174.0,82.0
493838,0.436,-0.033,-0.991,12.748,-8.473,6.489,174.0,83.0
493892,0.439,-0.021,-1.020,9.504,-1.847,3.282,173.0,83.0
493945,0.410,-0.022,-1.014,-7.176,7.061,3.435,174.0,57.0
494001,0.438,-0.003,-1.162,-10.534,11.053,-5.382,173.0,57.0
494054,0.458,0.010,-1.307,1.183,31.916,7.557,173.0,53.0
494107,0.506,0.033,-1.330,-0.565,63.244,15.420,172.0,68.0
494160,0.519,0.081,-1.181,-14.672,93.427,23.786,173.0,60.0
494214,0.523,0.109,-1.032,-37.153,111.328,18.519,171.0,57.0
494268,0.476,-0.043,-0.743,-27.366,107.702,36.580,171.0,87.0
494321,0.619,-0.063,-0.594,42.695,95.855,35.939,170.0,57.0
494375,0.705,0.120,-0.564,23.565,106.229,29.038,169.0,84.0
494433,0.726,-0.112,-0.349,1.115,99.420,28.206,168.0,84.0
494487,0.771,-0.098,-0.270,-7.053,91.603,10.122,167.0,84.0
494541,0.797,-0.021,-0.267,-38.947,79.908,15.756,166.0,86.0
494597,0.736,-0.195,-0.187,-79.763,62.252,41.954,165.0,107.0
494645,0.899,-0.318,-0.099,-43.489,50.282,40.580,33.0,108.0
494700,0.991,-0.315,-0.105,17.275,39.153,24.031,163.0,108.0
494754,0.941,-0.183,-0.122,21.817,35.115,22.496,163.0,89.0
494809,0.907,-0.210,-0.072,21.008,34.542,21.191,163.0,89.0
494863,0.916,-0.246,0.012,25.679,24.550,32.183,161.0,89.0
494912,0.978,-0.346,0.086,17.359,16.710,23.176,16.0,90.0
494958,0.927,-0.300,0.028,7.267,19.290,13.359,16.0,91.0
495003,0.904,-0.355,0.055,-27.924,13.870,16.122,16.0,91.0
495057,0.913,-0.437,0.057,-42.267,5.382,1.008,159.0,92.0
495104,0.897,-0.615,0.066,-25.214,-0.840,-9.733,11.0,92.0
495158,0.891,-0.541,0.062,20.397,-9.916,-13.649,160.0,91.0
495212,0.895,-0.397,-0.044,17.847,-13.931,-35.779,161.0,90.0
495266,0.882,-0.393,-0.085,-2.824,-10.221,-47.427,162.0,88.0
495312,0.909,-0.333,-0.137,-16.252,-9.756,-48.321,23.0,86.0
495363,0.938,-0.281,-0.165,-29.481,-2.817,-58.168,25.0,84.0
495410,0.980,-0.251,-0.165,-27.679,4.687,-74.534,30.0,99.0
495457,0.934,-0.159,-0.168,-19.206,13.237,-82.954,36.0,97.0
495504,0.841,-0.022,-0.179,-26.794,18.740,-90.855,45.0,75.0
495551,0.871,0.029,-0.116,-24.718,27.130,-99.939,51.0,72.0
495599,0.818,0.109,-0.043,-11.015,29.679,-86.313,59.0,82.0
495697,0.862,0.288,0.070,-20.015,33.031,-97.779,0.0,72.0
495753,0.770,0.469,0.066,-39.534,45.435,-138.519,0.0,67.0
495811,0.627,0.577,0.198,39.344,37.237,-111.527,0.0,61.0
495866,0.586,0.832,0.109,60.824,22.916,-80.489,0.0,57.0
495921,0.554,0.725,0.141,23.893,5.802,-67.237,0.0,55.0
495975,0.525,0.798,0.105,-0.107,10.023,-71.252,0.0,51.0
496029,0.551,0.841,0.228,-19.160,19.847,-97.489,0.0,50.0
496093,0.570,1.323,0.096,10.153,22.573,-86.153,0.0,0.0
496145,0.469,1.126,0.225,-37.771,21.748,-75.260,0.0,18.0
496197,0.403,1.131,0.197,-5.687,11.328,-42.779,0.0,17.0
496250,0.439,1.100,0.154,-14.672,10.649,-35.511,0.0,16.0
496306,0.346,0.973,0.220,-39.733,17.962,-49.763,0.0,17.0
496358,0.238,0.914,0.277,-19.580,14.504,-35.695,0.0,17.0
496421,0.198,0.867,0.298,9.786,4.374,-12.901,0.0,0.0
496474,0.290,1.156,0.247,-39.275,6.611,1.344,0.0,16.0
496526,0.324,0.896,0.397,-20.924,6.718,-12.160,0.0,12.0
496581,0.267,1.037,0.324,-6.344,3.573,-21.939,0.0,11.0
496633,0.187,0.993,0.308,-35.115,4.885,-17.901,0.0,13.0
496690,0.213,1.115,0.258,-95.496,10.641,-2.527,0.0,17.0
496744,0.292,1.657,-0.035,-250.137,36.534,-2.832,46.0,0.0
496792,0.150,0.146,0.334,-250.137,74.878,-28.252,32.0,51.0
496837,-0.040,-0.615,1.118,-250.137,39.466,11.656,27.0,51.0
496882,-0.024,-0.145,1.003,-79.435,-4.885,22.229,30.0,55.0
496927,0.110,-0.096,0.914,-21.672,-11.618,23.504,30.0,57.0
496972,0.135,0.052,0.781,-40.504,7.137,21.756,27.0,57.0
497017,0.107,-0.192,0.901,-21.969,20.847,15.244,28.0,57.0
497062,0.086,-0.138,0.935,-11.298,30.885,6.763,25.0,57.0
497117,0.057,-0.176,1.027,3.191,37.656,0.649,0.0,57.0
497161,0.010,-0.007,1.065,10.916,38.786,-6.824,23.0,43.0
497209,-0.045,-0.253,1.201,17.069,35.969,-11.481,23.0,57.0
497253,-0.085,0.200,1.010,29.298,23.725,-10.863,23.0,57.0
497298,-0.123,-0.074,1.115,-8.756,16.771,-10.435,25.0,57.0
497343,-0.102,0.135,1.004,15.939,10.656,-1.550,23.0,58.0
497388,-0.084,-0.020,1.025,5.656,11.794,-4.573,22.0,57.0
497433,-0.068,0.135,0.943,1.359,18.107,-1.855,27.0,58.0
497478,-0.158,-0.028,1.051,0.328,13.427,0.176,24.0,59.0
497522,-0.121,0.070,1.056,17.634,-2.290,6.939,22.0,59.0
497567,-0.108,0.011,1.097,-5.786,4.664,5.489,23.0,61.0
497610,-0.150,-0.107,1.156,0.115,-5.527,0.008,22.0,59.0
497658,-0.158,-0.014,1.103,8.374,-13.595,2.611,77.0,61.0
497702,-0.166,-0.182,1.319,58.595,-27.366,1.695,22.0,58.0
497747,-0.105,0.001,1.221,158.733,-46.565,11.298,23.0,53.0
497793,-0.072,0.225,1.101,194.168,-57.359,17.229,26.0,53.0
497839,0.016,0.119,0.942,250.130,-69.237,30.832,28.0,72.0
497892,0.074,0.490,0.507,250.130,-66.641,45.992,30.0,0.0
497937,0.185,0.405,0.121,250.130,-59.916,57.802,58.0,16.0
498002,0.260,0.848,-0.337,250.130,-42.901,61.641,0.0,0.0
498066,0.260,0.893,-0.372,230.679,-24.947,22.450,0.0,0.0
498129,0.235,0.798,-0.514,212.305,-23.008,-5.908,0.0,0.0
498186,0.192,0.642,-0.772,250.130,-26.824,-7.656,81.0,0.0
498276,0.273,0.535,-1.123,192.588,-11.275,17.443,72.0,23.0
498322,0.236,0.328,-1.141,147.748,-11.756,5.771,73.0,23.0
498368,0.260,0.256,-1.116,130.901,0.183,0.122,73.0,26.0
498413,0.212,0.066,-1.123,95.702,3.588,-4.115,74.0,23.0
498458,0.242,0.091,-1.054,68.260,13.771,-14.130,57.0,23.0
498506,0.195,0.030,-0.987,17.855,4.947,-15.153,57.0,22.0
498552,0.240,0.049,-0.932,-4.450,13.015,-6.611,74.0,22.0
498598,0.233,0.020,-0.876,-8.229,5.542,-3.679,74.0,22.0
498643,0.244,0.094,-0.985,-52.282,-3.985,-1.031,57.0,23.0
498689,0.253,0.129,-1.143,-53.405,-1.015,16.786,74.0,22.0
498735,0.364,0.203,-1.188,-43.611,21.817,31.229,73.0,22.0
498781,0.235,0.433,-1.461,-48.588,31.840,39.679,73.0,24.0
498827,0.337,0.205,-1.267,-118.153,63.656,58.786,71.0,26.0
498873,0.280,0.282,-1.360,-22.847,78.496,67.634,70.0,29.0
498922,0.403,0.120,-1.226,-77.275,100.710,62.046,70.0,30.0
498969,0.524,0.741,-1.682,-77.130,118.702,55.847,69.0,30.0
499015,0.348,-0.113,-1.046,-101.710,153.397,84.336,71.0,31.0
499062,0.344,0.341,-0.927,-10.687,169.031,113.046,84.0,33.0
499110,0.406,-0.157,-0.455,44.573,158.099,114.611,94.0,40.0
499159,0.585,0.115,-0.333,82.550,151.183,67.015,94.0,42.0
499208,0.565,-0.038,-0.085,17.817,134.481,35.046,95.0,44.0
499256,0.705,-0.135,0.120,9.191,114.634,31.649,97.0,46.0
499309,0.740,-0.190,0.171,99.710,85.634,37.176,99.0,57.0
499359,0.842,0.062,0.074,54.244,83.824,38.519,99.0,83.0
499410,0.934,-0.230,0.228,1.160,73.672,22.863,102.0,84.0
499463,0.900,-0.265,0.341,51.779,58.634,11.168,106.0,87.0
499515,0.813,-0.151,0.258,56.718,44.992,15.557,121.0,88.0
499577,0.917,-0.177,0.378,56.641,39.756,14.779,174.0,0.0
499636,0.933,-0.076,0.417,28.885,28.733,10.214,124.0,0.0
499693,0.892,-0.087,0.385,44.252,12.099,7.183,90.0,0.0
499756,0.948,-0.050,0.346,1.092,8.458,-2.916,89.0,0.0
499815,0.935,-0.168,0.337,-29.008,11.069,3.618,89.0,0.0
499871,0.936,-0.199,0.306,-11.901,6.908,3.061,89.0,0.0
499928,0.922,-0.287,0.335,-2.656,8.176,-1.565,89.0,0.0
499983,0.927,-0.208,0.296,39.847,5.763,4.206,89.0,0.0
500039,0.917,-0.197,0.413,53.947,3.168,13.008,90.0,0.0
500096,0.914,-0.158,0.416,31.344,7.824,8.962,89.0,0.0
500152,0.906,-0.063,0.371,5.611,-3.870,-1.412,90.0,0.0
500208,0.943,-0.083,0.327,-15.427,-3.824,-7.618,90.0,0.0
500264,0.921,-0.219,0.400,-3.534,-4.611,-2.412,91.0,0.0
500324,0.947,-0.178,0.364,-16.458,-3.527,-6.183,90.0,0.0
500380,0.933,-0.062,0.370,-0.092,-1.977,-0.214,91.0,0.0
500436,0.941,-0.089,0.372,-14.702,1.458,1.756,91.0,0.0
500493,0.900,-0.143,0.333,-16.046,-1.534,-1.634,91.0,0.0
500549,0.975,-0.163,0.357,-7.107,-5.458,5.191,91.0,0.0
500605,0.949,-0.115,0.311,-6.542,2.069,5.626,90.0,0.0
500662,0.930,-0.181,0.301,-28.885,5.099,-0.359,90.0,0.0
500718,1.071,-0.063,0.297,-57.328,13.634,-11.229,91.0,0.0
500776,0.863,-0.063,0.292,-150.092,30.412,-27.893,126.0,0.0
500836,0.710,-0.360,0.386,-170.374,3.824,-15.550,196.0,94.0
500934,0.711,-0.605,0.387,-179.130,-8.252,0.832,164.0,93.0
500988,0.524,-0.456,0.258,-72.313,-30.061,28.771,164.0,89.0
501042,0.418,-0.424,0.053,-59.534,-39.359,80.992,166.0,72.0
501096,0.337,-0.289,-0.124,-67.198,-14.382,117.565,128.0,132.0
501154,0.346,-0.558,-0.203,-117.481,3.786,126.107,115.0,0.0
501208,0.649,-0.746,-0.051,-14.359,46.160,93.092,34.0,0.0
501261,1.062,-0.856,-0.004,14.481,52.695,55.466,30.0,0.0
501314,1.307,-0.833,0.116,-53.763,32.252,-4.618,30.0,0.0
501364,1.747,-1.384,0.328,-28.427,19.183,-26.634,18.0,103.0
501427,1.682,-1.290,0.290,-21.160,2.443,-20.252,0.0,195.0
501479,1.443,-0.868,0.127,20.893,18.313,-16.176,30.0,0.0
501527,1.042,-0.664,0.043,-10.947,31.115,-59.397,32.0,102.0
501575,0.772,-0.444,0.036,-29.557,35.435,-99.397,40.0,101.0
501633,0.630,-0.525,0.051,-12.687,32.038,-115.214,112.0,0.0
501684,0.478,-0.262,-0.000,45.061,32.221,-101.313,125.0,68.0
501737,0.655,-0.279,0.015,20.710,28.107,-89.267,169.0,58.0
501792,0.849,-0.437,0.109,-13.382,34.099,-108.198,167.0,65.0
501846,0.573,-0.356,0.108,-38.244,25.611,-75.519,165.0,59.0
501899,0.608,-0.543,0.226,31.115,5.977,-22.878,164.0,57.0
501951,0.541,-0.416,0.152,45.107,-17.397,45.069,164.0,57.0
502003,0.528,-0.464,0.096,37.389,-29.267,85.748,164.0,57.0
502056,0.337,-0.335,-0.019,-32.542,-24.000,124.977,165.0,62.0
502103,0.232,-0.408,0.007,-84.725,-20.924,135.023,21.0,85.0
502153,0.318,-0.484,0.063,-68.504,-16.740,150.099,45.0,131.0
502207,0.320,-0.532,0.000,-52.160,-3.496,136.557,36.0,0.0
502263,0.677,-0.634,0.139,-55.527,-10.076,99.267,32.0,0.0
502326,1.138,-1.187,0.172,-17.351,3.603,5.718,0.0,196.0
502372,1.705,-1.446,0.154,91.916,9.786,-44.832,16.0,101.0
502416,1.458,-1.098,0.112,12.641,16.695,-40.046,17.0,46.0
502459,1.382,-1.080,0.164,-57.198,19.053,-20.237,13.0,45.0
502506,1.247,-1.017,0.173,-41.649,12.969,-0.992,17.0,97.0
502562,1.171,-0.886,0.152,-8.794,-1.481,4.878,0.0,97.0
502620,1.111,-0.735,0.134,12.145,0.443,-18.267,0.0,98.0
502670,0.968,-0.541,0.118,7.832,21.069,-45.015,31.0,99.0
502726,0.807,-0.443,0.120,-7.053,20.260,-67.901,184.0,99.0
502776,0.640,-0.408,0.092,-11.229,26.725,-80.237,43.0,126.0
502824,0.552,-0.420,0.098,10.069,19.061,-81.328,46.0,104.0
502871,0.620,-0.436,0.111,46.588,20.641,-84.160,19.0,84.0
502925,0.589,-0.312,0.102,30.924,19.489,-79.939,166.0,84.0
502978,0.738,-0.400,0.142,-7.198,26.473,-86.023,163.0,65.0
503031,0.781,-0.487,0.171,-20.893,30.427,-79.847,162.0,65.0
503085,0.757,-0.579,0.187,8.053,20.733,-75.260,160.0,65.0
503141,0.595,-0.484,0.126,42.824,-7.107,-0.611,160.0,61.0
503193,0.714,-0.439,0.064,69.137,-26.740,49.710,160.0,60.0
503246,0.509,-0.281,-0.008,-25.130,-41.901,96.015,161.0,64.0
503302,0.545,-0.571,0.083,-28.176,-54.366,103.809,162.0,86.0
503346,0.257,-0.466,0.014,-19.237,-70.351,110.489,15.0,64.0
503400,0.361,-0.545,0.058,14.779,-71.420,116.863,125.0,107.0
503454,0.696,-0.430,0.042,36.977,-60.359,129.115,110.0,136.0
503508,1.002,-0.565,-0.180,49.031,-17.962,89.687,182.0,70.0
503618,1.063,-0.862,-0.035,-22.557,-7.977,27.748,0.0,198.0
503675,1.120,-1.008,0.135,71.023,8.550,1.687,0.0,97.0
503733,1.292,-0.949,0.218,28.053,-13.321,-35.771,0.0,96.0
503790,1.446,-1.161,0.228,-14.832,-30.489,-14.931,0.0,95.0
503847,1.434,-1.136,0.110,-11.519,-21.496,12.115,0.0,95.0
503905,1.238,-0.763,0.023,-0.863,19.328,-1.473,0.0,97.0
503957,1.086,-0.651,0.054,-26.206,34.366,-41.420,36.0,187.0
504003,0.842,-0.479,0.037,-40.489,44.794,-65.908,33.0,64.0
504057,0.694,-0.416,0.084,-26.015,45.977,-86.328,112.0,127.0
504115,0.624,-0.410,0.059,-12.634,52.160,-94.115,114.0,128.0
504167,0.640,-0.302,0.048,2.794,47.748,-100.542,126.0,84.0
504220,0.421,-0.311,0.028,38.779,34.603,-136.084,164.0,66.0
504274,0.604,-0.342,0.113,2.168,23.092,-104.611,161.0,65.0
504328,0.701,-0.534,0.130,-30.237,11.794,-67.229,159.0,67.0
504381,0.770,-0.552,0.113,2.832,8.733,-33.275,157.0,69.0
504434,0.808,-0.587,0.177,23.473,-5.023,-0.267,156.0,70.0
504487,0.765,-0.612,0.156,51.237,-19.649,45.191,156.0,69.0
504544,0.655,-0.524,0.054,58.053,-37.405,79.260,158.0,67.0
504597,0.535,-0.563,0.014,63.053,-55.641,116.580,160.0,67.0
504652,0.446,-0.740,0.051,108.626,-55.023,140.901,163.0,88.0
504707,0.393,-0.514,-0.063,177.031,-55.893,128.786,170.0,69.0
504770,0.716,-0.205,-0.109,127.649,-31.450,130.817,0.0,0.0
504816,0.659,-0.319,-0.044,5.534,-22.038,82.023,36.0,65.0
504869,0.985,-0.481,0.113,-5.519,-18.595,62.588,33.0,0.0
504924,1.047,-0.714,0.180,-24.557,-29.275,14.298,32.0,0.0
504987,1.316,-0.832,0.249,17.557,-28.076,-15.107,0.0,0.0
505043,1.670,-1.235,0.337,-18.756,-16.710,-19.313,30.0,0.0
505098,1.423,-1.155,0.361,-40.664,7.160,-0.038,31.0,0.0
505153,1.319,-1.123,0.279,-1.237,20.305,-0.137,0.0,67.0
505207,1.224,-0.693,0.128,6.809,34.565,-26.733,44.0,0.0
505262,1.100,-0.593,0.097,-43.008,50.137,-54.389,47.0,0.0
505308,0.974,-0.488,0.070,-29.473,58.305,-72.496,36.0,59.0
505354,0.864,-0.186,0.021,-49.565,48.969,-99.137,39.0,62.0
505408,0.817,-0.233,0.114,-77.702,43.802,-117.214,178.0,57.0
505461,0.553,-0.332,0.057,-87.901,43.053,-112.954,173.0,57.0
505519,0.481,-0.429,0.074,-30.557,34.198,-125.412,169.0,57.0
505572,0.651,-0.340,0.106,10.595,30.023,-114.076,166.0,54.0
505625,0.649,-0.108,0.057,-22.328,37.122,-126.153,164.0,56.0
505678,0.783,-0.313,0.295,-81.947,23.847,-93.252,162.0,57.0
505732,0.941,-0.427,0.364,27.954,8.122,-7.015,160.0,58.0
505785,0.887,-0.258,0.272,32.374,-6.290,38.725,160.0,59.0
505838,0.818,-0.433,0.297,42.649,-4.641,39.527,159.0,59.0
505890,0.670,-0.371,0.247,53.573,-16.374,88.557,160.0,59.0
505948,0.546,-0.265,0.152,9.809,-46.031,113.725,162.0,58.0
506001,0.184,-0.443,0.082,-27.084,-64.679,183.092,164.0,63.0
506055,0.660,-0.627,0.109,48.802,-65.901,152.405,168.0,68.0
506109,0.388,-0.315,-0.017,17.664,-54.481,121.992,173.0,66.0
506164,0.846,-0.697,0.120,10.084,-49.893,95.076,38.0,0.0
506211,0.740,-0.492,-0.006,65.397,-24.389,49.763,36.0,64.0
506264,1.026,-0.656,-0.133,18.313,-17.779,23.840,35.0,0.0
506353,1.279,-0.715,0.153,31.664,-46.947,-105.389,45.0,37.0
506398,1.401,-0.528,0.116,35.794,-46.405,-93.649,36.0,38.0
506446,1.507,-0.535,0.188,47.603,-26.237,-31.962,35.0,36.0
506491,1.475,-0.477,0.102,8.053,-2.542,12.008,36.0,51.0
506539,1.301,-0.524,0.056,-37.115,17.412,35.817,38.0,66.0
506583,1.222,-0.699,0.073,-44.374,28.115,38.893,35.0,37.0
506628,1.191,-0.738,0.062,-24.511,38.130,33.534,36.0,36.0
506679,1.147,-0.711,0.099,-16.847,47.252,20.763,45.0,36.0
506731,1.085,-0.592,0.123,-16.313,58.153,5.053,36.0,0.0
506784,1.024,-0.534,0.096,-22.122,65.832,-14.145,37.0,0.0
506832,0.935,-0.288,0.104,-53.901,60.916,-48.786,38.0,57.0
506877,1.001,-0.370,0.187,-81.252,48.466,-77.618,42.0,58.0
506931,0.777,-0.354,0.235,-59.504,50.099,-95.519,176.0,57.0
506984,0.595,-0.352,0.193,-21.069,50.282,-115.939,171.0,57.0
507036,0.504,-0.180,-0.003,-49.069,56.565,-117.137,167.0,58.0
507089,0.739,-0.360,-0.006,-144.275,61.397,-149.076,164.0,58.0
507142,0.524,-0.537,0.036,-201.496,75.702,-145.481,162.0,60.0
507194,0.752,-0.629,0.384,29.275,4.267,-34.359,160.0,62.0
507247,0.928,-0.253,0.186,97.160,-12.061,13.321,159.0,66.0
507302,0.953,-0.231,0.195,-40.542,-15.069,2.466,159.0,67.0
507355,0.978,-0.490,0.276,16.656,-11.252,9.916,159.0,62.0
507408,0.880,-0.306,0.183,22.496,-18.893,41.786,159.0,61.0
507460,0.614,-0.316,0.098,24.802,-43.282,81.771,161.0,61.0
507514,0.322,-0.365,-0.028,7.695,-94.160,140.405,163.0,85.0
507569,0.064,-0.336,-0.093,12.672,-135.046,187.107,166.0,86.0
507623,0.711,-0.665,0.048,101.107,-123.847,129.763,123.0,130.0
507676,0.785,-0.588,-0.116,128.153,-107.832,92.992,40.0,0.0
507732,0.782,-0.248,-0.120,51.863,-66.351,83.947,36.0,0.0
507795,1.057,-0.601,-0.122,-11.756,-52.977,40.267,186.0,200.0
507842,0.918,-0.772,-0.093,10.786,-65.886,-16.939,30.0,98.0
507898,1.075,-0.770,-0.139,44.664,-67.374,-17.107,0.0,97.0
507956,1.267,-0.907,-0.253,8.893,-49.481,-17.908,0.0,96.0
508011,1.409,-1.176,-0.140,67.046,7.885,-26.763,0.0,76.0
508066,1.105,-0.934,-0.034,-21.634,35.763,-37.962,0.0,74.0
508111,0.924,-0.719,-0.045,-5.840,16.458,-4.847,16.0,60.0
508158,0.958,-0.676,-0.086,6.038,10.282,18.618,31.0,96.0
508206,0.998,-0.839,-0.092,-1.725,14.679,24.443,17.0,68.0
508261,0.964,-0.908,-0.085,-5.557,23.618,13.977,0.0,73.0
508323,0.900,-0.778,-0.061,11.588,34.214,-8.702,0.0,0.0
508377,0.974,-0.615,-0.049,20.908,48.603,-28.374,32.0,0.0
508430,1.235,-0.537,-0.001,20.084,47.771,-45.550,35.0,0.0
508476,1.308,-0.400,0.088,-13.420,46.244,-61.053,36.0,60.0
508521,1.132,-0.276,0.146,-41.206,67.847,-84.992,42.0,60.0
508575,0.819,-0.333,0.049,-91.069,80.511,-120.931,174.0,62.0
508631,0.296,-0.370,0.031,-116.427,98.817,-158.908,169.0,57.0
508684,0.170,-0.437,0.059,-76.130,82.908,-151.305,165.0,60.0
508737,0.468,-0.695,0.339,59.198,44.588,-97.779,163.0,60.0
508789,0.651,-0.284,0.236,-18.275,32.427,-36.237,161.0,62.0
508841,0.916,-0.359,0.328,-11.870,-7.794,-13.252,159.0,58.0
508895,0.880,-0.483,0.356,-8.656,-19.603,20.046,159.0,66.0
508991,0.989,-0.400,0.252,34.275,-9.000,9.405,160.0,65.0
509044,0.839,-0.399,0.240,84.710,-26.275,43.473,161.0,64.0
509096,0.808,-0.365,0.185,140.824,-47.588,84.748,163.0,59.0
509153,0.376,-0.152,0.057,47.893,-65.908,138.420,167.0,63.0
509207,0.177,-0.262,0.058,6.504,-68.214,164.817,170.0,64.0
509268,0.626,-0.702,0.048,70.244,-66.458,138.168,176.0,0.0
509323,0.747,-0.324,-0.175,144.763,-69.008,73.550,43.0,0.0
509375,0.973,-0.198,-0.168,107.534,-61.878,37.794,40.0,175.0
509437,1.357,-0.504,0.190,37.687,-82.115,22.092,0.0,0.0
509501,1.231,-0.568,0.075,66.053,-86.527,14.840,0.0,0.0
509554,1.415,-0.694,0.138,57.031,-66.466,29.076,37.0,0.0
509617,1.393,-0.846,0.139,9.359,-26.321,30.588,125.0,0.0
509675,1.292,-0.969,0.077,22.359,7.733,12.756,125.0,0.0
509733,1.149,-0.831,0.022,31.771,30.115,0.840,121.0,0.0
509792,1.179,-1.053,0.122,34.649,37.870,-31.092,121.0,0.0
509850,1.122,-0.542,0.080,67.962,38.504,-43.405,121.0,0.0
509903,0.991,-0.242,0.079,-56.618,53.443,-87.053,46.0,173.0
509958,0.913,-0.196,0.098,-157.382,78.130,-119.573,50.0,0.0
510011,0.731,-0.285,0.121,-211.649,102.031,-130.969,47.0,178.0
510065,0.622,-0.406,0.241,-172.053,102.802,-120.282,183.0,62.0
510121,0.589,-0.494,0.351,-54.183,78.985,-127.473,168.0,62.0
510175,0.402,-0.255,0.230,-26.824,49.046,-85.824,165.0,62.0
510228,0.587,-0.221,0.343,-10.153,34.489,-46.176,163.0,58.0
510281,0.663,-0.342,0.446,-16.924,7.802,-11.351,162.0,64.0
510334,0.730,-0.191,0.406,10.023,10.008,-6.679,161.0,61.0
510387,0.902,-0.363,0.508,12.557,-2.130,0.206,160.0,62.0
510440,0.828,-0.318,0.396,-18.008,-7.802,6.626,161.0,60.0
510493,0.770,-0.466,0.365,6.550,-9.344,1.908,162.0,58.0
510550,0.585,-0.468,0.224,8.298,-27.366,43.595,163.0,65.0
510603,0.451,-0.489,0.155,37.679,-34.611,65.191,166.0,63.0
510656,0.342,-0.474,0.064,50.893,-38.542,67.687,170.0,62.0
510710,0.489,-0.179,0.136,57.771,-2.328,32.099,175.0,58.0
510764,1.186,-0.116,0.303,58.618,10.817,-35.099,179.0,61.0
510818,1.274,0.227,0.263,39.916,64.305,-110.733,183.0,51.0
510871,1.233,-0.054,0.663,-2.282,74.130,-157.374,185.0,45.0
510922,0.875,0.167,0.728,30.939,70.069,-173.595,139.0,56.0
510974,0.790,0.557,0.701,50.847,63.718,-167.427,140.0,60.0
511030,0.678,0.562,0.672,-90.023,82.931,-179.504,141.0,57.0
511081,0.313,0.477,0.898,-6.344,96.954,-124.916,142.0,53.0
511132,0.337,0.765,0.901,-21.573,58.107,-96.534,146.0,51.0
511186,0.362,0.591,0.917,-13.313,50.870,-75.710,0.0,43.0
511250,0.229,0.560,0.882,-25.099,40.908,-60.237,0.0,0.0
511307,0.272,0.691,0.776,-27.176,50.885,-45.481,0.0,101.0
511365,0.178,0.384,0.984,-20.679,28.298,-39.053,0.0,99.0
511422,0.494,0.701,1.089,14.649,40.206,-34.313,0.0,98.0
511479,0.057,0.412,0.982,-27.153,23.145,-32.641,0.0,98.0
511541,0.041,0.548,0.807,26.191,20.069,-22.992,0.0,98.0
511598,0.082,0.465,0.806,3.611,33.534,-33.939,0.0,98.0
511661,-0.036,0.560,0.872,-1.611,43.321,-40.412,0.0,0.0
511714,-0.072,0.650,0.823,-21.450,-13.847,15.153,22.0,0.0
511811,-0.068,0.359,1.051,-15.863,16.092,-9.481,20.0,0.0
511863,-0.041,0.384,0.930,16.542,-6.710,6.847,22.0,0.0
511917,-0.036,0.460,0.865,23.817,-1.298,-0.763,23.0,0.0
511970,-0.052,0.537,0.873,21.275,-3.649,1.084,21.0,0.0
512023,-0.038,0.556,0.843,8.359,-2.122,-0.008,24.0,0.0
512079,-0.047,0.519,0.870,3.855,-0.832,0.168,22.0,0.0
512133,-0.050,0.534,0.862,5.748,-1.221,-0.099,24.0,0.0
512196,-0.042,0.534,0.861,4.565,-1.137,-0.008,0.0,0.0
512249,-0.039,0.548,0.849,4.229,-0.885,-0.076,22.0,0.0
512303,-0.045,0.538,0.862,3.305,-1.046,-0.069,23.0,0.0
512365,-0.049,0.532,0.864,4.786,-1.107,-0.382,0.0,0.0
512418,-0.039,0.543,0.854,5.496,-0.771,0.740,23.0,0.0
512472,-0.103,0.597,0.998,-1.779,-7.710,6.962,23.0,0.0
512525,-0.095,0.908,1.008,-41.977,-41.443,34.870,23.0,0.0
512586,-0.016,0.876,1.290,5.214,-85.397,67.603,0.0,97.0
512649,0.143,0.840,1.363,-65.931,-110.389,75.511,0.0,0.0
512700,0.132,0.545,1.224,-81.634,-148.321,83.962,148.0,32.0
512751,0.131,0.502,0.983,-63.069,-183.069,95.649,145.0,31.0
512801,0.283,0.282,0.833,-86.756,-199.656,92.198,142.0,31.0
512851,0.396,0.076,0.680,-97.504,-212.015,74.573,141.0,28.0
512902,0.447,-0.028,0.466,-93.229,-214.282,56.985,140.0,28.0
512955,0.517,-0.099,0.237,-85.878,-209.618,39.817,186.0,33.0
513012,0.686,-0.118,-0.076,-83.893,-186.855,39.664,183.0,57.0
513068,0.797,-0.143,-0.267,-72.092,-160.260,21.756,182.0,73.0
513123,0.828,-0.075,-0.431,-61.336,-132.504,17.023,180.0,75.0
513179,0.730,-0.079,-0.561,-51.496,-106.611,11.023,178.0,94.0
513235,0.751,-0.064,-0.640,-28.832,-89.313,9.718,177.0,95.0
513293,0.714,-0.124,-0.688,-25.046,-71.206,4.618,176.0,99.0
513349,0.706,-0.138,-0.681,11.183,-52.160,11.206,175.0,100.0
513405,0.757,-0.092,-0.766,-20.458,-35.656,12.191,175.0,100.0
513462,0.784,-0.143,-0.697,-8.817,-25.038,11.611,174.0,96.0
513521,0.741,-0.169,-0.723,-15.840,-17.137,2.305,175.0,97.0
513577,0.762,-0.091,-0.737,2.687,-11.595,1.542,174.0,101.0
513635,0.696,-0.161,-0.666,3.176,-7.473,1.489,174.0,104.0
513696,0.757,-0.066,-0.710,18.443,-6.069,5.641,174.0,104.0
513754,0.759,-0.197,-0.668,-3.145,-8.756,10.168,174.0,127.0
513809,0.725,-0.199,-0.655,6.504,-2.359,4.244,173.0,105.0
513864,0.688,-0.178,-0.686,-6.908,-3.275,6.366,173.0,101.0
513920,0.718,-0.246,-0.661,3.977,-2.481,3.015,173.0,101.0
513978,0.717,-0.193,-0.679,-5.023,-4.229,-1.656,172.0,106.0
514034,0.719,-0.166,-0.735,17.351,-2.282,-0.191,172.0,105.0
514089,0.744,-0.204,-0.745,-2.160,8.985,2.405,173.0,106.0
514145,0.736,-0.163,-0.832,21.183,26.015,-0.565,172.0,102.0
514200,0.679,-0.229,-0.825,33.374,47.802,-11.122,172.0,102.0
514256,0.572,-0.119,-0.821,47.305,66.779,-10.740,173.0,102.0
514311,0.561,-0.239,-0.700,41.847,84.985,-8.473,174.0,81.0
514365,0.518,-0.087,-0.651,68.916,103.038,3.176,175.0,79.0
514419,0.549,-0.244,-0.477,50.580,135.679,10.450,176.0,77.0
514476,0.658,-0.159,-0.370,48.115,187.977,4.527,178.0,60.0
514529,0.657,-0.441,0.010,107.397,223.008,-3.580,180.0,58.0
514622,0.625,-0.111,0.639,97.282,215.160,-68.305,136.0,32.0
514672,0.526,-0.036,0.989,118.595,172.733,-72.046,136.0,37.0
514721,0.605,0.197,0.992,110.748,160.710,-61.008,137.0,37.0
514771,0.409,0.243,1.086,47.275,142.473,-82.122,138.0,35.0
514821,0.406,0.217,1.164,31.473,131.450,-66.435,139.0,36.0
514873,0.151,0.260,1.129,20.718,113.748,-73.344,176.0,37.0
514929,0.048,0.292,1.160,25.740,77.962,-48.321,0.0,38.0
514985,-0.011,0.275,1.081,56.046,36.786,-30.496,0.0,90.0
515042,0.085,0.432,0.885,30.229,23.305,-10.336,0.0,92.0
515098,0.738,0.286,1.528,12.405,60.740,-15.397,0.0,91.0
515144,0.038,0.173,0.910,-57.809,55.405,-64.397,16.0,86.0
515189,-0.056,0.175,1.001,-8.366,62.634,-42.924,16.0,84.0
515234,-0.133,0.369,1.079,-0.344,58.695,-50.947,16.0,67.0
515278,-0.291,0.473,0.839,55.252,-24.511,15.618,16.0,66.0
515323,0.024,0.299,0.751,-43.748,-7.107,0.603,17.0,65.0
515371,-0.066,0.109,1.005,5.527,11.397,-5.947,17.0,65.0
515415,-0.151,0.333,1.111,30.252,-3.511,0.687,17.0,66.0
515461,-0.053,0.289,0.947,25.809,-4.656,3.756,18.0,89.0
515507,-0.092,0.229,0.982,64.954,-3.725,-1.160,17.0,90.0
515553,-0.098,0.348,0.960,91.366,-9.221,-0.053,19.0,101.0
515605,-0.065,0.438,0.891,105.008,-14.542,-0.038,19.0,0.0
515668,-0.030,0.736,0.733,69.870,-12.092,-0.198,0.0,0.0
515731,-0.030,0.646,0.786,25.618,-6.122,-3.053,0.0,0.0
515793,-0.034,0.720,0.733,-10.053,0.198,0.023,0.0,0.0
515860,-0.059,0.580,0.836,-14.092,0.740,0.183,0.0,0.0
515922,-0.053,0.559,0.854,0.115,-0.603,0.282,0.0,0.0
515985,-0.043,0.610,0.814,4.908,-1.145,-0.046,0.0,0.0
516047,-0.045,0.619,0.807,-0.122,-0.962,-0.565,0.0,0.0
516111,-0.041,0.602,0.810,-4.038,-0.595,-0.382,0.0,0.0
516173,-0.049,0.586,0.829,-5.191,-0.382,-0.015,0.0,0.0
516236,-0.049,0.588,0.829,1.252,-0.588,0.305,0.0,0.0
516299,-0.048,0.599,0.820,3.076,-0.954,-0.038,0.0,0.0
516362,-0.043,0.602,0.813,2.863,-1.000,-0.168,0.0,0.0
516427,-0.053,0.614,0.809,-0.908,-0.740,-0.214,0.0,0.0
516490,-0.042,0.605,0.811,-3.466,-0.290,0.008,0.0,0.0
516553,-0.047,0.588,0.829,-3.802,-0.160,0.336,0.0,0.0
516616,-0.050,0.599,0.820,1.015,-0.916,0.015,0.0,0.0
516678,-0.050,0.608,0.806,-0.351,-0.748,-0.031,0.0,0.0
516742,-0.050,0.594,0.825,-0.412,-0.519,0.107,0.0,0.0
516804,-0.042,0.615,0.814,-1.504,-0.519,0.168,0.0,0.0
516868,-0.049,0.596,0.823,-3.511,-0.595,-0.137,0.0,0.0
516930,-0.047,0.594,0.827,-1.603,-0.534,0.115,0.0,0.0
516996,-0.048,0.594,0.826,-0.977,-0.550,0.107,0.0,0.0
517059,-0.051,0.598,0.820,-0.473,-0.443,0.473,0.0,0.0
517122,-0.054,0.600,0.823,-0.794,-0.962,-0.023,0.0,0.0
517185,-0.046,0.597,0.810,-0.901,-0.855,0.069,0.0,0.0
517248,-0.049,0.597,0.821,-0.771,-0.771,0.328,0.0,0.0
517310,-0.048,0.594,0.823,-0.885,-0.634,0.160,0.0,0.0
517373,-0.049,0.599,0.821,-0.275,-0.824,-0.053,0.0,0.0
517436,-0.047,0.593,0.814,0.000,-0.802,-0.076,0.0,0.0
517542,-0.047,0.603,0.818,-0.382,-0.847,0.031,0.0,0.0
517606,-0.050,0.597,0.817,1.115,-0.977,-0.069,0.0,0.0
517671,-0.044,0.609,0.810,0.008,-0.695,-0.115,0.0,0.0
517735,-0.052,0.598,0.813,-0.183,-0.618,0.198,0.0,0.0
517797,-0.042,0.607,0.812,0.298,-0.832,0.023,0.0,0.0
517860,-0.052,0.604,0.814,-1.053,-0.656,-0.076,0.0,0.0
517923,-0.050,0.603,0.821,0.397,-0.656,-0.168,0.0,0.0
517987,-0.043,0.615,0.815,-0.901,-0.405,0.130,0.0,0.0
518049,-0.051,0.598,0.822,-0.580,-0.832,-0.038,0.0,0.0
518113,-0.044,0.608,0.812,0.168,-0.679,0.023,0.0,0.0
518175,-0.049,0.604,0.813,-0.374,-0.863,-0.046,0.0,0.0
518242,-0.044,0.608,0.800,1.466,-1.053,0.244,0.0,0.0
518304,-0.052,0.605,0.797,-0.718,-0.626,-0.191,0.0,0.0
518368,-0.042,0.607,0.806,-1.183,-0.573,0.107,0.0,0.0
518430,-0.046,0.606,0.811,-0.679,-0.687,-0.015,0.0,0.0
518494,-0.050,0.605,0.807,-0.748,-0.702,-0.061,0.0,0.0
518557,-0.039,0.610,0.813,-0.344,-0.634,-0.046,0.0,0.0
518620,-0.049,0.595,0.808,-1.580,-0.573,-0.023,0.0,0.0
518683,-0.046,0.608,0.804,0.443,-0.931,0.008,0.0,0.0
518747,-0.041,0.617,0.806,-2.267,-0.427,0.183,0.0,0.0
518812,-0.050,0.597,0.817,-0.947,-0.588,0.023,0.0,0.0
518876,-0.045,0.610,0.816,0.664,-0.733,0.557,0.0,0.0
518947,-0.046,0.609,0.810,-0.496,-0.771,0.122,0.0,0.0
519010,-0.048,0.597,0.812,1.679,-1.237,-0.214,0.0,0.0
519072,-0.045,0.622,0.803,0.542,-0.626,0.237,0.0,0.0
519135,-0.046,0.604,0.810,-2.198,-0.420,-0.023,0.0,0.0
519197,-0.047,0.607,0.816,0.786,-0.786,0.237,0.0,0.0
519260,-0.043,0.613,0.807,-0.183,-0.656,0.076,0.0,0.0
519321,-0.049,0.606,0.816,1.992,-1.053,0.382,0.0,0.0
519387,-0.116,0.547,0.917,21.160,-4.076,13.466,0.0,0.0
519449,-0.255,0.937,1.135,96.687,-62.237,86.527,0.0,0.0
519512,-0.166,1.093,0.928,103.519,-126.061,173.679,0.0,0.0
519574,0.449,1.210,0.663,89.519,-116.664,239.115,0.0,0.0
519629,0.685,0.843,0.522,5.618,-96.099,233.527,0.0,57.0
519684,0.723,0.463,0.417,23.321,-82.687,221.618,0.0,60.0
519738,0.686,-0.039,0.355,89.313,-71.305,213.748,0.0,57.0
519789,0.781,0.261,0.074,133.229,-34.137,210.015,131.0,62.0
519844,0.717,-0.045,0.152,84.008,-22.115,176.542,125.0,161.0
519904,0.823,-0.086,0.177,63.122,-18.282,133.137,121.0,166.0
519962,0.746,-0.268,0.147,19.397,-12.405,104.878,117.0,0.0
520019,0.762,-0.484,0.184,-7.214,-14.160,66.168,105.0,0.0
520077,0.812,-0.444,0.093,-37.046,-6.687,40.275,104.0,0.0
520133,0.771,-0.564,0.082,0.130,1.145,31.947,99.0,0.0
520190,0.754,-0.615,0.117,-37.504,5.313,14.519,96.0,0.0
520247,0.724,-0.523,0.068,-23.427,9.328,10.435,98.0,0.0
520303,0.740,-0.592,0.109,-122.298,7.626,-3.840,96.0,0.0
520360,0.806,-0.368,-0.056,-74.802,8.229,6.786,103.0,0.0
520422,0.855,-0.753,0.073,-176.832,9.107,-6.328,115.0,0.0
520484,0.840,-0.456,-0.013,-100.954,9.443,17.466,0.0,0.0
520547,0.850,-0.638,0.042,-57.809,8.122,18.176,0.0,0.0