Timestamp(ms),AccelX(g),AccelY(g),AccelZ(g),GyroX(deg/s),GyroY(deg/s),GyroZ(deg/s),DistanceLeft(cm),DistanceRight(cm)
261093,-0.118,0.321,0.969,38.595,-18.641,-0.824,0.0,89.0
261143,-0.070,0.431,0.998,23.244,-18.168,-3.275,77.0,89.0
261200,-0.006,0.451,1.053,36.015,-20.389,-6.847,0.0,104.0
261258,-0.051,0.546,1.087,15.802,-32.603,-0.756,0.0,87.0
261324,-0.026,0.598,1.056,25.267,-50.229,18.023,0.0,0.0
261373,0.036,0.548,1.050,20.374,-63.649,22.740,73.0,88.0
261430,0.077,0.526,1.020,18.679,-72.160,29.053,0.0,79.0
261486,0.135,0.574,0.920,28.420,-80.969,37.160,0.0,70.0
261542,0.197,0.448,0.893,34.374,-88.252,39.710,0.0,91.0
261599,0.260,0.568,0.740,43.145,-90.573,45.443,0.0,80.0
261655,0.376,0.465,0.696,53.115,-93.344,48.664,0.0,73.0
261711,0.534,0.636,0.498,68.466,-81.504,54.893,0.0,76.0
261769,0.634,0.670,0.428,39.069,-63.870,54.573,0.0,103.0
261830,0.638,0.633,0.380,-11.107,-50.901,59.908,0.0,106.0
261889,0.689,0.447,0.393,13.489,-51.267,66.275,0.0,105.0
261946,0.783,0.517,0.286,11.122,-45.771,77.069,0.0,102.0
262003,0.832,0.318,0.311,3.183,-38.366,72.840,0.0,94.0
262061,0.833,0.304,0.278,22.702,-32.710,70.336,0.0,98.0
262119,0.870,0.217,0.302,25.084,-29.298,69.176,0.0,103.0
262176,0.883,0.115,0.271,30.603,-28.618,69.863,0.0,104.0
262235,0.903,0.036,0.260,31.893,-26.634,60.771,0.0,107.0
262285,0.943,0.003,0.232,50.573,-23.802,54.710,48.0,109.0
262337,0.926,0.018,0.187,34.290,-20.840,48.687,42.0,112.0
262390,0.934,-0.063,0.153,24.664,-20.885,48.847,37.0,113.0
262436,0.968,-0.073,0.118,14.527,-20.267,44.771,36.0,72.0
262481,0.972,-0.214,0.117,14.206,-16.733,37.863,34.0,72.0
262528,0.995,-0.177,0.070,33.634,-12.611,32.954,30.0,74.0
262580,0.948,-0.145,0.042,1.611,-6.817,22.290,154.0,75.0
262627,0.999,-0.223,0.082,-2.420,-2.366,17.443,24.0,100.0
262672,0.987,-0.222,0.091,11.069,-2.107,15.412,23.0,76.0
262719,0.991,-0.176,0.094,7.198,2.115,9.351,19.0,76.0
262764,0.966,-0.200,0.106,1.305,-0.122,8.832,23.0,76.0
262809,0.952,-0.218,0.152,7.015,-1.221,7.573,17.0,76.0
262853,0.984,-0.149,0.136,9.985,-3.053,7.870,17.0,76.0
262898,1.025,-0.169,0.159,5.656,-3.985,5.061,17.0,76.0
262943,1.008,-0.104,0.109,6.107,-2.198,0.481,22.0,76.0
262988,1.000,-0.104,0.114,-2.160,-1.046,2.237,21.0,76.0
263033,0.983,-0.138,0.106,2.802,-2.580,8.725,19.0,77.0
263078,0.978,-0.139,0.099,9.260,-4.550,13.771,18.0,77.0
263131,0.968,-0.163,0.106,-0.282,-4.107,14.908,149.0,78.0
263179,0.988,-0.258,0.127,7.252,-6.092,18.458,17.0,79.0
263224,0.956,-0.259,0.103,15.840,-7.076,15.290,18.0,79.0
263269,0.962,-0.268,0.102,10.427,-5.840,11.145,17.0,80.0
263314,0.947,-0.284,0.094,5.183,-4.160,8.099,16.0,81.0
263360,0.968,-0.277,0.091,3.061,-3.214,4.489,17.0,104.0
263405,0.949,-0.260,0.085,-6.267,-2.511,3.221,17.0,81.0
263451,0.948,-0.253,0.090,-9.672,-2.664,5.527,17.0,104.0
263498,0.935,-0.250,0.081,-4.115,-6.389,11.466,15.0,105.0
263547,0.985,-0.217,0.077,-3.053,-8.679,19.962,16.0,105.0
263593,1.013,-0.265,0.087,0.847,-7.153,16.427,16.0,106.0
263684,0.956,-0.344,0.084,-10.053,-3.160,14.221,16.0,107.0
263738,0.958,-0.354,0.083,5.000,-5.008,17.092,145.0,107.0
263785,0.948,-0.313,0.057,1.527,-5.489,11.511,12.0,108.0
263839,0.961,-0.329,0.046,-16.168,-4.221,6.351,145.0,108.0
263885,0.933,-0.440,0.059,-17.870,-1.863,2.130,11.0,108.0
263932,0.945,-0.430,0.079,5.183,-2.237,3.008,11.0,109.0
263979,0.944,-0.289,0.028,14.908,-3.031,3.618,11.0,109.0
264028,0.954,-0.320,0.048,-2.313,-3.710,3.191,11.0,109.0
264075,0.978,-0.279,-0.002,-4.115,-1.496,3.252,10.0,109.0
264121,0.936,-0.416,0.043,-20.534,2.366,-4.183,9.0,109.0
264167,0.916,-0.386,0.037,1.725,1.160,-0.916,8.0,110.0
264214,0.930,-0.395,0.054,7.305,-1.015,-1.954,10.0,109.0
264260,0.953,-0.338,0.050,7.931,-1.183,0.710,8.0,109.0
264306,0.958,-0.346,0.047,7.649,0.542,-2.366,8.0,109.0
264352,0.943,-0.312,0.039,-1.824,0.947,0.786,10.0,109.0
264399,0.929,-0.345,0.051,-9.191,0.931,-0.977,9.0,109.0
264449,0.951,-0.375,0.061,-1.458,-1.321,1.374,9.0,109.0
264495,0.941,-0.366,0.052,6.069,-0.985,0.435,9.0,110.0
264542,0.931,-0.340,0.031,-1.878,-1.099,1.168,9.0,110.0
264588,0.940,-0.373,0.058,2.374,-0.229,0.061,10.0,109.0
264635,0.967,-0.345,0.054,-0.954,0.046,-0.573,10.0,109.0
264681,0.934,-0.342,0.058,2.885,0.740,-0.557,17.0,109.0
264728,0.947,-0.336,0.063,-2.763,-0.855,-0.031,10.0,109.0
264774,0.950,-0.338,0.062,-2.191,-0.008,-0.206,9.0,109.0
264821,0.939,-0.335,0.065,-5.443,-2.069,0.443,9.0,109.0
264870,0.944,-0.366,0.052,-1.641,-1.481,0.786,9.0,109.0
264918,0.940,-0.329,0.035,-5.038,-1.885,1.733,9.0,109.0
264964,0.958,-0.382,0.058,-3.603,-0.878,0.031,16.0,109.0
265011,0.932,-0.358,0.042,1.481,-0.901,0.519,9.0,110.0
265057,0.939,-0.369,0.050,1.595,-1.679,-0.267,9.0,109.0
265104,0.931,-0.352,0.031,3.687,-0.725,0.145,9.0,109.0
265150,0.956,-0.360,0.033,-2.198,-0.244,-2.511,10.0,110.0
265204,0.930,-0.361,0.035,0.427,1.863,-2.000,144.0,108.0
265251,0.945,-0.365,0.036,3.084,1.458,-2.817,11.0,109.0
265302,0.939,-0.349,0.036,-2.214,2.687,-3.947,16.0,108.0
265356,0.942,-0.351,0.037,5.221,3.069,-4.908,145.0,108.0
265403,0.938,-0.316,0.024,6.504,5.031,-3.412,16.0,108.0
265449,0.953,-0.316,0.009,0.267,8.885,-3.672,12.0,107.0
265496,0.944,-0.376,0.012,3.145,11.160,-3.611,14.0,107.0
265543,0.948,-0.360,0.021,13.244,15.618,-4.969,16.0,106.0
265590,0.906,-0.368,0.025,12.076,17.595,-7.160,16.0,106.0
265637,0.950,-0.369,0.039,23.595,22.328,-11.084,18.0,105.0
265690,0.937,-0.325,0.035,22.702,28.466,-13.244,149.0,77.0
265739,0.921,-0.360,0.079,31.122,34.313,-19.710,23.0,75.0
265791,0.876,-0.292,0.075,42.901,38.489,-22.183,152.0,65.0
265844,0.847,-0.292,0.095,45.664,42.580,-19.412,154.0,63.0
265896,0.846,-0.209,0.143,57.725,51.618,-23.809,156.0,71.0
265950,0.660,-0.174,0.143,42.183,53.916,-15.863,159.0,58.0
266000,0.865,-0.117,0.276,60.206,74.214,-28.015,114.0,55.0
266049,0.710,-0.103,0.361,47.153,83.282,-42.977,116.0,50.0
266138,0.503,0.135,0.579,19.298,103.863,-43.565,43.0,50.0
266186,0.392,0.187,0.706,22.321,101.176,-27.840,47.0,49.0
266232,0.683,0.192,0.956,64.878,94.076,-40.901,50.0,50.0
266278,0.598,0.408,0.921,49.824,113.679,-43.115,52.0,49.0
266324,0.509,0.422,1.038,-39.511,109.443,-41.328,54.0,50.0
266371,0.302,0.032,1.217,-18.687,78.359,-36.481,55.0,50.0
266417,0.257,0.314,1.018,35.298,65.954,-20.977,57.0,50.0
266467,0.251,0.181,1.044,18.634,51.687,-26.504,127.0,50.0
266519,0.211,0.274,0.981,8.748,58.084,-23.908,159.0,51.0
266564,0.239,0.128,1.122,11.511,52.015,-34.397,30.0,53.0
266617,0.132,0.255,1.009,48.779,53.252,-42.855,129.0,52.0
266665,0.088,0.406,1.039,71.061,51.748,-27.588,16.0,116.0
266720,0.069,0.523,0.982,3.809,35.290,-22.359,0.0,57.0
266767,-0.008,0.420,0.992,-0.237,32.008,-8.176,16.0,101.0
266814,0.127,0.390,1.110,-1.252,34.076,-2.947,16.0,100.0
266858,-0.090,0.477,0.938,-52.344,35.557,-32.191,17.0,57.0
266903,-0.090,0.177,1.065,-36.191,27.389,-18.450,14.0,57.0
266947,-0.190,0.256,1.049,-17.626,19.740,-10.550,15.0,59.0
266991,-0.156,0.174,1.198,16.786,-1.664,-2.130,16.0,57.0
267039,-0.079,0.356,0.898,-7.443,-6.664,0.099,16.0,57.0
267083,-0.040,0.167,0.995,-0.137,-1.695,-2.802,15.0,57.0
267128,-0.059,0.302,0.959,29.679,-0.802,-2.679,17.0,77.0
267175,-0.078,0.362,0.970,7.427,-0.763,-3.069,16.0,99.0
267223,-0.074,0.338,0.958,10.107,-2.206,-0.901,16.0,99.0
267269,-0.065,0.361,0.927,3.672,-0.710,-1.038,17.0,99.0
267316,-0.074,0.345,0.975,-1.573,-0.145,0.031,17.0,99.0
267363,-0.070,0.323,0.953,-0.779,-0.763,-0.038,17.0,99.0
267410,-0.070,0.321,0.958,0.145,0.000,-0.191,17.0,99.0
267459,-0.076,0.324,0.953,1.557,-0.802,0.504,17.0,99.0
267506,-0.079,0.326,0.951,2.809,-0.672,0.160,17.0,99.0
267553,-0.073,0.337,0.961,0.092,-0.458,-0.046,17.0,99.0
267599,-0.072,0.345,0.953,-0.076,-0.664,0.565,17.0,99.0
267646,-0.074,0.325,0.948,1.275,-0.687,-0.313,17.0,99.0
267694,-0.077,0.348,0.950,0.000,-0.282,0.008,17.0,99.0
267741,-0.070,0.337,0.952,-0.130,-0.847,0.076,17.0,99.0
267787,-0.077,0.331,0.960,-0.901,-0.641,-0.153,17.0,99.0
267834,-0.070,0.336,0.953,1.313,-0.656,0.053,17.0,99.0
267884,-0.071,0.346,0.942,0.267,-0.206,0.481,17.0,99.0
267931,-0.069,0.339,0.949,-0.038,-0.618,0.405,17.0,99.0
267978,-0.084,0.349,0.958,-1.130,-0.557,0.153,17.0,99.0
268024,-0.074,0.335,0.949,-1.076,-0.427,0.099,17.0,99.0
268071,-0.078,0.343,0.953,-1.076,-0.573,0.115,17.0,99.0
268119,-0.071,0.343,0.948,-1.298,-0.588,0.122,17.0,99.0
268166,-0.071,0.333,0.960,0.122,-0.527,-0.099,17.0,99.0
268213,-0.079,0.336,0.957,0.015,-0.557,-0.031,17.0,99.0
268259,-0.074,0.339,0.951,0.336,-0.496,0.122,17.0,99.0
268309,-0.075,0.337,0.960,0.847,-0.969,0.076,17.0,99.0
268366,-0.074,0.340,0.951,2.275,-0.832,-0.107,0.0,99.0
268413,-0.076,0.360,0.943,0.649,-0.656,-0.198,16.0,99.0
268461,-0.075,0.356,0.947,-2.473,-0.466,0.244,16.0,99.0
268556,-0.070,0.344,0.953,-0.641,-0.580,-0.061,16.0,99.0
268602,-0.077,0.351,0.951,-1.740,-0.443,0.550,16.0,99.0
268648,-0.064,0.340,0.953,0.321,-0.710,0.107,16.0,99.0
268694,-0.074,0.341,0.951,0.885,-0.038,0.260,16.0,99.0
268740,-0.075,0.353,0.951,0.687,-0.389,0.031,16.0,99.0
268788,-0.076,0.350,0.952,-1.855,-0.282,0.389,16.0,99.0
268834,-0.072,0.333,0.961,0.229,-1.038,-0.061,16.0,99.0
268880,-0.080,0.353,0.949,0.611,-0.733,0.038,16.0,99.0
268926,-0.068,0.351,0.949,-0.939,-0.679,0.176,16.0,99.0
268973,-0.071,0.339,0.962,-0.282,-0.527,-0.084,16.0,99.0
269019,-0.076,0.341,0.953,2.863,-0.656,-0.198,16.0,99.0
269065,-0.079,0.370,0.941,1.023,-0.588,-0.084,16.0,99.0
269110,-0.069,0.357,0.948,-1.870,-0.626,0.008,16.0,100.0
269156,-0.082,0.346,0.950,-0.634,-0.557,0.282,16.0,99.0
269205,-0.072,0.350,0.945,0.031,-0.786,0.107,16.0,99.0
269251,-0.074,0.355,0.945,-1.489,-0.809,0.053,16.0,99.0
269297,-0.070,0.346,0.944,-1.519,-0.435,-0.198,16.0,99.0
269343,-0.073,0.342,0.945,-0.015,-0.763,0.023,16.0,99.0
269389,-0.080,0.356,0.944,-0.924,-0.450,0.061,16.0,99.0
269435,-0.073,0.355,0.945,-1.626,-0.573,0.115,16.0,99.0
269481,-0.080,0.345,0.956,-0.473,-0.718,0.214,16.0,99.0
269528,-0.066,0.358,0.947,-0.573,-0.489,0.122,16.0,99.0
269574,-0.081,0.359,0.947,-0.977,-0.725,0.092,16.0,99.0
269622,-0.071,0.350,0.960,-1.450,-0.565,-0.023,16.0,99.0
269669,-0.078,0.353,0.946,-2.183,-0.252,0.130,16.0,99.0
269715,-0.081,0.343,0.958,-1.527,-0.557,0.275,16.0,99.0
269761,-0.072,0.356,0.936,-2.031,-0.344,-0.397,16.0,99.0
269807,-0.073,0.339,0.958,-0.267,-0.313,-0.435,16.0,99.0
269853,-0.078,0.345,0.956,-1.038,-0.779,0.137,16.0,99.0
269899,-0.075,0.353,0.933,-1.550,-0.305,-0.237,16.0,99.0
269945,-0.075,0.350,0.954,-0.611,-0.626,0.427,16.0,99.0
269991,-0.072,0.343,0.952,-0.733,-0.687,-0.275,16.0,99.0
270041,-0.073,0.356,0.951,-1.092,-0.519,-0.099,16.0,99.0
270087,-0.077,0.355,0.933,-2.534,-0.198,-0.489,16.0,99.0
270133,-0.070,0.355,0.959,-1.687,-0.595,-0.214,16.0,99.0
270179,-0.081,0.344,0.941,-1.771,-0.435,-0.092,16.0,99.0
270225,-0.077,0.334,0.951,-2.336,-0.252,-0.695,16.0,99.0
270271,-0.085,0.352,0.943,-1.977,-0.641,-0.267,16.0,99.0
270318,-0.086,0.308,0.975,-5.664,0.374,-2.939,16.0,99.0
270364,-0.092,0.349,0.948,0.733,-0.756,0.344,16.0,99.0
270410,-0.066,0.325,0.958,-3.145,-0.069,-2.794,16.0,99.0
270459,-0.087,0.366,0.952,3.443,-0.901,0.649,16.0,99.0
270505,-0.076,0.342,0.947,-0.565,-0.802,-0.405,16.0,99.0
270552,-0.083,0.351,0.953,-1.802,-0.511,0.366,16.0,99.0
270598,-0.079,0.339,0.959,0.282,-0.710,0.504,16.0,99.0
270645,-0.084,0.348,0.952,0.634,-1.282,0.359,16.0,99.0
270691,-0.078,0.347,0.944,0.412,-0.656,-0.092,16.0,99.0
270737,-0.077,0.339,0.952,-0.733,-0.656,0.282,16.0,100.0
270783,-0.079,0.341,0.945,-0.130,-0.443,0.115,16.0,99.0
270829,-0.076,0.345,0.960,-0.443,-0.893,0.122,16.0,99.0
270917,-0.074,0.339,0.951,-0.206,-0.542,0.145,16.0,99.0
270963,-0.083,0.345,0.946,1.672,-0.870,0.160,16.0,99.0
271009,-0.082,0.355,0.954,-0.260,-0.603,0.153,16.0,99.0
271056,-0.080,0.345,0.946,-1.046,-0.603,-0.145,16.0,99.0
271102,-0.080,0.344,0.952,-0.763,-0.573,0.076,16.0,99.0
271149,-0.082,0.345,0.948,0.252,-0.878,-0.260,16.0,99.0
271195,-0.083,0.350,0.954,-0.153,-0.679,-0.076,16.0,99.0
271242,-0.079,0.350,0.957,-0.794,-0.901,-0.061,16.0,99.0
271291,-0.074,0.340,0.946,0.359,-0.664,0.198,16.0,99.0
271337,-0.079,0.359,0.951,0.061,-0.687,0.244,17.0,99.0
271384,-0.072,0.350,0.945,1.000,-0.863,0.031,17.0,99.0
271430,-0.077,0.360,0.942,1.351,-0.840,0.000,17.0,99.0
271476,-0.073,0.363,0.938,-1.420,-0.687,-0.023,17.0,99.0
271523,-0.085,0.347,0.943,-2.061,-0.496,-0.008,17.0,99.0
271569,-0.081,0.350,0.939,-0.397,-0.542,0.023,17.0,99.0
271616,-0.075,0.352,0.946,-1.061,-0.389,-0.038,17.0,99.0
271663,-0.082,0.344,0.950,-0.534,-0.718,0.038,17.0,99.0
271712,-0.083,0.349,0.945,-0.008,-0.489,0.053,17.0,99.0
271759,-0.078,0.355,0.942,-0.664,-0.649,0.168,17.0,99.0
271805,-0.083,0.350,0.948,-0.412,-0.756,0.076,17.0,99.0
271851,-0.074,0.349,0.960,0.626,-0.863,-0.084,17.0,99.0
271898,-0.073,0.360,0.940,-0.443,-0.725,-0.076,17.0,99.0
271944,-0.078,0.357,0.949,-0.878,-0.847,-0.176,17.0,99.0
271991,-0.076,0.356,0.944,-0.588,-0.634,0.282,17.0,99.0
272037,-0.079,0.354,0.958,-0.527,-0.924,-0.008,17.0,99.0
272084,-0.078,0.355,0.947,-0.374,-0.641,0.000,17.0,100.0
272134,-0.078,0.354,0.945,-0.504,-0.519,0.282,17.0,99.0
272181,-0.083,0.356,0.951,-0.366,-0.672,0.084,17.0,99.0
272227,-0.080,0.350,0.953,-0.550,-0.771,0.046,17.0,99.0
272274,-0.076,0.362,0.942,-0.084,-0.710,0.092,17.0,99.0
272320,-0.075,0.357,0.945,-1.038,-0.580,0.008,17.0,99.0
272367,-0.081,0.356,0.951,0.023,-0.618,-0.198,17.0,99.0
272413,-0.078,0.365,0.941,-0.137,-0.634,0.023,17.0,99.0
272460,-0.077,0.358,0.944,0.084,-0.718,-0.229,17.0,99.0
272506,-0.079,0.355,0.949,-0.107,-0.718,0.260,17.0,99.0
272557,-0.081,0.369,0.945,-0.725,-0.603,0.015,23.0,99.0
272604,-0.075,0.360,0.945,-1.824,-0.718,0.015,17.0,99.0
272650,-0.081,0.353,0.955,-0.824,-0.580,0.229,17.0,99.0
272697,-0.079,0.359,0.939,0.122,-0.527,0.176,17.0,99.0
272744,-0.082,0.361,0.947,-1.015,-0.550,0.023,18.0,99.0
272790,-0.077,0.355,0.950,-0.466,-0.710,0.092,17.0,99.0
272837,-0.082,0.358,0.951,0.832,-0.687,-0.206,17.0,100.0
272883,-0.079,0.366,0.951,-0.779,-0.420,0.336,17.0,100.0
272930,-0.074,0.363,0.953,-1.351,-0.687,-0.252,17.0,100.0
272980,-0.080,0.363,0.955,-0.374,-0.679,0.092,17.0,99.0
273028,-0.075,0.356,0.947,-0.145,-0.733,0.015,17.0,100.0
273074,-0.078,0.364,0.936,-1.450,-0.603,0.122,17.0,99.0
273121,-0.085,0.354,0.940,-1.084,-0.626,-0.038,17.0,100.0
273168,-0.078,0.359,0.948,0.061,-0.611,0.237,17.0,100.0
273214,-0.080,0.359,0.938,-0.351,-0.588,-0.015,17.0,100.0
273304,-0.084,0.354,0.953,-0.511,-0.504,-0.076,17.0,100.0
273351,-0.075,0.367,0.943,-0.176,-0.641,0.244,17.0,100.0
273398,-0.077,0.357,0.946,-0.763,-0.641,0.214,17.0,100.0
273448,-0.076,0.358,0.943,-0.588,-0.595,-0.008,17.0,99.0
273496,-0.078,0.362,0.948,-0.733,-0.710,-0.122,17.0,99.0
273542,-0.076,0.360,0.944,-1.359,-0.824,0.137,17.0,100.0
273589,-0.081,0.361,0.942,-0.557,-0.634,0.008,17.0,100.0
273636,-0.077,0.370,0.948,-1.076,-0.534,0.069,17.0,100.0
273683,-0.079,0.367,0.943,-0.443,-0.618,0.130,17.0,99.0
273730,-0.073,0.367,0.943,-0.382,-0.748,0.183,17.0,99.0
273776,-0.080,0.363,0.951,-1.427,-0.809,0.000,17.0,99.0
273823,-0.080,0.354,0.952,-0.427,-0.679,0.061,17.0,99.0
273873,-0.083,0.368,0.933,0.008,-0.687,0.183,17.0,100.0
273921,-0.079,0.360,0.948,-1.450,-0.405,-0.130,17.0,99.0
273968,-0.082,0.357,0.936,-0.305,-0.679,-0.198,17.0,100.0
274014,-0.078,0.371,0.939,-0.427,-0.481,-0.115,17.0,99.0
274061,-0.079,0.359,0.947,-1.099,-0.641,-0.107,17.0,99.0
274108,-0.084,0.353,0.942,0.122,-0.641,0.275,17.0,99.0
274155,-0.080,0.367,0.943,-1.221,-0.580,0.145,17.0,99.0
274202,-0.074,0.361,0.946,-0.351,-0.733,-0.122,17.0,99.0
274249,-0.081,0.369,0.946,-1.031,-0.611,0.244,17.0,99.0
274299,-0.080,0.361,0.945,-1.168,-0.679,-0.031,17.0,99.0
274347,-0.081,0.358,0.944,-0.802,-0.527,0.046,17.0,99.0
274393,-0.079,0.366,0.944,-0.603,-0.611,0.145,17.0,99.0
274440,-0.076,0.354,0.948,-1.015,-0.611,0.237,17.0,100.0
274487,-0.082,0.364,0.949,-0.687,-0.679,0.267,17.0,100.0
274534,-0.077,0.360,0.941,-0.771,-0.695,0.023,17.0,99.0
274586,-0.083,0.370,0.948,-1.992,-0.656,0.046,17.0,99.0
274632,-0.073,0.351,0.950,-2.519,-0.557,-0.107,17.0,99.0
274678,-0.082,0.353,0.945,-0.611,-0.786,0.198,17.0,100.0
274726,-0.084,0.368,0.949,-0.725,-0.695,0.008,17.0,100.0
274772,-0.077,0.358,0.940,-1.504,-0.702,0.061,17.0,99.0
274819,-0.075,0.368,0.943,-0.748,-0.580,-0.382,17.0,100.0
274865,-0.078,0.374,0.947,-0.748,-0.618,0.191,17.0,100.0
274911,-0.081,0.357,0.951,-0.809,-0.649,-0.244,17.0,99.0
274957,-0.070,0.366,0.939,-0.817,-0.466,0.252,17.0,99.0
275003,-0.075,0.364,0.948,-0.710,-0.763,-0.153,17.0,99.0
275049,-0.078,0.359,0.948,-0.786,-0.611,0.183,17.0,99.0
275095,-0.075,0.362,0.940,-0.618,-0.695,-0.145,17.0,99.0
275144,-0.085,0.369,0.940,-0.382,-0.695,0.153,17.0,100.0
275190,-0.071,0.361,0.941,-0.802,-0.687,-0.107,17.0,100.0
275236,-0.083,0.360,0.947,-1.366,-0.603,0.115,17.0,99.0
275282,-0.083,0.357,0.939,0.252,-0.840,0.046,17.0,99.0
275329,-0.076,0.364,0.943,-0.534,-0.809,0.038,17.0,99.0
275375,-0.077,0.363,0.943,-1.267,-0.603,-0.160,17.0,100.0
275421,-0.081,0.355,0.951,-0.588,-0.534,-0.015,17.0,100.0
275467,-0.074,0.357,0.946,-0.458,-0.634,0.031,17.0,100.0
275513,-0.073,0.360,0.938,-1.038,-0.489,0.038,17.0,100.0
275557,-0.077,0.364,0.941,-0.344,-0.664,0.008,17.0,100.0
275603,-0.074,0.366,0.942,-0.840,-0.550,0.000,17.0,100.0
275692,-0.083,0.363,0.950,-1.160,-0.420,0.168,17.0,99.0
275738,-0.076,0.354,0.952,-0.779,-0.710,0.092,17.0,99.0
275784,-0.082,0.364,0.950,-0.771,-0.466,0.198,17.0,99.0
275831,-0.081,0.359,0.940,-0.405,-0.809,-0.031,17.0,99.0
275877,-0.078,0.364,0.949,-0.450,-0.947,-0.069,17.0,99.0
275923,-0.073,0.360,0.947,-1.664,-0.557,-0.046,17.0,99.0
275973,-0.081,0.354,0.957,-0.817,-0.672,0.023,17.0,99.0
276019,-0.076,0.368,0.940,-0.550,-0.534,0.008,17.0,99.0
276065,-0.078,0.361,0.936,-1.290,-0.771,-0.069,17.0,99.0
276111,-0.078,0.364,0.946,-1.260,-0.527,-0.137,17.0,100.0
276157,-0.080,0.365,0.947,-0.565,-0.802,0.206,17.0,100.0
276203,-0.082,0.367,0.947,-0.557,-0.664,-0.008,17.0,99.0
276250,-0.079,0.356,0.945,-0.855,-0.481,0.092,17.0,99.0
276296,-0.079,0.364,0.944,-0.870,-0.702,0.023,17.0,99.0
276342,-0.081,0.360,0.943,-0.496,-0.679,0.206,17.0,99.0
276391,-0.078,0.365,0.943,-0.160,-0.656,-0.023,17.0,99.0
276438,-0.080,0.370,0.943,-1.275,-0.618,0.099,17.0,99.0
276484,-0.077,0.352,0.948,-1.069,-0.817,-0.153,17.0,99.0
276530,-0.084,0.360,0.943,-0.229,-0.756,0.069,17.0,100.0
276577,-0.082,0.360,0.941,-0.985,-0.664,0.023,17.0,100.0
276623,-0.074,0.360,0.944,-0.244,-0.534,0.137,17.0,100.0
276669,-0.069,0.363,0.946,-1.137,-0.595,0.076,17.0,100.0
276715,-0.082,0.359,0.942,-1.191,-0.618,0.061,17.0,100.0
276762,-0.073,0.355,0.945,-0.321,-0.740,-0.069,17.0,100.0
276819,-0.074,0.368,0.941,-1.122,-0.756,0.038,17.0,100.0
276867,-0.075,0.360,0.943,-2.557,-0.359,-0.107,17.0,100.0
276913,-0.081,0.353,0.950,-0.374,-0.626,0.084,17.0,100.0
276960,-0.081,0.370,0.942,0.061,-0.733,0.053,17.0,99.0
277006,-0.078,0.365,0.950,-1.305,-0.748,-0.053,17.0,100.0
277052,-0.074,0.358,0.949,-0.176,-0.649,0.008,17.0,100.0
277099,-0.081,0.365,0.941,-0.176,-0.740,0.061,17.0,100.0
277145,-0.080,0.361,0.945,-0.573,-0.695,-0.137,17.0,99.0
277191,-0.081,0.358,0.941,-1.214,-0.634,0.221,17.0,100.0
277241,-0.083,0.362,0.941,-0.473,-0.695,-0.061,17.0,100.0
277287,-0.073,0.361,0.944,-0.740,-0.580,0.053,17.0,100.0
277334,-0.076,0.365,0.937,-0.527,-0.641,-0.069,17.0,100.0
277381,-0.083,0.370,0.939,-0.771,-0.725,0.069,17.0,100.0
277427,-0.081,0.353,0.947,-0.802,-0.702,0.061,17.0,100.0
277474,-0.073,0.366,0.950,-0.748,-0.481,0.084,17.0,99.0
277520,-0.073,0.361,0.937,-0.359,-0.649,-0.046,17.0,99.0
277567,-0.083,0.369,0.942,-1.153,-0.687,-0.046,17.0,99.0
277613,-0.073,0.365,0.952,-0.725,-0.672,0.107,17.0,99.0
277662,-0.079,0.368,0.948,-0.275,-0.626,0.076,17.0,99.0
277709,-0.082,0.363,0.945,-1.031,-0.664,0.160,17.0,99.0
277755,-0.083,0.353,0.950,-0.504,-0.687,0.183,17.0,99.0
277803,-0.075,0.362,0.936,-0.489,-0.588,-0.015,17.0,99.0
277849,-0.082,0.364,0.943,-0.992,-0.588,0.115,17.0,99.0
277896,-0.078,0.354,0.944,-0.115,-0.908,0.107,17.0,99.0
277942,-0.075,0.367,0.951,-1.382,-0.427,0.252,17.0,99.0
277988,-0.076,0.358,0.944,-0.962,-0.611,-0.023,17.0,100.0
278078,-0.074,0.359,0.943,-0.977,-0.573,-0.145,17.0,99.0
278128,-0.081,0.361,0.948,-0.924,-0.718,0.053,17.0,99.0
278175,-0.072,0.362,0.943,-0.336,-0.710,-0.023,17.0,100.0
278221,-0.076,0.371,0.946,-1.435,-0.672,0.176,17.0,99.0
278268,-0.079,0.362,0.940,-0.824,-0.565,-0.038,17.0,100.0
278315,-0.081,0.369,0.947,-0.023,-0.710,0.122,17.0,100.0
278362,-0.081,0.368,0.939,-1.771,-0.450,-0.053,17.0,100.0
278408,-0.082,0.357,0.953,-0.527,-0.687,0.092,17.0,99.0
278455,-0.075,0.368,0.945,-0.130,-0.840,0.023,17.0,99.0
278502,-0.080,0.364,0.947,-1.527,-0.649,-0.031,17.0,99.0
278551,-0.077,0.355,0.942,-0.756,-0.824,0.015,17.0,99.0
278598,-0.080,0.364,0.956,-0.702,-0.573,-0.038,17.0,99.0
278644,-0.079,0.361,0.937,-0.122,-0.702,-0.252,17.0,99.0
278691,-0.077,0.369,0.938,-1.397,-0.603,0.122,17.0,100.0
278738,-0.077,0.364,0.946,-1.122,-0.710,-0.137,17.0,99.0
278785,-0.079,0.360,0.949,-0.282,-0.557,0.076,17.0,99.0
278832,-0.075,0.367,0.947,-0.519,-0.718,0.069,17.0,100.0
278878,-0.081,0.364,0.942,-1.015,-0.573,-0.038,17.0,99.0
278928,-0.082,0.366,0.946,-0.641,-0.489,-0.023,17.0,99.0
278975,-0.081,0.367,0.948,-0.679,-0.656,0.321,17.0,99.0
279022,-0.077,0.361,0.941,-0.756,-0.710,0.061,17.0,99.0
279068,-0.084,0.361,0.938,-1.176,-0.542,0.076,17.0,100.0
279115,-0.083,0.365,0.941,-1.031,-0.473,0.038,17.0,99.0
279162,-0.079,0.360,0.940,-0.221,-0.679,0.069,17.0,99.0
279208,-0.085,0.365,0.947,-1.252,-0.443,0.145,17.0,99.0
279256,-0.082,0.363,0.945,-0.664,-0.595,0.176,17.0,99.0
279303,-0.070,0.363,0.941,-0.443,-0.573,-0.015,17.0,99.0
279352,-0.074,0.367,0.946,-1.496,-0.695,0.092,17.0,99.0
279399,-0.077,0.364,0.928,-0.947,-0.786,-0.092,17.0,99.0
279446,-0.079,0.360,0.950,-1.252,-0.542,-0.023,17.0,99.0
279493,-0.079,0.365,0.945,-0.863,-0.466,0.015,17.0,99.0
279539,-0.084,0.370,0.940,-1.015,-0.695,0.107,17.0,99.0
279586,-0.084,0.360,0.950,-1.053,-0.664,0.130,17.0,99.0
279633,-0.080,0.366,0.948,-0.519,-0.786,0.198,17.0,99.0
279681,-0.080,0.360,0.950,-0.748,-0.542,0.038,17.0,99.0
279727,-0.077,0.362,0.945,-0.802,-0.649,0.290,17.0,99.0
279777,-0.084,0.358,0.942,-0.389,-0.573,-0.229,16.0,99.0
279824,-0.081,0.365,0.946,-1.412,-0.733,0.122,17.0,99.0
279871,-0.076,0.357,0.942,-0.565,-0.611,-0.137,17.0,99.0
279918,-0.079,0.369,0.933,-0.344,-0.588,0.107,17.0,99.0
279964,-0.078,0.365,0.947,-0.863,-0.557,0.176,17.0,99.0
280011,-0.077,0.366,0.943,-0.603,-0.664,0.137,17.0,100.0
280058,-0.082,0.363,0.939,-0.664,-0.702,-0.107,17.0,99.0
280105,-0.078,0.369,0.948,-0.695,-0.511,0.198,17.0,99.0
280153,-0.077,0.364,0.943,-0.473,-0.603,-0.153,17.0,100.0
280203,-0.073,0.365,0.943,-0.939,-0.687,0.191,17.0,99.0
280250,-0.074,0.367,0.949,-0.779,-0.618,-0.191,17.0,99.0
280297,-0.080,0.365,0.943,-1.076,-0.603,-0.115,17.0,99.0
280344,-0.079,0.365,0.940,-0.656,-0.595,0.092,17.0,100.0
280390,-0.083,0.366,0.950,-0.947,-0.672,0.107,17.0,99.0
280481,-0.080,0.364,0.945,-0.985,-0.473,0.092,17.0,100.0
280528,-0.079,0.365,0.948,-0.496,-0.656,-0.107,17.0,99.0
280581,-0.072,0.369,0.950,-1.191,-0.443,0.038,17.0,100.0
280627,-0.080,0.361,0.939,-0.916,-0.672,-0.084,17.0,99.0
280676,-0.079,0.361,0.953,-0.397,-0.611,0.153,17.0,100.0
280722,-0.085,0.360,0.938,-0.573,-0.565,0.008,17.0,100.0
280768,-0.078,0.361,0.945,-1.031,-0.641,-0.260,17.0,99.0
280814,-0.075,0.362,0.941,-0.832,-0.618,-0.031,17.0,99.0
280860,-0.078,0.364,0.937,-1.496,-0.595,0.344,17.0,99.0
280906,-0.083,0.356,0.950,-0.939,-0.573,0.191,17.0,99.0
280952,-0.078,0.362,0.945,-0.603,-0.687,0.069,17.0,99.0
280997,-0.072,0.366,0.943,-1.481,-0.504,-0.061,17.0,99.0
281043,-0.085,0.358,0.944,-0.618,-0.771,0.061,17.0,100.0
281093,-0.078,0.365,0.938,-0.939,-0.588,-0.137,17.0,100.0
281139,-0.082,0.349,0.944,-0.725,-0.687,-0.443,17.0,99.0
281185,-0.077,0.365,0.955,-1.282,-0.733,0.198,17.0,100.0
281231,-0.084,0.364,0.940,-1.099,-0.695,-0.099,17.0,99.0
281277,-0.085,0.353,0.939,-0.397,-0.672,0.137,17.0,100.0
281323,-0.080,0.370,0.941,-0.595,-0.863,-0.206,17.0,99.0
281369,-0.076,0.365,0.947,-1.702,-0.573,0.099,17.0,99.0
281415,-0.082,0.360,0.949,-0.405,-0.626,0.145,17.0,100.0
281461,-0.074,0.368,0.937,-0.489,-0.832,0.122,17.0,100.0
281510,-0.075,0.355,0.951,-0.924,-0.519,0.031,17.0,100.0
281558,-0.079,0.356,0.948,-0.176,-0.725,0.160,17.0,100.0
281604,-0.071,0.370,0.942,-0.710,-0.687,0.053,17.0,100.0
281650,-0.074,0.357,0.940,-0.458,-0.794,0.046,17.0,100.0
281696,-0.081,0.363,0.938,-0.847,-0.740,0.023,17.0,99.0
281742,-0.074,0.361,0.948,-0.534,-0.473,0.160,17.0,99.0
281788,-0.075,0.364,0.946,-0.695,-0.573,0.069,17.0,99.0
281834,-0.085,0.362,0.946,-0.802,-0.756,-0.053,17.0,99.0
281880,-0.083,0.368,0.939,-0.794,-0.664,0.099,17.0,99.0
281929,-0.082,0.356,0.947,-0.931,-0.511,0.069,17.0,99.0
281975,-0.087,0.367,0.945,-0.595,-0.618,-0.015,17.0,99.0
282022,-0.077,0.361,0.942,-0.824,-0.718,0.137,17.0,99.0
282068,-0.077,0.371,0.942,-0.809,-0.565,0.137,17.0,99.0
282115,-0.080,0.366,0.938,-0.931,-0.634,0.198,17.0,99.0
282161,-0.084,0.361,0.943,-0.977,-0.718,-0.023,17.0,99.0
282207,-0.074,0.365,0.946,-0.695,-0.527,-0.237,17.0,99.0
282253,-0.078,0.358,0.938,-1.313,-0.649,-0.092,17.0,99.0
282300,-0.083,0.360,0.943,-0.740,-0.580,-0.061,17.0,99.0
282344,-0.084,0.368,0.947,-1.229,-0.565,0.176,17.0,99.0
282390,-0.074,0.358,0.947,-0.718,-0.656,-0.061,17.0,99.0
282436,-0.078,0.369,0.939,-0.580,-0.664,-0.122,17.0,99.0
282482,-0.077,0.360,0.947,-0.969,-0.542,-0.160,17.0,99.0
282528,-0.075,0.358,0.949,-0.679,-0.588,0.092,17.0,99.0
282575,-0.073,0.360,0.948,-0.618,-0.847,0.137,17.0,99.0
282621,-0.075,0.359,0.943,-0.611,-0.580,0.206,17.0,99.0
282668,-0.081,0.365,0.948,-1.237,-0.809,0.023,17.0,99.0
282717,-0.084,0.366,0.943,-0.779,-0.481,0.115,17.0,100.0
282764,-0.082,0.356,0.948,-0.756,-0.489,-0.099,17.0,99.0
282853,-0.079,0.368,0.945,-1.702,-0.809,-0.099,17.0,100.0
282900,-0.083,0.363,0.952,-1.137,-0.634,-0.053,17.0,100.0
282946,-0.083,0.365,0.937,-0.443,-0.718,0.107,17.0,100.0
282993,-0.076,0.359,0.937,-1.634,-0.443,0.053,17.0,99.0
283039,-0.084,0.355,0.948,-1.015,-0.618,0.168,17.0,99.0
283085,-0.079,0.353,0.957,1.443,-0.901,0.267,17.0,99.0
283132,-0.080,0.365,0.948,2.908,-1.206,0.527,17.0,99.0
283182,-0.089,0.375,0.948,-2.672,0.557,3.374,17.0,100.0
283228,-0.072,0.326,0.981,7.603,-2.893,0.656,17.0,99.0
283275,-0.107,0.394,0.954,16.389,-6.809,5.023,16.0,100.0
283321,-0.067,0.353,1.024,14.160,-12.740,2.641,16.0,99.0
283367,-0.066,0.707,0.977,-38.084,-14.672,10.855,17.0,100.0
283412,-0.136,0.303,1.326,-63.107,-33.084,13.969,17.0,57.0
283458,-0.191,0.420,1.267,10.641,-59.885,32.519,18.0,100.0
283506,-0.129,0.414,1.244,-16.466,-96.290,60.374,17.0,115.0
283554,-0.010,0.331,1.200,3.969,-117.435,71.794,32.0,115.0
283604,0.089,0.376,1.068,-18.534,-137.313,80.053,69.0,50.0
283651,0.193,0.260,0.990,-31.130,-149.489,79.282,67.0,48.0
283698,0.332,0.232,0.935,-20.939,-158.053,84.832,64.0,49.0
283744,0.435,0.205,0.755,-44.298,-160.794,77.191,61.0,47.0
283790,0.563,0.044,0.700,-47.939,-159.374,66.450,59.0,48.0
283836,0.643,0.020,0.555,-33.672,-150.534,61.519,58.0,44.0
283881,0.766,-0.026,0.412,-39.015,-144.527,51.038,57.0,44.0
283927,0.841,-0.055,0.292,-35.435,-126.611,41.015,58.0,47.0
283974,0.831,-0.038,0.172,-44.649,-113.267,33.702,60.0,46.0
284018,0.898,-0.110,0.115,-37.260,-101.176,25.847,58.0,52.0
284064,0.874,-0.150,-0.002,-28.664,-90.053,19.641,55.0,50.0
284110,0.886,-0.204,-0.039,-7.985,-80.672,6.672,54.0,53.0
284157,0.819,-0.102,-0.149,-19.771,-71.855,2.924,62.0,62.0
284206,0.810,-0.184,-0.160,-29.992,-73.137,-2.725,59.0,88.0
284254,0.823,-0.217,-0.212,-14.656,-70.244,-2.740,50.0,90.0
284302,0.823,-0.224,-0.273,-4.840,-72.122,-2.550,51.0,90.0
284350,0.840,-0.232,-0.293,-1.107,-68.252,-8.763,50.0,91.0
284402,0.808,-0.161,-0.359,-27.084,-62.969,-16.290,51.0,93.0
284456,0.787,-0.205,-0.368,-40.336,-64.061,-28.137,159.0,94.0
284507,0.809,-0.163,-0.402,-26.206,-65.145,-36.145,56.0,105.0
284556,0.764,-0.042,-0.458,-21.176,-69.649,-45.634,52.0,101.0
284605,0.710,0.043,-0.510,-23.099,-82.779,-48.229,56.0,101.0
284654,0.647,0.115,-0.587,-2.069,-94.252,-36.626,57.0,96.0
284703,0.663,0.235,-0.751,-19.176,-89.450,-21.947,58.0,99.0
284752,0.659,0.177,-0.832,-23.122,-76.779,-11.008,57.0,100.0
284805,0.654,0.257,-0.940,-46.511,-64.557,-11.397,57.0,102.0
284854,0.610,0.189,-0.958,-41.977,-56.237,-10.076,56.0,96.0
284903,0.492,0.180,-1.016,-28.710,-46.580,-5.031,55.0,103.0
284952,0.521,0.184,-1.048,7.351,-45.672,7.069,55.0,100.0
285001,0.484,0.233,-1.139,-16.130,-27.718,15.969,59.0,100.0
285050,0.541,0.076,-1.018,6.466,-18.565,16.649,54.0,106.0
285101,0.477,0.125,-1.008,8.718,-11.229,11.427,57.0,106.0
285150,0.452,0.027,-0.855,19.443,-9.771,6.939,53.0,106.0
285199,0.438,0.034,-0.807,37.145,-19.244,6.183,54.0,107.0
285295,0.436,0.072,-0.827,0.748,-24.061,-11.527,55.0,107.0
285345,0.397,0.089,-0.882,-0.618,-23.878,-9.664,57.0,107.0
285394,0.402,0.103,-0.949,4.626,-27.954,-10.855,57.0,106.0
285445,0.414,0.105,-1.002,10.924,-23.634,-11.878,57.0,106.0
285494,0.393,0.179,-1.091,-3.626,-11.115,-9.832,57.0,106.0
285544,0.366,0.098,-1.015,-7.954,-5.580,-6.267,57.0,106.0
285593,0.343,0.112,-0.978,1.153,-4.046,-3.588,57.0,106.0
285643,0.341,0.116,-0.937,-7.191,-3.870,-1.870,58.0,106.0
285696,0.364,0.092,-0.915,-1.534,-5.641,-5.450,58.0,106.0
285746,0.352,0.133,-0.965,-9.321,-6.267,-6.855,58.0,106.0
285795,0.331,0.096,-0.958,-2.740,-4.260,-6.710,57.0,106.0
285845,0.320,0.140,-1.000,3.763,-5.374,-3.511,57.0,105.0
285894,0.328,0.138,-1.000,-3.771,-1.237,0.183,57.0,103.0
285944,0.345,0.130,-0.984,-2.427,1.763,-0.740,57.0,105.0
285993,0.344,0.126,-0.942,-1.435,1.901,-1.412,57.0,105.0
286043,0.332,0.137,-0.919,1.641,1.985,-2.786,57.0,104.0
286093,0.318,0.123,-0.903,-0.519,-4.191,1.107,57.0,105.0
286146,0.332,0.133,-0.920,4.771,-5.733,3.557,57.0,105.0
286195,0.335,0.112,-0.952,1.954,-9.611,3.931,58.0,105.0
286244,0.324,0.110,-0.977,11.168,-7.550,1.908,57.0,105.0
286295,0.321,0.117,-0.979,2.595,-4.779,-0.420,58.0,105.0
286345,0.303,0.083,-0.948,1.321,-5.756,-0.282,57.0,105.0
286394,0.311,0.099,-0.942,5.252,-6.328,-1.527,58.0,105.0
286444,0.304,0.109,-0.962,5.176,-7.008,-4.305,57.0,105.0
286493,0.296,0.115,-0.986,-2.458,-6.519,-1.008,57.0,106.0
286543,0.300,0.090,-0.992,-0.244,-5.053,2.725,57.0,105.0
286597,0.309,0.094,-1.031,-0.069,-2.336,1.397,58.0,105.0
286646,0.331,0.098,-1.042,-4.359,4.878,-3.618,58.0,105.0
286696,0.299,0.108,-1.015,-5.710,9.557,-2.794,58.0,105.0
286751,0.289,0.099,-0.962,-5.176,10.702,-2.786,57.0,105.0
286799,0.305,0.102,-0.902,-2.115,7.168,-0.580,57.0,105.0
286849,0.310,0.104,-0.886,-5.198,3.573,-2.397,57.0,104.0
286897,0.299,0.094,-0.872,1.053,-4.153,-1.878,57.0,104.0
286946,0.303,0.117,-0.907,3.840,-8.519,1.160,58.0,104.0
286994,0.310,0.109,-0.928,4.336,-11.221,0.092,58.0,105.0
287046,0.312,0.114,-0.977,4.962,-11.427,-1.641,58.0,105.0
287094,0.299,0.124,-1.018,0.893,-8.092,-1.252,58.0,105.0
287143,0.299,0.120,-1.053,-2.573,-4.260,-1.611,58.0,105.0
287193,0.309,0.116,-1.048,-3.664,2.710,0.069,58.0,105.0
287241,0.308,0.109,-1.048,-6.557,7.298,1.328,58.0,105.0
287290,0.307,0.117,-1.048,-7.656,12.069,0.107,58.0,105.0
287338,0.257,0.078,-1.127,0.038,11.008,0.099,57.0,104.0
287387,0.369,0.110,-1.173,26.389,17.038,8.473,58.0,105.0
287436,0.384,0.260,-1.206,-5.672,41.244,13.382,57.0,105.0
287488,0.348,0.186,-1.087,-28.351,55.710,27.527,57.0,98.0
287536,0.406,0.156,-1.025,-5.756,62.053,37.969,56.0,106.0
287585,0.462,0.196,-1.015,-9.878,66.053,45.702,54.0,106.0
287632,0.519,0.175,-0.944,-22.847,78.634,53.473,51.0,86.0
287681,0.620,0.060,-0.868,-6.115,82.550,46.641,49.0,107.0
287729,0.587,0.071,-0.786,2.092,86.191,36.649,47.0,111.0
287820,0.616,-0.043,-0.592,20.145,69.695,45.542,41.0,93.0
287874,0.685,-0.039,-0.589,38.916,63.214,34.359,148.0,97.0
287930,0.780,-0.132,-0.496,35.313,54.656,38.298,147.0,100.0
287985,0.765,-0.109,-0.467,24.496,61.534,32.672,147.0,109.0
288039,0.786,-0.133,-0.423,-1.634,57.435,26.008,146.0,109.0
288095,0.833,-0.296,-0.312,0.466,52.763,33.282,145.0,127.0
288150,0.827,-0.255,-0.319,1.954,50.534,23.099,145.0,127.0
288206,0.801,-0.310,-0.258,-17.244,40.557,24.053,144.0,143.0
288264,0.919,-0.319,-0.274,-11.534,32.092,13.939,144.0,155.0
288320,0.998,-0.297,-0.295,-9.656,26.137,-10.229,144.0,156.0
288376,0.930,-0.272,-0.237,26.198,26.947,-9.473,144.0,132.0
288428,0.934,-0.155,-0.268,10.412,30.183,-4.496,18.0,128.0
288476,0.940,-0.295,-0.177,-4.725,34.244,-7.115,17.0,125.0
288531,0.915,-0.314,-0.136,20.550,31.275,-7.229,144.0,128.0
288585,0.913,-0.319,-0.084,41.527,25.366,-5.069,144.0,108.0
288640,0.910,-0.251,-0.063,41.901,19.405,-5.863,144.0,107.0
288687,0.954,-0.229,0.012,18.450,15.221,-2.366,17.0,106.0
288733,0.938,-0.268,0.002,11.573,6.427,-5.382,16.0,106.0
288780,1.006,-0.236,-0.028,29.260,4.710,-7.939,17.0,105.0
288829,0.980,-0.178,-0.053,27.092,9.168,-5.206,17.0,104.0
288883,0.973,-0.208,-0.013,16.618,8.443,1.321,146.0,104.0
288929,0.942,-0.219,-0.021,11.611,4.328,8.405,16.0,81.0
288982,0.975,-0.242,0.021,6.122,4.038,6.382,146.0,81.0
289035,1.008,-0.251,-0.003,-2.008,5.977,-0.534,146.0,80.0
289087,0.964,-0.217,-0.012,-4.878,8.962,-0.427,146.0,75.0
289140,0.968,-0.229,-0.001,-12.504,10.992,1.435,146.0,79.0
289192,0.966,-0.257,0.000,-5.916,11.305,6.420,146.0,79.0
289246,0.977,-0.263,0.030,-8.527,8.901,8.298,146.0,79.0
289301,0.970,-0.265,0.047,-2.206,7.061,6.977,146.0,80.0
289354,0.961,-0.264,0.058,3.992,4.298,6.092,146.0,80.0
289406,0.938,-0.270,0.062,7.321,2.053,6.473,146.0,80.0
289453,0.965,-0.281,0.070,3.023,0.542,5.023,16.0,80.0
289498,0.959,-0.304,0.071,3.450,-0.015,2.198,16.0,80.0
289550,0.965,-0.275,0.049,6.588,-0.053,2.664,146.0,80.0
289603,0.945,-0.273,0.046,-0.260,0.962,7.328,146.0,80.0
289656,0.971,-0.300,0.047,-1.458,0.756,8.672,146.0,80.0
289709,0.954,-0.304,0.055,-0.084,-0.099,7.313,145.0,80.0
289765,0.969,-0.323,0.061,0.992,-0.802,4.237,145.0,81.0
289818,0.945,-0.322,0.064,2.046,-0.947,2.992,145.0,81.0
289870,0.947,-0.305,0.055,-1.435,-2.084,7.099,145.0,81.0
289916,0.982,-0.321,0.066,-1.511,-1.069,2.725,16.0,81.0
289961,0.953,-0.301,0.043,-0.137,-0.229,3.282,16.0,81.0
290007,0.962,-0.314,0.052,1.847,-0.931,2.573,16.0,81.0
290060,0.950,-0.299,0.040,0.511,-0.603,2.252,145.0,81.0
290113,0.944,-0.317,0.044,-3.634,0.137,6.542,145.0,81.0
290166,0.957,-0.342,0.039,-2.786,-0.122,3.076,145.0,82.0
290222,0.930,-0.353,0.048,-5.427,2.176,3.359,145.0,82.0
290275,0.933,-0.378,0.071,2.313,-1.557,0.565,145.0,82.0
290321,0.948,-0.341,0.060,8.992,-2.809,0.542,17.0,81.0
290366,0.940,-0.334,0.055,11.679,-2.130,1.267,17.0,82.0