Timestamp(ms),AccelX(g),AccelY(g),AccelZ(g),GyroX(deg/s),GyroY(deg/s),GyroZ(deg/s),DistanceLeft(cm),DistanceRight(cm)
134760,0.201,-0.106,-0.991,0.282,-0.496,0.260,149.0,79.0
134812,0.189,-0.121,-0.982,-2.534,0.130,0.588,149.0,78.0
134865,0.184,-0.135,-0.973,1.748,-1.427,-1.351,149.0,79.0
134918,0.192,-0.096,-0.988,4.527,-2.618,-2.290,149.0,78.0
134970,0.199,-0.106,-0.992,-3.092,-2.153,-2.031,149.0,77.0
135024,0.180,-0.116,-1.000,0.962,-2.511,0.176,149.0,110.0
135081,0.199,-0.115,-1.003,-1.473,-1.550,-0.504,149.0,110.0
135135,0.192,-0.119,-0.993,1.359,-0.634,-1.252,149.0,79.0
135187,0.193,-0.119,-0.997,-0.351,-0.046,-1.443,149.0,78.0
135239,0.198,-0.113,-0.996,-0.191,1.000,-1.145,149.0,78.0
135292,0.192,-0.112,-0.994,-3.939,1.107,-1.344,149.0,77.0
135345,0.207,-0.105,-0.993,-1.000,2.115,-0.473,149.0,78.0
135397,0.185,-0.108,-0.983,-3.733,1.420,0.183,149.0,78.0
135450,0.200,-0.113,-0.976,-2.771,1.130,-0.282,149.0,77.0
135502,0.190,-0.100,-0.970,-1.336,-1.802,1.282,149.0,77.0
135558,0.192,-0.114,-0.975,0.519,-2.947,0.435,149.0,78.0
135611,0.200,-0.115,-0.973,0.374,-4.412,0.718,149.0,78.0
135663,0.200,-0.105,-1.017,1.038,-4.511,-0.153,149.0,79.0
135715,0.199,-0.105,-1.023,-4.099,-0.015,-0.420,149.0,79.0
135769,0.202,-0.094,-1.036,-2.275,2.519,0.092,149.0,79.0
135821,0.200,-0.105,-1.029,-4.298,5.893,1.344,149.0,78.0
135874,0.191,-0.101,-1.023,-3.130,7.122,2.794,150.0,77.0
135926,0.224,-0.117,-0.992,0.076,9.802,0.809,150.0,76.0
135982,0.208,-0.079,-1.029,-4.099,9.206,0.511,149.0,75.0
136035,0.230,-0.107,-1.042,-9.405,16.244,1.534,148.0,78.0
136087,0.275,-0.098,-1.052,-13.885,23.130,1.084,148.0,78.0
136139,0.260,-0.121,-1.038,-13.588,28.359,-4.115,148.0,78.0
136193,0.278,-0.079,-1.045,-17.595,32.954,-7.084,148.0,78.0
136245,0.309,-0.058,-1.001,-9.237,31.099,-7.206,148.0,77.0
136300,0.376,0.014,-1.008,-10.084,36.565,-3.221,149.0,110.0
136352,0.362,-0.027,-0.932,-4.595,30.542,-0.565,149.0,80.0
136406,0.437,0.095,-0.974,-5.084,37.420,6.458,149.0,79.0
136462,0.478,0.055,-0.942,-43.053,49.481,9.435,148.0,87.0
136514,0.509,0.033,-0.900,-38.962,56.176,10.847,148.0,81.0
136568,0.550,0.058,-0.863,-16.466,55.260,19.893,148.0,90.0
136622,0.577,0.083,-0.909,13.008,54.076,26.008,147.0,88.0
136674,0.620,0.006,-0.903,10.031,49.863,23.557,147.0,81.0
136729,0.630,-0.010,-0.896,27.893,59.214,21.840,146.0,115.0
136782,0.636,-0.005,-0.825,14.649,67.435,23.366,145.0,95.0
136838,0.698,-0.042,-0.734,12.817,71.603,20.679,145.0,118.0
136895,0.729,-0.127,-0.601,2.061,73.237,25.183,144.0,118.0
136950,0.769,-0.084,-0.520,4.023,77.237,18.870,143.0,129.0
137007,0.768,-0.172,-0.451,-7.878,71.115,21.008,143.0,133.0
137062,0.828,-0.226,-0.394,16.924,69.649,36.206,143.0,129.0
137113,0.871,-0.145,-0.349,6.931,64.481,13.718,49.0,143.0
137167,0.916,-0.198,-0.252,-7.229,55.420,16.595,142.0,113.0
137218,0.866,-0.250,-0.187,4.229,56.008,12.168,37.0,135.0
137272,0.876,-0.268,-0.114,10.794,49.649,12.321,141.0,112.0
137326,0.845,-0.330,-0.035,22.260,37.412,16.542,141.0,112.0
137383,0.918,-0.281,0.022,20.611,21.137,23.885,140.0,112.0
137481,0.950,-0.292,0.010,18.359,7.847,20.046,140.0,113.0
137535,0.913,-0.285,-0.061,0.931,9.397,14.901,139.0,112.0
137590,0.937,-0.384,-0.050,-11.275,9.809,14.603,139.0,114.0
137645,0.961,-0.434,-0.039,-15.901,8.511,8.206,139.0,114.0
137699,0.922,-0.481,-0.017,11.130,3.031,-1.878,139.0,114.0
137753,0.883,-0.365,-0.055,11.244,3.282,-0.939,139.0,114.0
137807,0.938,-0.324,-0.059,-5.916,4.802,3.702,139.0,114.0
137865,0.949,-0.380,-0.032,-30.534,7.550,-6.137,138.0,114.0
137920,0.947,-0.425,-0.020,-19.221,5.504,-11.855,138.0,114.0
137974,0.900,-0.334,-0.025,4.412,0.244,-4.168,138.0,115.0
138029,0.962,-0.292,-0.073,-6.412,1.718,-6.359,139.0,114.0
138076,0.940,-0.320,-0.056,-22.267,3.450,-1.420,11.0,114.0
138123,0.937,-0.385,-0.031,-10.366,1.672,-3.565,11.0,115.0
138170,0.956,-0.365,-0.026,7.824,-0.435,-0.481,10.0,115.0
138217,0.950,-0.326,-0.049,9.733,1.031,-1.626,11.0,114.0
138271,0.961,-0.328,-0.051,6.099,0.061,-1.443,139.0,114.0
138322,0.952,-0.336,-0.036,12.824,1.763,-2.344,16.0,114.0
138377,0.933,-0.355,-0.024,23.466,-1.298,0.214,139.0,113.0
138431,0.945,-0.306,-0.040,10.496,-1.244,-2.527,139.0,112.0
138485,0.954,-0.349,-0.038,-2.618,0.855,-5.252,140.0,112.0
138540,0.940,-0.378,-0.019,-3.405,2.588,-10.557,140.0,112.0
138588,0.912,-0.398,-0.003,3.771,-0.794,-12.794,17.0,111.0
138634,0.927,-0.422,0.008,16.206,-3.206,-16.023,16.0,88.0
138686,0.948,-0.342,-0.018,13.832,-4.305,-21.191,142.0,85.0
138739,0.941,-0.364,-0.012,-10.855,-2.817,-34.115,143.0,84.0
138798,0.903,-0.358,-0.032,-14.489,-1.924,-41.985,145.0,105.0
138852,0.948,-0.301,-0.057,-25.504,1.893,-53.626,148.0,103.0
138900,0.890,-0.241,-0.096,-44.687,5.885,-62.511,35.0,100.0
138948,0.938,-0.186,-0.088,-57.557,17.840,-72.542,40.0,99.0
138997,0.907,-0.037,-0.053,-53.855,30.229,-94.405,47.0,112.0
139046,0.914,0.081,-0.013,-55.885,37.107,-99.168,54.0,108.0
139097,0.889,0.191,0.083,-53.725,39.405,-87.252,61.0,104.0
139153,0.822,0.191,0.105,-45.649,33.641,-79.191,0.0,99.0
139213,0.844,0.333,0.160,-28.252,33.336,-73.985,0.0,96.0
139271,0.876,0.481,0.193,-1.550,36.710,-69.542,0.0,91.0
139327,0.760,0.362,0.230,5.840,33.290,-78.275,0.0,91.0
139384,0.786,0.689,0.189,61.557,35.893,-71.641,0.0,105.0
139441,0.676,0.767,0.210,-19.405,29.275,-53.786,0.0,80.0
139497,0.711,0.578,0.429,-12.901,28.458,-47.359,0.0,77.0
139553,0.703,0.776,0.361,2.786,28.458,-63.313,0.0,78.0
139611,0.678,0.872,0.453,-36.878,35.252,-75.237,0.0,105.0
139674,0.486,0.785,0.405,-51.038,30.260,-56.107,0.0,0.0
139740,0.536,0.728,0.427,-125.924,34.191,-44.443,0.0,0.0
139798,0.524,0.690,0.521,-83.954,51.565,-39.389,0.0,99.0
139854,0.511,0.736,0.633,-112.107,64.855,-54.863,0.0,98.0
139911,0.373,0.836,0.720,-164.214,91.878,-42.443,0.0,74.0
139967,0.189,0.440,1.003,-115.328,63.290,-31.191,0.0,72.0
140023,0.093,0.344,0.995,-72.443,33.885,-3.489,0.0,80.0
140072,0.160,0.239,0.953,14.954,19.252,9.901,77.0,80.0
140121,0.220,0.414,0.812,1.733,35.237,-5.015,76.0,66.0
140213,0.036,0.321,0.895,11.389,44.527,-21.389,76.0,81.0
140267,-0.009,0.494,0.880,6.771,35.687,-14.550,79.0,99.0
140316,0.012,0.268,1.073,-13.489,35.534,-11.405,83.0,82.0
140366,0.050,0.447,1.104,-22.305,44.504,-22.702,81.0,82.0
140417,-0.192,0.440,1.000,-6.962,42.565,-30.313,83.0,99.0
140468,-0.248,0.380,1.161,-19.687,9.397,-3.794,84.0,99.0
140521,-0.059,0.348,0.844,-18.824,8.137,-1.595,155.0,84.0
140570,-0.136,0.440,0.970,-59.939,14.466,-3.061,83.0,68.0
140620,-0.123,-0.046,1.068,8.992,3.870,12.847,83.0,83.0
140673,-0.120,0.469,0.865,-11.412,-1.702,12.214,82.0,84.0
140723,-0.100,0.039,1.111,7.023,0.870,11.084,81.0,84.0
140772,-0.106,0.436,0.875,13.160,-2.649,8.595,79.0,85.0
140822,-0.106,0.061,1.073,-13.176,-0.779,0.473,80.0,85.0
140872,-0.137,0.307,0.938,16.847,-2.168,-0.786,80.0,85.0
140921,-0.095,0.349,0.949,4.000,-0.985,0.573,80.0,85.0
140972,-0.116,0.287,0.965,2.008,-0.756,-0.137,80.0,85.0
141021,-0.115,0.294,0.965,4.595,-1.191,0.092,80.0,85.0
141071,-0.112,0.312,0.952,10.122,-1.412,0.527,80.0,85.0
141123,-0.105,0.344,0.958,3.420,-1.160,0.664,79.0,85.0
141173,-0.107,0.341,0.948,-5.947,-0.496,0.214,79.0,85.0
141222,-0.110,0.303,0.957,-3.053,-0.405,0.015,80.0,85.0
141273,-0.114,0.301,0.953,1.924,-0.786,-0.435,81.0,85.0
141322,-0.110,0.339,0.955,0.282,-0.443,0.038,79.0,85.0
141372,-0.107,0.295,0.973,0.725,-0.466,-0.435,80.0,85.0
141421,-0.117,0.291,0.964,8.099,-1.076,0.611,80.0,85.0
141471,-0.098,0.330,0.963,11.031,-1.221,-0.809,77.0,85.0
141520,-0.116,0.311,0.976,9.740,-1.802,1.595,77.0,85.0
141578,-0.095,0.286,0.979,22.855,-4.084,-2.122,77.0,85.0
141627,-0.130,0.398,0.957,43.687,-4.504,1.443,79.0,84.0
141675,-0.145,0.241,1.067,86.695,-9.130,6.290,81.0,85.0
141737,-0.146,0.630,0.958,122.023,-24.664,16.107,0.0,0.0
141800,-0.113,0.757,0.822,78.031,-42.763,40.672,0.0,0.0
141855,-0.021,0.469,0.847,156.641,-59.802,55.863,81.0,0.0
141918,0.072,0.744,0.314,250.130,-74.534,87.870,0.0,0.0
141980,0.310,1.150,0.115,98.519,-36.687,84.672,0.0,0.0
142032,0.354,0.670,0.307,3.450,-8.267,47.939,0.0,19.0
142087,0.274,0.776,0.270,10.130,-1.214,33.183,0.0,17.0
142143,0.656,0.802,0.498,15.924,2.313,14.969,0.0,16.0
142204,0.267,0.928,0.244,48.824,8.626,-31.099,0.0,0.0
142257,0.369,0.845,0.331,50.008,3.992,-20.076,0.0,10.0
142308,0.351,0.967,0.212,45.863,7.802,-27.710,0.0,8.0
142359,0.288,1.096,0.215,-40.817,12.916,-30.160,0.0,8.0
142410,0.253,0.911,0.341,-16.313,11.794,-18.076,0.0,6.0
142462,0.271,1.022,0.251,0.115,8.031,-7.939,0.0,6.0
142514,0.236,0.968,0.291,-22.725,7.405,-6.603,0.0,6.0
142565,0.234,0.930,0.303,-7.626,6.038,-3.321,0.0,6.0
142619,0.231,0.960,0.301,-25.031,4.595,-3.244,0.0,7.0
142670,0.235,0.871,0.341,-8.237,4.557,-2.015,0.0,16.0
142722,0.242,0.946,0.308,-8.916,5.328,-4.794,0.0,7.0
142784,0.216,0.924,0.318,-16.076,7.519,-7.397,0.0,0.0
142891,0.182,0.942,0.385,-19.702,5.198,-4.679,0.0,0.0
142953,0.191,0.938,0.400,-3.000,-0.237,4.183,0.0,0.0
143015,0.216,0.918,0.387,-7.931,-1.489,7.099,0.0,0.0
143078,0.231,0.889,0.364,-6.168,0.183,4.069,0.0,0.0
143139,0.227,0.877,0.377,-8.061,2.656,-3.489,0.0,0.0
143205,0.202,0.919,0.389,-6.733,4.969,-7.344,0.0,0.0
143267,0.186,0.903,0.428,-4.771,3.107,-5.794,0.0,0.0
143330,0.190,0.923,0.423,-0.977,-0.061,-2.328,0.0,0.0
143392,0.189,0.925,0.412,-4.176,-2.000,0.298,0.0,0.0
143455,0.204,0.903,0.404,0.489,-0.985,1.779,0.0,0.0
143517,0.205,0.880,0.392,-1.878,1.160,-3.809,0.0,0.0
143580,0.189,0.918,0.389,-9.763,5.115,-8.389,0.0,0.0
143632,0.163,0.919,0.436,-7.221,4.756,-6.756,0.0,6.0
143683,0.166,0.951,0.434,-13.260,3.328,-1.939,0.0,9.0
143735,0.164,0.890,0.450,-8.580,1.893,2.641,0.0,7.0
143801,0.165,0.913,0.456,-5.542,-0.015,5.275,0.0,0.0
143852,0.172,0.890,0.458,-8.763,-1.405,5.710,0.0,9.0
143915,0.182,0.868,0.457,-2.718,-1.527,5.489,0.0,0.0
143977,0.188,0.873,0.465,-3.649,-1.260,2.855,0.0,0.0
144039,0.204,0.881,0.485,-1.672,-2.534,0.473,0.0,0.0
144102,0.175,0.894,0.563,-7.282,-10.458,3.038,0.0,0.0
144154,0.179,0.931,0.601,1.740,-21.374,12.252,0.0,10.0
144206,0.257,1.031,0.615,16.832,-25.099,7.664,0.0,9.0
144269,0.286,1.109,0.555,-5.313,-29.702,4.153,0.0,0.0
144334,0.165,1.062,0.458,31.672,-45.198,24.656,0.0,0.0
144397,0.304,1.120,0.383,32.389,-48.870,53.328,0.0,0.0
144459,0.333,1.230,0.262,14.595,-45.076,87.061,0.0,0.0
144523,0.426,0.989,0.312,-7.679,-39.878,96.679,0.0,0.0
144585,0.477,0.882,0.257,-15.908,-37.000,100.664,0.0,0.0
144643,0.541,0.689,0.202,-26.099,-32.099,95.466,0.0,110.0
144699,0.612,0.555,0.184,-15.313,-25.672,93.695,0.0,81.0
144755,0.633,0.478,0.135,-34.802,-21.992,91.267,0.0,85.0
144812,0.804,0.358,0.186,-4.092,-17.870,78.695,0.0,88.0
144871,0.775,0.256,0.181,9.137,-15.771,74.351,0.0,93.0
144928,0.796,0.206,0.184,27.130,-13.824,73.679,0.0,102.0
144978,0.876,0.117,0.194,36.954,-11.031,63.824,78.0,100.0
145028,0.932,0.120,0.188,45.206,-6.504,61.382,66.0,102.0
145077,0.902,0.072,0.166,18.023,-3.954,50.443,61.0,103.0
145124,0.917,-0.029,0.161,20.000,-4.336,42.702,57.0,61.0
145170,0.936,-0.076,0.139,34.878,-2.733,35.053,56.0,60.0
145216,0.919,-0.077,0.049,30.427,0.130,28.168,53.0,57.0
145263,0.963,-0.123,0.069,31.328,6.328,26.870,58.0,57.0
145312,0.861,-0.171,0.039,23.473,2.771,12.977,55.0,57.0
145358,0.749,-0.176,0.062,57.084,-10.267,35.954,52.0,55.0
145403,0.559,-0.031,-0.033,67.427,-22.740,69.076,53.0,52.0
145449,0.501,0.011,0.005,56.779,-42.939,105.847,54.0,50.0
145496,0.769,0.012,0.039,39.405,-51.153,112.435,54.0,49.0
145542,0.921,0.063,0.029,-15.511,-29.137,102.405,53.0,50.0
145588,0.934,-0.193,0.128,-48.649,-20.916,101.626,53.0,50.0
145640,1.084,-0.301,0.171,-25.527,-17.328,73.565,168.0,50.0
145739,1.581,-0.642,0.170,11.069,-33.298,34.710,170.0,51.0
145793,1.707,-0.776,0.089,13.382,-49.122,55.901,168.0,53.0
145845,1.763,-0.896,-0.033,5.573,-38.542,69.351,167.0,57.0
145891,1.368,-0.790,-0.087,36.366,4.053,39.298,36.0,57.0
145944,1.077,-0.592,-0.114,46.550,36.504,-2.618,163.0,77.0
145992,0.791,-0.417,-0.152,19.000,63.649,-68.878,53.0,75.0
146041,0.718,-0.373,-0.085,-10.847,71.550,-96.886,110.0,62.0
146088,0.568,-0.277,-0.028,-13.061,72.626,-106.458,56.0,63.0
146136,0.597,-0.249,-0.025,-19.641,56.847,-89.229,37.0,72.0
146185,0.707,-0.204,0.055,-4.611,45.802,-68.198,41.0,73.0
146231,0.753,-0.294,0.135,-2.191,28.221,-36.763,29.0,68.0
146283,0.710,-0.405,0.209,9.679,18.496,-20.076,148.0,69.0
146335,0.656,-0.494,0.298,38.779,3.427,-4.366,147.0,70.0
146388,0.748,-0.328,0.299,35.672,-1.000,15.160,146.0,72.0
146441,0.577,-0.298,0.259,-55.084,-16.710,27.977,141.0,78.0
146494,0.827,-0.481,0.286,-55.527,-13.557,33.328,141.0,79.0
146547,0.453,-0.368,0.082,-104.763,-18.382,63.336,146.0,78.0
146597,0.448,-0.544,0.112,-92.603,-41.397,79.305,36.0,80.0
146643,0.478,-0.646,0.042,-27.008,-41.290,103.519,20.0,82.0
146690,0.473,-0.566,-0.010,9.649,-41.870,109.435,30.0,82.0
146738,0.761,-0.594,-0.077,23.435,-21.496,93.237,44.0,82.0
146800,0.777,-0.393,-0.056,3.351,-19.298,56.298,0.0,0.0
146864,0.938,-0.530,-0.024,-56.519,-9.542,56.626,0.0,0.0
146927,1.031,-0.946,0.102,-59.702,-19.397,56.092,0.0,0.0
146979,1.147,-1.248,-0.029,17.420,-20.473,30.015,16.0,0.0
147033,1.271,-1.444,-0.164,50.305,-14.885,-12.702,16.0,0.0
147099,1.243,-1.129,-0.208,15.695,4.229,-49.908,0.0,0.0
147162,1.267,-0.945,-0.110,26.519,39.466,-50.557,0.0,0.0
147223,1.090,-0.579,-0.058,11.824,72.557,-62.573,170.0,0.0
147277,0.877,-0.359,0.030,-23.191,82.611,-77.359,44.0,0.0
147324,0.681,-0.284,0.095,-54.374,74.328,-92.618,43.0,75.0
147372,0.587,-0.354,0.137,-47.244,58.763,-86.870,47.0,75.0
147420,0.475,-0.428,0.168,4.206,38.275,-69.061,47.0,75.0
147467,0.693,-0.500,0.241,79.534,20.641,-57.107,50.0,76.0
147512,0.646,-0.370,0.168,86.550,19.458,-40.939,22.0,69.0
147561,0.720,-0.348,0.219,47.397,22.328,-37.115,22.0,70.0
147614,0.746,-0.462,0.309,5.389,27.626,-25.435,148.0,72.0
147666,0.731,-0.445,0.313,-7.656,31.878,-27.702,146.0,75.0
147721,0.730,-0.538,0.399,-37.061,18.588,-26.939,147.0,81.0
147774,0.688,-0.541,0.414,0.511,9.389,-17.176,146.0,82.0
147827,0.594,-0.449,0.362,-2.038,-11.985,1.443,147.0,79.0
147880,0.586,-0.406,0.326,-1.725,-28.863,25.885,148.0,78.0
147927,0.625,-0.465,0.311,-11.443,-47.527,49.885,19.0,71.0
147975,0.501,-0.431,0.198,-4.069,-55.855,59.038,20.0,67.0
148020,0.479,-0.395,0.149,6.672,-67.267,82.344,19.0,65.0
148074,0.784,-0.390,0.074,34.221,-69.573,69.107,158.0,73.0
148120,0.937,-0.139,-0.033,28.687,-74.359,34.519,47.0,60.0
148170,1.038,-0.365,0.021,-14.664,-81.992,24.252,106.0,57.0
148224,1.013,-0.351,0.053,19.260,-72.832,35.687,165.0,55.0
148269,1.133,-0.328,-0.075,-10.351,-56.832,43.420,37.0,52.0
148366,1.257,-0.775,-0.054,-5.588,-44.450,26.786,169.0,55.0
148419,1.583,-0.938,-0.205,43.771,-20.122,13.802,169.0,57.0
148475,1.566,-0.969,-0.184,29.191,5.863,-6.076,168.0,54.0
148530,1.344,-0.852,-0.081,37.595,35.756,-10.420,167.0,57.0
148581,1.081,-0.524,-0.028,44.550,65.504,-28.870,44.0,55.0
148634,0.939,-0.397,0.007,15.412,75.214,-54.664,166.0,71.0
148679,0.768,-0.248,0.061,-20.557,78.458,-68.519,45.0,57.0
148724,0.735,-0.292,0.165,-31.183,81.206,-68.489,45.0,57.0
148774,0.695,-0.199,0.194,-34.427,78.053,-60.794,119.0,69.0
148828,0.776,-0.193,0.274,-35.588,62.595,-62.275,158.0,71.0
148875,0.746,-0.462,0.315,-6.817,32.084,-60.794,29.0,64.0
148921,0.715,-0.372,0.332,80.000,26.504,-55.328,40.0,65.0
148965,0.811,-0.336,0.321,108.374,25.924,-40.252,28.0,67.0
149011,0.676,-0.183,0.241,51.450,26.710,-22.832,30.0,69.0
149062,0.740,-0.231,0.317,-16.748,30.550,-24.794,148.0,73.0
149115,0.662,-0.465,0.480,-47.840,25.656,-13.756,146.0,79.0
149167,0.803,-0.496,0.585,25.321,15.496,-7.122,123.0,76.0
149217,0.800,-0.315,0.551,7.595,4.076,-2.542,123.0,74.0
149268,0.646,-0.321,0.532,-26.542,-9.443,9.672,124.0,72.0
149322,0.650,-0.433,0.532,-28.649,-35.382,42.954,125.0,78.0
149374,0.438,-0.412,0.362,0.420,-55.229,55.901,149.0,76.0
149427,0.582,-0.331,0.343,14.344,-69.115,84.771,151.0,70.0
149473,0.531,-0.310,0.259,-16.725,-77.183,87.473,37.0,73.0
149520,0.755,-0.302,0.209,-13.023,-74.916,66.832,50.0,73.0
149569,0.890,-0.387,0.166,5.107,-71.366,58.069,112.0,59.0
149615,0.982,-0.260,-0.009,10.611,-61.557,37.496,45.0,71.0
149660,1.022,-0.372,0.037,-11.359,-53.504,34.374,45.0,56.0
149706,1.140,-0.514,0.017,-28.809,-53.763,19.733,47.0,55.0
149754,0.916,-0.562,0.029,13.160,-46.031,14.092,44.0,70.0
149800,1.097,-0.466,0.005,24.611,-38.122,27.252,38.0,75.0
149854,1.116,-0.549,-0.060,-17.153,-32.099,20.893,35.0,0.0
149899,1.381,-0.868,-0.055,-7.473,-19.565,12.969,37.0,53.0
149944,1.411,-0.954,-0.130,27.870,-6.466,0.939,33.0,53.0
149988,1.391,-0.836,-0.151,30.641,19.977,-2.191,36.0,57.0
150041,1.216,-0.706,-0.100,22.763,47.802,-14.802,34.0,0.0
150087,1.102,-0.597,-0.016,19.527,70.679,-30.939,37.0,68.0
150136,0.991,-0.446,0.032,10.939,78.122,-48.237,46.0,74.0
150182,0.881,-0.346,0.101,-7.015,77.305,-63.969,48.0,54.0
150227,0.841,-0.278,0.181,-34.420,75.786,-67.092,46.0,55.0
150280,0.791,-0.285,0.236,-34.611,78.107,-77.687,162.0,56.0
150326,0.751,-0.272,0.307,-29.015,74.679,-74.115,50.0,57.0
150371,0.699,-0.310,0.324,-27.595,65.107,-72.252,31.0,58.0
150416,0.655,-0.317,0.384,-13.183,56.237,-72.763,45.0,60.0
150461,0.688,-0.375,0.449,9.733,49.023,-68.969,30.0,61.0
150514,0.630,-0.309,0.429,12.733,39.183,-53.863,155.0,72.0
150569,0.724,-0.263,0.468,47.176,35.489,-54.305,154.0,72.0
150622,0.735,-0.191,0.518,23.038,28.733,-49.626,155.0,63.0
150674,0.698,-0.187,0.571,-15.176,16.214,-24.977,155.0,63.0
150726,0.692,-0.169,0.591,-9.099,6.511,-8.122,154.0,62.0
150779,0.588,-0.171,0.559,-41.397,-18.534,32.305,155.0,62.0
150876,0.433,-0.391,0.485,-43.985,-85.145,96.046,156.0,72.0
150928,0.733,-0.465,0.468,38.687,-96.679,99.748,156.0,62.0
150980,0.679,-0.333,0.277,45.527,-90.664,83.977,158.0,59.0
151035,0.902,-0.336,0.236,20.534,-75.664,60.649,159.0,57.0
151081,0.836,-0.290,0.195,-3.916,-64.756,49.443,51.0,55.0
151128,0.816,-0.343,0.080,-18.328,-57.374,37.221,49.0,68.0
151181,0.910,-0.392,0.152,-23.046,-49.450,27.962,165.0,53.0
151233,0.924,-0.382,0.086,-10.763,-44.702,40.992,166.0,53.0
151279,0.994,-0.457,0.018,5.695,-34.954,33.397,38.0,67.0
151324,1.129,-0.621,0.011,12.351,-14.214,39.565,37.0,54.0
151369,1.180,-0.639,-0.024,2.084,5.840,21.840,37.0,52.0
151421,1.253,-0.815,0.066,-16.992,8.679,11.580,168.0,54.0
151470,1.328,-0.940,0.070,-17.389,14.580,-4.931,17.0,69.0
151522,1.260,-0.917,0.073,3.344,10.672,-8.450,168.0,53.0
151574,1.164,-0.749,0.048,44.107,20.092,-10.496,168.0,52.0
151621,1.089,-0.562,0.040,49.565,42.115,-14.412,38.0,69.0
151666,1.112,-0.462,0.072,38.160,71.298,-24.115,37.0,52.0
151712,0.977,-0.269,0.058,-16.626,94.840,-36.969,42.0,68.0
151758,0.855,-0.255,0.168,-93.809,99.160,-55.580,48.0,57.0
151803,0.750,-0.337,0.239,-129.534,96.672,-52.901,47.0,57.0
151851,0.668,-0.433,0.360,-96.695,88.519,-47.809,57.0,58.0
151904,0.619,-0.453,0.382,-41.206,66.687,-36.145,112.0,72.0
151950,0.656,-0.351,0.401,24.870,47.718,-28.321,33.0,73.0
151998,0.691,-0.328,0.370,46.076,34.351,-27.443,58.0,75.0
152048,0.720,-0.444,0.377,43.939,36.695,-30.336,106.0,77.0
152094,0.575,-0.473,0.397,25.573,42.122,-50.389,31.0,78.0
152144,0.518,-0.491,0.454,11.427,40.122,-37.435,102.0,78.0
152197,0.578,-0.555,0.496,-10.046,32.748,-20.168,148.0,72.0
152250,0.624,-0.477,0.522,-20.191,41.252,-42.038,148.0,72.0
152306,0.602,-0.601,0.640,-59.382,27.939,-30.924,150.0,73.0
152358,0.513,-0.599,0.641,-27.794,-0.458,3.046,150.0,73.0
152412,0.461,-0.671,0.621,2.359,-34.038,39.908,150.0,73.0
152465,0.225,-0.504,0.458,24.214,-67.031,74.847,151.0,71.0
152515,0.393,-0.441,0.473,30.229,-93.618,79.580,105.0,75.0
152571,0.366,-0.373,0.387,-40.275,-100.519,90.084,0.0,76.0
152619,0.682,-0.476,0.400,-29.107,-82.473,61.511,58.0,75.0
152675,0.669,-0.450,0.276,-23.679,-79.908,46.977,0.0,75.0
152736,0.993,-0.489,0.225,29.725,-72.916,10.802,165.0,0.0
152794,0.805,-0.335,0.102,-24.786,-57.656,18.649,169.0,74.0
152850,1.023,-0.552,0.087,-71.664,-47.702,6.916,168.0,123.0
152899,1.046,-0.681,0.060,-35.527,-28.122,-1.588,20.0,122.0
152955,1.236,-0.732,0.014,9.466,-16.359,-12.214,170.0,121.0
153011,1.280,-0.664,-0.103,-4.000,-1.550,-10.336,0.0,57.0
153066,1.397,-0.735,-0.100,-0.740,17.992,7.885,0.0,57.0
153131,1.231,-0.768,-0.073,25.481,34.198,17.115,172.0,121.0
153187,1.203,-0.667,0.015,29.710,52.115,6.779,169.0,121.0
153242,1.035,-0.534,0.139,20.588,67.405,-10.412,171.0,56.0
153295,0.946,-0.452,0.218,-13.626,69.710,-31.611,170.0,71.0
153349,0.737,-0.365,0.266,-55.244,50.374,-51.580,170.0,71.0
153402,0.658,-0.512,0.441,-29.458,26.015,-69.443,170.0,59.0
153491,0.659,-0.341,0.387,127.443,16.458,-48.519,57.0,60.0
153536,0.649,-0.193,0.325,110.817,12.244,-43.481,33.0,62.0
153582,0.571,-0.144,0.352,113.267,16.489,-31.641,38.0,72.0
153632,0.703,-0.161,0.376,110.237,27.511,-1.328,107.0,74.0
153681,0.656,-0.118,0.390,55.832,40.252,18.496,103.0,76.0
153734,0.828,-0.347,0.595,10.779,48.405,-3.550,101.0,78.0
153784,0.629,-0.551,0.696,-11.939,39.359,-15.466,98.0,74.0
153833,0.627,-0.378,0.706,33.008,42.794,-31.328,97.0,75.0
153882,0.542,-0.301,0.763,24.267,22.481,-19.260,96.0,75.0
153931,0.575,-0.336,0.782,-17.450,-11.344,3.565,96.0,76.0
153981,0.551,-0.504,0.746,-31.504,-46.656,35.641,96.0,84.0
154031,0.481,-0.438,0.566,1.954,-72.145,48.305,96.0,82.0
154082,0.603,-0.454,0.485,-2.885,-93.313,78.221,120.0,76.0
154130,0.320,-0.372,0.241,-28.580,-100.328,93.748,22.0,81.0
154182,0.538,-0.591,0.292,-18.916,-111.511,111.672,22.0,0.0
154228,0.405,-0.311,0.172,-18.695,-93.450,92.344,36.0,78.0
154275,0.732,-0.401,0.187,-34.130,-95.305,85.206,46.0,77.0
154326,0.970,-0.525,0.150,1.557,-82.458,37.740,112.0,75.0
154372,0.980,-0.443,0.052,18.466,-69.344,42.206,46.0,76.0
154418,1.007,-0.584,-0.065,-2.183,-61.740,26.733,38.0,77.0
154478,1.015,-0.539,-0.065,-24.244,-58.008,16.817,166.0,0.0
154531,1.037,-0.810,-0.135,0.740,-63.847,2.511,34.0,0.0
154579,1.073,-0.739,-0.236,16.763,-55.031,-8.374,31.0,57.0
154625,1.129,-0.766,-0.261,4.908,-42.244,-6.206,38.0,71.0
154671,1.181,-0.835,-0.289,-10.786,-19.954,-13.679,37.0,69.0
154717,1.072,-0.865,-0.293,1.748,6.649,-24.885,36.0,70.0
154769,1.010,-0.825,-0.271,25.649,36.443,-37.038,169.0,53.0
154815,0.845,-0.631,-0.249,28.336,72.489,-62.687,43.0,77.0
154861,0.773,-0.617,-0.173,28.427,101.099,-85.237,36.0,65.0
154906,0.707,-0.469,-0.110,26.237,130.771,-99.206,41.0,50.0
154954,0.675,-0.353,-0.078,3.076,156.901,-110.908,46.0,50.0
154999,0.637,-0.254,0.014,-21.550,176.412,-113.985,48.0,47.0
155044,0.624,-0.203,0.148,-55.588,181.794,-106.847,50.0,47.0
155089,0.596,-0.098,0.291,-95.527,186.740,-94.069,50.0,46.0
155134,0.514,-0.279,0.554,-116.221,180.634,-85.672,50.0,47.0
155181,0.435,-0.383,0.815,-39.985,189.740,-52.000,52.0,46.0
155226,0.311,-0.217,0.888,37.359,182.412,-35.084,53.0,47.0
155270,0.135,-0.065,0.928,31.924,153.336,-34.336,21.0,49.0
155314,0.127,0.015,1.026,9.817,130.214,-34.878,23.0,47.0
155360,-0.037,-0.124,1.128,-36.885,111.886,-23.916,18.0,50.0
155404,-0.005,-0.271,1.290,23.527,82.092,-12.565,17.0,47.0
155447,-0.040,-0.150,1.161,60.496,61.740,-4.137,17.0,51.0
155491,0.006,-0.120,1.224,76.435,41.756,-6.366,16.0,49.0
155534,-0.067,0.083,1.013,45.443,30.084,-5.252,16.0,50.0
155578,-0.024,0.050,1.075,18.504,28.115,-4.672,16.0,48.0
155621,-0.037,-0.051,1.018,37.168,21.832,-14.099,16.0,52.0
155665,-0.043,0.162,0.922,43.328,29.260,-14.229,17.0,49.0
155709,-0.092,0.077,0.935,-4.389,33.198,-24.550,17.0,52.0
155750,-0.113,0.039,0.990,-3.397,41.298,-21.496,16.0,50.0
155794,-0.459,-0.292,1.840,36.733,20.267,-29.557,17.0,52.0
155881,-0.112,0.115,0.715,-9.687,-11.412,-21.443,17.0,51.0
155925,-0.102,0.084,0.936,27.534,9.519,-8.901,17.0,50.0
155968,-0.234,0.354,1.285,58.252,-13.397,5.824,18.0,51.0
156012,-0.089,0.158,0.876,18.969,-14.924,0.511,18.0,51.0
156056,-0.072,0.171,0.965,23.481,-2.305,-5.198,18.0,50.0
156099,-0.125,0.283,1.016,38.786,-3.130,-4.229,19.0,50.0
156149,-0.103,0.339,0.948,26.374,-7.588,-4.985,20.0,94.0
156195,-0.077,0.325,0.933,11.206,-3.672,-4.099,20.0,94.0
156241,-0.091,0.331,0.967,11.023,-2.069,-3.374,19.0,93.0
156289,-0.076,0.365,0.945,5.954,-1.511,0.137,20.0,97.0
156333,-0.090,0.361,0.936,-4.527,-0.137,0.214,20.0,57.0
156379,-0.094,0.308,0.970,-10.557,-0.061,0.107,22.0,97.0
156425,-0.094,0.275,0.974,-5.573,0.061,0.550,19.0,93.0
156472,-0.092,0.295,0.955,1.725,-0.496,0.336,19.0,93.0
156518,-0.092,0.314,0.955,0.496,-0.618,0.611,19.0,97.0
156567,-0.089,0.311,0.955,0.275,-0.450,0.473,19.0,96.0
156613,-0.091,0.311,0.958,-1.840,-0.267,0.267,19.0,94.0
156660,-0.094,0.307,0.963,-2.252,-0.397,0.145,19.0,94.0
156706,-0.091,0.302,0.963,-1.901,-0.366,0.229,19.0,93.0
156750,-0.096,0.295,0.970,-2.053,-0.588,0.298,19.0,58.0
156794,-0.094,0.315,0.957,-0.672,-0.450,0.366,19.0,58.0
156839,-0.090,0.301,0.959,-1.359,-0.588,0.298,19.0,58.0
156886,-0.093,0.301,0.966,-1.763,-0.328,0.328,19.0,94.0
156932,-0.099,0.301,0.967,-0.832,-0.740,0.053,20.0,94.0
156982,-0.085,0.313,0.962,-1.305,-0.237,0.252,20.0,94.0
157028,-0.091,0.299,0.967,-2.046,-0.389,0.053,20.0,94.0
157074,-0.091,0.301,0.966,-2.824,-0.290,0.053,20.0,94.0
157119,-0.094,0.303,0.968,-0.634,-0.565,0.435,19.0,57.0
157163,-0.090,0.310,0.961,-2.351,-0.061,0.443,19.0,57.0
157207,-0.092,0.287,0.968,-0.595,-0.687,-0.145,19.0,57.0
157254,-0.092,0.313,0.949,-3.137,0.031,0.718,19.0,94.0
157300,-0.086,0.285,0.974,-3.038,-0.252,0.412,19.0,94.0
157347,-0.094,0.308,0.948,-3.443,0.130,0.534,19.0,93.0
157396,-0.096,0.299,0.966,-11.542,0.664,1.260,19.0,94.0
157441,-0.090,0.276,0.972,-5.748,0.374,1.069,20.0,57.0
157486,-0.103,0.276,0.970,-6.885,0.206,1.198,19.0,57.0
157530,-0.096,0.263,0.975,-0.641,-0.366,0.893,19.0,57.0
157576,-0.098,0.283,0.970,-0.863,-0.260,0.618,19.0,93.0
157623,-0.098,0.277,0.977,-0.145,-0.504,0.534,19.0,94.0
157669,-0.098,0.282,0.963,-0.870,-0.252,0.290,19.0,94.0
157715,-0.099,0.291,0.964,-3.779,0.092,1.107,19.0,94.0
157762,-0.097,0.266,0.972,-3.069,-0.046,0.664,20.0,94.0
157811,-0.100,0.264,0.975,-1.718,-0.618,0.076,19.0,94.0
157858,-0.105,0.275,0.957,1.275,-0.443,0.313,19.0,94.0
157902,-0.097,0.279,0.981,-1.771,-0.489,0.267,19.0,59.0
157949,-0.097,0.276,0.958,-3.977,-0.168,0.580,19.0,94.0
157996,-0.103,0.276,0.969,-5.145,0.229,1.321,19.0,94.0
158043,-0.098,0.273,0.971,-6.412,0.313,0.947,19.0,94.0
158089,-0.100,0.271,0.978,-9.168,0.061,0.733,18.0,94.0
158136,-0.097,0.249,0.972,-5.908,-0.397,0.435,19.0,93.0
158225,-0.100,0.256,0.969,-2.038,-0.069,0.618,19.0,93.0
158275,-0.099,0.247,0.974,-3.153,-0.351,0.748,19.0,93.0
158319,-0.092,0.240,0.976,-0.511,-0.702,-0.176,20.0,51.0
158366,-0.105,0.259,0.976,-1.969,-0.344,0.351,20.0,93.0
158410,-0.099,0.239,0.982,-0.908,-0.840,-0.046,20.0,51.0
158457,-0.096,0.238,0.972,-2.206,-0.542,-0.023,18.0,94.0
158503,-0.101,0.239,0.984,-0.405,-0.702,-0.115,18.0,94.0
158547,-0.102,0.258,0.973,-0.802,-0.443,-0.031,19.0,51.0
158595,-0.101,0.247,0.982,-1.588,-0.603,0.061,18.0,94.0
158641,-0.107,0.236,0.981,0.870,-0.901,-0.115,18.0,93.0
158689,-0.102,0.243,0.986,0.321,-0.855,0.122,20.0,51.0
158735,-0.102,0.252,0.968,-0.221,-0.962,-0.427,19.0,94.0
158782,-0.096,0.258,0.969,-0.412,-0.824,-0.076,19.0,93.0
158828,-0.100,0.249,0.974,-1.305,-0.679,0.344,19.0,93.0
158875,-0.104,0.247,0.981,-0.191,-0.634,0.107,19.0,93.0
158921,-0.097,0.253,0.980,0.527,-0.802,0.015,19.0,94.0
158968,-0.106,0.247,0.983,-0.756,-0.718,0.115,19.0,94.0
159015,-0.097,0.253,0.971,0.458,-0.725,0.267,19.0,93.0
159062,-0.101,0.240,0.983,1.153,-0.901,-0.031,19.0,94.0
159127,-0.096,0.263,0.978,-1.565,-0.664,-0.038,18.0,94.0
159173,-0.095,0.250,0.965,-0.580,-0.504,-0.221,19.0,93.0
159216,-0.101,0.250,0.988,-1.290,-0.794,0.015,19.0,57.0
159262,-0.100,0.247,0.977,0.160,-0.748,-0.122,19.0,94.0
159308,-0.097,0.262,0.978,-1.153,-0.786,0.321,19.0,93.0
159353,-0.095,0.250,0.975,-0.916,-0.809,0.031,19.0,93.0
159399,-0.089,0.248,0.974,-0.527,-0.603,0.092,19.0,93.0
159442,-0.101,0.254,0.979,0.565,-0.847,-0.092,19.0,57.0
159489,-0.094,0.264,0.973,-1.122,-0.534,-0.069,19.0,94.0
159538,-0.099,0.243,0.977,-1.237,-0.870,-0.282,19.0,94.0
159583,-0.097,0.260,0.988,-0.603,-0.527,0.160,19.0,93.0
159629,-0.103,0.241,0.985,0.412,-0.847,0.237,19.0,93.0
159673,-0.094,0.264,0.976,0.924,-0.733,0.160,19.0,58.0
159718,-0.103,0.244,0.996,-0.435,-0.611,1.267,19.0,93.0
159764,-0.090,0.260,0.960,3.267,-0.573,0.595,19.0,93.0
159810,-0.108,0.241,1.013,1.038,-2.092,1.000,19.0,93.0
159856,-0.108,0.234,1.017,12.901,-4.969,2.588,19.0,93.0
159899,-0.121,0.207,1.145,38.397,-17.496,-1.901,20.0,50.0
159946,-0.057,0.504,1.033,70.473,-22.580,6.221,22.0,57.0
159989,-0.070,0.647,1.123,-1.855,-32.412,17.573,20.0,50.0
160041,-0.101,0.521,1.409,-1.733,-52.870,22.229,21.0,0.0
160100,-0.097,0.571,1.348,-0.969,-94.076,66.832,0.0,122.0
160145,-0.034,0.396,1.269,-9.931,-131.244,77.618,36.0,57.0
160191,0.041,0.368,1.152,-3.557,-150.634,87.901,66.0,47.0
160237,0.146,0.307,1.017,-5.275,-163.496,89.588,64.0,45.0
160282,0.204,0.257,0.865,-19.817,-167.321,90.977,62.0,46.0
160328,0.312,0.149,0.751,-15.244,-169.779,82.168,61.0,45.0
160377,0.402,0.129,0.533,-25.786,-163.947,78.931,60.0,47.0
160422,0.602,0.021,0.408,-31.756,-150.267,66.389,59.0,42.0
160467,0.687,0.016,0.290,-41.756,-134.969,52.282,58.0,43.0
160514,0.727,-0.030,0.190,-62.870,-127.031,42.557,57.0,46.0
160603,0.768,-0.136,0.049,-20.649,-125.977,22.611,57.0,49.0
160649,0.848,-0.121,-0.093,-15.328,-119.733,8.137,57.0,52.0
160695,0.845,-0.179,-0.175,-6.008,-106.443,-3.580,58.0,56.0
160742,0.863,-0.188,-0.248,15.542,-93.076,-9.649,60.0,70.0
160799,0.819,-0.058,-0.365,-12.145,-86.252,-16.313,164.0,86.0
160847,0.805,-0.120,-0.396,-14.771,-80.855,-17.076,60.0,88.0
160896,0.867,-0.097,-0.436,-9.809,-78.008,-20.733,58.0,90.0
160944,0.826,-0.045,-0.479,0.901,-74.382,-22.573,57.0,98.0
160993,0.793,0.030,-0.471,-7.130,-76.832,-30.267,57.0,97.0
161041,0.746,0.049,-0.481,-1.664,-80.481,-26.069,58.0,96.0
161089,0.715,0.163,-0.554,3.305,-87.595,-23.206,54.0,94.0
161137,0.661,0.212,-0.646,-10.053,-90.374,-14.000,55.0,94.0
161186,0.604,0.241,-0.720,-17.611,-84.504,-0.740,56.0,98.0
161238,0.571,0.259,-0.825,-51.176,-76.328,0.695,59.0,99.0
161286,0.426,-0.011,-0.792,-37.290,-83.580,8.786,53.0,98.0
161335,0.434,-0.001,-0.997,26.893,-93.542,18.229,51.0,101.0
161383,0.424,0.048,-1.109,46.611,-85.939,14.817,51.0,100.0
161431,0.354,-0.062,-1.184,45.053,-67.962,38.679,46.0,105.0
161480,0.314,-0.052,-1.177,17.794,-48.641,41.198,43.0,106.0
161528,0.373,-0.272,-1.076,17.802,-36.519,15.397,41.0,106.0
161576,0.304,-0.124,-1.091,20.817,-21.832,3.641,46.0,106.0
161633,0.231,-0.104,-1.007,-11.214,-18.710,2.328,151.0,75.0
161681,0.263,-0.108,-0.949,-9.634,-18.733,-0.740,40.0,107.0
161733,0.200,-0.097,-0.980,1.015,-29.802,-6.229,152.0,74.0
161782,0.271,-0.067,-1.063,-8.718,-25.275,-5.023,43.0,107.0
161835,0.244,-0.079,-1.040,4.130,-16.870,-5.466,152.0,75.0
161888,0.220,-0.007,-1.079,0.733,-12.802,-6.008,152.0,74.0
161937,0.218,-0.020,-1.041,-3.412,-6.740,-2.977,48.0,106.0
161985,0.259,0.004,-1.034,0.321,-4.344,0.130,48.0,106.0
162034,0.196,-0.006,-1.025,-8.145,-1.687,-1.588,45.0,106.0
162084,0.177,-0.040,-0.989,0.298,-0.664,4.809,44.0,100.0
162134,0.169,-0.044,-0.991,4.878,-3.573,9.298,50.0,100.0
162182,0.208,-0.071,-1.009,-5.702,-2.725,6.313,48.0,99.0
162230,0.159,-0.096,-0.994,5.305,-2.656,2.794,48.0,99.0
162278,0.177,-0.075,-1.006,1.496,-2.496,1.565,46.0,99.0
162326,0.171,-0.099,-0.979,0.756,-2.061,0.137,48.0,101.0
162374,0.186,-0.066,-0.968,6.328,-2.641,-1.725,47.0,102.0
162423,0.162,-0.041,-0.984,-2.565,-5.137,-2.534,46.0,106.0
162471,0.199,-0.053,-0.966,2.687,-5.336,-2.183,47.0,99.0
162523,0.176,-0.029,-1.008,-0.412,-5.878,-3.290,46.0,98.0
162571,0.169,-0.065,-1.027,3.924,-5.053,-4.405,47.0,99.0
162619,0.156,-0.049,-1.038,10.397,-3.588,5.466,46.0,99.0
162668,0.201,-0.044,-1.053,-8.756,2.000,0.679,48.0,99.0
162716,0.157,-0.096,-0.999,-8.046,4.214,0.527,48.0,98.0
162764,0.175,-0.076,-0.995,0.420,3.565,-3.504,49.0,98.0
162812,0.170,-0.063,-0.993,-7.771,2.802,-2.878,50.0,99.0
162867,0.164,-0.084,-0.983,-4.359,3.336,-3.710,153.0,99.0
162924,0.193,-0.050,-0.976,0.679,0.290,-4.168,153.0,98.0
162977,0.170,-0.050,-1.011,-2.855,0.321,-4.641,153.0,75.0
163031,0.182,-0.052,-1.004,-5.786,1.634,-3.893,154.0,73.0
163127,0.178,-0.035,-1.007,-1.420,2.214,-5.115,154.0,73.0
163176,0.184,-0.073,-1.029,1.466,-0.656,-6.595,52.0,99.0
163224,0.186,-0.061,-1.080,11.092,3.641,-1.450,50.0,98.0
163273,0.191,-0.084,-1.116,-10.626,14.870,-5.015,48.0,104.0
163326,0.195,-0.207,-1.058,-28.084,23.672,-10.618,155.0,72.0
163376,0.186,-0.217,-1.023,-17.397,29.992,-32.893,48.0,103.0
163428,0.174,-0.180,-1.032,-31.191,34.618,-47.695,51.0,101.0
163476,0.242,-0.145,-0.966,-20.267,39.290,-61.687,52.0,93.0
163524,0.267,-0.079,-0.906,2.053,35.290,-74.710,56.0,87.0
163572,0.243,0.135,-0.947,-6.092,34.885,-82.359,60.0,83.0
163621,0.292,0.223,-0.901,-65.992,39.000,-80.359,66.0,80.0
163676,0.292,0.200,-0.803,-83.115,41.885,-71.924,172.0,78.0
163730,0.239,0.161,-0.793,-48.496,30.450,-57.160,176.0,75.0
163785,0.177,0.036,-0.876,86.893,7.489,-17.458,179.0,83.0
163845,0.396,0.572,-1.160,108.718,21.947,-7.611,198.0,70.0
163900,0.471,0.238,-0.996,-30.618,26.626,-38.489,0.0,74.0
163959,0.528,0.274,-0.839,-6.511,42.313,-77.702,0.0,121.0
164018,0.335,0.310,-0.732,-14.710,31.962,-97.061,0.0,112.0
164075,0.325,0.292,-0.662,33.542,12.092,-84.435,0.0,106.0
164133,0.431,0.540,-0.746,49.275,-9.237,-73.573,0.0,106.0
164182,0.324,0.528,-0.827,16.015,-14.427,-54.794,113.0,36.0
164234,0.432,0.561,-0.888,-5.099,-12.405,-39.015,116.0,88.0
164283,0.434,0.530,-0.915,-32.901,-1.092,-43.718,119.0,35.0
164335,0.381,0.468,-0.889,-13.153,6.511,-40.565,121.0,34.0
164391,0.323,0.510,-0.907,-14.893,4.473,-36.382,116.0,149.0
164447,0.308,0.428,-0.812,2.267,3.527,-19.107,116.0,148.0
164496,0.291,0.486,-0.859,-18.244,2.687,-2.931,117.0,32.0
164544,0.318,0.420,-0.787,-32.344,5.000,1.382,117.0,32.0
164593,0.409,0.430,-0.785,-20.748,-2.252,-12.328,118.0,38.0
164645,0.347,0.451,-0.817,-2.206,-7.573,-22.603,118.0,84.0
164698,0.316,0.555,-0.895,3.015,-6.603,-25.679,118.0,84.0
164750,0.298,0.547,-0.865,-22.008,2.931,-20.061,118.0,84.0
164809,0.264,0.447,-0.787,-12.382,-1.427,-10.939,119.0,157.0
164866,0.271,0.541,-0.847,-4.771,-2.496,-11.206,118.0,157.0
164922,0.327,0.517,-0.800,5.282,-2.916,-19.756,119.0,157.0
164978,0.256,0.553,-0.836,-13.855,-1.489,-28.878,119.0,157.0
165035,0.287,0.627,-0.871,-27.214,-0.221,-28.359,120.0,157.0
165091,0.180,0.625,-0.832,-17.794,6.481,-13.863,120.0,157.0
165150,0.179,0.624,-0.772,-16.626,-0.023,4.916,121.0,0.0
165207,0.242,0.614,-0.758,0.481,2.466,22.153,121.0,157.0
165266,0.332,0.738,-0.858,10.885,4.878,16.748,121.0,156.0
165322,0.264,0.565,-0.801,-12.725,1.481,7.229,124.0,157.0
165384,0.287,0.692,-0.881,7.779,9.733,18.405,0.0,156.0
165444,0.347,0.674,-0.934,-16.641,14.443,19.885,0.0,156.0
165500,0.334,0.653,-0.917,-20.802,30.313,24.366,121.0,158.0
165561,0.372,0.729,-0.879,-63.542,46.328,35.290,177.0,159.0
165625,0.451,0.771,-0.781,-35.435,49.954,55.725,175.0,160.0
165688,0.491,0.888,-0.775,-111.931,71.534,64.702,0.0,0.0
165742,0.534,0.708,-0.519,-137.099,78.191,77.115,0.0,57.0
165800,0.578,0.744,-0.433,-151.076,77.901,80.130,0.0,70.0