Timestamp(ms),AccelX(g),AccelY(g),AccelZ(g),GyroX(deg/s),GyroY(deg/s),GyroZ(deg/s),DistanceLeft(cm),DistanceRight(cm)
228384,0.574,-0.324,-0.763,-4.000,-10.359,4.176,143.0,123.0
228440,0.564,-0.380,-0.752,-0.664,-8.962,4.252,143.0,122.0
228498,0.554,-0.317,-0.798,1.565,-8.000,4.649,143.0,164.0
228555,0.544,-0.379,-0.763,5.069,-6.992,3.954,143.0,161.0
228615,0.560,-0.382,-0.779,-7.977,-4.550,0.985,143.0,136.0
228671,0.542,-0.338,-0.788,4.046,-3.496,1.076,143.0,135.0
228727,0.531,-0.384,-0.779,-2.053,-1.748,0.435,143.0,135.0
228784,0.526,-0.353,-0.798,3.718,-1.061,0.672,143.0,135.0
228840,0.556,-0.378,-0.788,0.756,0.527,-0.771,142.0,135.0
228896,0.544,-0.370,-0.774,0.702,1.679,-1.618,142.0,135.0
228953,0.542,-0.372,-0.765,2.924,2.275,-1.947,142.0,136.0
229011,0.559,-0.360,-0.771,0.802,3.122,-1.221,143.0,160.0
229072,0.568,-0.376,-0.783,4.634,4.992,-3.840,143.0,163.0
229128,0.639,-0.469,-0.781,14.031,15.763,-8.382,143.0,122.0
229188,0.674,-0.420,-0.854,20.176,35.046,-19.000,143.0,0.0
229239,0.675,-0.518,-0.738,37.824,64.763,-33.763,37.0,157.0
229297,0.715,-0.297,-0.795,26.267,74.977,-41.099,143.0,156.0
229353,0.651,-0.560,-0.636,108.191,94.198,-34.427,144.0,129.0
229409,0.788,-0.138,-0.567,-29.374,98.069,-54.122,145.0,129.0
229466,0.820,-0.664,-0.245,74.176,109.092,-20.641,145.0,125.0
229521,0.867,-0.113,-0.281,0.443,98.656,-30.534,145.0,106.0
229578,0.836,-0.277,-0.108,50.321,78.099,-26.145,146.0,83.0
229633,0.933,-0.092,-0.058,-48.466,60.802,-36.160,146.0,104.0
229687,0.904,-0.271,0.052,-27.542,45.908,-19.870,146.0,81.0
229740,0.902,-0.192,-0.004,-24.809,31.107,-15.344,145.0,81.0
229793,0.943,-0.278,0.071,-10.206,12.084,-5.901,145.0,81.0
229853,0.967,-0.187,-0.026,5.885,-0.649,-2.359,145.0,81.0
229905,0.980,-0.210,-0.048,-0.252,0.565,-3.824,144.0,81.0
229957,0.976,-0.199,-0.041,-19.710,2.992,4.649,144.0,81.0
230012,0.985,-0.257,-0.031,-34.832,2.809,4.137,144.0,82.0
230065,0.989,-0.307,0.002,-5.061,4.893,2.351,144.0,82.0
230117,0.967,-0.237,0.010,15.985,-0.458,7.763,143.0,82.0
230170,0.960,-0.235,0.003,5.550,-1.076,6.656,144.0,82.0
230222,0.990,-0.199,-0.002,-5.771,0.511,5.511,144.0,82.0
230275,0.994,-0.268,0.020,-12.916,1.901,-2.191,143.0,82.0
230327,0.961,-0.224,-0.004,-5.374,1.275,0.282,143.0,83.0
230373,0.976,-0.245,-0.002,-9.641,-0.038,-2.840,17.0,83.0
230418,0.975,-0.231,0.000,-9.206,-0.328,1.947,16.0,83.0
230472,0.978,-0.235,-0.006,-11.748,0.954,2.985,143.0,82.0
230518,0.963,-0.261,0.007,-5.229,-0.733,6.809,16.0,83.0
230563,1.000,-0.240,-0.026,-5.443,-1.053,5.702,19.0,84.0
230608,0.993,-0.251,-0.000,-8.824,0.595,1.023,16.0,84.0
230653,0.975,-0.260,-0.007,-3.366,0.832,3.252,16.0,84.0
230699,0.974,-0.225,-0.009,-8.748,0.511,1.710,17.0,85.0
230745,0.969,-0.267,0.013,-11.023,-0.771,5.580,17.0,85.0
230790,0.963,-0.289,0.020,4.260,-1.611,4.099,16.0,85.0
230835,0.977,-0.245,0.001,9.328,-2.802,6.763,17.0,85.0
230883,0.979,-0.252,-0.018,2.718,-2.992,3.649,17.0,85.0
230928,0.971,-0.257,-0.022,-3.069,-1.748,4.901,16.0,86.0
230974,0.966,-0.266,-0.025,-8.496,-1.038,2.992,17.0,86.0
231062,0.973,-0.335,-0.024,-11.817,0.305,-2.107,10.0,86.0
231107,0.948,-0.276,-0.041,-3.450,1.061,-0.542,10.0,86.0
231153,0.961,-0.260,-0.031,-13.313,-0.977,1.962,12.0,87.0
231198,0.976,-0.295,-0.018,-7.473,-0.107,0.855,17.0,88.0
231251,0.977,-0.275,-0.020,-2.565,1.099,1.733,141.0,89.0
231297,0.972,-0.281,-0.021,0.046,0.863,-0.603,11.0,88.0
231345,0.951,-0.262,-0.028,-0.733,0.351,1.031,11.0,88.0
231390,0.974,-0.293,-0.002,-7.824,0.733,-1.046,10.0,88.0
231435,0.963,-0.335,0.008,2.122,0.718,-1.489,10.0,88.0
231480,0.953,-0.288,-0.013,2.221,-0.885,-3.023,10.0,87.0
231526,0.965,-0.341,-0.011,-2.824,-0.336,-8.710,12.0,88.0
231571,0.931,-0.366,-0.013,-6.458,-0.550,-10.214,17.0,86.0
231624,0.930,-0.400,0.009,-9.084,-1.397,-19.809,143.0,85.0
231669,0.922,-0.411,-0.007,-5.580,-2.718,-30.962,17.0,84.0
231716,0.916,-0.398,-0.025,0.511,-4.557,-39.603,19.0,106.0
231774,0.927,-0.340,-0.038,-2.466,-4.519,-52.885,147.0,103.0
231828,0.912,-0.333,-0.037,-11.336,-2.405,-66.779,150.0,100.0
231876,0.864,-0.258,-0.072,-16.893,1.466,-84.756,37.0,99.0
231930,0.764,-0.168,-0.096,-33.084,6.107,-93.206,158.0,109.0
231980,0.835,-0.052,-0.068,-45.603,25.634,-121.214,50.0,104.0
232029,0.749,0.114,-0.033,-62.817,45.473,-152.282,60.0,98.0
232085,0.691,0.365,0.035,-71.015,56.672,-146.550,0.0,91.0
232141,0.557,0.557,0.241,-45.954,48.748,-140.191,0.0,85.0
232201,0.563,0.885,0.258,-4.962,26.611,-86.351,0.0,83.0
232258,0.672,0.918,0.310,-26.321,30.962,-81.252,0.0,105.0
232321,0.566,0.944,0.374,-69.366,48.191,-102.756,0.0,0.0
232383,0.498,1.081,0.544,-54.855,50.412,-99.038,0.0,0.0
232446,0.377,1.104,0.459,-101.656,44.206,-57.992,0.0,0.0
232509,0.436,0.661,0.630,-73.511,36.573,-34.580,0.0,0.0
232566,0.478,0.771,0.641,-56.588,43.183,-41.275,0.0,96.0
232623,0.334,0.779,0.641,11.809,43.901,-47.450,0.0,94.0
232685,0.177,0.931,0.694,-26.527,38.015,-35.397,0.0,0.0
232752,0.194,0.759,0.783,8.405,16.847,0.847,0.0,0.0
232814,0.259,0.863,0.668,7.649,21.023,-2.710,0.0,0.0
232877,0.213,0.676,0.706,15.046,29.672,-15.053,0.0,0.0
232940,0.116,0.639,0.725,7.725,26.962,-25.168,0.0,0.0
233003,0.037,0.724,0.685,-6.550,23.527,-23.183,0.0,0.0
233059,0.040,0.734,0.707,-20.382,14.977,-14.611,87.0,0.0
233115,0.068,0.672,0.754,-0.252,15.275,-16.008,86.0,0.0
233170,0.035,0.765,0.701,3.229,14.977,-25.252,59.0,0.0
233225,-0.002,0.800,0.634,-10.221,18.092,-24.260,60.0,0.0
233283,-0.035,0.720,0.691,20.740,18.550,-14.740,60.0,0.0
233339,-0.052,1.456,1.043,-73.939,0.275,2.695,88.0,0.0
233396,-0.026,0.536,0.706,54.534,2.160,10.809,89.0,0.0
233452,-0.080,0.961,0.480,10.466,-3.656,10.244,89.0,0.0
233516,-0.032,0.561,0.891,-31.916,2.779,0.557,0.0,0.0
233578,-0.049,0.710,0.667,35.374,-7.382,9.733,0.0,0.0
233641,0.017,0.786,0.698,16.191,-3.985,1.763,0.0,0.0
233704,-0.021,0.792,0.657,14.687,-5.672,1.214,0.0,0.0
233767,-0.008,0.780,0.650,5.282,-1.687,-1.038,0.0,0.0
233876,-0.018,0.792,0.657,-0.237,0.473,-1.527,0.0,0.0
233939,-0.009,0.789,0.650,0.504,-0.641,-0.038,0.0,0.0
234002,-0.025,0.792,0.643,-1.878,0.107,-0.771,0.0,0.0
234065,-0.027,0.771,0.647,-2.695,0.611,-0.412,0.0,0.0
234128,-0.020,0.770,0.669,5.649,-1.550,0.443,0.0,0.0
234191,-0.010,0.803,0.632,6.374,-1.206,0.969,0.0,0.0
234254,-0.017,0.805,0.607,-0.176,-0.740,-0.015,0.0,0.0
234316,-0.025,0.784,0.635,-3.137,0.168,-0.710,0.0,0.0
234380,-0.019,0.788,0.645,1.611,-0.870,0.252,0.0,0.0
234442,-0.009,0.795,0.632,0.443,-0.672,0.328,0.0,0.0
234509,-0.023,0.790,0.632,-2.435,-0.412,-0.229,0.0,0.0
234571,-0.020,0.784,0.651,-0.809,-0.718,-0.076,0.0,0.0
234635,-0.018,0.789,0.637,1.206,-1.145,-0.023,0.0,0.0
234698,-0.028,0.793,0.639,-0.221,-0.916,-0.313,0.0,0.0
234761,-0.027,0.782,0.634,1.076,-0.748,0.328,0.0,0.0
234824,-0.017,0.788,0.650,4.695,-1.649,-0.023,0.0,0.0
234887,-0.004,0.821,0.621,2.924,-1.046,0.885,0.0,0.0
234950,-0.018,0.800,0.627,-1.885,-0.573,-0.603,0.0,0.0
235013,-0.017,0.784,0.638,-0.328,-0.618,0.328,0.0,0.0
235079,-0.019,0.809,0.619,0.573,-1.099,-0.053,0.0,0.0
235143,-0.022,0.792,0.637,3.359,-1.496,0.527,0.0,0.0
235205,-0.019,0.797,0.618,6.298,-2.008,0.695,0.0,0.0
235269,-0.013,0.802,0.609,2.313,-1.008,0.634,0.0,0.0
235325,-0.019,0.794,0.625,2.679,-1.244,0.275,91.0,0.0
235382,-0.013,0.804,0.614,3.870,-1.901,0.244,89.0,0.0
235439,-0.019,0.806,0.619,6.870,-2.000,0.603,90.0,0.0
235496,0.000,0.841,0.592,0.870,-0.466,0.282,91.0,0.0
235552,-0.010,0.816,0.599,-4.870,0.443,-0.672,90.0,0.0
235613,-0.013,0.812,0.613,-0.107,-0.840,-0.153,90.0,0.0
235669,-0.012,0.801,0.614,5.687,-1.473,-0.053,90.0,0.0
235724,-0.015,0.832,0.595,8.275,-1.832,1.359,61.0,0.0
235788,-0.005,0.836,0.584,4.550,-1.748,-0.076,0.0,0.0
235851,-0.006,0.854,0.567,-0.237,-1.244,-0.107,0.0,0.0
235914,-0.004,0.820,0.620,-1.115,-0.947,-1.611,0.0,0.0
235969,-0.027,0.839,0.610,-2.206,-2.366,-3.740,61.0,0.0
236024,-0.033,0.770,0.652,8.229,-5.115,-3.786,60.0,0.0
236080,-0.022,0.958,0.596,22.008,-9.298,9.504,63.0,0.0
236138,0.014,0.954,0.670,14.168,-14.634,9.824,61.0,0.0
236201,0.015,1.070,0.616,14.099,-19.863,22.519,0.0,0.0
236265,0.016,0.954,0.650,14.321,-28.458,33.489,0.0,0.0
236328,0.071,1.056,0.593,4.611,-36.092,47.321,0.0,0.0
236381,0.116,0.927,0.617,8.885,-44.580,56.809,0.0,16.0
236448,0.146,0.938,0.554,9.145,-51.931,66.893,0.0,0.0
236511,0.284,0.861,0.523,4.076,-52.534,65.443,0.0,0.0
236574,0.320,0.840,0.429,20.504,-56.649,72.206,0.0,0.0
236633,0.460,0.926,0.324,31.244,-52.481,85.031,0.0,104.0
236692,0.526,0.898,0.227,-8.412,-49.634,92.435,0.0,82.0
236750,0.551,0.677,0.228,-18.802,-45.130,96.473,0.0,101.0
236807,0.636,0.506,0.239,-4.855,-44.405,96.374,0.0,88.0
236864,0.719,0.410,0.198,22.359,-40.023,95.649,0.0,93.0
236965,0.803,0.318,0.161,1.794,-30.366,86.298,0.0,101.0
237016,0.829,0.129,0.132,18.000,-33.534,88.412,64.0,104.0
237065,0.911,0.109,0.071,39.053,-31.374,84.649,56.0,107.0
237120,0.969,-0.013,0.035,47.763,-24.374,72.870,50.0,109.0
237168,0.969,-0.044,0.021,68.046,-16.885,58.221,43.0,112.0
237219,1.010,-0.026,-0.014,72.489,-11.802,52.176,42.0,114.0
237275,0.945,-0.072,0.016,27.252,-9.695,44.008,155.0,114.0
237329,0.981,-0.057,0.027,18.924,-5.405,35.214,154.0,99.0
237382,0.992,-0.089,0.014,3.092,-4.511,30.725,153.0,100.0
237436,0.954,-0.178,0.037,-7.450,-3.939,26.588,152.0,101.0
237484,0.986,-0.166,0.021,1.802,-3.664,19.099,28.0,101.0
237531,0.966,-0.161,0.027,1.137,-5.527,15.733,27.0,101.0
237578,0.961,-0.176,0.041,-2.137,-6.748,18.534,30.0,103.0
237631,0.955,-0.217,0.039,9.916,-11.924,19.802,149.0,103.0
237688,0.997,-0.183,-0.005,13.427,-15.824,22.176,149.0,103.0
237743,0.950,-0.169,-0.047,2.695,-14.008,20.099,149.0,104.0
237797,0.967,-0.267,-0.020,9.031,-16.481,26.977,149.0,103.0
237844,0.904,-0.177,-0.104,10.695,-17.198,39.366,20.0,105.0
237890,1.013,-0.242,-0.072,7.550,-15.519,33.718,19.0,106.0
237945,0.878,-0.285,-0.118,-3.473,-20.389,44.107,148.0,131.0
238003,0.989,-0.380,-0.077,25.412,-17.099,34.168,148.0,151.0
238059,1.000,-0.355,-0.097,25.053,-16.473,22.985,147.0,152.0
238119,0.928,-0.347,-0.109,4.084,-12.557,20.885,147.0,152.0
238176,0.965,-0.374,-0.133,-4.260,-5.061,13.076,147.0,152.0
238233,0.980,-0.392,-0.117,-6.718,0.008,10.275,147.0,153.0
238290,0.879,-0.408,-0.128,-12.702,3.092,8.405,147.0,153.0
238347,0.910,-0.438,-0.125,-6.328,2.107,9.115,146.0,155.0
238404,0.914,-0.479,-0.116,-9.687,0.786,4.038,146.0,154.0
238461,0.896,-0.470,-0.107,2.511,3.588,-4.908,146.0,155.0
238518,0.876,-0.431,-0.113,-3.702,3.061,-8.809,146.0,155.0
238575,0.866,-0.436,-0.095,-4.015,-0.115,-2.962,145.0,155.0
238635,0.908,-0.393,-0.115,2.038,-2.260,2.435,145.0,155.0
238692,0.911,-0.424,-0.118,-3.840,-0.527,2.336,146.0,155.0
238749,0.917,-0.423,-0.112,1.649,0.740,2.672,146.0,155.0
238806,0.862,-0.401,-0.124,-2.885,-0.206,7.901,146.0,155.0
238863,0.856,-0.407,-0.110,-10.374,-1.466,15.000,145.0,157.0
238920,0.897,-0.440,-0.125,-9.137,-1.122,17.977,144.0,157.0
238978,0.858,-0.403,-0.126,-26.611,-3.252,22.038,145.0,157.0
239037,0.769,-0.429,-0.156,-32.664,-5.870,36.412,145.0,194.0
239102,0.861,-0.550,-0.143,-33.977,-9.626,35.840,0.0,0.0
239165,0.888,-0.667,-0.212,-33.000,-8.153,22.847,0.0,0.0
239228,0.841,-0.585,-0.204,-9.855,-7.702,16.802,0.0,0.0
239291,0.803,-0.611,-0.242,-27.344,3.756,5.076,0.0,0.0
239353,0.771,-0.600,-0.230,-0.092,3.076,7.687,0.0,0.0
239416,0.818,-0.619,-0.230,2.267,-2.267,1.588,0.0,0.0
239478,0.805,-0.561,-0.229,12.908,0.588,-1.389,0.0,0.0
239542,0.787,-0.519,-0.235,-1.832,0.496,-0.443,0.0,0.0
239604,0.814,-0.596,-0.208,-5.840,0.718,0.458,0.0,0.0
239670,0.790,-0.547,-0.230,-0.496,-0.351,1.656,0.0,0.0
239732,0.745,-0.565,-0.208,-11.260,-3.580,2.328,0.0,0.0
239839,0.793,-0.558,-0.247,-19.038,-8.962,19.031,0.0,0.0
239901,0.752,-0.601,-0.238,-5.527,-8.847,24.000,0.0,0.0
239964,0.792,-0.713,-0.257,-26.893,-2.962,1.977,0.0,0.0
240027,0.698,-0.575,-0.292,1.947,0.275,8.145,0.0,0.0
240090,0.757,-0.669,-0.290,-0.382,-4.931,8.145,0.0,0.0
240152,0.738,-0.616,-0.288,28.947,-5.908,10.061,0.0,0.0
240215,0.764,-0.586,-0.268,-0.130,-7.397,0.962,0.0,183.0
240280,0.752,-0.677,-0.249,1.901,-3.855,1.191,0.0,0.0
240343,0.744,-0.626,-0.259,13.931,-1.908,5.336,0.0,0.0
240396,0.704,-0.646,-0.253,8.237,-0.519,7.084,36.0,0.0
240450,0.701,-0.668,-0.242,11.015,-1.145,6.260,35.0,0.0
240503,0.693,-0.657,-0.241,16.305,-4.115,7.840,38.0,0.0
240557,0.702,-0.655,-0.243,21.817,-7.588,9.496,39.0,0.0
240620,0.736,-0.650,-0.230,12.626,-7.840,6.176,0.0,0.0
240683,0.725,-0.703,-0.212,14.107,-3.885,6.679,0.0,0.0
240736,0.665,-0.667,-0.193,9.702,-3.405,8.382,36.0,0.0
240802,0.619,-0.669,-0.196,5.023,-7.076,13.275,0.0,0.0
240856,0.638,-0.622,-0.203,-14.382,-9.939,15.786,39.0,0.0
240910,0.685,-0.638,-0.282,-34.076,-10.092,15.191,37.0,0.0
240972,0.710,-0.699,-0.256,-55.344,-6.687,5.885,0.0,0.0
241036,0.700,-0.760,-0.364,-64.916,-4.664,6.603,0.0,0.0
241088,0.675,-0.859,-0.326,-9.214,-4.435,4.290,37.0,178.0
241139,0.630,-0.761,-0.367,-8.290,-10.282,0.870,31.0,177.0
241193,0.608,-0.631,-0.404,18.237,-9.137,9.595,34.0,0.0
241247,0.615,-0.770,-0.338,5.626,-8.191,10.908,37.0,0.0
241303,0.633,-0.765,-0.364,26.908,-2.527,11.977,30.0,0.0
241356,0.630,-0.717,-0.350,31.878,-0.443,13.115,30.0,0.0
241410,0.623,-0.752,-0.337,18.908,2.099,7.893,31.0,0.0
241463,0.515,-0.754,-0.294,7.496,-0.557,4.076,29.0,0.0
241516,0.558,-0.749,-0.246,16.557,-5.565,2.733,30.0,0.0
241570,0.564,-0.643,-0.358,-4.992,-2.420,-3.046,32.0,0.0
241633,0.731,-0.782,-0.239,-20.809,-2.496,-12.733,0.0,0.0
241686,0.628,-0.698,-0.392,-53.008,16.344,-18.550,34.0,0.0
241738,0.728,-0.859,-0.305,-50.603,16.603,-25.519,30.0,177.0
241795,0.639,-0.716,-0.415,-22.947,9.931,-29.679,36.0,175.0
241847,0.702,-0.708,-0.327,-11.282,-3.443,-40.260,38.0,174.0
241899,0.646,-0.604,-0.375,-51.008,-15.725,-48.290,37.0,173.0
241951,0.644,-0.540,-0.340,-6.641,-31.519,-42.374,37.0,173.0
242011,0.631,-0.360,-0.438,-75.389,-52.519,-48.031,0.0,126.0
242069,0.635,-0.472,-0.392,-107.015,-67.809,-47.382,0.0,122.0
242128,0.669,-0.464,-0.575,-38.412,-89.802,-36.000,0.0,120.0
242187,0.682,-0.425,-0.691,-9.496,-73.557,-31.122,0.0,121.0
242248,0.654,-0.333,-0.822,-5.565,-48.031,-27.305,0.0,119.0
242308,0.537,-0.291,-0.843,-9.847,-22.427,-16.832,0.0,119.0
242365,0.534,-0.295,-0.810,-10.053,-8.718,-4.870,0.0,107.0
242424,0.523,-0.253,-0.801,-14.985,-7.756,3.008,0.0,119.0
242483,0.572,-0.256,-0.819,-5.397,-6.885,2.908,0.0,119.0
242539,0.567,-0.271,-0.840,2.099,-4.450,-0.992,0.0,90.0
242598,0.534,-0.284,-0.799,0.153,-2.588,-3.656,0.0,119.0
242657,0.545,-0.274,-0.807,0.053,-3.344,-5.252,0.0,119.0
242758,0.560,-0.297,-0.788,13.481,-4.267,-7.191,0.0,105.0
242820,0.550,-0.185,-0.865,4.221,-0.634,-3.557,0.0,118.0
242878,0.558,-0.283,-0.797,-7.046,4.275,1.847,0.0,118.0
242927,0.565,-0.224,-0.831,-10.519,1.962,1.824,30.0,118.0
242975,0.538,-0.299,-0.782,8.336,1.420,2.618,30.0,118.0
243034,0.570,-0.263,-0.815,-1.954,1.031,-0.863,0.0,118.0
243083,0.555,-0.282,-0.791,6.718,0.855,0.534,29.0,118.0
243141,0.559,-0.275,-0.789,1.695,0.015,0.076,0.0,117.0
243198,0.550,-0.280,-0.804,9.969,-1.282,0.137,0.0,104.0
243247,0.556,-0.302,-0.812,8.321,-0.290,-1.832,30.0,105.0
243299,0.575,-0.336,-0.849,17.763,7.878,-4.511,30.0,117.0
243348,0.544,-0.318,-0.865,21.924,20.023,-6.588,29.0,118.0
243396,0.533,-0.291,-0.820,19.115,30.740,-6.069,30.0,118.0
243446,0.554,-0.331,-0.833,33.626,40.252,-1.153,38.0,119.0
243495,0.685,-0.332,-0.834,29.015,57.321,-3.664,37.0,119.0
243545,0.652,-0.384,-0.771,34.282,78.611,-6.374,33.0,123.0
243598,0.665,-0.396,-0.685,47.092,93.573,-6.763,34.0,194.0
243651,0.638,-0.328,-0.629,40.664,104.260,-3.420,35.0,190.0
243705,0.736,-0.327,-0.535,9.229,117.092,-7.603,37.0,0.0
243755,0.708,-0.498,-0.380,52.321,127.924,2.840,37.0,152.0
243809,0.719,-0.254,-0.357,3.786,136.840,-0.084,39.0,0.0
243863,0.634,-0.427,-0.162,31.252,137.321,1.542,163.0,80.0
243920,0.561,-0.324,-0.137,10.977,132.916,9.565,166.0,127.0
243974,0.674,-0.342,0.023,10.580,151.466,-3.656,169.0,59.0
244021,0.578,-0.501,0.320,48.244,159.290,-8.840,51.0,55.0
244071,0.479,-0.436,0.449,121.679,157.863,-29.099,117.0,51.0
244121,0.641,-0.176,0.805,146.489,153.580,-63.481,120.0,49.0
244170,0.571,0.064,1.033,108.802,168.939,-58.359,51.0,48.0
244216,0.407,0.045,1.219,53.038,159.000,-65.107,56.0,46.0
244263,0.241,0.100,1.255,65.206,126.886,-58.069,63.0,48.0
244320,0.076,0.050,1.252,77.595,70.672,-46.504,131.0,50.0
244371,0.244,0.325,1.066,89.634,33.198,-8.450,163.0,48.0
244415,0.275,0.242,0.947,53.794,22.282,-16.702,37.0,46.0
244459,0.383,0.403,0.942,17.878,48.870,-11.023,35.0,47.0
244503,0.229,0.262,0.950,-23.870,55.618,-16.557,21.0,61.0
244546,0.189,0.207,1.028,-11.351,58.168,-17.313,19.0,47.0
244596,0.014,0.181,1.044,-6.504,50.191,-13.298,18.0,114.0
244642,-0.016,0.276,1.061,20.748,30.740,-4.450,18.0,97.0
244689,0.251,0.266,1.262,-12.153,35.710,-5.115,17.0,114.0
244733,-0.108,0.113,1.031,-29.382,24.992,-25.893,17.0,57.0
244776,-0.049,0.143,1.011,-5.649,16.168,-7.160,18.0,52.0
244819,0.016,0.242,0.937,-9.313,22.336,-13.687,17.0,51.0
244864,0.001,0.159,0.991,-24.069,26.763,-16.015,17.0,50.0
244910,-0.099,0.174,1.190,16.252,13.786,-0.427,17.0,95.0
244958,-0.095,0.335,1.034,-9.084,-3.763,4.000,17.0,95.0
245002,-0.028,0.152,0.967,-14.351,-4.687,4.878,18.0,51.0
245045,-0.014,0.150,0.961,-12.733,2.305,1.023,16.0,50.0
245088,-0.042,0.079,1.025,-4.252,3.664,-2.924,18.0,50.0
245131,-0.062,0.155,1.005,5.321,2.733,-1.313,16.0,50.0
245175,-0.070,0.167,1.021,6.992,0.412,-2.573,17.0,50.0
245264,-0.053,0.189,0.997,-1.290,-0.053,-0.328,17.0,95.0
245310,-0.062,0.167,0.990,1.733,-0.290,-0.290,17.0,95.0
245356,-0.058,0.179,1.019,-1.160,0.023,-0.053,17.0,95.0
245404,-0.051,0.179,0.993,3.214,-0.634,-0.351,17.0,95.0
245450,-0.053,0.178,0.987,1.420,0.069,0.145,17.0,95.0
245496,-0.060,0.178,1.000,2.511,0.038,-0.496,18.0,96.0
245542,-0.057,0.186,0.999,1.069,0.382,0.290,18.0,96.0
245588,-0.061,0.193,0.993,0.420,0.130,0.420,17.0,96.0
245635,-0.050,0.185,1.004,-0.397,0.031,0.115,17.0,96.0
245681,-0.056,0.172,1.007,2.275,-0.176,-0.099,17.0,96.0
245726,-0.049,0.129,1.018,13.481,-0.176,-1.206,17.0,95.0
245770,-0.064,0.116,0.995,41.221,-0.061,-2.863,18.0,51.0
245814,-0.058,0.328,0.970,21.099,-0.290,-2.481,18.0,51.0
245860,-0.071,0.289,0.974,14.992,-1.611,-0.901,17.0,51.0
245903,-0.046,0.350,0.944,-5.275,-0.107,0.244,17.0,51.0
245947,-0.062,0.238,0.984,-10.687,0.191,0.374,18.0,51.0
245991,-0.062,0.228,0.992,-6.855,0.275,0.695,17.0,51.0
246034,-0.068,0.205,0.991,1.176,-0.847,-0.298,19.0,51.0
246078,-0.063,0.246,0.971,5.725,-0.626,-0.229,17.0,51.0
246121,-0.059,0.268,0.976,4.473,-0.641,-0.183,18.0,51.0
246165,-0.064,0.258,0.973,2.954,-0.466,-0.275,18.0,51.0
246208,-0.064,0.263,0.970,2.511,-0.542,-0.069,17.0,51.0
246250,-0.059,0.262,0.974,1.511,-0.687,-0.053,17.0,51.0
246293,-0.063,0.262,0.974,2.802,-0.771,-0.275,18.0,52.0
246337,-0.058,0.275,0.976,-1.573,-0.473,-0.015,18.0,51.0
246381,-0.064,0.267,0.979,-1.977,-0.550,0.145,18.0,51.0
246424,-0.065,0.252,0.973,-0.603,-0.427,0.008,18.0,51.0
246468,-0.071,0.260,0.982,-0.076,-0.664,0.053,18.0,52.0
246511,-0.058,0.258,0.970,1.328,-0.588,0.130,18.0,51.0
246555,-0.061,0.260,0.979,1.550,-0.550,-0.443,18.0,51.0
246602,-0.062,0.244,0.979,7.550,-0.573,-0.664,18.0,51.0
246645,-0.064,0.289,0.961,11.237,-0.756,0.153,18.0,51.0
246689,-0.066,0.311,0.970,-0.702,-0.634,-0.504,18.0,51.0
246733,-0.049,0.298,0.956,-3.809,-0.122,0.298,18.0,51.0
246776,-0.072,0.260,0.979,-3.176,-0.298,0.000,18.0,51.0
246820,-0.072,0.263,0.983,0.221,-0.847,0.275,18.0,51.0
246864,-0.066,0.283,0.977,2.389,-0.893,-0.145,18.0,51.0
246907,-0.063,0.274,0.975,3.198,-0.603,-0.313,18.0,52.0
246951,-0.065,0.253,0.985,8.885,-0.977,-0.756,19.0,51.0
246999,-0.060,0.326,0.950,12.489,-1.260,0.321,18.0,52.0
247043,-0.071,0.330,0.955,0.534,-0.847,-0.336,19.0,51.0
247087,-0.055,0.313,0.959,-1.756,-0.092,0.092,19.0,51.0
247130,-0.068,0.280,0.981,-3.084,-0.382,-0.076,18.0,51.0
247174,-0.068,0.283,0.961,1.679,-0.397,-0.008,18.0,51.0
247218,-0.062,0.307,0.966,2.366,-0.702,-0.122,19.0,51.0
247262,-0.058,0.309,0.961,1.084,-0.656,-0.176,18.0,51.0
247306,-0.062,0.313,0.966,-0.145,-0.366,0.466,18.0,51.0
247349,-0.068,0.298,0.967,0.802,-0.527,0.267,18.0,51.0
247396,-0.063,0.325,0.958,-0.672,-0.061,0.573,18.0,51.0
247440,-0.067,0.280,0.973,-2.557,-0.702,0.954,18.0,51.0
247527,-0.064,0.332,0.949,3.176,-0.809,0.511,19.0,50.0
247571,-0.057,0.301,0.975,8.611,-1.328,0.191,20.0,51.0
247615,-0.064,0.385,0.948,-4.603,-0.718,1.305,19.0,51.0
247659,-0.060,0.258,1.081,9.779,-3.122,-0.351,19.0,51.0
247703,-0.100,0.425,0.982,8.832,-3.321,-0.634,18.0,52.0
247747,-0.068,0.344,1.096,-12.740,-11.710,2.153,19.0,52.0
247793,-0.104,0.383,1.223,-10.634,-23.115,7.328,20.0,94.0
247860,-0.105,0.497,1.227,-17.756,-49.115,14.557,0.0,51.0
247911,-0.027,0.398,1.249,-38.626,-74.382,30.901,136.0,50.0
247956,0.040,0.380,1.194,-36.565,-91.344,36.908,36.0,51.0
248006,0.121,0.367,1.156,-47.282,-100.611,37.947,134.0,46.0
248053,0.119,0.252,1.069,-46.855,-114.427,39.359,69.0,44.0
248099,0.187,0.230,0.975,-49.771,-122.176,47.840,65.0,45.0
248145,0.259,0.098,0.915,-49.580,-133.130,49.672,62.0,44.0
248192,0.337,0.002,0.827,-33.473,-139.206,50.244,60.0,45.0
248239,0.437,-0.044,0.733,-18.267,-139.534,48.031,58.0,50.0
248288,0.592,-0.106,0.633,-2.908,-131.481,38.595,57.0,45.0
248334,0.618,-0.063,0.479,-26.458,-124.573,26.481,56.0,47.0
248380,0.735,-0.143,0.448,-25.771,-114.794,11.786,52.0,51.0
248426,0.689,-0.160,0.372,-13.489,-108.886,10.252,51.0,51.0
248472,0.725,-0.178,0.304,6.519,-109.412,10.237,48.0,55.0
248518,0.733,-0.170,0.213,17.435,-109.282,15.397,47.0,59.0
248565,0.796,-0.227,0.180,26.160,-108.481,9.313,45.0,65.0
248611,0.785,-0.174,0.064,17.939,-105.229,4.809,44.0,62.0
248668,0.818,-0.177,-0.027,9.931,-102.756,0.214,157.0,69.0
248717,0.808,-0.161,-0.142,-7.756,-94.176,-5.840,45.0,113.0
248772,0.749,-0.130,-0.254,-44.985,-93.573,-6.382,155.0,110.0
248826,0.752,-0.166,-0.318,-59.679,-98.939,-9.947,154.0,87.0
248876,0.803,-0.118,-0.413,-50.870,-107.382,-26.115,45.0,99.0
248925,0.768,-0.144,-0.474,-9.473,-113.649,-31.183,50.0,100.0
248974,0.734,0.020,-0.638,19.824,-113.893,-32.824,50.0,108.0
249023,0.648,0.111,-0.801,2.198,-102.481,-31.260,51.0,108.0
249073,0.699,0.076,-0.772,-14.427,-87.504,-24.015,51.0,106.0
249125,0.611,0.128,-0.844,-16.260,-88.366,-34.603,50.0,105.0
249175,0.597,0.051,-0.897,-26.649,-79.901,-46.809,51.0,101.0
249224,0.417,0.063,-0.946,10.649,-77.870,-42.168,51.0,98.0
249273,0.383,0.101,-0.995,30.977,-77.618,-22.008,52.0,103.0
249322,0.377,0.191,-1.070,27.145,-71.046,-3.656,53.0,97.0
249370,0.339,0.074,-1.083,14.221,-66.977,6.099,53.0,96.0
249419,0.348,0.108,-1.099,14.786,-57.015,14.122,57.0,97.0
249468,0.354,0.097,-1.131,5.565,-44.687,7.893,55.0,99.0
249522,0.311,0.052,-1.127,2.847,-32.458,1.359,54.0,104.0
249570,0.295,0.124,-1.125,6.977,-19.626,3.824,54.0,98.0
249619,0.239,0.057,-1.045,-15.214,-11.931,1.435,54.0,98.0
249669,0.205,0.001,-0.990,5.427,-14.794,5.794,54.0,105.0
249718,0.224,0.063,-1.028,8.206,-14.939,3.664,54.0,105.0
249767,0.222,0.042,-1.034,1.000,-11.725,2.771,53.0,105.0
249817,0.181,0.015,-1.021,-5.511,-9.282,5.160,54.0,106.0
249866,0.193,0.001,-1.000,5.718,-10.573,5.443,51.0,99.0
249915,0.185,0.020,-1.002,5.641,-11.389,4.443,50.0,98.0
250010,0.157,-0.014,-0.994,7.450,-11.794,3.344,50.0,96.0
250059,0.155,0.014,-1.007,5.000,-10.160,1.878,50.0,98.0
250108,0.111,-0.028,-0.991,12.183,-13.504,5.038,49.0,107.0
250158,0.135,-0.031,-0.994,19.557,-16.267,7.015,49.0,107.0
250207,0.138,0.003,-1.027,1.412,-11.160,5.023,48.0,99.0
250261,0.119,-0.074,-1.021,5.061,-10.527,2.206,49.0,80.0
250308,0.134,-0.033,-1.065,6.824,-7.130,-1.252,49.0,101.0
250355,0.101,-0.027,-1.060,-3.160,-1.382,-2.687,49.0,79.0
250403,0.107,-0.051,-1.021,-0.061,0.389,-0.855,50.0,101.0
250455,0.087,-0.032,-1.013,-0.550,0.641,1.573,50.0,101.0
250502,0.103,-0.055,-0.984,0.710,0.405,0.489,49.0,100.0
250550,0.089,-0.041,-0.981,3.099,-3.756,0.595,49.0,99.0
250598,0.098,-0.049,-0.971,4.344,-4.290,0.046,49.0,102.0
250646,0.100,-0.051,-0.999,4.588,-7.382,-0.573,49.0,102.0
250693,0.090,-0.046,-1.019,2.985,-6.130,-1.496,50.0,80.0
250741,0.098,-0.051,-1.030,2.817,-5.931,-1.542,50.0,98.0
250789,0.087,-0.042,-1.051,3.053,-3.611,-1.733,50.0,108.0
250838,0.091,-0.044,-1.051,1.153,-0.817,-0.725,50.0,108.0
250889,0.095,-0.042,-1.039,-0.122,2.244,0.771,51.0,99.0
250937,0.083,-0.045,-1.014,-5.809,4.397,1.534,50.0,98.0
250985,0.093,-0.061,-0.982,-0.611,1.901,2.786,49.0,99.0
251033,0.089,-0.048,-0.983,0.985,-0.145,3.435,50.0,101.0
251080,0.087,-0.068,-0.976,-0.130,-1.588,1.427,50.0,100.0
251128,0.081,-0.074,-1.004,2.008,-3.977,1.137,48.0,100.0
251176,0.089,-0.067,-1.020,5.802,-4.359,0.130,48.0,100.0
251225,0.093,-0.045,-1.051,7.137,-3.435,2.557,49.0,99.0
251273,0.115,-0.028,-1.087,-4.786,4.450,2.779,48.0,99.0
251323,0.066,-0.084,-1.109,-5.137,7.260,2.000,52.0,82.0
251371,0.118,-0.054,-1.199,-3.046,12.710,5.275,47.0,98.0
251419,0.123,-0.049,-1.342,-17.267,32.725,5.260,47.0,108.0
251467,0.167,-0.090,-1.319,-29.504,57.740,4.031,47.0,101.0
251514,0.168,-0.032,-1.285,-30.908,77.794,4.473,44.0,82.0
251563,0.180,0.024,-1.184,-37.137,95.046,15.206,43.0,109.0
251611,0.245,0.113,-1.138,-48.206,105.588,28.244,49.0,109.0
251664,0.346,0.082,-1.001,-49.191,114.107,33.061,149.0,79.0
251720,0.452,0.096,-0.882,-34.702,118.725,31.198,149.0,84.0
251773,0.470,0.113,-0.804,-20.870,109.901,30.443,149.0,88.0
251827,0.539,0.055,-0.632,0.924,98.954,39.580,150.0,90.0
251876,0.618,0.086,-0.566,14.748,90.084,37.298,39.0,113.0
251929,0.660,0.067,-0.495,3.244,79.252,44.313,149.0,96.0
251976,0.724,-0.021,-0.394,6.992,71.916,53.176,30.0,99.0
252030,0.709,-0.043,-0.349,12.641,59.908,67.573,150.0,101.0
252086,0.733,-0.103,-0.315,14.015,45.053,81.275,149.0,125.0
252145,0.811,-0.242,-0.285,10.191,33.893,101.725,149.0,178.0
252211,0.673,-0.295,-0.315,-16.817,22.786,96.786,0.0,196.0
252273,0.794,-0.595,-0.189,-8.466,4.710,83.702,0.0,200.0
252326,0.813,-0.619,-0.219,38.412,-3.824,76.855,36.0,0.0
252380,0.751,-0.506,-0.279,20.534,-4.985,63.008,36.0,198.0
252433,0.860,-0.628,-0.286,1.221,-3.939,54.359,36.0,0.0
252496,0.687,-0.831,-0.257,-34.885,-5.374,24.985,0.0,0.0
252593,0.689,-0.562,-0.317,-21.290,-2.328,28.931,38.0,0.0
252656,0.704,-0.842,-0.234,-12.588,-1.122,22.458,0.0,0.0
252721,0.679,-0.682,-0.359,7.351,5.748,23.573,0.0,175.0
252782,0.603,-0.765,-0.314,-12.664,4.298,11.702,0.0,178.0
252833,0.579,-0.696,-0.357,0.389,2.298,12.840,30.0,176.0
252895,0.586,-0.721,-0.337,-5.130,0.672,14.260,0.0,175.0
252948,0.558,-0.757,-0.345,0.771,3.298,17.756,30.0,0.0
253001,0.606,-0.725,-0.356,11.763,2.351,16.115,29.0,0.0
253064,0.569,-0.772,-0.359,-16.000,5.962,8.725,0.0,0.0
253117,0.510,-0.840,-0.287,5.389,-2.084,-2.015,29.0,0.0
253179,0.583,-0.748,-0.387,-7.763,-3.137,-8.023,0.0,0.0
253235,0.582,-0.789,-0.417,-25.702,18.374,-23.450,30.0,175.0
253287,0.624,-0.781,-0.390,-21.298,33.611,-30.366,32.0,177.0
253349,0.552,-0.829,-0.088,73.740,17.099,-4.817,0.0,0.0
253413,0.657,-0.437,-0.367,-35.344,-0.634,-5.939,0.0,201.0
253474,0.664,-0.823,-0.302,-30.382,4.931,4.237,0.0,176.0
253527,0.623,-0.766,-0.263,11.969,11.069,1.840,37.0,177.0
253579,0.652,-0.617,-0.297,1.954,2.840,3.824,38.0,177.0
253631,0.649,-0.620,-0.317,-20.298,-2.931,6.267,37.0,177.0
253683,0.669,-0.848,-0.274,-16.985,0.092,3.412,36.0,177.0
253750,0.641,-0.821,-0.265,32.885,10.359,6.786,0.0,0.0
253812,0.608,-0.673,-0.256,-1.336,10.031,5.702,0.0,0.0
253875,0.633,-0.685,-0.300,-10.344,5.809,6.496,0.0,0.0
253929,0.667,-0.818,-0.275,-3.817,10.710,0.321,37.0,0.0
253980,0.589,-0.706,-0.264,21.649,5.450,4.977,33.0,176.0
254032,0.587,-0.643,-0.258,-10.061,2.206,3.595,32.0,176.0
254085,0.657,-0.707,-0.261,-26.969,2.038,6.183,30.0,176.0
254138,0.689,-0.813,-0.204,-1.779,6.595,10.977,30.0,0.0
254201,0.626,-0.767,-0.271,13.099,3.771,13.214,0.0,0.0
254258,0.551,-0.834,-0.228,8.305,8.313,12.443,30.0,0.0
254320,0.483,-0.832,-0.243,37.053,-1.847,6.847,0.0,0.0
254372,0.590,-0.763,-0.261,20.420,-5.183,-5.145,29.0,178.0
254426,0.672,-0.689,-0.216,15.672,-2.733,-1.313,30.0,0.0
254479,0.742,-0.510,-0.314,-39.099,-1.374,10.809,30.0,0.0
254540,0.639,-0.837,-0.229,-50.214,-0.183,12.718,0.0,177.0
254603,0.574,-0.941,-0.260,-7.496,15.588,14.672,0.0,178.0
254655,0.517,-0.702,-0.357,5.290,14.771,-3.733,28.0,180.0
254707,0.600,-0.950,-0.149,36.740,13.733,-4.397,28.0,185.0
254764,0.622,-0.644,-0.234,27.641,-5.618,-6.573,30.0,0.0
254817,0.646,-0.791,-0.181,11.344,-4.878,-7.878,31.0,185.0
254879,0.582,-0.751,-0.093,21.511,-10.084,-3.000,0.0,184.0
254931,0.593,-0.745,-0.153,10.160,-5.756,5.634,38.0,184.0
254985,0.596,-0.777,-0.083,33.916,-6.588,15.260,30.0,185.0
255038,0.568,-0.857,-0.120,37.130,-8.176,20.183,30.0,0.0
255091,0.542,-0.828,-0.104,20.282,-4.924,13.008,30.0,0.0
255145,0.520,-0.861,-0.143,10.115,-0.641,1.992,31.0,0.0
255219,0.525,-0.906,-0.050,4.061,10.847,2.328,0.0,0.0
255271,0.509,-0.819,-0.023,-21.053,5.015,-0.824,30.0,0.0
255325,0.589,-0.632,-0.187,-14.573,8.359,14.519,30.0,0.0
255377,0.545,-0.924,-0.075,-53.504,11.397,8.664,26.0,0.0
255473,0.542,-0.951,-0.110,-39.634,6.053,1.672,30.0,188.0
255524,0.521,-0.823,-0.159,12.672,5.641,7.496,26.0,190.0
255578,0.514,-0.884,-0.120,-0.076,1.786,4.710,27.0,0.0
255630,0.502,-0.872,-0.167,32.916,2.718,10.298,28.0,0.0
255682,0.524,-0.834,-0.122,10.725,2.962,4.901,30.0,0.0
255748,0.508,-0.836,-0.143,9.550,6.618,6.756,0.0,0.0
255800,0.527,-0.832,-0.113,-16.244,11.565,7.718,26.0,0.0
255853,0.494,-0.948,-0.077,-2.832,10.191,5.916,25.0,0.0
255905,0.499,-0.782,-0.175,3.076,13.489,9.924,27.0,0.0
255958,0.488,-0.782,-0.165,-29.893,15.885,9.099,24.0,0.0
256010,0.443,-1.094,-0.004,-3.611,2.397,9.061,26.0,0.0
256063,0.500,-0.955,-0.060,36.794,-2.130,11.863,26.0,0.0
256115,0.472,-0.811,-0.077,41.099,-6.977,15.763,25.0,0.0
256167,0.529,-0.812,-0.088,7.534,-7.756,5.420,25.0,0.0
256223,0.439,-1.025,-0.010,5.237,4.573,-2.351,25.0,0.0
256276,0.426,-0.849,-0.034,16.099,1.183,-8.611,25.0,0.0
256328,0.434,-0.775,-0.080,4.466,-5.374,-10.328,28.0,0.0
256380,0.501,-0.780,-0.153,-80.794,-11.748,-34.504,25.0,0.0
256434,0.540,-1.163,0.051,-11.511,-18.176,-30.550,25.0,0.0
256486,0.563,-0.791,-0.214,46.550,-21.611,-16.710,26.0,0.0
256539,0.540,-0.930,-0.109,6.359,-8.282,-23.511,26.0,0.0
256591,0.549,-0.797,-0.162,27.786,7.656,-33.427,29.0,0.0
256645,0.530,-0.847,-0.139,-17.779,23.634,-42.237,28.0,0.0
256701,0.501,-0.908,-0.066,4.542,35.824,-52.122,30.0,0.0
256763,0.474,-0.843,-0.011,22.206,33.527,-61.489,0.0,0.0
256826,0.544,-0.758,-0.069,-9.282,42.847,-76.985,0.0,0.0
256879,0.569,-0.785,0.041,-6.771,50.672,-88.809,43.0,0.0
256933,0.567,-0.669,0.066,-2.069,57.466,-106.038,51.0,0.0
256984,0.607,-0.520,0.141,10.611,65.061,-118.702,61.0,120.0
257042,0.746,-0.335,0.213,-6.336,77.153,-123.000,0.0,114.0
257099,0.825,-0.248,0.344,-35.443,89.115,-135.221,0.0,108.0
257149,0.812,-0.223,0.568,12.282,87.718,-138.939,80.0,106.0
257210,0.882,0.266,0.456,-3.679,70.771,-142.901,0.0,102.0
257267,0.907,0.305,0.548,-14.053,70.298,-125.176,0.0,110.0
257324,0.817,0.308,0.598,-44.084,82.847,-109.573,0.0,84.0
257379,0.697,0.454,0.606,-67.962,83.878,-85.962,0.0,80.0
257435,0.591,0.359,0.689,-12.802,71.504,-52.275,0.0,77.0
257490,0.607,0.407,0.630,-2.046,71.099,-34.115,0.0,76.0
257547,0.618,0.258,0.761,-3.679,73.893,-42.611,0.0,82.0
257602,0.523,0.386,0.833,3.191,75.687,-49.336,0.0,73.0
257657,0.378,0.372,0.943,-5.191,71.893,-55.924,0.0,72.0
257716,0.206,0.394,0.952,5.252,61.206,-36.260,0.0,71.0
257771,0.170,0.493,0.912,1.908,54.710,-12.450,0.0,80.0
257827,0.187,0.413,1.011,-13.695,37.328,-2.565,0.0,79.0
257884,0.338,0.387,1.095,12.275,43.565,-11.137,0.0,89.0
257940,0.100,0.457,0.915,-28.656,51.466,-25.061,0.0,91.0
257996,0.032,0.205,0.958,-7.183,44.382,-17.122,0.0,89.0
258053,0.083,0.385,1.000,-11.229,49.573,-15.832,0.0,73.0
258102,-0.072,0.274,0.967,-2.069,41.275,-29.366,106.0,72.0
258152,-0.076,0.369,1.059,-22.771,38.809,-24.489,105.0,73.0
258254,-0.125,0.411,1.031,7.344,-5.870,3.710,0.0,72.0
258310,-0.026,0.355,0.867,0.649,-1.588,6.160,0.0,73.0
258365,-0.079,0.334,0.928,-22.603,7.626,-2.122,0.0,72.0
258415,-0.116,0.192,1.048,4.718,-1.000,-0.595,105.0,72.0
258470,-0.081,0.346,0.904,11.466,-1.008,1.916,0.0,73.0
258526,-0.090,0.261,0.981,4.519,0.160,-1.176,0.0,73.0
258582,-0.081,0.336,0.971,-3.313,-0.573,-0.237,0.0,73.0
258637,-0.097,0.313,0.966,1.687,-0.931,0.855,0.0,73.0
258693,-0.090,0.333,0.950,-0.130,-0.092,-0.511,0.0,73.0
258751,-0.087,0.330,0.946,0.679,-0.916,-0.153,0.0,73.0
258807,-0.099,0.338,0.960,-2.473,0.115,-1.031,0.0,73.0
258863,-0.085,0.318,0.951,-3.733,-1.015,0.481,0.0,73.0
258918,-0.096,0.304,0.971,-3.443,-0.084,-0.290,0.0,73.0
258974,-0.089,0.309,0.953,-3.450,-1.305,0.824,0.0,72.0
259030,-0.087,0.322,0.958,-5.626,-0.313,0.168,0.0,73.0
259085,-0.084,0.288,0.956,0.656,-0.786,-0.168,0.0,73.0
259140,-0.096,0.300,0.972,2.916,-0.504,-0.321,0.0,73.0
259196,-0.081,0.323,0.951,-2.160,-0.786,-0.412,0.0,73.0
259255,-0.094,0.303,0.981,-4.885,-0.832,-0.267,0.0,73.0
259311,-0.089,0.316,0.945,-3.061,-1.321,0.168,0.0,72.0
259366,-0.097,0.306,0.964,0.969,-1.214,-0.069,0.0,73.0
259422,-0.093,0.300,0.963,-5.779,-0.611,-0.443,0.0,72.0
259478,-0.091,0.283,0.966,0.450,-0.489,-0.389,0.0,72.0
259533,-0.094,0.318,0.971,-3.656,-0.878,-0.038,0.0,72.0
259589,-0.086,0.297,0.945,0.458,-0.656,-0.229,0.0,73.0
259645,-0.085,0.306,0.960,-0.611,-0.885,-0.336,0.0,73.0
259700,-0.093,0.317,0.959,-4.511,0.053,-1.031,0.0,72.0
259759,-0.094,0.294,0.970,-1.023,-0.618,0.153,0.0,72.0
259815,-0.088,0.283,0.981,-2.145,-0.466,-0.473,0.0,73.0
259870,-0.094,0.312,0.955,-0.855,-0.115,0.145,0.0,73.0
259927,-0.087,0.294,0.970,-1.092,-0.733,-0.397,0.0,72.0
259982,-0.095,0.276,0.973,-0.687,-0.611,-0.427,0.0,72.0
260038,-0.095,0.319,0.959,0.435,-0.351,0.031,0.0,73.0
260093,-0.089,0.284,0.963,0.687,-0.817,-0.290,0.0,73.0
260149,-0.097,0.303,0.960,-2.382,-0.282,-0.702,0.0,73.0
260205,-0.082,0.283,0.979,-0.145,-0.664,0.000,0.0,73.0
260263,-0.092,0.302,0.970,-0.198,-0.580,-0.031,0.0,73.0
260320,-0.085,0.307,0.956,-0.626,-0.626,-0.221,0.0,73.0
260375,-0.092,0.304,0.969,2.397,-0.725,0.260,0.0,73.0
260431,-0.088,0.315,0.956,-0.870,-0.748,-0.412,0.0,73.0
260487,-0.101,0.306,0.955,-0.160,-0.527,0.099,0.0,73.0
260543,-0.085,0.289,0.956,1.229,-1.298,-0.443,0.0,72.0
260598,-0.091,0.328,0.959,-0.168,-0.794,-0.137,0.0,72.0
260655,-0.087,0.288,0.955,-1.641,-0.809,-0.519,0.0,72.0
260711,-0.095,0.304,0.975,-2.786,-0.649,-0.031,0.0,72.0
260769,-0.088,0.311,0.949,0.107,-0.733,-0.191,0.0,72.0
260826,-0.091,0.292,0.964,1.260,-1.351,0.115,0.0,72.0
260881,-0.100,0.311,0.974,5.664,-1.092,-0.023,0.0,72.0
260937,-0.100,0.276,0.988,8.496,-3.046,0.969,0.0,72.0
260993,-0.104,0.362,0.958,17.672,-6.626,1.069,0.0,73.0