Timestamp(ms),AccelX(g),AccelY(g),AccelZ(g),GyroX(deg/s),GyroY(deg/s),GyroZ(deg/s),DistanceLeft(cm),DistanceRight(cm)
23963,-0.339,-0.723,-0.351,173.092,250.130,-45.557,0.0,85.0
24016,-1.701,0.388,0.932,13.962,250.130,-37.397,0.0,82.0
24070,-0.916,-0.422,0.809,-138.977,-4.298,-5.931,0.0,82.0
24124,-1.217,-1.277,0.377,-24.878,-169.611,-82.389,0.0,83.0
24176,-0.307,-0.896,-0.110,111.786,-167.733,-110.886,0.0,60.0
24226,-0.076,0.225,0.648,15.573,50.313,-48.115,167.0,59.0
24279,-0.700,-0.391,1.197,-109.198,20.031,30.031,0.0,62.0
24334,-0.568,-1.807,0.077,26.046,-83.122,13.855,0.0,60.0
24384,-0.257,-0.481,-0.362,218.656,87.305,-22.534,166.0,59.0
24436,-1.217,0.226,1.341,-74.939,29.092,2.534,0.0,59.0
24488,-1.085,-0.923,0.636,-124.802,-250.137,70.008,0.0,63.0
24539,0.398,-1.140,-0.556,178.435,-27.649,-97.954,163.0,60.0
24590,-0.107,0.954,1.167,35.153,231.916,-12.305,164.0,60.0
24640,-1.026,-0.301,1.324,-154.328,47.779,23.771,166.0,60.0
24692,-1.010,-1.811,-0.041,-101.153,-161.298,41.344,0.0,60.0
24742,-0.431,-0.323,0.107,130.992,13.695,-56.023,163.0,61.0
24798,-1.009,-0.164,1.291,-106.580,-154.389,-21.504,162.0,87.0
24846,-0.324,-1.275,-0.109,-107.305,-250.137,61.489,118.0,64.0
24893,0.137,-0.588,0.059,126.351,9.382,-24.344,115.0,66.0
24940,-0.176,0.088,1.324,-8.809,37.221,8.229,107.0,66.0
24987,-0.246,-0.296,1.792,-105.183,-145.886,27.863,105.0,68.0
25035,0.907,-1.700,-1.210,115.809,152.115,-87.534,107.0,67.0
25085,-0.526,0.506,1.226,69.214,250.130,-42.832,157.0,66.0
25136,-1.380,-0.083,2.000,-133.366,-40.000,5.145,157.0,68.0
25187,-0.178,-2.000,-0.927,-34.137,-250.137,54.573,114.0,69.0
25237,-0.009,-0.167,0.423,173.122,62.183,-86.718,153.0,67.0
25289,-0.552,-0.018,1.364,-43.260,24.168,18.481,0.0,67.0
25340,0.437,-0.839,0.022,-90.496,-120.924,89.130,158.0,67.0
25391,-0.098,-0.697,0.218,149.840,247.206,-64.886,157.0,64.0
25441,-1.154,0.264,1.451,-2.786,243.504,5.901,160.0,64.0
25493,-1.032,-0.017,1.861,-139.840,-183.252,38.107,0.0,63.0
25543,0.311,-2.000,-1.316,61.702,-190.588,-65.160,159.0,63.0
25597,-0.033,0.301,0.453,183.130,163.664,-86.931,160.0,62.0
25648,-1.097,0.089,1.229,-97.351,110.947,17.748,161.0,63.0
25698,-0.550,-0.678,0.468,-150.695,-154.511,100.084,161.0,63.0
25749,-0.105,-0.798,-0.277,168.519,140.122,-68.656,161.0,63.0
25799,-0.903,0.484,1.771,-30.511,157.840,18.092,162.0,66.0
25852,-0.883,-0.072,1.705,-157.527,-157.817,59.321,0.0,68.0
25903,0.472,-2.000,-1.215,95.603,-53.611,-74.221,159.0,65.0
25954,-0.289,0.620,1.639,104.725,168.748,-58.924,159.0,66.0
26005,-1.313,-0.102,1.720,-156.374,-73.107,-8.504,160.0,69.0
26058,-0.551,-2.000,-0.966,-89.977,-250.137,77.893,157.0,69.0
26108,0.087,-0.105,0.237,185.405,-1.832,-124.901,157.0,67.0
26157,-0.647,0.001,0.913,-80.252,2.061,37.489,105.0,69.0
26204,-0.321,-0.272,1.560,-161.053,-242.809,103.107,103.0,69.0
26252,0.938,-1.810,-0.882,161.603,203.351,-104.992,104.0,69.0
26302,-0.335,0.979,1.429,123.183,250.130,-20.885,156.0,69.0
26353,-1.525,-0.243,1.572,-118.405,179.359,-0.634,160.0,69.0
26405,-1.359,-1.043,0.603,-124.053,-250.137,54.771,160.0,86.0
26459,0.238,-0.857,-0.258,164.969,-81.863,-139.886,157.0,68.0
26552,-0.456,-0.220,1.538,-84.817,40.160,9.710,159.0,64.0
26603,0.272,-2.000,-0.519,-35.969,71.878,22.863,162.0,60.0
26653,-0.228,-0.270,-0.270,189.229,250.130,-56.695,167.0,60.0
26706,-1.646,0.146,1.450,-46.061,184.115,15.863,0.0,61.0
26759,-1.189,-1.273,0.129,-57.145,-110.008,-23.679,0.0,56.0
26812,0.045,-0.451,-0.742,232.916,197.160,-95.702,0.0,78.0
26866,-1.562,0.621,0.962,-88.267,111.664,16.893,0.0,82.0
26923,-1.548,-1.509,-0.425,-110.244,-97.130,-43.000,0.0,75.0
26977,-0.225,-0.764,-0.447,177.252,18.076,-64.832,0.0,73.0
27030,-1.000,0.595,0.969,-40.649,119.366,10.542,0.0,77.0
27085,-1.183,-0.367,0.705,-175.977,-35.870,14.290,0.0,111.0
27142,-0.516,-1.130,-0.402,101.687,-44.008,-18.160,0.0,110.0
27197,-1.252,0.375,1.594,15.481,-30.176,13.908,0.0,112.0
27251,-0.731,-0.545,0.307,-107.550,-174.809,17.473,0.0,76.0
27309,0.073,-0.935,-0.413,130.496,52.519,-11.748,0.0,145.0
27363,-1.173,0.603,1.042,-93.229,152.420,43.573,0.0,83.0
27419,-1.603,-0.466,0.624,-227.481,-176.252,49.771,0.0,76.0
27471,0.053,-1.426,-0.807,173.252,-181.687,-44.023,0.0,53.0
27525,0.134,1.451,1.710,-31.084,33.870,16.107,0.0,54.0
27577,-0.679,-0.209,1.691,-217.397,-113.099,63.511,0.0,62.0
27631,-0.174,-2.000,-0.552,82.214,-68.886,-78.679,0.0,82.0
27677,-0.386,1.024,1.683,99.198,43.206,0.282,51.0,82.0
27729,-0.933,-0.138,1.190,-136.282,-4.977,53.809,0.0,57.0
27784,-0.661,-2.000,-0.282,-101.519,-154.260,49.656,0.0,84.0
27834,0.057,-0.304,-0.355,208.924,71.817,-54.092,164.0,59.0
27888,-0.970,0.200,0.613,-100.382,70.496,40.008,164.0,60.0
27941,-0.948,-0.438,1.244,-215.893,-160.137,96.084,0.0,63.0
27993,0.024,-1.239,-0.233,150.672,-107.229,-82.809,161.0,62.0
28044,-0.010,1.050,1.791,2.992,-70.198,27.305,163.0,64.0
28094,-0.635,-0.378,1.592,-153.443,-234.046,60.908,156.0,66.0
28142,0.739,-2.000,-0.523,22.351,-64.168,-82.305,107.0,68.0
28190,0.260,-0.011,0.206,174.710,140.191,-67.145,114.0,66.0
28240,-0.890,-0.279,1.122,-110.481,62.099,54.160,155.0,66.0
28298,-0.561,-1.763,-0.035,-102.290,-151.038,54.939,0.0,68.0
28351,0.292,-0.468,-0.065,199.443,101.252,-94.504,0.0,65.0
28401,-0.586,0.313,1.349,-85.153,73.511,63.504,146.0,66.0
28449,-0.476,-1.103,0.342,-146.351,-44.137,45.389,108.0,67.0
28499,0.304,-1.139,-0.424,153.916,112.122,-112.206,158.0,65.0
28551,-0.980,0.742,1.603,-54.031,164.046,18.473,158.0,64.0
28604,-1.069,-0.635,1.208,-160.886,-174.183,103.565,0.0,66.0
28655,0.593,-1.355,-0.458,145.511,3.687,-90.466,157.0,66.0
28711,-0.125,0.975,1.826,1.824,108.122,27.191,0.0,66.0
28765,-0.579,-0.478,1.462,-142.229,-125.969,90.870,0.0,66.0
28816,0.800,-1.514,-0.840,94.901,90.130,-80.954,156.0,67.0
28867,-0.543,0.742,1.984,23.061,190.687,13.588,157.0,68.0
28920,-1.072,-0.286,1.931,-175.031,-218.198,63.748,0.0,68.0
28972,0.963,-2.000,-0.994,74.542,-94.405,-107.481,158.0,70.0
29016,0.242,0.521,0.926,186.473,194.588,-49.328,27.0,67.0
29066,-0.900,-0.116,0.984,-91.771,151.099,39.038,156.0,66.0
29117,-1.153,-1.043,0.506,-162.886,-64.954,52.626,157.0,66.0
29214,-0.270,0.895,1.683,44.924,70.290,-5.863,158.0,65.0
29265,-0.558,-0.197,1.839,-130.695,-149.466,56.664,158.0,66.0
29309,0.312,-2.000,-0.411,22.351,-44.046,-74.130,26.0,69.0
29352,0.073,-0.208,-0.152,209.924,121.466,-86.458,29.0,65.0
29395,-1.123,0.383,1.191,-105.023,57.962,10.282,28.0,65.0
29440,-0.965,-0.468,1.594,-202.756,-250.137,65.908,26.0,66.0
29493,0.925,-2.000,-0.670,48.924,-104.137,-143.137,0.0,68.0
29544,0.263,0.399,0.875,170.168,155.412,-73.275,157.0,67.0
29598,-0.440,-0.225,1.459,-104.504,33.115,86.931,156.0,67.0
29642,-0.114,-2.000,-0.079,-48.145,4.076,13.908,30.0,67.0
29685,-0.066,-0.576,0.105,171.412,120.710,-78.916,29.0,66.0
29736,-0.615,0.362,1.719,-10.870,78.611,25.244,157.0,67.0
29788,-0.551,-0.318,1.458,-108.733,-210.908,82.710,157.0,66.0
29839,0.636,-1.628,-0.513,76.344,50.443,-145.092,156.0,66.0
29890,-0.430,0.461,2.000,58.313,123.153,-1.725,156.0,66.0
29934,-0.750,-0.416,1.495,-101.137,-160.466,130.481,29.0,66.0
29977,0.354,-2.000,-0.557,-18.542,-107.023,-30.229,25.0,67.0
30024,0.218,-0.221,0.307,124.221,177.924,-113.817,30.0,66.0
30068,-0.651,0.039,1.326,-47.458,130.947,64.481,30.0,65.0
30111,-0.688,-0.499,1.415,-120.740,-73.237,125.779,27.0,66.0
30155,0.036,-2.000,-0.058,24.809,-3.855,-69.397,30.0,65.0
30198,0.063,-0.281,0.063,167.099,133.725,-98.344,28.0,65.0
30249,-1.027,0.171,1.453,-54.496,102.573,47.809,159.0,64.0
30294,-0.712,-0.453,1.017,-126.420,-215.641,94.588,30.0,65.0
30345,0.349,-1.512,-0.327,83.061,37.351,-181.977,158.0,63.0
30404,-0.243,0.530,1.350,-11.664,148.053,52.435,161.0,63.0
30453,-0.628,-0.286,1.561,-100.214,-124.763,131.099,160.0,62.0
30496,-0.201,-1.714,0.063,32.084,10.916,-166.626,32.0,63.0
30546,-0.218,-0.012,0.696,106.511,83.618,-83.870,161.0,63.0
30589,-0.781,-0.264,1.474,-85.275,-182.519,114.313,34.0,62.0
30632,-0.246,-2.000,-0.279,-28.603,-206.618,-31.679,32.0,63.0
30674,0.832,-0.081,-0.089,140.771,54.763,-185.611,31.0,62.0
30717,-0.064,0.031,1.031,-31.817,119.107,40.298,33.0,60.0
30760,-0.233,-0.393,1.473,-84.427,-38.168,77.878,35.0,60.0
30813,0.192,-1.759,-0.258,29.260,92.763,-91.076,163.0,59.0
30856,-0.480,0.491,1.841,27.145,154.802,28.046,39.0,58.0
30899,-0.689,-0.437,1.496,-78.641,-65.908,123.023,39.0,58.0
30949,-0.235,-1.670,0.132,18.931,-0.069,-88.794,164.0,58.0
30999,-0.212,0.172,0.911,95.656,135.420,-20.557,164.0,57.0
31049,-0.673,-0.243,1.461,-92.084,-105.901,94.298,165.0,57.0
31092,-0.196,-1.712,0.025,26.237,-30.328,-125.710,41.0,57.0
31142,0.266,-0.054,0.304,129.206,85.298,-53.443,165.0,57.0
31190,-0.445,-0.280,1.374,-83.786,1.015,74.939,61.0,56.0
31233,-0.375,-1.757,-0.027,-11.000,15.053,-30.863,43.0,56.0
31277,0.076,-0.299,0.171,132.527,107.427,-58.313,61.0,58.0
31327,-0.921,-0.132,1.210,-75.359,28.649,56.954,168.0,56.0
31370,-0.674,-1.496,0.253,-56.382,-137.450,15.885,44.0,55.0
31413,0.434,-0.774,0.171,128.206,0.763,-103.473,46.0,56.0
31463,-0.028,0.780,0.984,-29.435,148.183,32.931,167.0,56.0
31513,-0.677,-0.689,1.501,-140.740,-3.969,82.145,168.0,57.0
31607,-0.211,0.914,1.508,81.420,136.359,-2.328,170.0,59.0
31661,-1.082,-0.519,1.690,-154.183,-73.977,87.443,170.0,59.0
31711,-0.276,-1.928,-0.127,41.580,-137.038,-99.313,168.0,55.0
31756,0.412,0.717,1.050,159.137,74.855,-40.756,64.0,55.0
31806,-0.748,-0.107,1.099,-108.359,68.962,55.718,170.0,55.0
31856,-0.918,-1.838,0.133,-72.740,-73.702,8.221,170.0,54.0
31900,0.452,-0.633,-0.221,191.107,60.397,-88.198,65.0,54.0
31952,-0.627,0.609,1.007,-50.725,217.260,30.244,172.0,83.0
32005,-0.890,-0.512,1.439,-162.481,-33.954,60.092,0.0,56.0
32062,0.059,-1.473,-0.171,127.160,0.153,-82.504,0.0,91.0
32114,-0.104,0.717,1.058,68.214,219.710,9.412,0.0,53.0
32167,-1.007,-0.235,1.539,-129.595,114.908,19.344,0.0,76.0
32221,-1.113,-1.983,0.113,-21.023,-94.718,-37.466,0.0,76.0
32274,-0.089,-0.320,-0.280,189.183,43.618,-32.550,0.0,77.0
32328,-0.963,-0.100,0.467,-86.771,123.954,9.466,0.0,75.0
32381,-1.211,-0.913,0.289,-136.580,-22.038,34.802,0.0,74.0
32435,-0.382,-0.784,-0.113,141.565,-19.267,-1.916,0.0,74.0
32488,-0.693,0.323,1.098,4.878,61.137,16.260,0.0,75.0
32544,-0.871,-0.333,0.897,-124.672,-32.878,-7.122,0.0,74.0
32598,-0.311,-1.083,-0.218,100.122,-4.511,-44.176,0.0,74.0
32651,-0.688,0.315,0.983,12.137,78.626,-0.023,0.0,75.0
32703,-1.051,-0.289,1.364,-149.221,-125.611,-3.969,0.0,55.0
32756,-0.341,-1.660,-0.460,74.290,-132.527,-56.779,0.0,79.0
32811,-0.474,0.380,1.471,53.664,-14.832,29.031,0.0,77.0
32863,-0.738,-0.326,1.132,-102.710,-75.618,93.809,0.0,52.0
32915,-0.622,-1.780,-0.035,8.122,-105.053,22.046,0.0,54.0
32970,-0.162,0.504,1.232,103.878,27.496,-6.748,0.0,53.0
33022,-0.899,-0.340,1.226,-113.511,-24.252,11.282,0.0,54.0
33073,-0.616,-1.771,0.064,-25.702,-109.160,-44.634,172.0,53.0
33119,-0.133,-0.164,0.484,107.740,-12.794,-48.229,43.0,92.0
33169,-0.692,-0.309,1.158,-79.542,-42.038,31.771,170.0,56.0
33222,-0.423,-1.473,0.167,-44.771,-72.023,25.519,0.0,56.0
33272,0.159,-0.556,0.097,115.435,75.267,1.321,168.0,56.0
33323,-0.673,-0.035,1.077,-30.771,153.656,91.504,169.0,58.0
33376,-0.596,-0.731,0.530,-38.046,32.534,76.908,0.0,57.0
33431,-0.772,-0.373,0.585,71.313,21.634,-32.504,0.0,57.0
33482,-1.112,-0.297,1.284,-90.733,-195.366,13.046,167.0,66.0
33533,-0.305,-1.517,-0.146,-19.008,-240.450,-64.740,164.0,60.0
33584,0.324,0.126,0.639,82.886,-29.802,-50.344,161.0,60.0
33637,-0.498,-0.425,1.190,-101.977,-76.611,88.313,0.0,62.0
33687,-0.191,-1.927,0.160,-10.740,-89.237,-16.298,156.0,62.0
33737,0.323,-0.095,0.232,138.145,75.489,-60.000,157.0,62.0
33790,-0.542,-0.351,0.951,-81.977,58.405,44.519,0.0,63.0
33841,-0.517,-1.632,0.357,-53.412,-26.656,9.534,161.0,63.0
33895,0.063,-0.315,0.155,139.718,60.191,-31.527,162.0,63.0
33945,-0.743,-0.211,1.067,-81.847,-15.183,72.931,158.0,64.0
33996,-0.518,-1.408,0.324,-71.748,-128.466,17.275,156.0,66.0
34046,0.455,-0.592,-0.048,130.924,14.908,-86.626,156.0,67.0
34091,-0.171,0.210,1.040,-47.794,79.931,55.290,30.0,66.0
34141,-0.322,-0.551,1.240,-111.687,-33.916,53.817,154.0,67.0
34228,-0.466,0.060,1.656,57.008,-4.695,4.099,30.0,66.0
34271,-0.635,-0.563,1.015,-60.870,-153.626,105.122,30.0,68.0
34327,-0.081,-1.469,0.449,-24.527,-207.053,20.137,0.0,71.0
34371,1.164,-0.372,0.132,104.427,7.137,-79.084,25.0,72.0
34421,-0.079,0.294,0.676,-46.168,216.656,33.229,155.0,70.0
34475,-0.654,-0.753,1.328,-128.130,-37.962,115.542,0.0,70.0
34519,-0.084,-1.408,0.534,57.809,-121.840,-124.099,23.0,71.0
34562,0.606,0.126,0.591,117.886,-12.069,-85.015,25.0,70.0
34605,-0.275,-0.413,1.015,-64.611,24.321,44.122,23.0,70.0
34656,-0.190,-0.773,0.881,-87.725,-66.939,75.527,156.0,72.0
34699,0.373,-1.174,0.335,70.344,15.878,-87.992,23.0,71.0
34746,-0.104,0.321,1.397,48.000,91.000,2.977,23.0,70.0
34789,-0.515,-0.480,1.170,-72.924,-82.412,91.985,23.0,70.0
34832,-0.323,-1.423,0.491,-53.412,-204.252,38.916,23.0,74.0
34886,1.102,-0.690,0.027,91.000,-34.489,-161.718,0.0,74.0
34929,-0.092,0.065,0.978,-39.504,83.962,40.053,21.0,73.0
34983,-0.342,-0.758,1.168,-82.748,-153.634,115.374,0.0,86.0
35038,1.074,-1.125,0.205,43.725,-26.710,-158.878,0.0,77.0
35081,0.001,0.151,1.210,-13.870,159.466,6.092,21.0,73.0
35128,-0.475,-0.798,0.982,-71.969,-102.985,134.443,22.0,75.0
35182,0.234,-1.453,0.386,19.725,-121.053,-70.756,0.0,90.0
35226,0.536,-0.158,0.420,5.725,152.489,-73.221,21.0,73.0
35279,-0.421,-0.542,1.319,-62.901,21.580,97.221,0.0,72.0
35333,-0.078,-1.551,0.553,18.565,-154.061,10.061,0.0,75.0
35377,0.927,0.072,0.241,41.260,115.771,-81.962,19.0,74.0
35420,-0.159,-0.423,1.114,-37.313,58.977,88.794,19.0,73.0
35474,-0.065,-1.144,0.728,-16.924,-116.282,79.947,0.0,89.0
35518,0.720,-0.231,0.419,37.931,50.748,-131.214,19.0,74.0
35565,-0.254,-0.570,1.026,-25.588,-18.137,90.962,19.0,87.0
35619,0.130,-1.119,0.644,-9.382,-134.679,22.649,0.0,84.0
35674,0.914,-0.539,0.011,5.664,124.992,-120.244,0.0,88.0
35719,-0.365,-0.672,1.103,-29.656,29.153,98.855,22.0,87.0
35766,-0.198,-1.091,0.809,13.313,-156.931,87.397,20.0,135.0
35813,1.086,-0.631,0.202,2.176,24.427,-142.870,19.0,142.0
35857,-0.020,-0.272,0.957,-27.809,139.366,31.069,20.0,88.0
35904,-0.213,-0.942,0.687,-1.626,-89.985,153.603,19.0,135.0
35951,0.663,-0.629,0.789,11.641,-48.832,-95.374,20.0,148.0
35999,0.414,-0.201,0.699,-5.023,111.824,-62.504,19.0,87.0
36043,-0.149,-0.744,1.054,-23.099,-45.099,80.473,20.0,90.0
36101,0.405,-0.993,0.667,0.702,-111.794,-4.519,0.0,137.0
36145,0.828,-0.384,0.128,20.183,155.328,-82.061,19.0,74.0
36188,-0.476,-0.477,1.245,-35.122,79.565,96.969,21.0,72.0
36232,-0.443,-1.203,0.779,-1.504,-205.840,129.046,20.0,77.0
36276,1.213,-0.522,0.406,28.878,-121.160,-127.061,17.0,82.0
36328,0.450,-0.083,0.629,-30.389,233.000,-25.328,21.0,84.0
36384,-0.423,-0.660,1.071,-77.756,43.939,130.641,0.0,87.0
36431,0.043,-1.365,0.621,42.985,-65.588,-38.298,20.0,145.0
36484,1.212,-0.043,-0.036,34.855,131.672,-87.595,0.0,72.0
36540,-0.357,-0.361,1.398,-64.519,157.260,103.214,0.0,69.0
36583,-0.396,-1.610,0.706,3.878,-113.939,30.969,22.0,72.0
36669,0.081,-0.119,0.919,-11.756,90.237,1.198,23.0,71.0
36711,-0.402,-0.683,0.821,-67.924,-55.878,105.214,19.0,71.0
36754,0.049,-1.242,0.562,2.298,-89.992,-11.626,20.0,73.0
36796,0.885,-0.538,0.371,65.511,-7.053,-104.695,21.0,73.0
36852,-0.248,-0.181,1.010,-6.427,62.183,36.145,0.0,72.0
36895,-0.384,-0.956,0.830,-31.725,-197.198,118.672,21.0,88.0
36938,1.202,-0.870,0.445,29.122,-116.305,-98.305,21.0,84.0
36981,1.244,-0.411,-0.264,33.153,240.198,-70.901,20.0,76.0
37024,-0.471,-0.009,1.252,-57.115,250.130,42.023,22.0,70.0
37076,-1.112,-0.777,1.213,-82.084,-74.031,138.618,0.0,70.0
37134,-0.085,-1.405,0.310,40.855,-222.847,-113.664,0.0,75.0
37177,0.938,0.068,0.305,13.565,88.794,-46.061,23.0,73.0
37232,-0.138,-0.528,0.938,-61.344,91.031,68.870,0.0,71.0
37275,-0.141,-1.291,0.782,-19.099,-17.115,22.565,21.0,73.0
37327,0.539,-0.701,0.208,95.992,70.718,-104.031,0.0,70.0
37384,-0.332,-0.104,1.244,-22.847,74.672,38.504,0.0,70.0
37427,-0.213,-0.909,0.776,-45.611,-170.603,55.229,22.0,72.0
37470,1.457,-0.730,-0.174,51.618,39.878,-117.893,21.0,71.0
37512,-0.013,0.197,0.958,0.992,243.618,-0.519,22.0,70.0
37555,-0.731,-0.548,1.397,-81.031,-0.557,124.122,22.0,69.0
37598,-0.692,-1.491,0.841,-17.435,-201.275,24.519,22.0,72.0
37653,1.508,-0.382,0.387,86.443,-80.481,-161.412,0.0,73.0
37696,-0.165,0.121,1.008,-31.710,223.802,31.649,22.0,70.0
37739,-0.740,-0.656,1.320,-96.886,-19.710,132.611,24.0,70.0
37781,-0.760,-1.571,0.808,-15.466,-205.679,-4.458,21.0,71.0
37824,1.658,-0.438,0.198,106.878,-66.763,-194.099,23.0,73.0
37867,0.161,0.317,0.782,-13.122,250.130,2.191,22.0,70.0
37910,-0.762,-0.493,1.479,-107.160,79.504,114.313,25.0,68.0
37953,-1.049,-1.657,0.818,-40.252,-170.366,37.115,23.0,69.0
37995,0.617,-0.970,0.172,108.550,-132.534,-161.939,22.0,71.0
38041,0.360,0.315,0.659,0.076,136.618,27.168,21.0,71.0
38084,-0.356,-0.578,1.231,-80.313,20.679,102.603,23.0,70.0
38127,-0.395,-1.440,0.756,-41.611,-83.992,38.122,22.0,71.0
38169,0.683,-0.895,0.286,103.504,7.573,-143.573,21.0,70.0
38212,0.035,0.472,0.972,15.405,171.267,0.359,22.0,69.0
38255,-0.814,-0.450,1.495,-87.870,-40.924,100.794,29.0,70.0
38308,-0.861,-1.539,0.698,-51.641,-250.137,77.588,0.0,72.0
38351,2.000,0.150,-0.391,125.336,-26.275,-198.031,21.0,72.0
38397,-0.181,0.459,1.106,-52.840,250.130,24.939,21.0,71.0
38439,-0.812,-0.492,1.586,-124.939,24.718,129.611,23.0,69.0
38482,-1.093,-1.868,0.709,-36.656,-238.855,32.137,23.0,71.0
38536,0.858,-0.839,0.109,98.481,-181.351,-193.435,0.0,73.0
38579,0.351,-0.063,0.747,-18.840,177.374,13.679,23.0,71.0
38622,-0.366,-0.525,1.375,-88.725,26.298,98.496,22.0,72.0
38665,-0.462,-1.565,0.777,-28.664,-152.519,33.214,21.0,72.0
38718,1.252,-0.550,0.225,96.198,-15.618,-188.931,0.0,72.0
38771,-0.380,-0.189,1.194,-49.122,165.023,34.863,0.0,71.0
38817,-0.626,-0.992,0.954,-62.939,-162.153,139.626,22.0,72.0
38860,0.639,-1.469,0.200,77.939,-104.511,-121.290,21.0,74.0
38903,0.863,0.268,0.094,68.931,193.763,-71.000,21.0,72.0
39000,-0.748,-0.830,1.060,-86.870,-150.886,148.847,0.0,72.0
39053,0.589,-1.045,0.264,82.351,-100.908,-175.824,0.0,73.0
39096,0.227,0.205,0.859,-2.771,140.565,2.244,21.0,72.0
39139,-0.363,-0.553,1.198,-76.687,6.863,95.656,24.0,71.0
39192,-0.319,-1.226,0.784,-45.252,-122.145,87.962,0.0,74.0
39249,1.252,-0.408,0.363,87.771,26.817,-144.893,0.0,73.0
39292,-0.260,-0.024,0.583,-20.985,250.130,0.061,23.0,70.0
39335,-0.999,-0.407,1.661,-116.336,41.779,112.321,23.0,69.0
39389,-1.159,-1.643,0.849,-52.702,-250.137,89.779,0.0,72.0
39432,1.472,-0.353,0.347,124.031,-183.649,-227.656,19.0,75.0
39475,0.885,-0.043,0.051,26.878,250.130,-35.473,21.0,72.0
39518,-0.844,-0.249,1.101,-115.534,250.130,58.534,23.0,70.0
39561,-1.273,-1.086,1.182,-110.405,-85.244,130.031,24.0,71.0
39614,-0.496,-1.418,0.684,55.725,-250.137,-57.069,0.0,73.0
39671,1.939,0.483,-0.382,58.115,-7.534,-92.725,0.0,74.0
39714,-0.244,-0.164,1.140,-83.313,225.061,54.878,22.0,70.0
39757,-0.573,-0.722,1.059,-93.794,-42.794,151.023,23.0,70.0
39800,-0.073,-1.696,0.333,55.634,-129.763,-42.206,21.0,73.0
39843,1.180,0.103,0.304,97.786,44.931,-177.786,22.0,71.0
39886,-0.236,-0.157,1.058,-58.336,235.733,-1.321,23.0,70.0
39930,-0.431,-0.452,1.135,-110.542,-28.595,129.786,30.0,68.0
39973,-0.183,-2.000,0.398,31.389,-49.550,-61.847,26.0,68.0
40030,0.910,-0.026,0.056,104.504,121.695,-198.939,0.0,68.0
40073,-0.884,-0.308,1.595,-96.145,71.527,126.687,30.0,66.0
40116,-0.848,-1.449,0.909,-48.053,-240.603,154.031,27.0,68.0
40169,0.556,-0.929,0.243,80.328,-84.794,-247.618,0.0,67.0
40213,0.190,0.073,0.857,-37.427,234.153,7.450,27.0,66.0
40263,-0.461,-0.678,1.139,-100.763,57.550,136.214,155.0,65.0
40306,-0.304,-1.522,0.468,36.718,-7.939,-93.779,30.0,64.0
40349,1.161,-0.229,-0.079,112.878,152.443,-121.069,29.0,62.0
40396,-0.595,0.080,0.786,-84.191,250.130,42.198,58.0,90.0
40450,-1.071,-1.020,0.820,-118.870,74.649,90.183,163.0,60.0
40501,-0.290,-1.162,0.422,109.511,-37.634,-84.275,163.0,69.0
40547,-0.082,0.387,0.890,25.550,47.809,-22.534,62.0,65.0
40591,-0.463,-0.512,1.220,-73.389,18.550,9.649,61.0,57.0
40636,-0.288,-1.488,0.099,16.542,31.748,-41.244,62.0,56.0
40680,0.115,-0.386,-0.103,129.405,169.305,-38.481,63.0,56.0
40733,-1.003,-0.055,0.765,-79.069,211.046,41.870,0.0,59.0
40786,-1.267,-1.172,0.497,-87.260,-15.534,30.527,0.0,56.0
40839,-0.164,-0.875,0.127,124.046,-7.053,-51.344,0.0,55.0
40890,-0.192,0.054,0.452,34.893,170.443,-9.924,0.0,76.0
40944,-0.997,-0.403,0.776,-88.183,148.229,2.885,0.0,75.0
40997,-0.954,-1.200,0.209,19.740,-69.519,-18.679,0.0,74.0
41052,-0.269,-0.608,-0.110,146.405,57.313,-4.031,0.0,73.0
41105,-0.942,-0.006,0.189,-38.351,216.305,51.053,0.0,73.0
41159,-1.404,-0.803,0.255,-84.061,6.634,11.916,0.0,72.0
41212,-0.306,-0.790,-0.372,132.489,40.191,-24.397,0.0,72.0
41265,-0.698,0.174,0.286,46.473,220.397,5.275,0.0,55.0
41321,-1.396,-0.560,0.344,-91.756,128.313,4.305,0.0,52.0
41373,-0.522,-0.902,-0.526,62.771,38.573,5.069,0.0,52.0
41466,-1.284,-0.137,0.748,-87.733,-31.580,-27.626,150.0,51.0
41518,-0.861,-0.983,-0.409,-30.092,-112.084,-47.458,187.0,51.0
41571,-0.384,-0.459,-0.440,79.802,-1.427,5.382,0.0,51.0
41623,-1.323,-0.194,0.688,-54.275,-25.992,-7.061,0.0,51.0
41677,-0.683,-0.906,-0.424,-22.802,-46.282,-38.084,0.0,79.0
41730,-0.539,-0.455,-0.273,57.794,46.756,35.153,188.0,51.0
41782,-1.512,-0.323,0.742,-60.985,-28.344,2.137,0.0,51.0
41838,-0.656,-0.916,-0.345,-18.015,-91.901,-31.733,0.0,52.0
41890,-0.323,-0.469,-0.322,61.588,30.573,29.008,0.0,54.0
41943,-1.494,-0.332,0.736,-45.878,27.496,7.107,188.0,51.0
42004,-0.648,-0.852,-0.383,-3.573,-66.153,-37.718,0.0,0.0
42065,-0.781,-0.180,0.231,36.382,45.634,37.122,0.0,0.0
42123,-1.416,-0.580,0.255,-94.183,-157.710,-46.504,0.0,139.0
42176,-0.543,-0.910,-0.200,5.954,-222.649,-20.298,0.0,71.0
42230,-0.007,-0.427,-0.139,66.260,-22.038,-7.725,0.0,71.0
42284,-1.119,-0.361,1.049,-77.000,20.603,-0.885,0.0,69.0
42341,-0.563,-1.052,0.049,59.267,-105.992,-85.855,0.0,76.0
42393,-0.554,-0.202,0.929,57.779,-89.153,-20.313,109.0,123.0
42444,-0.806,-0.646,0.696,-45.603,-127.168,-25.679,95.0,139.0
42496,-0.761,-0.997,0.433,10.053,-235.863,-37.275,73.0,138.0
42543,0.118,-0.671,0.240,42.832,-156.969,-44.260,71.0,86.0
42593,-0.058,-0.643,0.656,21.229,-26.870,74.214,69.0,50.0
42639,0.128,-0.226,0.672,31.885,-1.786,71.344,69.0,77.0
42684,-0.301,-0.785,0.844,-34.580,45.939,-117.221,69.0,77.0
42732,-0.143,-0.723,0.504,4.740,44.710,26.015,70.0,78.0
42776,-0.740,-0.629,1.007,32.718,1.198,107.595,71.0,49.0
42820,-0.661,-0.667,0.805,-6.382,-69.672,25.015,70.0,50.0
42864,0.138,-0.400,0.700,7.107,-104.458,-17.565,69.0,50.0
42908,-0.068,-0.791,0.339,21.870,28.397,-71.939,69.0,51.0
42952,-0.212,-0.125,0.879,-19.427,61.695,53.710,68.0,50.0
42996,-0.454,-0.663,0.712,-42.069,28.504,45.550,68.0,51.0
43040,-0.749,-0.919,0.514,-12.939,45.496,-24.802,68.0,51.0
43084,-0.330,-0.279,0.966,1.618,-66.313,54.718,67.0,53.0
43131,-0.492,-1.001,0.519,-19.076,-63.802,6.710,66.0,52.0
43175,0.155,-0.585,0.493,28.336,-34.374,2.733,64.0,53.0
43219,-0.015,-0.378,0.793,-1.359,24.443,26.405,63.0,53.0
43262,-0.350,-0.722,0.500,-35.817,72.901,1.260,64.0,55.0
43308,-0.365,-0.474,0.806,-17.168,50.336,65.099,64.0,57.0
43352,-0.701,-0.755,0.859,-17.458,-47.427,25.282,63.0,55.0
43396,-0.576,-0.760,0.743,-33.061,-75.099,-40.015,62.0,57.0
43441,0.236,-0.567,0.459,12.870,-60.008,46.656,62.0,84.0
43488,-0.298,-0.450,0.948,5.160,-10.534,0.603,62.0,59.0
43532,-0.268,-0.563,1.117,-36.565,-55.328,-79.687,61.0,58.0
43576,-0.115,-1.085,0.773,15.954,-130.489,-125.160,61.0,57.0
43620,0.179,-0.614,0.136,43.504,-7.397,-83.221,62.0,55.0
43664,-0.395,-0.458,0.797,-35.160,15.206,160.427,63.0,55.0
43708,-0.461,-0.929,0.770,-18.626,-98.313,138.809,51.0,56.0
43755,0.208,-0.681,0.708,27.374,-60.153,-109.099,117.0,56.0
43799,0.470,-0.293,0.344,28.321,102.481,-94.870,61.0,55.0
43843,-0.525,-0.375,0.948,-66.771,148.046,115.069,62.0,56.0
43933,-0.335,-0.872,0.880,47.618,-80.252,-27.015,61.0,58.0
43983,0.119,-0.131,0.507,62.992,-32.221,-59.786,163.0,58.0
44027,-0.449,-0.551,0.998,-90.420,-74.275,25.336,46.0,57.0
44070,0.054,-1.335,0.407,-33.779,-90.733,1.496,44.0,59.0
44113,0.590,-0.815,-0.030,119.573,64.847,-56.504,44.0,58.0
44157,-0.356,0.534,1.083,-47.832,160.275,65.328,62.0,58.0
44201,-0.840,-0.922,1.099,-124.046,-79.084,104.626,45.0,60.0
44244,-0.410,-1.575,0.474,25.008,-178.183,-53.084,43.0,60.0
44288,0.896,-0.402,-0.032,143.198,-54.580,-94.794,30.0,60.0
44334,-0.162,0.026,0.782,-58.221,104.649,54.405,44.0,61.0
44382,-0.423,-0.854,1.021,-101.626,-18.458,85.939,119.0,61.0
44425,-0.108,-1.341,0.549,53.290,-50.168,-70.481,30.0,61.0
44467,0.413,-0.157,0.416,122.450,44.099,-47.382,30.0,61.0
44511,-0.725,-0.218,1.080,-64.458,49.626,76.817,41.0,61.0
44554,-0.628,-1.059,0.762,-60.137,-145.260,77.809,39.0,64.0
44597,0.281,-1.107,0.419,55.229,-120.962,-110.618,26.0,64.0
44639,0.870,0.180,0.156,60.466,94.290,-27.855,26.0,62.0
44685,-0.690,-0.359,1.228,-88.206,86.954,89.641,36.0,62.0
44729,-0.766,-1.344,0.817,-55.840,-109.282,48.275,36.0,65.0
44772,0.327,-0.982,0.432,63.183,-110.061,-123.160,33.0,66.0
44815,0.573,0.157,0.531,5.076,86.397,10.130,32.0,64.0
44858,-0.284,-0.624,1.072,-78.603,76.351,82.397,31.0,65.0
44901,-0.462,-1.223,0.883,-33.031,-13.366,28.145,32.0,66.0
44953,0.199,-0.905,0.533,82.496,-30.015,-65.672,0.0,64.0
45006,-0.261,-0.060,1.016,-21.824,17.427,34.130,0.0,65.0
45057,-0.137,-0.906,0.689,-39.672,-94.939,42.069,156.0,66.0
45103,0.615,-0.813,0.376,73.122,-6.473,-55.527,22.0,66.0
45146,0.110,-0.056,0.670,-2.794,134.275,18.573,21.0,65.0
45188,-0.438,-0.684,0.996,-65.824,51.710,55.237,21.0,66.0
45231,-0.417,-1.010,0.938,-21.458,-63.229,1.763,24.0,66.0
45273,0.259,-0.713,0.438,56.496,-68.626,-74.725,19.0,66.0
45316,-0.106,-0.206,0.878,-27.603,-5.023,23.863,19.0,66.0
45358,-0.308,-0.929,0.814,-47.748,-84.908,43.969,20.0,66.0
45401,0.207,-0.955,0.722,12.519,-92.748,-30.595,18.0,67.0
45447,0.838,-0.334,0.312,57.840,60.496,-49.244,18.0,66.0
45489,-0.400,-0.177,0.894,-43.679,139.786,42.397,20.0,66.0
45532,-0.756,-0.910,1.122,-79.084,-79.260,89.061,21.0,66.0
45575,-0.018,-1.292,0.550,2.985,-163.206,-5.565,21.0,67.0
45617,1.152,-0.680,0.056,104.023,20.603,-57.229,19.0,68.0
45660,0.226,0.138,0.631,27.221,219.733,12.389,21.0,68.0
45707,-0.549,-0.273,1.251,-91.733,108.374,55.420,106.0,66.0
45755,-0.873,-1.498,0.764,-63.015,-99.466,8.664,112.0,68.0
45798,0.346,-0.912,0.362,104.466,-111.023,-118.450,22.0,66.0
45844,0.445,0.183,0.785,29.130,33.336,-11.397,21.0,67.0
45887,-0.178,-0.477,0.893,-71.527,45.573,48.443,22.0,66.0
45934,-0.259,-1.125,0.793,-58.489,-7.382,49.458,106.0,66.0
45982,0.245,-0.882,0.537,80.725,2.710,-61.328,106.0,67.0
46029,0.142,0.183,0.888,19.221,93.931,-5.817,107.0,66.0
46077,-0.368,-0.625,1.103,-93.840,-31.374,38.328,106.0,66.0
46125,-0.118,-1.460,0.500,-6.710,-76.992,-39.733,107.0,65.0
46216,-0.050,0.132,0.695,-18.000,209.855,20.061,108.0,63.0
46264,-0.604,-0.639,1.279,-114.618,41.160,75.244,115.0,64.0
46315,-0.317,-1.449,0.524,52.076,-62.031,-57.626,109.0,64.0
46362,0.460,-0.308,0.597,132.382,15.924,-41.695,109.0,63.0
46410,-0.143,-0.198,0.551,-18.771,156.603,1.160,118.0,62.0
46458,-0.444,-0.601,1.103,-77.649,41.244,25.389,120.0,60.0
46507,-0.300,-1.260,0.436,36.511,-33.290,-55.603,117.0,60.0
46555,0.245,-0.355,0.261,102.397,88.740,-48.649,119.0,61.0
46606,-0.658,-0.307,0.806,-56.511,151.832,25.985,164.0,60.0
46656,-0.848,-1.041,0.790,-64.160,-17.916,37.069,165.0,58.0
46710,-0.013,-0.742,0.302,118.153,-8.511,-67.267,164.0,61.0
46755,-0.379,0.086,0.795,-38.450,103.450,16.084,62.0,57.0
46807,-0.632,-0.643,0.985,-105.718,-1.038,27.244,166.0,56.0
46851,-0.390,-1.173,0.524,31.588,-64.115,-40.977,63.0,56.0
46896,0.247,-0.534,0.358,111.702,46.198,-44.992,62.0,62.0
46941,-0.448,-0.172,0.580,-19.015,190.137,2.718,65.0,55.0
46986,-0.946,-0.590,1.073,-95.473,44.840,40.359,65.0,56.0
47031,-0.671,-1.289,0.414,24.038,-72.557,-26.321,65.0,55.0
47076,0.146,-0.689,0.164,120.374,34.527,-47.550,69.0,54.0
47131,-0.388,-0.002,0.463,-14.130,220.855,21.305,0.0,55.0
47184,-1.168,-0.706,0.860,-95.664,67.901,45.756,0.0,56.0
47237,-0.319,-1.011,-0.064,115.985,3.992,-49.115,0.0,57.0
47291,-0.397,0.441,0.705,-0.450,148.504,7.252,0.0,74.0
47344,-1.014,-0.680,0.644,-102.038,25.641,2.183,0.0,73.0
47398,-0.385,-0.868,-0.064,79.710,16.389,-30.954,0.0,74.0
47452,-0.938,0.213,0.749,-8.931,124.145,15.458,0.0,73.0
47506,-1.640,-0.881,0.569,-115.397,-175.954,-17.748,0.0,72.0
47563,-0.037,-0.730,-0.036,106.847,-73.076,-46.618,0.0,75.0
47617,-0.650,-0.237,0.525,-25.145,76.855,47.336,0.0,73.0
47671,-1.122,-0.729,0.645,-62.947,-13.885,49.634,0.0,74.0
47724,-0.579,-0.748,0.362,61.771,-50.466,-5.466,0.0,74.0
47778,-0.277,-0.237,0.132,30.504,62.198,64.290,0.0,76.0
47833,-0.821,-0.279,0.585,-57.450,89.267,39.168,0.0,75.0
47886,-1.399,-0.771,0.534,-48.450,-49.840,-21.229,0.0,76.0
47939,-0.571,-0.633,0.515,-4.031,-250.137,-1.573,0.0,57.0
47992,0.271,-0.568,0.142,70.901,-28.382,-87.870,0.0,56.0
48050,-0.584,-0.027,0.490,-44.710,241.061,51.252,0.0,77.0
48103,-1.654,-1.444,0.268,-36.863,56.168,29.641,0.0,76.0
48157,-0.566,-0.364,0.203,80.863,-44.565,1.557,0.0,76.0
48210,-1.034,-0.323,0.854,-73.710,-81.542,28.710,0.0,60.0
48264,-0.431,-1.250,-0.037,10.328,-95.176,-43.282,0.0,58.0
48317,-0.233,-0.005,0.594,77.817,58.557,-8.855,0.0,58.0
48371,-0.714,-0.271,0.905,-62.603,54.282,32.916,0.0,78.0
48425,-0.914,-1.104,0.040,28.847,26.985,-53.855,0.0,78.0
48478,-0.689,0.063,0.836,-0.710,-21.687,46.031,0.0,58.0
48536,-0.884,-0.822,0.302,-49.351,-51.427,36.252,0.0,79.0
48588,-0.011,-0.491,0.302,70.443,-34.031,-4.725,0.0,58.0
48642,-0.757,-0.394,0.477,-12.779,105.992,-40.099,0.0,59.0
48701,-0.822,-0.522,0.702,-14.924,1.573,45.542,0.0,61.0
48752,-1.250,-0.797,0.379,14.550,-68.893,-18.176,0.0,59.0
48847,-0.646,-0.529,0.624,-50.550,23.115,-51.489,0.0,60.0
48901,-0.451,-0.726,0.316,4.344,-1.870,65.229,0.0,64.0
48954,-0.913,-0.473,0.822,15.053,1.015,-8.931,0.0,80.0
49006,-0.420,-0.381,0.377,-16.550,-9.885,-24.458,0.0,63.0
49061,-0.960,-0.770,0.489,-28.198,18.901,7.740,0.0,79.0
49115,-0.337,-0.237,0.644,21.931,-5.931,36.115,0.0,64.0
49167,-1.035,-0.706,0.449,-13.481,39.321,-24.916,0.0,63.0
49219,-0.502,-0.387,0.693,13.267,-30.824,6.924,0.0,65.0
49271,-0.556,-0.525,0.326,20.344,14.397,37.084,0.0,62.0
49324,-0.874,-0.518,0.436,-29.305,57.405,-32.756,0.0,62.0
49376,-0.426,-0.369,0.405,25.298,4.061,26.924,0.0,62.0
49429,-0.947,-0.599,0.396,-7.863,58.908,-5.695,0.0,81.0
49482,-0.704,-0.323,0.572,-1.511,-10.176,26.840,0.0,81.0
49539,-0.814,-0.580,0.271,0.595,-1.412,16.267,0.0,80.0
49592,-0.659,-0.207,0.527,-10.618,30.695,-23.809,0.0,80.0
49646,-0.845,-0.665,0.159,11.450,0.519,57.557,0.0,80.0
49699,-0.703,-0.337,0.432,-6.145,23.542,-48.939,0.0,80.0
49753,-0.706,-0.579,0.259,20.458,-4.740,66.160,0.0,81.0
49806,-0.820,-0.481,0.344,-7.931,35.763,-44.504,0.0,80.0
49859,-0.657,-0.371,0.488,20.786,0.779,20.443,0.0,80.0
49912,-1.023,-0.608,0.269,-12.733,27.473,22.962,0.0,79.0
49967,-0.745,-0.202,0.573,-11.427,-20.740,-40.122,0.0,80.0
50023,-0.710,-0.562,0.022,20.763,-13.679,60.496,0.0,80.0
50076,-0.770,-0.311,0.323,-6.298,45.420,-61.634,0.0,79.0
50129,-0.875,-0.470,0.467,16.084,-1.198,66.168,0.0,80.0
50183,-0.967,-0.378,0.339,0.206,21.145,-36.931,0.0,79.0
50236,-0.737,-0.216,0.565,-3.786,0.664,18.374,0.0,79.0
50289,-1.083,-0.635,0.301,-4.687,20.740,19.847,0.0,79.0
50343,-0.617,-0.072,0.580,-5.550,-3.832,-84.550,0.0,79.0
50397,-1.170,-0.570,-0.018,1.397,15.191,91.855,0.0,78.0
50450,-0.594,-0.179,0.413,-0.954,-37.786,-89.389,0.0,79.0
50506,-0.771,-0.552,-0.011,8.344,-16.656,102.878,0.0,79.0
50560,-0.760,-0.427,0.222,12.366,37.664,-86.901,0.0,79.0
50612,-0.954,-0.490,0.425,0.053,13.412,83.496,181.0,78.0
50666,-0.879,-0.415,0.253,22.046,-3.015,-51.275,0.0,78.0
50718,-0.622,-0.143,0.616,-13.153,34.908,18.084,181.0,79.0
50770,-1.054,-0.561,0.125,18.313,27.412,-4.550,0.0,59.0
50823,-0.679,-0.053,0.661,-13.076,8.725,-50.443,0.0,59.0
50875,-0.973,-0.505,-0.151,25.244,21.145,43.954,0.0,57.0
50929,-0.725,-0.344,0.543,-4.405,0.252,-79.595,181.0,58.0
50981,-1.189,-0.276,-0.001,14.916,-4.939,93.435,0.0,57.0
51035,-0.491,-0.508,0.348,3.969,-47.107,-89.962,0.0,58.0
51087,-0.870,-0.327,-0.165,5.527,42.206,96.542,0.0,58.0
51139,-0.673,-0.661,0.185,21.046,24.298,-112.504,0.0,57.0
51190,-1.199,-0.526,0.165,-27.481,12.359,97.695,180.0,57.0
51243,-0.612,-0.587,0.227,36.282,-32.580,-100.214,0.0,57.0
51294,-0.807,-0.303,0.175,-37.695,80.641,92.794,181.0,56.0
51346,-1.064,-0.596,0.180,44.557,19.947,-80.252,0.0,57.0
51409,-0.650,-0.305,0.601,-43.611,-28.153,-45.046,181.0,57.0
51464,-0.828,-0.235,-0.104,54.748,-1.947,28.542,0.0,57.0
51562,-0.822,-0.197,-0.023,75.809,-33.053,-29.962,0.0,59.0
51616,-0.800,-0.836,0.634,-60.260,38.695,-1.870,182.0,57.0
51671,-0.802,-0.124,-0.234,60.573,-0.038,8.382,0.0,58.0
51725,-0.826,-0.821,0.518,-22.893,15.168,-53.183,182.0,57.0
51778,-1.027,0.169,-0.190,21.328,9.969,86.176,181.0,56.0
51833,-0.650,-1.030,0.312,3.206,-21.641,-90.092,0.0,56.0
51887,-0.925,0.112,-0.214,-4.725,51.321,81.573,181.0,55.0
51945,-0.769,-0.951,0.304,42.885,-15.557,-102.664,0.0,55.0
51998,-1.039,-0.187,-0.260,-24.656,43.344,78.939,183.0,55.0
52054,-0.790,-0.879,0.114,41.405,-26.344,-80.748,0.0,55.0
52107,-0.871,-0.295,0.122,-32.084,23.817,51.405,182.0,55.0
52161,-0.951,-0.543,0.094,41.321,3.267,-41.672,184.0,56.0
52214,-0.905,-0.252,0.105,-40.992,29.702,48.000,182.0,55.0
52269,-0.826,-0.514,0.084,41.885,-16.656,-49.168,183.0,56.0
52323,-0.845,-0.310,0.078,-36.153,42.412,32.634,184.0,56.0
52379,-0.921,-0.467,0.072,31.504,-21.939,-36.382,183.0,55.0
52433,-0.755,-0.356,0.089,-23.122,35.397,20.359,183.0,55.0
52489,-0.975,-0.473,0.047,24.977,14.885,-20.649,0.0,55.0
52542,-0.885,-0.463,0.144,-31.863,17.511,34.069,184.0,54.0
52597,-0.862,-0.485,0.017,32.298,-8.863,-53.481,0.0,54.0
52651,-0.834,-0.447,0.162,-27.321,21.221,30.122,184.0,53.0
52705,-0.939,-0.533,0.048,23.740,8.420,-34.267,185.0,54.0
52759,-0.697,-0.397,0.083,-17.260,12.214,15.496,185.0,53.0
52812,-1.127,-0.502,-0.019,24.198,18.962,-22.718,185.0,52.0
52870,-0.734,-0.471,0.168,-18.595,-22.053,-14.687,187.0,53.0
52924,-1.030,-0.656,-0.110,17.435,-6.298,-7.260,186.0,53.0
52977,-0.852,-0.558,0.116,-22.786,24.695,19.015,184.0,52.0
53032,-0.999,-0.598,0.075,4.389,-49.374,-27.763,0.0,54.0
53088,-0.460,-0.523,0.047,-3.115,-11.840,-4.221,0.0,61.0
53142,-1.015,-0.659,-0.002,11.969,69.832,-26.496,173.0,79.0
53196,-0.946,-0.603,0.215,-28.443,-28.206,40.664,172.0,53.0
53250,-0.510,-0.570,0.030,18.649,-26.321,-73.252,178.0,61.0
53309,-1.102,-0.589,0.010,-17.015,49.740,69.779,177.0,85.0
53362,-0.679,-0.540,0.211,3.786,-33.000,-11.939,176.0,52.0
53415,-0.941,-0.593,-0.063,0.687,4.214,-11.145,175.0,52.0
53469,-0.779,-0.578,0.067,-2.466,31.954,53.237,175.0,51.0
53522,-0.788,-0.540,0.135,13.260,13.282,-11.954,176.0,51.0
53575,-0.960,-0.520,0.156,-8.267,-14.427,13.908,176.0,51.0
53629,-0.774,-0.512,0.021,6.901,-23.252,-8.427,177.0,51.0
53684,-0.790,-0.499,0.053,-9.626,-1.992,0.015,0.0,52.0
53739,-0.794,-0.519,0.038,16.565,5.305,7.794,0.0,51.0
53796,-0.864,-0.415,0.087,3.290,13.237,4.405,189.0,51.0
53850,-1.046,-0.474,0.118,-19.496,-34.885,4.069,188.0,52.0
53905,-0.969,-0.532,0.051,-31.756,-78.924,11.534,0.0,53.0
53960,-0.885,-0.442,0.109,-31.183,-97.244,28.443,0.0,54.0
54017,-0.942,-0.560,0.263,-18.557,-120.641,43.183,0.0,74.0
54073,-0.925,-0.559,0.626,1.473,-151.244,37.000,0.0,75.0
54128,-0.560,-0.423,0.357,28.115,-101.473,12.344,0.0,76.0
54185,-0.775,-0.271,0.530,10.901,-58.740,18.901,0.0,77.0
54242,-0.937,-0.377,0.685,-6.168,-117.008,19.168,0.0,79.0
