Timestamp(ms),AccelX(g),AccelY(g),AccelZ(g),GyroX(deg/s),GyroY(deg/s),GyroZ(deg/s),DistanceLeft(cm),DistanceRight(cm)
21489,-0.512,-0.671,0.749,-20.260,-10.252,-66.527,153.0,92.0
21539,0.020,-0.350,0.477,20.809,-79.672,-6.656,152.0,73.0
21590,-0.530,-1.248,0.728,-46.649,-7.870,-65.725,153.0,73.0
21643,0.047,-0.559,0.350,48.802,-13.695,20.366,0.0,71.0
21693,-0.698,-0.641,1.107,-22.137,12.099,-46.985,157.0,71.0
21744,-0.211,-0.507,0.228,1.656,12.710,-0.786,156.0,71.0
21794,-0.765,-0.384,1.106,-48.214,-58.282,42.267,156.0,72.0
21850,-0.229,-0.687,0.176,-60.718,0.206,-19.153,0.0,72.0
21903,0.084,-0.269,0.706,10.565,-7.908,5.000,0.0,73.0
21953,-0.695,-1.035,0.684,-70.405,136.351,-102.191,152.0,71.0
22003,-0.015,-0.481,0.588,16.588,-51.763,92.954,152.0,71.0
22053,-0.956,-1.101,0.692,-17.000,49.573,-33.740,153.0,71.0
22107,-0.410,-0.667,0.636,-5.931,-32.611,5.756,0.0,71.0
22160,-0.504,-0.825,0.790,-13.191,-213.595,76.939,0.0,77.0
22210,0.368,-0.667,0.067,-27.023,-4.092,-128.282,152.0,73.0
22260,0.022,-0.533,0.958,-31.863,78.809,-4.176,152.0,72.0
22313,-0.826,-1.403,0.264,-8.687,155.015,-2.954,150.0,82.0
22365,-0.814,-0.149,1.686,26.282,-111.672,64.466,149.0,81.0
22415,-0.384,-0.569,0.290,-60.725,73.588,-137.473,151.0,78.0
22466,0.028,-0.541,0.725,6.107,-93.206,91.756,151.0,73.0
22516,-0.542,-1.089,0.244,-26.397,94.084,-38.267,151.0,72.0
22566,-0.117,-0.281,0.935,1.527,-54.893,52.542,150.0,73.0
22617,-0.646,-0.808,0.655,-68.282,51.160,-89.496,151.0,74.0
22670,0.494,-0.538,0.670,39.702,-98.931,72.924,0.0,75.0
22723,-0.547,-0.868,0.191,-23.878,250.130,-144.641,146.0,75.0
22773,-0.372,-0.341,0.749,6.977,-57.511,141.427,150.0,78.0
22823,-0.910,-1.480,0.137,-17.809,-115.702,-29.466,145.0,76.0
22874,0.318,-0.599,0.630,-16.221,-91.969,-55.008,142.0,78.0
22924,0.272,-1.122,0.143,0.718,-29.000,-37.038,143.0,77.0
22976,-0.096,-0.773,0.516,-47.260,183.679,-46.603,143.0,102.0
23026,0.154,-0.697,0.684,-6.733,-2.534,143.298,143.0,77.0
23076,-1.406,-1.470,0.152,25.160,179.321,-85.969,146.0,80.0
23127,-0.186,-0.047,1.562,-18.809,-190.496,49.305,145.0,75.0
23181,-0.532,-1.462,-0.379,-5.962,4.267,-92.359,145.0,80.0
23231,0.092,-0.303,1.036,2.275,-108.198,27.351,144.0,75.0
23281,0.146,-1.493,-0.157,30.565,-110.252,-16.740,145.0,75.0
23324,-0.484,-0.323,1.001,-24.389,95.763,-64.198,16.0,74.0
23375,-0.371,-1.077,0.648,-31.313,-224.893,146.198,145.0,100.0
23418,0.745,-1.013,-0.145,99.710,-57.840,-168.588,16.0,76.0
23469,0.004,-0.148,0.571,-30.069,187.305,-31.885,147.0,72.0
23512,-0.421,-1.191,0.865,-45.290,-93.878,111.351,16.0,72.0
23558,0.417,-1.494,0.363,115.534,-16.847,-117.565,18.0,72.0
23600,0.275,0.552,0.942,69.603,169.748,-48.374,20.0,70.0
23650,-0.441,-0.669,1.415,-52.130,42.740,98.870,148.0,69.0
23700,0.403,-2.000,-0.168,71.092,3.618,-42.282,151.0,68.0
23744,-0.153,-0.048,-0.487,211.565,250.130,-142.160,53.0,64.0
23789,-1.600,-0.093,1.235,-115.626,139.008,81.458,55.0,63.0
23833,-0.934,-0.839,1.107,-151.565,-250.137,109.496,57.0,63.0
23878,0.424,-1.379,-0.319,150.695,-1.779,-250.137,56.0,63.0
23925,-0.039,1.034,1.432,47.595,236.244,-30.885,57.0,63.0
24012,-0.893,-2.000,-0.183,-73.878,-221.733,110.916,58.0,63.0
24057,0.545,-0.713,-0.080,201.817,22.038,-205.275,58.0,60.0
24103,0.031,0.899,0.873,15.672,247.725,-9.511,57.0,88.0
24147,-1.214,-0.259,2.000,-165.511,55.939,48.863,61.0,62.0
24195,-0.647,-2.000,-0.647,-7.336,-174.282,44.603,61.0,97.0
24239,-0.108,0.017,-0.135,212.053,120.450,-129.092,62.0,60.0
24284,-0.943,0.093,0.620,-54.550,125.153,26.618,62.0,60.0
24329,-0.863,-0.293,1.926,-142.603,-123.557,89.603,61.0,64.0
24376,-0.014,-2.000,-0.633,77.412,-86.015,-102.458,60.0,59.0
24421,0.236,0.612,1.099,138.641,73.389,-75.863,59.0,62.0
24467,-0.582,-0.452,1.067,-82.275,11.099,95.611,59.0,93.0
24512,0.288,-1.263,0.029,-74.939,-80.618,78.344,59.0,60.0
24558,0.254,-1.152,-0.138,122.061,200.908,-165.802,59.0,91.0
24605,-0.358,0.656,0.905,12.588,250.130,12.244,63.0,105.0
24659,-1.684,-0.453,2.000,-172.183,-64.702,110.168,0.0,87.0
24707,-0.380,-2.000,-0.880,90.191,-250.137,-62.252,63.0,93.0
24756,0.913,0.932,0.744,209.603,129.931,-163.427,57.0,85.0
24812,-0.832,0.110,0.354,-104.908,250.130,73.855,0.0,120.0
24865,-1.294,-0.676,0.752,-216.099,-29.710,87.588,0.0,82.0
24920,-0.166,-0.824,-0.675,242.779,-4.137,-87.710,0.0,85.0
24976,-0.870,0.374,0.579,-39.290,137.870,-15.740,0.0,117.0
25030,-0.999,-0.173,1.427,-200.870,-126.855,26.656,0.0,84.0
25085,-0.490,-1.872,-0.786,181.634,-14.374,-84.115,0.0,103.0
25142,-1.213,1.189,1.426,-53.863,4.061,41.412,0.0,120.0
25187,-0.618,-0.199,1.196,-172.313,-250.137,130.008,64.0,64.0
25237,0.179,-1.812,-0.481,125.679,41.046,-99.466,63.0,86.0
25282,-0.174,0.850,1.821,94.412,167.275,-19.344,63.0,65.0
25336,-1.083,-0.406,1.518,-130.886,53.588,71.855,0.0,87.0
25389,-0.280,-2.000,-1.077,-44.344,-92.450,47.420,0.0,61.0
25444,-0.889,-0.153,0.309,165.427,118.710,-70.313,0.0,88.0
25496,-1.051,-0.012,1.917,-107.191,-144.687,27.786,0.0,64.0
25546,0.355,-2.000,-1.660,18.962,-15.527,-69.710,63.0,144.0
25593,-0.639,0.014,0.399,159.443,242.252,-67.084,63.0,90.0
25650,-1.095,-0.363,2.000,-124.275,-111.908,106.863,0.0,65.0
25703,-0.208,-2.000,-0.849,19.260,-35.412,-62.397,0.0,64.0
25749,-0.026,0.938,1.807,90.832,104.443,-52.420,60.0,90.0
25794,-0.950,-0.257,2.000,-117.824,-109.687,126.702,60.0,65.0
25847,-0.278,-2.000,-0.682,-11.328,-168.786,-4.511,0.0,64.0
25895,0.064,0.310,0.109,161.458,145.321,-136.115,60.0,108.0
25942,-1.144,-0.380,0.879,-106.947,41.977,87.466,60.0,90.0
25995,-1.160,-1.240,0.515,-101.221,-162.275,75.496,0.0,64.0
26040,0.242,-0.596,-0.260,154.481,-11.206,-103.809,57.0,67.0
26090,-0.413,0.319,1.024,-76.092,46.611,63.763,58.0,92.0
26140,-0.484,-0.483,1.897,-145.137,-144.886,106.336,160.0,67.0
26191,0.339,-1.900,-0.220,130.588,19.473,-147.931,157.0,67.0
26237,0.012,1.065,0.931,63.847,249.229,1.725,57.0,67.0
26291,-1.862,-0.391,1.953,-197.305,18.710,85.618,0.0,67.0
26341,-1.777,-2.000,-0.010,-127.931,-250.137,79.504,156.0,68.0
26392,0.816,-0.574,-0.408,194.893,-204.382,-213.573,155.0,70.0
26446,0.346,0.438,0.742,-56.328,107.969,56.313,0.0,69.0
26544,-0.212,-2.000,-0.034,-8.267,49.534,-70.954,155.0,68.0
26597,-0.312,-0.209,0.193,166.153,72.321,-80.244,0.0,68.0
26650,-0.949,-0.330,1.354,-106.344,-56.443,47.229,0.0,69.0
26704,0.315,-2.000,-0.169,-46.122,-240.359,10.053,0.0,73.0
26747,0.798,0.531,0.597,112.832,148.076,-73.886,20.0,73.0
26802,-0.730,-0.477,1.145,-87.496,156.305,69.985,0.0,71.0
26855,-0.710,-0.837,1.067,-115.763,-207.198,166.244,0.0,72.0
26906,0.857,-0.978,-0.691,137.916,128.870,-138.137,152.0,72.0
26957,-0.913,0.858,1.524,-81.420,250.130,-7.115,152.0,71.0
27004,-1.215,-0.652,1.053,-175.756,-250.137,127.557,21.0,72.0
27047,-0.089,-2.000,-0.977,1.779,-250.137,-55.557,16.0,74.0
27091,1.151,-0.050,-0.050,165.931,-76.519,-152.359,14.0,76.0
27134,0.290,0.157,0.802,-36.328,76.183,68.290,12.0,77.0
27177,0.323,-0.473,1.531,-122.557,-11.405,112.534,17.0,77.0
27222,0.495,-2.000,-0.627,15.733,165.191,-94.321,16.0,77.0
27272,0.552,-0.463,-0.211,173.389,250.130,-107.679,149.0,71.0
27323,-1.811,-0.011,1.371,-105.061,250.130,36.000,154.0,68.0
27377,-1.410,-1.648,0.841,-72.679,-250.137,117.489,153.0,68.0
27428,1.273,-0.577,-0.336,182.023,117.687,-205.824,154.0,68.0
27475,-0.016,0.347,0.076,72.427,250.130,-14.779,56.0,92.0
27523,-1.068,-0.209,0.394,-108.931,250.130,29.504,59.0,85.0
27577,-1.442,-0.904,0.471,-119.061,130.878,56.099,0.0,80.0
27633,-0.661,-0.986,-0.531,170.794,96.847,-66.000,0.0,117.0
27691,-0.864,0.770,0.877,-29.008,164.336,-13.618,0.0,135.0
27749,-1.418,-0.531,0.815,-157.916,-89.695,11.748,0.0,147.0
27809,-0.590,-0.725,-0.547,133.840,-103.695,-89.977,0.0,83.0
27859,-0.869,-0.222,0.708,-74.771,-132.863,0.115,91.0,81.0
27909,-0.847,-1.377,0.037,-65.580,-203.023,-27.664,104.0,116.0
27958,0.304,-0.839,-0.093,105.672,-73.809,-98.412,89.0,119.0
28007,-0.059,-0.012,0.456,29.954,78.435,4.397,89.0,117.0
28055,-0.372,-0.401,0.643,-98.733,133.504,13.870,60.0,132.0
28105,-0.271,-1.079,-0.708,-102.267,190.557,59.969,91.0,130.0
28161,-0.763,-0.375,-0.724,107.328,250.130,97.275,110.0,0.0
28218,-2.000,-0.386,1.066,-56.733,229.198,60.710,147.0,0.0
28269,-1.330,-0.355,0.098,-106.405,-147.634,11.344,146.0,51.0
28329,-0.975,-1.107,-0.662,54.366,-211.008,-91.389,0.0,0.0
28379,-0.801,0.362,0.552,-52.710,-230.015,-45.634,59.0,155.0
28430,-0.814,-0.592,0.003,-141.305,-250.137,36.473,87.0,148.0
28480,-0.533,-1.312,0.045,36.534,-177.366,14.710,151.0,62.0
28525,-0.163,-0.196,0.978,3.366,-151.275,16.443,61.0,81.0
28575,-0.403,-0.984,0.304,-31.611,-147.573,0.511,147.0,83.0
28621,-0.514,-0.651,0.725,-16.557,-95.252,-27.412,59.0,83.0
28667,0.149,-0.661,0.421,-12.435,-194.740,75.008,41.0,69.0
28711,0.264,-0.919,0.225,23.427,-0.038,-77.427,43.0,65.0
28754,-0.426,-0.115,0.566,-10.901,131.122,-5.878,44.0,65.0
28815,-1.101,-0.797,0.977,-116.519,-139.710,135.985,0.0,65.0
28858,-0.006,-1.697,-0.381,16.840,-229.733,-56.061,38.0,67.0
28902,0.388,0.132,0.231,99.183,13.221,-177.718,38.0,67.0
28945,-0.473,-0.532,0.692,-65.000,89.122,31.992,41.0,66.0
28988,-0.329,-0.553,1.176,-100.802,-74.962,154.771,39.0,70.0
29074,-0.438,-0.392,0.509,76.870,28.000,-88.183,37.0,70.0
29121,-0.590,-0.384,1.045,-86.802,-151.924,97.947,35.0,73.0
29164,0.013,-1.352,0.430,-71.664,-230.298,61.107,32.0,76.0
29207,0.871,-1.333,-0.247,66.099,0.000,-210.931,20.0,74.0
29249,0.018,0.225,0.894,51.359,210.031,-60.977,21.0,72.0
29293,-0.938,-0.597,1.028,-115.626,-0.740,182.198,22.0,94.0
29338,-0.603,-1.624,0.478,-80.069,-192.260,185.206,63.0,75.0
29381,0.442,-1.112,0.299,49.008,-97.534,-178.672,19.0,82.0
29424,0.546,-0.087,0.224,68.725,40.092,-147.107,18.0,77.0
29470,-0.384,-0.492,0.942,-100.771,31.160,51.786,18.0,96.0
29513,0.019,-1.279,0.499,-95.382,-104.901,110.496,18.0,84.0
29556,0.456,-1.367,0.261,63.130,53.023,-133.802,16.0,79.0
29599,-0.128,-0.228,0.426,83.427,180.962,-109.519,16.0,77.0
29641,-1.112,-0.456,1.351,-97.313,-58.336,77.794,14.0,76.0
29684,-0.334,-1.425,0.194,-67.443,-250.137,130.153,14.0,83.0
29727,1.023,-1.215,-0.175,48.137,-82.168,-168.992,17.0,86.0
29770,0.889,-0.072,0.340,31.046,160.855,-79.397,16.0,80.0
29813,-0.274,-0.671,0.840,-61.351,108.176,106.756,18.0,79.0
29859,0.065,-1.311,0.611,-12.672,-69.679,158.672,19.0,79.0
29913,0.501,-1.313,0.229,110.282,61.244,-111.053,0.0,77.0
29966,0.738,-0.331,-0.138,97.817,250.130,-142.595,0.0,71.0
30015,-1.055,-0.302,0.346,-60.977,250.130,-48.779,140.0,70.0
30064,-0.871,-0.596,1.572,-127.519,7.313,69.908,141.0,67.0
30108,-0.017,-1.807,-0.553,170.427,32.481,-124.046,37.0,68.0
30156,0.486,0.337,0.780,138.366,152.573,-84.565,77.0,101.0
30201,-1.064,0.032,0.619,-130.748,196.168,43.847,55.0,88.0
30252,-1.155,-1.169,2.000,-171.489,-120.229,112.092,80.0,83.0
30299,0.104,-1.135,-0.678,190.473,35.855,-153.481,80.0,86.0
30344,-0.350,0.705,0.725,14.153,182.473,-4.534,58.0,86.0
30393,-1.319,-0.591,1.071,-157.389,-7.221,38.023,57.0,152.0
30439,-1.447,-2.000,0.513,-38.038,-250.137,27.092,58.0,82.0
30484,0.517,-0.500,-0.089,140.832,-154.588,-125.649,43.0,91.0
30528,0.487,0.013,0.242,35.573,47.076,11.779,43.0,64.0
30572,-0.693,-0.501,0.697,-122.511,74.870,72.053,55.0,68.0
30615,-0.524,-1.182,0.784,-147.466,-155.252,101.611,38.0,66.0
30662,0.350,-1.131,-0.608,184.664,68.824,-148.595,36.0,64.0
30706,-0.098,0.605,0.880,-21.733,157.947,38.534,54.0,64.0
30756,-0.744,-0.585,1.366,-143.733,-7.466,81.771,160.0,64.0
30807,-0.596,-2.000,-0.349,64.160,-182.198,-36.794,155.0,64.0
30852,0.254,1.120,1.281,109.031,108.573,-67.382,55.0,67.0
30896,-0.645,-0.158,0.852,-98.458,21.107,53.427,54.0,65.0
30946,-0.406,-1.156,0.758,-135.763,-202.122,17.290,156.0,67.0
30992,0.286,-1.086,-0.925,125.664,138.267,-218.206,78.0,65.0
31039,-0.142,0.267,0.468,-29.649,66.763,196.053,53.0,67.0
31084,-0.182,-0.784,1.023,-100.992,-84.725,87.802,54.0,64.0
31133,-0.204,-1.515,-0.467,27.664,113.802,-148.275,143.0,67.0
31179,-0.298,0.213,1.362,25.511,122.053,111.351,54.0,91.0
31233,-0.629,-0.969,1.318,-68.588,-21.473,121.122,0.0,69.0
31283,-0.433,-0.983,-0.111,94.573,-6.382,-42.786,157.0,66.0
31336,-0.773,-0.244,1.409,-50.573,-108.160,11.573,0.0,66.0
31428,0.044,-0.394,0.656,17.977,81.580,23.511,135.0,68.0
31479,-0.349,-0.650,0.791,-37.344,5.634,116.092,153.0,69.0
31533,0.195,-1.041,0.301,47.763,-13.412,-60.679,153.0,70.0
31579,0.055,0.016,0.307,59.084,89.282,-22.817,57.0,97.0
31630,-1.083,-0.653,1.094,-134.718,20.656,31.840,155.0,68.0
31680,-0.761,-2.000,0.296,10.977,-247.962,45.458,153.0,72.0
31731,0.559,0.095,0.678,182.718,-15.427,-150.809,153.0,68.0
31775,-0.623,0.119,0.553,-96.458,160.015,12.656,55.0,68.0
31826,-0.838,-0.845,1.479,-186.725,-43.855,72.550,156.0,71.0
31877,-0.056,-1.913,-0.372,161.008,-111.443,-97.466,153.0,68.0
31925,0.303,0.901,0.772,79.122,138.282,-11.183,54.0,68.0
31970,-0.931,-0.376,1.083,-142.733,83.748,69.198,56.0,70.0
32020,-0.802,-1.486,0.411,-132.420,-140.137,72.656,156.0,69.0
32066,0.421,-0.694,-0.032,223.038,31.382,-136.305,57.0,69.0
32112,-0.162,0.663,0.796,19.244,181.267,20.198,55.0,90.0
32158,-1.087,-0.500,1.211,-145.038,30.779,51.916,57.0,93.0
32208,-1.014,-1.544,0.238,-97.779,-215.733,38.176,157.0,67.0
32253,0.405,-0.707,-0.150,200.985,-3.962,-147.069,54.0,68.0
32299,-0.049,0.865,0.774,-0.183,195.611,42.366,56.0,67.0
32352,-1.224,-0.284,2.000,-179.916,-25.412,95.191,159.0,68.0
32403,-0.783,-2.000,-0.601,17.885,-249.756,-51.504,157.0,69.0
32451,0.592,0.050,-0.111,249.351,-6.084,-131.901,104.0,68.0
32504,-0.434,-0.045,0.473,-74.412,159.733,55.931,0.0,68.0
32558,-0.458,-0.295,1.686,-200.794,-62.710,96.153,0.0,71.0
32608,0.017,-1.824,-0.091,124.511,-11.405,-135.664,155.0,69.0
32654,0.021,0.615,1.330,97.947,120.672,-18.740,54.0,68.0
32698,-0.994,-0.406,1.112,-132.122,69.374,42.603,53.0,71.0
32752,-0.956,-0.664,1.123,-178.405,-244.649,135.168,156.0,71.0
32803,0.395,-1.232,-0.198,211.962,-61.885,-157.359,152.0,70.0
32854,0.295,1.098,0.933,52.351,163.237,-15.473,155.0,68.0
32908,-0.944,-0.423,1.035,-158.802,154.130,34.588,0.0,69.0
32961,-1.159,-0.988,0.934,-163.244,-197.611,110.237,0.0,71.0
33012,0.146,-1.004,-0.144,241.145,-53.626,-139.412,154.0,69.0
33065,0.093,1.037,1.172,31.206,165.435,-5.870,0.0,67.0
33119,-0.853,-0.240,1.600,-180.740,28.588,68.580,0.0,68.0
33175,-0.235,-2.000,-0.794,-2.137,-75.985,-7.237,0.0,71.0
33228,0.148,0.002,-0.001,245.229,112.687,-63.763,0.0,68.0
33280,-1.105,-0.114,0.678,-91.153,116.977,17.718,159.0,68.0
33333,-0.965,-0.240,1.477,-198.855,-224.473,63.916,0.0,69.0
33387,0.144,-1.778,-0.284,151.443,-121.198,-128.221,0.0,69.0
33440,0.386,0.993,1.255,113.130,89.565,-62.504,0.0,68.0
33491,-0.784,-0.286,1.212,-123.557,44.336,37.214,158.0,69.0
33540,-0.626,-0.755,0.859,-157.969,-212.603,117.191,104.0,69.0
33588,0.210,-1.247,-0.084,153.634,1.511,-109.191,103.0,68.0
33644,0.091,0.796,1.460,58.458,154.954,-41.061,0.0,68.0
33697,-0.809,-0.420,1.415,-146.137,-1.023,15.397,0.0,69.0
33745,-0.398,-1.850,-0.404,-117.886,-250.137,66.962,102.0,69.0
33789,0.522,-0.784,-0.275,183.855,48.275,-182.603,29.0,69.0
33832,0.181,1.037,1.448,-0.267,211.527,6.985,30.0,69.0
33886,-0.840,-0.415,1.241,-133.023,121.336,46.221,0.0,68.0
33983,0.172,-1.483,-0.080,156.580,30.053,-69.191,0.0,70.0
34034,-0.157,0.693,1.494,73.832,187.931,-36.351,156.0,68.0
34084,-1.004,-0.489,1.548,-137.458,27.855,-5.733,156.0,70.0
34140,-0.674,-1.946,0.072,-59.779,-250.137,30.893,155.0,69.0
34191,0.264,-0.581,-0.361,234.092,-10.061,-116.641,157.0,69.0
34242,-0.380,0.152,0.971,-44.901,89.366,26.290,155.0,68.0
34292,-0.474,-0.295,1.639,-142.466,-101.183,64.008,155.0,68.0
34344,-0.110,-2.000,-0.268,55.634,-60.550,-100.580,155.0,69.0
34395,-0.146,0.016,0.463,178.954,29.641,-97.031,154.0,69.0
34449,-0.519,-0.376,0.980,-57.511,-137.191,24.924,0.0,70.0
34493,0.573,-1.611,0.094,-43.427,-155.443,-64.130,26.0,72.0
34540,0.464,0.089,0.769,55.779,71.458,-70.282,27.0,71.0
34583,-0.189,-0.564,0.813,5.176,-42.809,105.092,26.0,72.0
34631,0.463,-0.565,0.625,-63.244,-102.969,-8.122,102.0,71.0
34675,0.495,-0.773,0.013,-11.992,148.527,-141.344,27.0,70.0
34719,-0.478,-0.757,1.155,-2.473,20.718,90.672,26.0,70.0
34763,0.066,-0.636,1.093,28.702,-202.886,142.504,30.0,71.0
34807,0.985,-0.786,0.434,-12.687,17.947,-157.626,30.0,72.0
34850,0.216,-0.052,1.104,-43.664,213.305,-95.351,29.0,70.0
34897,-0.461,-0.860,0.647,-8.366,-50.718,164.748,29.0,69.0
34941,0.205,-1.160,0.799,77.565,-115.679,8.695,29.0,71.0
34985,0.476,-0.039,0.143,-38.954,193.389,-132.214,30.0,69.0
35035,0.056,-0.669,0.503,-57.435,-54.160,190.107,28.0,68.0
35078,-0.507,-1.465,0.360,25.718,90.023,-107.443,29.0,68.0
35120,-0.012,0.062,1.646,-18.695,-158.176,110.977,28.0,68.0
35163,-0.264,-0.981,0.333,-62.466,-86.962,-146.496,29.0,69.0
35206,0.824,-0.630,0.542,50.611,-55.702,55.137,26.0,70.0
35249,0.530,-0.244,0.740,-9.855,20.290,19.305,27.0,70.0
35294,0.082,-0.648,0.576,-27.092,130.695,-13.893,28.0,70.0
35337,-0.116,-1.107,0.691,24.664,-55.931,85.053,29.0,69.0
35380,0.378,-0.509,0.559,-17.634,73.565,-148.733,27.0,70.0
35422,-0.135,-0.475,0.564,2.382,100.183,97.290,30.0,69.0
35465,-0.585,-0.867,1.270,-36.878,-34.954,-3.817,30.0,68.0
35508,0.219,-0.651,0.643,12.076,-11.191,-53.969,26.0,70.0
35551,0.222,-0.692,0.874,34.885,-52.313,53.634,27.0,69.0
35593,0.223,-0.585,0.709,-17.427,40.191,-44.076,26.0,69.0
35643,-0.013,-0.948,0.687,27.099,-35.183,61.672,155.0,69.0
35689,0.333,-0.435,0.762,-8.176,-36.397,-32.008,29.0,69.0
35732,0.265,-0.677,0.554,-10.580,14.534,-28.023,27.0,69.0
35774,-0.386,-0.776,0.831,-13.992,-57.046,56.969,26.0,69.0
35817,0.492,-0.765,0.808,6.221,-120.389,-36.038,27.0,70.0
35860,0.976,-0.357,0.272,10.252,106.122,-95.130,29.0,70.0
35903,-0.498,-0.583,1.122,-43.244,145.840,60.336,28.0,67.0
35946,-0.460,-1.131,1.038,12.260,-88.053,67.855,30.0,67.0
35989,0.599,-0.450,0.760,51.382,-74.863,-95.641,28.0,68.0
36034,0.151,-0.121,0.773,-19.626,102.725,22.092,29.0,68.0
36077,-0.445,-1.058,1.013,-30.580,-75.489,110.260,29.0,68.0
36120,0.397,-1.014,0.637,40.824,-141.565,-102.198,29.0,70.0
36163,1.542,-0.179,-0.453,42.008,137.481,-123.939,29.0,71.0
36206,-0.592,-0.115,1.199,-84.710,250.130,92.802,29.0,67.0
36293,0.067,-1.159,0.431,96.244,-125.214,-159.252,30.0,69.0
36336,1.336,0.682,-0.130,36.939,92.214,-65.473,29.0,70.0
36379,-0.223,-0.392,1.349,-88.351,118.954,96.969,30.0,68.0
36422,-0.466,-1.424,0.910,-29.046,-118.130,91.672,29.0,68.0
36468,0.520,-0.713,0.469,110.947,-33.756,-179.069,29.0,68.0
36511,0.078,0.276,0.727,-29.519,161.832,15.702,31.0,68.0
36554,-0.655,-0.799,1.502,-97.489,-47.863,118.313,32.0,68.0
36597,-0.104,-1.987,-0.003,46.229,-145.985,-40.061,31.0,68.0
36640,1.473,0.503,0.501,124.534,16.641,-119.504,31.0,69.0
36684,-0.453,0.115,0.922,-86.527,203.878,70.084,34.0,68.0
36727,-0.853,-1.040,1.246,-111.603,-96.870,150.763,32.0,67.0
36770,0.094,-1.416,0.232,95.908,-122.015,-99.947,30.0,68.0
36816,0.949,0.615,0.245,69.153,49.756,-30.702,31.0,70.0
36867,-0.485,-0.243,1.171,-104.916,138.931,88.794,155.0,68.0
36915,-0.482,-1.496,0.721,-51.053,-120.328,40.359,106.0,68.0
36958,0.783,-0.470,0.286,138.542,-20.282,-174.878,30.0,69.0
37001,-0.120,0.151,0.844,-63.336,152.672,48.519,30.0,68.0
37044,-0.455,-0.821,0.968,-120.252,-36.214,148.870,31.0,68.0
37094,0.087,-1.628,0.280,33.046,-74.565,-64.069,155.0,68.0
37145,0.987,0.552,0.315,65.840,192.573,-64.153,155.0,67.0
37195,-1.028,-0.472,1.569,-118.183,137.863,132.847,156.0,67.0
37241,-0.979,-1.913,0.695,20.336,-239.328,-23.321,33.0,67.0
37285,1.083,-0.156,0.448,130.473,-137.252,-218.351,31.0,68.0
37328,0.228,-0.081,0.463,-40.771,168.046,-3.908,32.0,67.0
37371,-0.623,-0.725,1.210,-126.443,93.061,114.015,32.0,67.0
37422,-0.518,-1.601,0.764,0.359,-100.985,12.458,154.0,67.0
37472,0.838,-0.348,0.375,146.649,8.748,-166.290,155.0,67.0
37516,-0.542,0.237,0.657,-103.840,223.244,72.053,36.0,67.0
37560,-1.335,-1.148,1.513,-132.305,-126.573,130.313,36.0,67.0
37606,0.033,-1.368,0.040,102.840,-226.000,-180.710,30.0,67.0
37649,1.517,0.588,-0.052,93.992,3.244,-39.115,31.0,67.0
37692,-0.350,0.219,0.685,-120.084,250.130,89.847,32.0,67.0
37736,-1.154,-1.301,1.262,-125.344,-40.916,115.947,34.0,67.0
37779,0.022,-1.406,0.215,126.275,-141.267,-116.412,31.0,66.0
37822,1.016,0.498,0.384,106.626,34.168,-37.267,31.0,67.0
37866,-0.565,0.101,0.575,-113.260,211.664,91.786,33.0,66.0
37916,-0.857,-1.087,1.648,-140.878,-59.779,88.221,156.0,65.0
37959,0.243,-1.303,0.072,137.053,-81.634,-154.718,33.0,66.0
38006,0.471,0.850,0.829,72.527,103.435,-13.198,36.0,66.0
38056,-1.120,-0.414,1.284,-134.985,101.618,92.748,157.0,66.0
38100,-1.157,-1.643,0.776,-97.359,-243.511,59.092,36.0,66.0
38146,0.742,-1.182,-0.225,186.756,-120.908,-202.405,57.0,67.0
38190,0.617,0.565,0.104,40.824,186.145,11.985,52.0,66.0
38235,-0.996,-0.302,1.073,-146.206,208.344,106.977,57.0,67.0
38280,-1.190,-1.350,1.117,-119.267,-104.634,78.137,57.0,66.0
38323,0.219,-1.204,0.027,144.725,-134.886,-172.786,32.0,66.0
38370,0.703,0.720,0.587,66.427,64.901,-11.099,34.0,66.0
38413,-0.673,-0.228,0.851,-131.130,161.824,84.282,36.0,66.0
38457,-0.683,-1.119,1.184,-142.618,-93.687,87.504,37.0,66.0
38501,0.106,-1.373,0.132,122.137,-42.725,-164.641,33.0,65.0
38587,-1.058,-0.326,1.268,-107.122,115.321,85.649,34.0,65.0
38631,-0.989,-0.928,1.264,-125.466,-232.092,140.969,32.0,65.0
38674,0.413,-1.504,-0.240,117.557,-116.511,-186.847,31.0,66.0
38718,1.193,0.720,0.267,94.389,142.504,-68.962,33.0,66.0
38762,-0.848,0.399,0.657,-108.824,250.130,83.618,54.0,65.0
38818,-1.733,-1.112,1.479,-136.519,-137.519,163.183,0.0,64.0
38862,0.175,-1.132,-0.124,129.664,-232.756,-234.481,32.0,66.0
38906,1.190,0.312,-0.254,57.954,122.924,-22.603,32.0,65.0
38949,-0.853,0.032,0.979,-113.382,250.130,107.924,34.0,64.0
38993,-1.513,-0.921,1.305,-144.511,4.916,175.504,34.0,65.0
39036,-0.627,-1.606,0.479,21.992,-234.229,-93.687,33.0,65.0
39080,1.044,-0.203,-0.079,150.519,-13.557,-198.511,32.0,65.0
39123,-0.145,0.551,0.710,-36.664,228.008,35.809,34.0,64.0
39171,-0.958,-0.582,1.557,-160.115,27.870,163.939,33.0,64.0
39214,-1.191,-2.000,0.535,-47.313,-182.771,9.504,32.0,64.0
39259,0.507,-0.782,-0.067,181.107,-72.893,-206.008,57.0,64.0
39304,0.531,0.817,0.727,50.260,144.618,-16.908,56.0,63.0
39350,-0.869,-0.212,1.039,-127.321,191.817,59.885,57.0,92.0
39394,-0.935,-0.877,1.064,-153.664,-87.985,111.939,36.0,62.0
39439,-0.080,-1.470,0.124,130.939,-28.672,-157.794,35.0,92.0
39484,0.541,0.317,0.681,169.252,133.015,-94.038,57.0,65.0
39532,-1.103,0.136,0.597,-96.458,250.130,61.221,58.0,62.0
39584,-1.162,-0.580,1.714,-169.374,-108.427,116.244,0.0,61.0
39628,-0.138,-1.620,-0.250,68.832,-140.427,-159.481,36.0,59.0
39674,0.573,-0.095,0.308,146.153,77.710,-123.626,37.0,98.0
39719,-0.610,-0.022,0.393,-60.649,247.863,53.931,60.0,63.0
39766,-1.118,-0.395,1.186,-142.336,48.366,120.359,63.0,83.0
39813,-1.291,-1.760,0.429,-37.718,-172.160,-16.076,63.0,83.0
39856,0.136,-0.503,0.082,147.221,-40.557,-146.641,40.0,59.0
39902,0.074,0.410,0.711,-5.473,115.886,23.595,40.0,96.0
39952,-0.639,-0.555,0.815,-123.557,121.374,83.832,64.0,82.0
39998,-1.237,-1.485,0.615,-57.504,-27.183,53.061,65.0,80.0
40043,-0.151,-0.951,0.080,159.886,-41.252,-49.924,41.0,83.0
40096,-0.234,0.841,0.877,29.359,94.763,21.588,0.0,61.0
40151,-1.028,-0.456,1.229,-156.718,-66.374,56.641,0.0,80.0
40204,-0.977,-1.994,0.125,5.618,-250.137,-66.412,0.0,59.0
40250,0.714,0.227,0.061,213.511,18.840,-140.519,62.0,86.0
40295,-0.581,0.064,0.230,-100.397,250.130,51.672,63.0,61.0
40352,-1.343,-0.789,1.304,-204.664,55.725,119.863,0.0,79.0
40407,-0.659,-1.562,0.341,145.832,-195.244,-69.603,0.0,65.0
40451,0.322,0.708,0.601,70.328,28.153,-14.725,39.0,59.0
40494,-0.762,-0.126,0.382,-96.687,189.603,53.458,40.0,61.0
40548,-1.212,-0.635,1.499,-164.840,3.084,76.992,0.0,80.0
40601,-0.299,-1.306,0.048,182.794,-133.542,-97.435,0.0,60.0
40645,-0.246,0.888,0.501,10.672,43.802,13.588,40.0,60.0
40698,-1.070,-0.416,0.917,-154.870,-2.992,67.336,0.0,59.0
40752,-0.988,-1.916,0.384,-35.580,-200.855,-31.344,0.0,59.0
40801,0.764,0.009,0.113,202.405,-30.977,-154.466,58.0,64.0
40847,-0.401,0.204,0.159,-57.786,222.000,47.412,61.0,85.0
40905,-1.213,-0.687,1.360,-170.267,-6.389,136.237,0.0,62.0
40992,0.972,0.666,0.702,139.603,-122.756,-138.786,59.0,62.0
41036,-0.182,-0.006,0.404,-55.206,132.313,27.855,58.0,60.0
41080,-1.041,-0.910,1.347,-123.626,42.504,87.824,59.0,60.0
41124,-0.717,-1.686,0.637,22.473,-131.183,-58.840,58.0,61.0
41168,0.678,-0.154,0.392,151.679,-38.809,-120.076,58.0,62.0
41212,-0.161,0.194,0.358,-25.870,187.405,53.924,59.0,61.0
41266,-0.824,-0.682,1.103,-114.336,86.427,104.046,164.0,61.0
41316,-0.832,-1.432,0.691,13.802,-113.534,-43.710,162.0,65.0
41361,0.240,0.299,0.724,122.450,-55.779,-81.405,58.0,63.0
41405,-0.633,-0.111,0.588,-79.252,44.649,56.351,60.0,61.0
41449,-0.806,-0.889,1.011,-106.969,-73.267,68.282,58.0,63.0
41493,-0.376,-1.252,0.680,4.099,-177.969,-52.290,57.0,64.0
41537,0.730,-0.166,0.506,124.313,-73.489,-110.702,59.0,64.0
41581,-0.204,-0.046,0.812,-66.130,66.305,55.740,57.0,64.0
41628,-0.433,-0.978,1.160,-90.107,-52.656,90.405,57.0,65.0
41673,0.046,-1.453,0.242,56.840,-68.649,-75.870,57.0,66.0
41717,0.671,0.315,0.386,138.924,106.046,-104.977,58.0,65.0
41761,-0.873,0.148,0.698,-109.366,217.947,74.878,57.0,65.0
41811,-1.110,-1.009,1.501,-161.931,-103.863,129.786,158.0,66.0
41862,-0.080,-1.618,0.131,97.443,-221.863,-135.374,154.0,66.0
41912,1.107,0.683,0.296,98.718,-7.863,-70.137,154.0,67.0
41957,-0.555,-0.191,0.871,-125.641,180.389,91.939,57.0,67.0
42007,-0.992,-1.275,1.092,-118.115,-26.191,82.557,154.0,66.0
42059,0.117,-1.169,0.326,131.237,-124.122,-129.702,152.0,67.0
42104,0.202,0.453,0.520,3.137,82.695,-10.038,59.0,67.0
42155,-0.529,-0.588,1.081,-105.275,49.221,91.702,153.0,68.0
42205,-0.400,-1.365,0.831,-10.557,-79.405,-9.191,152.0,68.0
42255,0.673,-0.048,0.695,131.908,-13.153,-92.710,153.0,68.0
42308,-0.492,-0.049,0.864,-76.244,110.863,41.252,0.0,68.0
42358,-0.839,-1.201,0.756,-73.519,-95.908,74.214,159.0,69.0
42408,0.179,-1.063,0.564,64.489,-204.802,-62.321,147.0,71.0
42462,0.747,-0.040,0.101,40.870,94.328,-34.725,153.0,70.0
42512,-0.757,-0.427,1.169,-117.382,126.954,94.298,150.0,70.0
42560,-0.967,-1.189,1.177,-62.382,-108.847,26.985,109.0,71.0
42610,0.537,-1.140,0.221,93.832,-146.206,-102.679,145.0,73.0
42657,0.244,0.393,0.682,8.542,72.656,16.298,99.0,72.0
42704,-0.558,-0.794,1.044,-125.160,-7.702,89.573,99.0,74.0
42755,-0.147,-1.589,0.623,-55.809,-120.206,1.237,144.0,75.0
42805,1.083,-0.543,-0.041,153.557,56.588,-141.664,144.0,75.0
42855,-0.700,0.138,0.595,-106.534,223.908,60.786,100.0,72.0
42905,-0.900,-1.158,1.384,-166.595,-123.466,133.847,145.0,75.0
42953,0.290,-1.511,0.123,105.809,-164.076,-141.626,105.0,75.0
43003,1.090,0.248,0.400,131.397,8.748,-71.473,148.0,74.0
43054,-0.475,-0.143,0.693,-105.908,198.534,38.595,144.0,72.0
43104,-0.677,-0.842,1.254,-156.328,-64.702,119.809,144.0,73.0
43152,0.051,-1.691,0.196,94.802,-121.107,-120.550,108.0,74.0
43202,0.832,0.377,0.779,149.382,15.504,-98.221,143.0,74.0
43249,-0.406,-0.054,0.726,-93.817,145.359,42.214,99.0,73.0
43302,-0.123,-0.707,1.063,-138.183,-86.664,104.718,143.0,74.0
43353,0.229,-1.555,0.381,36.664,-8.817,-186.092,142.0,73.0
43446,-0.785,-0.434,1.102,-75.504,-12.824,123.779,144.0,74.0
43494,-0.209,-1.243,0.839,-50.252,-239.481,101.176,106.0,76.0
43545,0.881,-1.173,-0.063,15.084,-90.702,-250.137,148.0,77.0
43596,0.427,0.157,0.798,-16.687,207.603,-7.626,157.0,74.0
43644,-0.775,-0.685,0.999,-107.504,-11.145,208.947,121.0,74.0
43693,-0.086,-1.969,0.429,29.573,-151.160,62.588,105.0,76.0
43750,0.999,-0.330,0.209,110.382,-29.389,-207.076,0.0,77.0
43799,0.049,-0.422,0.686,-54.168,190.221,-42.534,122.0,75.0
43848,-0.257,-0.677,0.828,-102.107,18.626,87.695,141.0,75.0
43899,0.155,-1.908,0.489,55.641,-94.321,76.198,143.0,76.0
43953,0.759,-0.675,0.307,174.252,18.382,-129.130,0.0,75.0
44003,0.448,-0.448,-0.044,0.443,250.130,-82.511,149.0,72.0
44048,-1.032,-0.468,1.052,-133.672,250.130,2.695,50.0,72.0
44092,-1.188,-1.500,1.188,-59.153,-78.427,107.221,51.0,70.0
44137,-0.317,-1.012,0.320,149.733,-179.153,-68.954,51.0,70.0
44185,0.269,0.090,0.470,8.687,-48.137,-39.649,52.0,69.0
44229,-0.387,-0.541,0.939,-99.771,-29.557,13.802,51.0,70.0
44278,-0.333,-1.157,1.181,-20.099,-185.229,73.840,126.0,71.0
44328,0.589,-0.962,0.439,65.969,-158.450,-37.496,138.0,72.0
44377,0.569,-0.409,0.114,60.076,118.084,-40.061,108.0,72.0
44427,-0.345,-0.507,0.948,-61.176,134.748,47.290,150.0,71.0
44475,-0.077,-0.713,0.767,-66.183,-50.519,105.504,108.0,71.0
44523,0.147,-1.319,0.319,85.718,79.405,-92.840,107.0,70.0
44576,-0.408,-0.090,1.050,42.405,174.901,-26.824,149.0,70.0
44627,-0.426,-0.204,1.618,-42.992,-173.992,97.565,152.0,70.0
44678,-0.182,-1.396,0.283,30.183,-27.969,-155.321,153.0,70.0
44729,0.636,-0.095,0.685,39.519,147.908,67.695,153.0,72.0
44779,-0.441,-0.140,1.126,-20.550,44.298,148.206,152.0,72.0
44830,-0.487,-0.924,0.730,-52.046,-0.634,-80.886,152.0,72.0
44881,0.372,-0.217,1.008,38.313,-29.611,23.450,153.0,72.0
44932,-0.574,-0.918,0.512,22.649,69.595,5.252,151.0,72.0
44983,-0.273,-0.062,1.289,-14.229,-14.137,93.290,152.0,75.0
45037,-0.408,-0.860,0.739,-7.618,-20.855,-96.985,152.0,73.0
45087,0.228,-0.378,0.642,51.229,6.000,83.756,151.0,73.0
45138,-0.397,-0.664,0.756,-9.420,33.977,-30.450,152.0,73.0
45190,-0.317,-0.518,0.388,-18.901,19.069,45.405,152.0,73.0
45240,-0.436,-0.547,0.935,-2.053,-84.832,-22.649,152.0,72.0
45291,-0.153,-0.614,0.431,-20.160,57.893,-75.000,151.0,73.0
45342,0.167,-0.287,1.004,9.244,-20.450,85.893,152.0,73.0
45393,-0.730,-0.877,0.282,16.679,213.595,-101.893,154.0,71.0
45448,-0.491,-0.218,1.179,-50.519,-15.519,142.229,155.0,73.0
45499,-0.884,-1.107,0.308,-4.802,12.504,-109.992,155.0,73.0
45550,0.074,0.090,1.223,-3.511,-108.969,29.099,153.0,71.0
45600,-0.346,-0.963,0.410,-27.069,2.786,-52.573,153.0,73.0
45651,0.018,-0.276,0.862,24.336,58.969,58.954,154.0,70.0
45703,-0.654,-0.845,0.579,-7.962,75.122,-23.977,154.0,72.0
45754,-0.314,-0.444,0.803,6.794,-19.695,16.176,155.0,71.0
45804,-0.640,-0.833,0.645,-23.519,-10.725,-14.802,153.0,70.0
45855,-0.044,-0.473,0.657,-4.786,-40.405,23.519,153.0,72.0
45910,-0.411,-0.786,0.553,-8.137,52.244,-41.084,154.0,73.0
46005,-0.602,-0.609,0.733,-2.389,4.847,73.298,154.0,74.0
46056,-0.227,-0.445,0.574,-13.244,-31.405,-77.252,153.0,92.0
46107,-0.371,-0.844,0.327,-13.802,70.107,15.450,155.0,71.0
46161,-0.829,-0.507,0.968,-12.710,-52.427,45.756,0.0,71.0
46213,-0.347,-0.774,0.469,-22.870,-5.076,-64.008,153.0,71.0
46264,-0.490,-0.583,0.729,7.344,-10.290,72.527,153.0,72.0
46314,-0.448,-0.673,0.667,-10.626,-40.908,-32.863,151.0,72.0
46368,-0.369,-0.684,0.561,22.641,-53.214,-1.481,151.0,72.0
46419,-0.456,-0.568,0.818,-14.992,-83.198,22.992,151.0,71.0
46471,0.060,-0.677,0.504,13.969,-64.489,-62.450,151.0,74.0
46521,-0.329,-0.934,0.486,6.992,98.046,-69.840,129.0,71.0
46571,-0.507,-0.621,0.666,2.786,53.000,96.328,153.0,71.0
46622,-0.392,-0.623,0.560,21.985,-19.870,65.328,152.0,70.0
46673,-0.297,-0.374,0.654,-14.405,22.321,-85.046,152.0,70.0
46725,-0.634,-0.690,1.094,-67.969,-77.450,-37.382,150.0,71.0
46775,0.143,-1.198,0.151,66.313,-48.305,-4.298,149.0,70.0
46828,-0.092,-0.358,0.435,34.748,114.588,-11.076,131.0,70.0
46879,-0.851,-0.319,0.781,-86.916,117.221,30.389,153.0,71.0
46930,-0.803,-1.320,0.545,-20.878,-62.061,13.511,152.0,69.0
46982,0.199,0.077,0.757,62.031,-6.603,-47.557,151.0,72.0
47033,-0.579,-0.499,0.854,-75.977,69.099,31.756,152.0,72.0
47083,-0.562,-1.171,0.646,-6.878,-53.718,2.603,151.0,71.0
47129,0.073,-0.304,0.669,75.305,-0.603,-53.847,51.0,70.0
47181,-0.766,-0.477,0.799,-38.908,44.779,29.038,153.0,97.0
47236,-0.765,-1.147,0.467,-47.962,-142.328,66.214,152.0,69.0
47287,0.049,-0.875,0.441,40.443,-191.733,9.534,149.0,73.0
47342,0.462,-0.138,0.224,55.252,93.038,-83.756,130.0,71.0
47391,-0.730,-0.394,0.711,-72.580,245.237,20.504,152.0,71.0
47441,-0.976,-0.915,1.124,-73.435,-31.901,89.672,153.0,70.0
47492,-0.260,-0.997,0.375,67.412,-112.015,-104.511,152.0,74.0
47542,0.164,-0.206,0.339,17.137,100.618,-33.260,152.0,70.0
47592,-0.734,-0.615,0.861,-91.298,94.122,79.710,154.0,70.0
47642,-0.740,-1.106,0.879,-32.824,-44.473,36.412,154.0,68.0
47695,-0.007,-0.790,-0.144,127.496,-13.496,-82.084,154.0,69.0
47740,-0.698,0.043,0.669,-59.366,116.214,12.786,53.0,70.0
47791,-0.920,-0.781,1.037,-132.718,-29.824,62.565,155.0,72.0
47840,-0.654,-1.564,0.344,76.336,-192.405,-44.939,152.0,68.0
47890,0.578,-0.073,0.281,107.191,-20.260,-41.412,150.0,72.0
47941,-0.484,-0.127,0.570,-75.504,172.618,34.542,153.0,71.0
47992,-0.777,-0.951,1.160,-105.168,32.252,22.092,155.0,88.0
48043,-0.400,-1.251,0.064,137.710,-56.641,-48.985,155.0,69.0
48098,-0.453,0.088,0.390,-25.328,84.748,4.893,57.0,68.0
48151,-0.869,-0.752,0.993,-140.931,-13.679,16.664,156.0,71.0
48203,-0.604,-1.818,0.313,82.550,-169.931,-20.947,152.0,68.0
48256,0.282,-0.158,0.459,88.611,-9.229,-7.176,154.0,68.0
48309,-0.485,-0.109,0.555,-62.977,147.588,26.550,154.0,69.0
48362,-0.915,-1.025,1.117,-74.504,4.863,-3.565,154.0,89.0
48415,-0.238,-0.710,0.389,126.878,-22.344,-32.992,155.0,68.0
48468,-0.560,0.061,0.343,-15.878,105.183,13.985,155.0,87.0
48523,-1.051,-1.004,1.300,-131.740,-65.122,30.611,154.0,86.0
48621,0.018,0.217,0.522,28.924,5.000,28.397,154.0,69.0
48673,-0.624,-0.691,0.789,-104.458,8.168,49.489,152.0,69.0
48728,-0.545,-1.100,0.844,-15.924,-135.160,-38.076,151.0,90.0
48780,0.361,-0.184,0.415,123.336,-29.275,-69.733,150.0,70.0
48832,-0.575,-0.195,0.795,-95.740,52.206,17.305,151.0,69.0
48885,-0.304,-1.420,0.587,-72.565,-63.191,-16.954,153.0,70.0
48932,0.459,-0.662,0.038,158.420,136.015,-33.748,51.0,69.0
48978,-0.937,0.084,0.450,-52.038,230.832,43.908,51.0,68.0
49037,-1.002,-0.750,1.522,-131.786,-113.290,14.565,0.0,69.0
49089,-0.135,-1.650,-0.097,129.504,-200.939,-85.038,150.0,68.0
49142,0.290,0.029,0.209,41.282,54.076,3.305,151.0,73.0
49188,-0.771,-0.674,1.107,-115.809,67.336,41.641,51.0,70.0
49242,-0.447,-1.675,0.297,35.015,-37.412,-32.076,152.0,69.0
49289,0.258,-0.219,0.456,66.038,103.351,4.115,51.0,72.0
49342,-0.690,-0.153,0.458,-39.206,226.534,48.115,155.0,86.0
49396,-0.971,-0.865,1.214,-79.733,-27.015,12.344,156.0,88.0
49448,-0.164,-1.078,0.061,114.916,-80.328,-55.298,154.0,68.0
49505,-0.613,0.063,0.619,-6.481,28.992,30.351,155.0,69.0
49557,-1.068,-1.077,1.062,-82.832,-216.435,-5.290,155.0,69.0
49609,0.544,-1.136,-0.094,125.786,-148.977,-120.229,131.0,69.0
49656,0.182,0.045,0.143,-2.878,209.824,26.374,51.0,71.0
49709,-1.256,-0.753,1.295,-127.786,102.084,72.550,155.0,70.0
49761,-0.738,-1.653,0.370,90.313,-167.130,-67.046,132.0,72.0
49816,0.091,0.016,0.381,38.565,-57.725,18.588,0.0,71.0
49868,-0.708,-0.823,0.962,-80.115,-57.534,42.725,154.0,70.0
49922,0.214,-1.075,0.561,71.328,-107.221,-55.908,101.0,71.0
49968,0.017,0.051,0.443,6.847,84.427,22.656,25.0,72.0
50017,-0.987,-0.694,1.311,-102.618,-19.992,66.122,102.0,71.0
50063,-0.133,-1.625,0.576,68.473,-222.336,-96.542,23.0,72.0
50108,0.954,0.275,0.037,95.916,43.985,-53.565,23.0,72.0
50153,-0.912,-0.469,1.020,-97.359,144.176,104.038,26.0,71.0
50203,-1.092,-1.266,0.937,-47.031,-182.221,59.977,100.0,72.0
50249,0.882,-0.593,0.295,79.832,-248.687,-146.137,23.0,75.0
50294,0.556,-0.106,0.358,-13.557,74.985,10.557,22.0,75.0
50343,-0.495,-1.134,1.184,-51.519,-7.595,65.198,22.0,74.0
50388,0.496,-1.024,0.674,69.679,-88.374,-70.992,22.0,74.0
50435,0.236,0.016,0.414,31.695,89.145,-5.710,22.0,75.0
50480,-0.717,-0.624,1.304,-71.794,-24.260,98.710,23.0,74.0
50525,-0.097,-1.587,0.868,32.221,-239.130,-12.641,20.0,76.0
50571,1.685,-0.180,-0.365,106.145,1.740,-69.954,21.0,80.0
50617,-0.244,0.375,0.507,-60.626,250.130,68.435,21.0,76.0
50662,-1.076,-1.141,1.725,-102.466,-75.466,81.321,20.0,75.0
50715,0.485,-1.521,0.124,110.832,-244.947,-160.901,96.0,79.0
50761,0.682,0.311,0.379,30.015,79.023,-6.252,22.0,80.0
50811,-0.522,-0.672,1.127,-89.832,94.603,102.473,97.0,77.0
50862,0.059,-1.264,0.710,19.527,-139.924,-14.840,97.0,82.0
50908,0.753,-0.106,0.435,64.603,-38.832,-33.427,19.0,87.0
50954,0.087,-0.368,0.828,-21.061,77.290,62.748,23.0,86.0
51001,0.122,-0.832,1.193,0.611,-68.794,46.420,21.0,87.0
51057,0.922,-0.492,0.472,81.847,-23.924,-67.443,0.0,87.0
