Timestamp(ms),AccelX(g),AccelY(g),AccelZ(g),GyroX(deg/s),GyroY(deg/s),GyroZ(deg/s),DistanceLeft(cm),DistanceRight(cm)
36733,-0.321,-0.603,0.706,-4.740,13.878,-6.443,0.0,67.0
36789,-0.324,-0.667,0.693,-1.229,11.809,-8.092,0.0,65.0
36842,-0.307,-0.649,0.667,3.977,17.321,-5.641,0.0,64.0
36897,-0.339,-0.673,0.687,2.702,13.321,-7.191,0.0,64.0
36950,-0.309,-0.664,0.649,-1.504,9.947,-7.130,0.0,63.0
37005,-0.344,-0.679,0.659,-3.733,5.649,-4.321,0.0,52.0
37057,-0.313,-0.665,0.625,-6.237,6.855,-5.473,0.0,64.0
37112,-0.311,-0.677,0.627,-5.435,6.565,-6.733,0.0,63.0
37169,-0.338,-0.715,0.627,-6.168,8.901,-7.901,0.0,63.0
37221,-0.345,-0.690,0.631,-4.061,8.702,-5.000,0.0,62.0
37277,-0.346,-0.698,0.633,-4.397,5.267,-4.206,0.0,64.0
37329,-0.339,-0.690,0.623,-5.008,5.962,-1.626,0.0,63.0
37385,-0.348,-0.696,0.635,-4.840,5.473,-1.611,0.0,62.0
37430,-0.337,-0.708,0.624,-4.321,2.031,-1.237,61.0,62.0
37482,-0.329,-0.703,0.603,-4.527,4.344,-1.618,0.0,62.0
37537,-0.354,-0.733,0.635,-4.580,4.908,-3.153,0.0,61.0
37581,-0.354,-0.723,0.623,-1.832,0.405,-0.206,61.0,61.0
37625,-0.337,-0.725,0.596,-2.504,-0.374,-0.328,9.0,61.0
37666,-0.332,-0.708,0.590,-2.397,0.916,-0.534,6.0,61.0
37708,-0.337,-0.713,0.596,-2.954,-0.481,-1.641,7.0,61.0
37749,-0.345,-0.724,0.592,-2.168,-1.015,-1.282,7.0,61.0
37790,-0.336,-0.716,0.585,-1.618,-1.626,-0.740,7.0,61.0
37831,-0.342,-0.725,0.580,-1.794,1.748,-0.718,6.0,60.0
37872,-0.355,-0.726,0.590,-1.191,0.763,-1.015,9.0,60.0
37913,-0.345,-0.727,0.575,-0.519,1.130,-1.069,6.0,60.0
37954,-0.340,-0.733,0.579,-0.366,3.069,-0.588,7.0,60.0
37999,-0.354,-0.726,0.586,0.931,0.313,0.389,9.0,60.0
38040,-0.332,-0.714,0.560,0.344,1.626,-0.481,7.0,61.0
38081,-0.347,-0.719,0.570,-0.099,4.878,-0.702,6.0,61.0
38122,-0.346,-0.712,0.581,0.168,4.099,-0.344,6.0,61.0
38163,-0.360,-0.722,0.583,-0.115,0.206,-0.908,8.0,61.0
38204,-0.346,-0.724,0.566,1.031,-0.260,-0.344,8.0,61.0
38246,-0.350,-0.727,0.573,1.420,1.672,-0.008,8.0,59.0
38287,-0.351,-0.725,0.569,2.198,1.687,-0.527,8.0,60.0
38328,-0.353,-0.722,0.573,2.687,2.420,-0.435,7.0,60.0
38372,-0.359,-0.725,0.571,3.076,3.496,-0.542,7.0,61.0
38413,-0.363,-0.725,0.571,4.061,1.969,-0.435,8.0,61.0
38465,-0.357,-0.732,0.555,4.634,2.405,-0.443,0.0,60.0
38521,-0.368,-0.714,0.582,4.992,3.015,-0.756,0.0,60.0
38574,-0.366,-0.723,0.574,6.641,0.954,-0.115,0.0,61.0
38630,-0.359,-0.727,0.562,7.527,2.504,-0.611,0.0,61.0
38682,-0.370,-0.717,0.560,9.885,3.260,-0.206,0.0,62.0
38738,-0.362,-0.703,0.549,10.260,3.756,-0.038,0.0,61.0
38791,-0.359,-0.709,0.532,10.053,9.122,-0.092,0.0,60.0
38846,-0.352,-0.690,0.521,10.038,16.573,-0.351,0.0,63.0
38902,-0.386,-0.679,0.525,11.603,16.885,1.855,0.0,62.0
38956,-0.374,-0.701,0.486,11.267,8.282,-1.634,0.0,62.0
39008,-0.282,-0.688,0.389,9.092,24.221,-10.351,0.0,60.0
39064,-0.082,-0.697,0.267,15.779,63.489,-21.427,0.0,62.0
39116,0.246,-0.568,0.365,30.885,129.405,-70.718,0.0,61.0
39215,-0.905,-0.753,-0.178,129.313,250.130,-134.382,0.0,116.0
39270,-1.122,-0.424,0.955,-101.649,250.130,120.382,0.0,106.0
39325,-0.681,-0.907,0.696,62.489,-81.191,-16.550,0.0,99.0
39382,-0.329,-0.174,-0.365,96.679,-30.092,-199.145,0.0,76.0
39436,-0.938,-0.581,0.708,-157.603,17.664,-39.771,0.0,73.0
39484,-0.109,-2.000,-0.850,53.160,-90.298,-10.817,63.0,116.0
39539,0.117,0.108,-0.841,250.130,250.130,-88.504,0.0,110.0
39587,-1.328,0.668,0.701,-144.450,181.076,-9.771,73.0,110.0
39635,-1.266,-1.904,0.399,-165.504,-93.389,-27.992,76.0,105.0
39684,-0.053,-1.456,-0.521,229.588,-67.023,-120.130,81.0,102.0
39733,-0.315,0.128,-0.045,47.359,167.756,-92.473,87.0,114.0
39785,-0.508,-1.120,0.295,-100.405,131.099,22.336,91.0,107.0
39834,-0.751,-2.000,-0.566,53.206,88.443,-26.954,98.0,106.0
39884,-1.822,-0.301,1.232,12.733,-116.656,-77.817,104.0,110.0
39938,-0.659,-0.431,-0.088,-102.198,-250.137,-2.450,108.0,152.0
39990,0.961,-1.390,-1.897,72.015,173.878,-112.817,112.0,146.0
40039,-1.746,0.247,0.075,55.275,250.130,-62.015,118.0,61.0
40085,-1.618,-0.594,0.932,-108.198,56.710,0.954,94.0,61.0
40131,-0.598,-1.869,-0.158,26.305,-159.046,45.588,94.0,59.0
40182,-0.226,-0.735,-0.677,187.427,90.038,-49.893,125.0,93.0
40233,-0.716,-0.077,0.317,-72.756,57.252,3.878,95.0,89.0
40280,-0.467,-1.417,-0.014,-107.061,-26.176,21.458,94.0,59.0
40327,-0.116,-1.528,-0.823,102.305,46.679,-29.229,95.0,61.0
40376,-0.780,-0.247,0.498,-6.244,-4.496,-36.267,93.0,106.0
40425,-0.328,-1.054,0.270,-96.160,-159.511,0.893,94.0,96.0
40471,0.324,-1.713,-0.995,84.031,36.557,-37.794,94.0,57.0
40516,-0.327,-0.428,0.277,48.679,227.863,-12.962,78.0,57.0
40562,-0.564,-0.747,0.814,-63.710,151.901,47.580,80.0,56.0
40614,-0.339,-1.685,-0.300,103.321,87.847,59.771,94.0,102.0
40660,-0.781,-0.388,0.533,77.550,99.718,-21.695,89.0,55.0
40706,-0.560,-0.425,0.242,-74.786,-61.298,-24.977,75.0,55.0
40754,-0.587,-1.123,0.518,-102.656,-159.618,-41.992,74.0,97.0
40799,0.289,-1.413,-0.723,80.519,-79.000,-112.344,75.0,56.0
40845,-0.153,-0.514,-0.139,64.275,132.069,-114.298,75.0,69.0
40890,-0.490,-0.446,0.469,-91.763,60.458,7.489,75.0,53.0
40936,-0.662,-1.584,0.268,-84.496,-123.221,56.450,75.0,67.0
40984,0.076,-1.318,-0.433,81.840,-80.206,2.229,76.0,85.0
41033,-0.117,-0.420,0.154,-0.634,27.000,30.435,80.0,71.0
41079,-0.100,-0.846,0.447,-74.985,16.023,79.733,78.0,58.0
41124,-0.174,-1.704,-0.468,61.061,92.176,-19.664,78.0,54.0
41170,-0.376,-0.319,0.223,81.977,151.886,14.405,85.0,53.0
41217,-0.516,-0.666,0.405,-47.328,16.550,18.328,86.0,53.0
41263,-0.654,-1.622,-0.177,-6.870,-82.435,-85.282,96.0,53.0
41310,-0.436,-0.986,-0.148,64.473,-124.664,-95.626,80.0,78.0
41356,0.186,-0.493,-0.180,6.443,-105.145,41.145,80.0,56.0
41405,-0.033,-1.220,-0.285,-27.473,63.916,-6.573,87.0,56.0
41453,-0.907,-1.085,0.266,2.679,63.145,3.122,81.0,90.0
41507,-0.476,-0.582,0.544,-39.298,-146.664,142.351,100.0,0.0
41551,0.417,-1.612,-0.492,-4.427,-111.305,-41.046,135.0,0.0
41606,0.354,-1.000,-0.377,61.954,139.634,-130.557,90.0,0.0
41696,-0.873,-0.792,0.920,-97.626,-78.504,145.099,99.0,53.0
41743,-0.054,-1.758,-0.327,26.160,-151.168,-45.863,100.0,55.0
41796,0.052,-0.899,-0.379,97.962,50.611,-132.710,101.0,154.0
41842,-0.485,-0.100,0.365,-49.786,84.168,56.977,86.0,60.0
41893,-0.422,-1.695,0.068,-35.519,-75.771,67.290,100.0,77.0
41940,-0.459,-1.212,-0.082,124.092,2.427,-135.214,87.0,64.0
41988,-0.265,0.207,0.675,2.397,-39.481,-3.221,86.0,64.0
42043,-0.261,-1.718,-0.075,-51.244,-124.580,41.855,102.0,0.0
42089,-0.056,-0.897,-0.199,74.183,190.969,-71.603,86.0,59.0
42136,-0.415,-0.324,0.780,-31.863,93.840,104.046,86.0,60.0
42182,-0.722,-1.667,-0.133,-14.000,57.634,-72.580,87.0,58.0
42228,-0.203,-0.279,0.573,30.802,-83.725,34.901,85.0,57.0
42278,-0.038,-1.365,-0.265,-30.069,-76.901,-3.626,86.0,60.0
42324,-0.055,-0.835,0.262,26.817,72.145,-33.069,85.0,57.0
42371,-0.444,-1.171,0.351,6.573,-6.527,30.885,86.0,56.0
42417,-0.528,-1.086,0.168,9.763,-0.366,-54.580,85.0,60.0
42464,-0.064,-0.657,0.379,7.908,-89.886,55.687,87.0,61.0
42510,-0.030,-1.178,-0.256,2.656,27.611,-35.718,87.0,60.0
42557,-0.161,-0.505,0.508,16.687,47.221,26.321,87.0,64.0
42604,-0.178,-1.285,0.058,2.275,2.481,-12.244,87.0,75.0
42652,-0.391,-0.881,0.174,23.282,112.374,-39.405,87.0,89.0
42703,-0.259,-1.162,0.574,6.473,-47.611,94.824,88.0,77.0
42749,-0.143,-1.014,-0.536,89.527,186.229,-116.878,87.0,60.0
42798,-0.896,-0.073,1.051,-33.382,63.405,99.931,89.0,76.0
42845,-0.391,-1.602,-0.217,-6.718,-147.122,-63.473,88.0,78.0
42898,0.214,-0.443,0.150,18.618,-18.366,32.160,88.0,62.0
42943,-0.152,-1.362,0.154,-17.153,25.840,41.969,87.0,67.0
42989,-0.386,-0.983,0.323,20.298,71.122,-105.397,86.0,61.0
43034,-0.578,-0.573,0.531,9.153,-24.374,27.145,86.0,59.0
43092,-0.154,-1.068,0.106,-21.885,-82.336,-5.206,96.0,96.0
43140,0.165,-1.013,-0.048,19.130,84.679,-60.786,93.0,88.0
43185,-0.199,-0.866,0.212,21.519,172.519,-11.901,64.0,63.0
43229,-0.540,-0.947,0.471,17.664,95.344,-3.344,64.0,62.0
43274,-0.463,-0.901,0.349,15.305,-0.145,-7.168,63.0,63.0
43318,-0.417,-0.866,0.243,-1.947,-59.473,14.626,65.0,62.0
43364,-0.691,-0.834,0.200,-35.061,-136.664,29.679,86.0,66.0
43410,-0.677,-0.824,0.324,-94.939,-250.137,73.863,85.0,69.0
43456,-0.072,-1.247,0.100,-42.405,-250.137,113.756,100.0,58.0
43511,0.761,-1.137,-0.006,81.443,-72.191,-8.298,0.0,60.0
43566,0.249,-0.625,-0.362,92.809,250.130,-136.313,0.0,50.0
43613,-1.666,-0.779,0.253,-16.053,250.130,-80.336,86.0,67.0
43659,-1.671,-0.941,1.067,-124.359,-93.038,76.580,86.0,73.0
43705,-0.701,-1.232,0.222,-50.115,-250.137,51.344,98.0,53.0
43751,0.271,-1.485,-0.761,142.725,-203.641,-250.137,97.0,71.0
43797,0.334,-1.166,-0.736,142.015,154.588,-174.580,80.0,70.0
43843,-0.500,-0.459,0.170,-39.244,154.160,116.855,81.0,72.0
43900,-0.489,-0.481,1.058,-101.847,-126.328,6.282,94.0,0.0
43947,0.451,-0.475,-0.356,145.252,-35.153,-192.145,79.0,75.0
43994,-0.452,-0.193,-0.019,1.038,174.397,-128.916,93.0,79.0
44040,-0.916,-0.189,1.564,-218.588,-68.115,124.099,79.0,77.0
44131,0.914,-0.566,-0.051,37.565,-242.366,-147.618,91.0,92.0
44178,0.649,-1.133,-0.420,-59.260,57.656,-86.893,90.0,77.0
44225,0.416,-0.164,0.642,-154.580,69.687,202.992,86.0,78.0
44271,-0.041,-2.000,-0.617,-52.038,-8.962,233.878,83.0,79.0
44318,0.499,-0.983,0.403,35.122,60.069,-72.542,83.0,80.0
44367,-0.122,-1.400,0.264,-37.336,44.160,-38.824,84.0,82.0
44414,-0.388,-1.548,0.833,-96.710,-81.359,13.229,84.0,79.0
44462,0.612,-2.000,-0.466,37.901,-106.206,35.550,84.0,79.0
44511,0.541,-0.970,-0.414,76.351,182.069,-38.885,142.0,77.0
44559,-0.741,-0.497,1.020,-75.855,224.565,-23.282,91.0,81.0
44606,-0.434,-1.580,0.203,-43.504,-53.786,36.916,89.0,77.0
44653,-0.235,-1.031,-0.133,139.153,27.840,-26.504,90.0,79.0
44700,-0.297,-0.083,0.390,-12.863,-0.191,65.122,110.0,72.0
44750,0.092,-1.558,-0.410,-32.038,-1.412,36.977,89.0,80.0
44797,-0.189,-0.726,-0.190,86.771,199.382,-28.664,91.0,73.0
44852,-1.087,-0.496,0.792,-53.779,-22.176,78.008,90.0,0.0
44892,0.150,-1.711,-0.472,-35.580,-236.008,26.725,86.0,0.0
44939,0.716,-1.011,-0.844,80.191,46.115,-109.634,85.0,78.0
44986,-0.577,0.084,0.680,-51.351,154.817,-23.214,87.0,86.0
45033,-0.810,-1.530,0.490,-78.595,-194.931,57.916,85.0,86.0
45080,0.510,-1.327,-0.704,126.481,-25.634,-71.420,84.0,80.0
45127,-0.689,0.163,0.720,-65.305,40.389,14.969,83.0,81.0
45176,-0.680,-1.572,0.399,-108.412,-250.137,23.786,79.0,83.0
45223,1.232,-1.153,-1.240,146.939,45.977,-132.015,78.0,91.0
45272,-0.219,0.049,0.164,3.489,250.130,-17.893,80.0,88.0
45319,-0.863,-1.182,0.693,-112.389,73.374,54.611,82.0,92.0
45366,-0.030,-1.856,-0.186,39.084,-91.313,1.779,79.0,91.0
45413,0.103,-0.462,0.225,75.267,4.962,-28.710,78.0,92.0
45460,-0.156,-0.746,0.311,-57.107,-29.901,18.939,76.0,95.0
45507,0.181,-1.649,-0.211,-28.412,-58.611,15.573,75.0,90.0
45554,-0.103,-0.833,0.189,59.771,65.481,-38.725,74.0,93.0
45599,-0.550,-0.552,0.786,-53.763,-84.824,12.840,73.0,94.0
45646,0.323,-1.552,-0.406,-41.908,-181.672,35.710,70.0,91.0
45692,0.461,-0.797,-0.270,77.550,112.344,-49.748,70.0,92.0
45740,-0.333,-0.390,0.662,-31.641,109.511,21.000,71.0,92.0
45787,-0.147,-1.417,0.093,-13.931,-23.885,28.282,71.0,91.0
45836,-0.059,-0.636,0.302,61.076,56.802,-15.511,106.0,91.0
45885,-0.389,-0.907,0.630,-40.122,-75.092,33.908,106.0,90.0
45931,0.471,-1.472,-0.348,60.450,-6.702,-31.176,71.0,90.0
45986,-0.240,-0.386,0.355,31.542,185.695,4.863,150.0,94.0
46035,-0.803,-1.125,0.845,-66.061,-84.496,52.214,109.0,92.0
46083,0.507,-1.473,-0.384,63.260,-83.641,-38.122,74.0,91.0
46137,0.077,-0.331,0.042,37.901,174.412,-41.206,0.0,91.0
46188,-0.905,-1.072,0.883,-73.817,-61.015,33.763,150.0,90.0
46238,0.363,-1.534,-0.432,58.099,-95.328,-29.176,127.0,88.0
46288,-0.041,-0.120,0.311,13.550,166.214,-35.229,129.0,92.0
46341,-0.882,-1.252,0.598,-84.260,-48.351,53.855,152.0,88.0
46392,0.303,-1.442,-0.309,75.382,-64.382,-4.550,152.0,89.0
46447,-0.201,-0.218,0.566,-0.901,117.809,-2.542,152.0,90.0
46501,-0.487,-1.213,0.480,-63.344,-35.183,39.977,0.0,88.0
46600,-0.479,-0.319,0.307,24.298,250.130,-24.473,100.0,0.0
46655,-1.433,-1.134,0.904,-71.466,-152.832,9.542,103.0,0.0
46706,0.356,-1.195,-0.408,40.580,-196.252,-18.748,154.0,92.0
46758,-0.161,-0.496,0.312,-8.618,73.489,-16.786,155.0,92.0
46809,-0.669,-1.063,0.546,-57.336,-106.038,19.313,113.0,90.0
46863,0.601,-1.397,-0.472,53.351,-14.863,9.786,0.0,89.0
46921,-0.293,-0.586,0.175,26.084,250.130,-19.756,113.0,0.0
46972,-0.914,-1.016,0.747,-51.046,36.794,15.008,118.0,104.0
47022,-0.323,-1.206,0.108,26.695,-141.053,11.168,117.0,88.0
47072,-0.281,-0.560,0.247,-8.427,-82.725,-14.427,98.0,113.0
47126,-0.314,-1.021,0.341,-66.092,-195.588,19.481,0.0,88.0
47176,0.931,-1.326,-0.806,92.985,133.092,-56.183,119.0,87.0
47232,-0.517,-0.518,0.028,33.977,250.130,-56.359,102.0,0.0
47286,-1.481,-0.925,1.115,-62.061,-38.763,26.863,85.0,0.0
47335,-0.138,-1.318,-0.208,15.931,-250.137,-0.260,98.0,98.0
47394,0.267,-0.777,-0.294,12.733,-39.718,-77.229,119.0,0.0
47443,-0.303,-0.750,0.445,-58.656,-25.145,27.336,92.0,104.0
47493,0.073,-1.285,-0.294,8.206,-4.969,33.771,93.0,107.0
47542,-0.397,-0.539,0.346,-21.206,118.969,7.824,96.0,103.0
47592,-0.578,-0.962,0.480,-77.458,-80.107,69.275,121.0,97.0
47647,0.190,-1.365,-0.177,-3.053,-67.954,-44.183,0.0,103.0
47703,-0.125,-0.707,0.176,18.397,111.351,-27.176,0.0,101.0
47758,-0.861,-1.060,0.515,-63.893,-138.733,82.198,0.0,84.0
47815,0.423,-1.361,-0.494,-1.015,-122.939,-27.863,0.0,95.0
47869,-0.027,-0.795,-0.093,27.672,146.458,-26.298,0.0,82.0
47924,-1.155,-0.890,0.745,-58.282,-146.656,77.756,0.0,84.0
47978,0.482,-1.405,-0.568,-21.504,-221.649,6.214,0.0,74.0
48026,0.566,-0.864,-0.478,28.282,225.573,-72.382,96.0,72.0
48080,-0.884,-0.542,0.395,-26.076,250.130,46.069,0.0,96.0
48135,-1.027,-1.179,0.639,-53.267,-80.344,67.550,0.0,74.0
48188,0.263,-1.240,-0.291,5.214,-112.237,-41.206,0.0,73.0
48243,0.245,-0.787,-0.304,37.252,201.573,-75.649,0.0,88.0
48292,-1.616,-0.747,0.989,-56.206,161.695,2.282,83.0,69.0
48339,-1.361,-1.124,0.527,-88.611,-250.137,59.534,83.0,72.0
48393,0.278,-1.082,-0.251,-41.916,-250.137,14.840,0.0,55.0
48449,0.829,-1.102,-0.726,91.740,192.260,-132.267,0.0,51.0
48494,-1.121,-0.874,-0.072,35.679,250.130,-141.397,51.0,80.0
48539,-2.000,-0.275,1.773,-141.198,-250.137,-98.511,50.0,66.0
48593,-1.083,-0.495,-1.139,-102.000,-250.137,-25.840,125.0,161.0
48645,1.869,-1.096,-1.726,138.191,-247.191,-79.229,79.0,136.0
48701,0.811,-0.808,-1.057,184.664,250.130,-6.473,135.0,126.0
48751,-0.995,-1.810,-0.836,54.557,250.130,92.092,97.0,105.0
48800,-1.349,-1.346,0.750,-40.382,-62.626,95.252,100.0,94.0
48854,-0.204,-0.830,0.128,-46.664,-250.137,-13.718,166.0,97.0
48907,0.999,-0.842,-0.648,73.008,-115.374,-97.237,157.0,104.0
48958,-0.013,-0.295,-0.754,67.450,250.130,-37.870,119.0,113.0
49009,-2.000,-0.713,0.453,-104.573,171.191,84.924,127.0,97.0
49060,-1.094,-1.629,0.145,-59.573,-187.573,79.939,127.0,90.0
49115,0.326,-1.830,-0.495,24.954,-102.328,-33.504,128.0,88.0
49167,0.122,-1.062,-0.694,63.382,220.832,-78.046,176.0,80.0
49261,-0.865,-1.176,0.681,-88.611,-142.145,96.672,135.0,81.0
49312,0.385,-1.252,-0.388,59.824,-47.672,-127.336,135.0,82.0
49361,0.090,-0.930,-0.903,61.504,250.130,-158.450,96.0,104.0
49412,-2.000,-0.317,1.064,-110.725,139.053,7.496,100.0,110.0
49465,-1.088,-1.289,0.059,-75.046,-250.137,56.260,143.0,101.0
49517,1.456,-1.181,-1.537,76.748,82.450,-80.168,143.0,103.0
49572,-0.622,-0.727,-1.164,66.893,250.130,-48.771,94.0,103.0
49618,-2.000,-0.377,1.202,-108.649,173.924,-6.328,103.0,14.0
49662,-1.254,-1.410,0.106,-97.374,-250.137,-21.489,96.0,17.0
49713,0.670,-1.558,-1.108,104.634,-196.511,-59.244,92.0,126.0
49761,0.069,-0.374,-0.266,61.527,156.099,-45.947,93.0,103.0
49804,-0.515,-0.686,0.415,-100.969,72.023,14.084,92.0,16.0
49848,-0.496,-1.931,-0.409,-35.863,-15.550,-9.412,91.0,17.0
49891,-0.193,-1.195,-0.490,134.481,47.351,-40.924,92.0,17.0
49935,-0.652,-0.206,0.203,8.924,-19.908,5.672,96.0,17.0
49981,-0.332,-0.718,-0.098,-127.099,-190.244,36.397,93.0,19.0
50023,0.542,-2.000,-1.115,-51.214,-80.718,7.458,57.0,21.0
50067,0.464,-1.146,-0.761,172.038,185.649,-40.015,99.0,19.0
50111,-0.767,-0.099,0.228,68.489,250.130,-31.191,99.0,16.0
50159,-1.034,-0.641,0.565,-129.847,-104.832,-36.504,180.0,17.0
50203,-0.709,-1.785,-0.238,-109.733,-250.137,-31.511,91.0,21.0
50252,0.483,-1.481,-0.803,157.031,-168.305,-31.198,97.0,113.0
50296,0.260,-0.492,-0.167,86.244,71.939,-42.183,57.0,57.0
50343,-0.161,-0.323,-0.097,-76.260,137.611,12.687,86.0,23.0
50386,-0.374,-1.190,0.725,-147.321,67.733,22.008,86.0,22.0
50430,-0.129,-1.735,-0.462,72.542,25.313,-0.809,85.0,23.0
50473,-0.227,-0.770,0.147,120.137,51.000,6.076,84.0,23.0
50518,-0.895,-0.238,0.438,-70.244,-166.687,12.267,85.0,26.0
50564,-0.173,-0.904,-0.043,-191.344,-250.137,11.740,50.0,117.0
50616,0.670,-2.000,-1.270,28.336,-59.710,-10.015,130.0,128.0
50660,0.225,-0.769,-0.404,169.481,242.748,-5.313,48.0,60.0
50705,-0.585,-0.453,-0.168,40.763,250.130,-6.672,50.0,74.0
50749,-0.834,-0.840,0.477,-135.939,-31.344,-37.397,50.0,31.0
50801,-0.892,-1.417,0.121,-135.786,-248.954,-42.031,48.0,0.0
50839,0.300,-1.277,-0.624,93.565,-220.023,5.397,46.0,0.0
50883,0.386,-0.716,-0.465,78.504,-22.458,-3.076,47.0,64.0
50926,-0.106,-0.519,-0.072,-43.550,73.214,-18.427,45.0,66.0
50970,-0.263,-1.023,0.427,-118.351,47.595,-23.298,45.0,64.0
51014,-0.061,-1.598,-0.416,30.901,15.794,-7.863,47.0,62.0
51058,-0.186,-0.717,0.070,110.756,62.618,6.947,47.0,68.0
51107,-0.413,-0.563,0.269,-25.282,-68.504,-6.855,84.0,69.0
51156,-0.060,-1.104,-0.038,-54.557,-90.122,5.237,85.0,132.0
51204,0.278,-1.306,-0.590,88.702,74.412,52.802,85.0,71.0
51250,-0.562,-0.603,0.262,31.122,139.290,9.656,80.0,71.0
51299,-0.814,-0.825,0.445,-98.695,-187.282,5.229,80.0,122.0
51349,0.106,-1.537,-0.526,-27.344,-212.695,22.206,118.0,111.0
51405,0.468,-1.238,-0.670,171.183,57.374,32.893,0.0,125.0
51460,-0.284,-0.266,-0.169,55.069,243.252,-49.725,0.0,82.0
51506,-1.065,-1.121,0.873,-103.176,-31.153,-62.725,83.0,77.0
51565,0.028,-1.473,-0.524,48.977,-208.084,-21.824,0.0,122.0
51657,-0.222,-0.513,0.008,-27.656,78.031,-9.412,79.0,127.0
51707,-0.567,-1.112,0.346,-113.221,1.450,-5.450,79.0,127.0
51763,-0.302,-1.284,-0.012,-6.466,-133.191,40.611,0.0,114.0
51814,0.432,-1.037,-0.487,99.267,54.130,42.191,120.0,113.0
51863,-0.258,-0.507,-0.003,5.183,232.664,-16.382,81.0,124.0
51912,-0.824,-0.953,0.839,-108.061,53.023,-24.290,79.0,132.0
51962,-0.009,-1.531,-0.159,44.527,-124.573,28.435,79.0,130.0
52016,0.142,-0.866,-0.193,135.542,75.573,-18.275,79.0,132.0
52062,-0.438,-0.505,0.199,-4.374,149.145,-70.053,81.0,71.0
52115,-1.258,-1.202,0.722,-76.595,-118.740,-57.832,81.0,0.0
52156,0.014,-1.202,-0.410,48.336,-250.137,9.893,80.0,0.0
52207,0.886,-0.915,-0.805,92.237,-28.382,32.389,126.0,120.0
52256,-0.089,-0.661,-0.174,28.099,250.130,-8.740,80.0,123.0
52303,-0.761,-0.950,0.358,2.603,241.618,-13.069,79.0,74.0
52348,-0.926,-1.149,0.515,22.916,31.710,-14.580,79.0,57.0
52395,-0.940,-0.686,0.503,-40.664,-250.137,-1.511,79.0,75.0
52451,-0.343,-1.005,-0.110,-50.473,-250.137,48.527,152.0,124.0
52503,1.055,-1.347,-0.944,77.145,-78.466,1.031,119.0,117.0
52552,0.305,-0.504,-0.482,36.008,250.130,-36.420,119.0,86.0
52599,-1.415,-0.709,1.192,-105.443,249.763,-32.802,79.0,80.0
52645,-1.401,-1.347,0.575,-54.061,-250.137,6.107,79.0,80.0
52702,0.282,-1.312,-0.771,54.977,-250.137,-8.771,0.0,109.0
52752,0.799,-0.531,-0.406,30.031,93.389,-38.947,113.0,112.0
52804,-0.231,-0.961,0.138,-34.252,250.130,-18.710,116.0,133.0
52854,-0.791,-1.183,0.568,9.878,98.481,-11.809,83.0,67.0
52907,-0.286,-1.065,0.261,32.618,-67.527,6.748,0.0,67.0
52954,0.185,-0.855,-0.083,19.634,53.145,-3.916,81.0,68.0
52999,-0.174,-0.961,0.065,-2.435,139.771,-2.832,81.0,56.0
53045,-0.737,-0.930,0.562,0.527,36.771,-6.130,85.0,53.0
53090,-0.631,-0.889,0.432,-19.771,-177.435,1.282,88.0,56.0
53137,0.245,-1.086,-0.167,-9.115,-173.771,13.626,84.0,64.0
53188,0.817,-1.090,-0.680,85.046,180.382,4.939,118.0,133.0
53234,-0.457,-0.720,-0.113,55.435,250.130,-4.008,82.0,50.0
53282,-1.818,-0.918,1.064,7.947,178.214,-25.145,77.0,49.0
53327,-1.630,-0.708,0.484,-59.931,-250.137,-11.000,83.0,49.0
53372,-0.287,-1.042,-0.629,-49.069,-250.137,30.985,66.0,56.0
53424,1.109,-1.234,-0.953,48.260,-161.267,4.473,111.0,119.0
53473,0.614,-0.667,-0.359,75.580,250.130,-31.466,130.0,66.0
53517,-0.397,-0.800,-0.332,46.160,250.130,-23.603,63.0,49.0
53563,-1.658,-0.664,0.866,8.305,250.130,-20.061,66.0,74.0
53608,-1.573,-0.893,0.861,-49.580,-250.137,11.924,80.0,45.0
53658,-0.060,-1.238,-0.522,2.389,-250.137,45.275,89.0,66.0
53704,1.047,-0.817,-0.754,71.992,11.031,-15.443,93.0,56.0
53751,0.294,-0.874,-0.502,51.756,250.130,-29.595,96.0,63.0
53797,-0.606,-0.905,-0.558,79.405,250.130,-70.893,89.0,66.0
53846,-1.364,-0.128,0.776,47.931,183.267,-62.908,92.0,80.0
53890,-1.382,-1.081,0.379,-92.626,-250.137,-57.771,51.0,61.0
53935,-1.022,-1.757,-0.133,-230.198,-250.137,-63.084,48.0,59.0
53980,0.821,-2.000,-1.336,-47.511,-250.137,-25.336,87.0,47.0
54027,1.540,-0.942,-0.440,86.061,124.656,-45.916,87.0,64.0
54118,-1.067,-0.934,-0.698,74.962,250.130,-139.725,59.0,55.0
54162,-2.000,0.136,1.988,-34.336,189.603,-83.031,64.0,55.0
54207,-1.378,-0.692,0.413,-84.954,-250.137,61.725,62.0,54.0
54253,0.707,-1.232,-0.562,-6.351,-250.137,44.397,61.0,72.0
54298,0.805,-0.989,0.195,-33.191,4.305,-137.947,62.0,63.0
54343,-0.111,-1.437,-0.073,-21.977,185.641,-141.122,64.0,59.0
54395,-0.558,-0.561,0.753,-54.344,65.740,56.427,63.0,197.0
54441,-0.165,-1.172,0.849,-95.557,-250.137,188.008,61.0,73.0
54491,1.024,-1.652,-0.320,26.733,-88.756,-77.351,62.0,75.0
54544,0.434,-1.061,-0.232,35.160,101.802,-111.122,62.0,0.0
54590,-0.512,-0.099,0.728,-91.244,-34.725,132.046,62.0,75.0
54636,0.326,-1.500,-0.140,-68.527,-250.137,210.107,62.0,77.0
54682,1.079,-1.506,-0.563,110.397,85.443,-40.985,65.0,76.0
54728,0.155,-1.106,-0.697,94.649,250.130,-52.298,66.0,74.0
54779,-1.364,-0.715,1.184,-124.206,146.183,4.695,68.0,162.0
54828,-0.372,-1.574,0.057,-70.809,-250.130,44.847,70.0,108.0
54884,0.760,-0.975,-0.674,152.466,46.244,-63.740,72.0,186.0
54932,-0.462,-0.139,-0.049,-6.550,250.130,-75.626,75.0,93.0
54980,-1.054,-0.926,1.215,-152.771,36.282,-65.351,77.0,93.0
55028,0.008,-1.770,-0.481,36.687,-139.992,-9.229,78.0,97.0
55076,0.204,-0.634,-0.227,128.450,33.275,-14.885,78.0,98.0
55124,-0.210,-0.448,0.176,-46.282,75.939,-5.611,78.0,99.0
55173,-0.408,-0.958,0.937,-122.382,-16.542,8.260,79.0,108.0
55223,0.366,-1.783,-0.703,78.496,-8.183,-8.046,78.0,120.0
55271,0.134,-0.644,-0.039,98.359,140.550,2.740,77.0,101.0
55322,-0.332,-0.742,0.385,-92.191,58.481,15.183,77.0,86.0
55369,-0.294,-1.650,-0.038,-81.634,-62.031,16.893,77.0,95.0
55418,0.154,-1.176,-0.090,77.221,-34.229,21.496,76.0,100.0
55467,-0.109,-0.655,0.245,-15.557,-32.672,5.237,75.0,101.0
55514,0.053,-1.203,0.058,-64.290,-64.031,-11.076,75.0,90.0
55562,0.424,-1.152,-0.483,75.282,114.634,-6.550,75.0,87.0
55610,-0.366,-0.622,0.336,18.145,186.221,-16.924,76.0,97.0
55658,-0.668,-1.023,0.713,-59.809,-46.840,-22.847,77.0,97.0
55713,0.186,-1.259,-0.372,47.336,-92.687,-13.008,76.0,99.0
55761,-0.217,-0.539,0.244,7.733,-15.626,2.947,76.0,103.0
55809,-0.502,-0.951,0.448,-96.641,-208.115,3.252,75.0,104.0
55857,0.666,-1.537,-0.788,10.947,-123.763,2.626,75.0,117.0
55904,0.445,-0.801,-0.381,73.748,138.496,4.053,75.0,97.0
55953,-0.473,-0.644,0.344,-39.351,137.893,8.863,76.0,142.0
56002,-0.305,-1.346,0.107,-36.435,-50.237,-4.374,76.0,122.0
56054,0.368,-0.969,-0.266,73.809,30.313,-6.626,76.0,187.0
56101,-0.104,-0.729,-0.057,9.031,155.099,1.931,77.0,97.0
56152,-0.710,-1.025,0.562,-73.023,-15.817,0.008,78.0,98.0
56199,-0.026,-1.370,-0.195,2.702,-151.603,5.733,77.0,96.0
56246,0.473,-0.986,-0.439,53.779,15.076,5.191,77.0,94.0
56293,-0.238,-0.807,0.141,-17.802,101.710,7.649,77.0,94.0
56340,-0.568,-1.010,0.401,-52.084,-48.305,19.458,78.0,95.0
56387,0.250,-1.220,-0.345,22.130,-78.351,43.771,77.0,99.0
56434,0.107,-0.760,-0.112,45.496,79.031,22.038,78.0,103.0
56483,-0.507,-0.754,0.362,-45.389,23.405,8.168,79.0,121.0
56576,0.229,-1.049,-0.492,68.130,-4.511,-0.168,79.0,130.0
56629,-0.661,-0.634,0.485,-40.420,-22.565,0.015,79.0,145.0
56677,-0.085,-1.321,-0.208,-31.916,-131.725,-2.023,79.0,115.0
56730,0.421,-1.005,-0.543,71.397,73.832,2.481,80.0,187.0
56779,-0.476,-0.607,0.231,-16.122,183.824,29.603,81.0,133.0
56829,-0.604,-1.231,0.228,-22.023,24.382,26.611,81.0,129.0
56879,-0.183,-0.936,-0.031,47.832,3.252,22.076,81.0,128.0
56927,-0.379,-0.751,0.158,-27.847,-26.389,13.939,81.0,112.0
56977,-0.122,-1.205,-0.050,-21.153,-54.260,5.863,81.0,128.0
57029,0.067,-0.960,-0.311,58.107,101.031,7.359,81.0,128.0
57078,-0.888,-0.699,0.639,-43.489,7.405,-12.672,82.0,128.0
57127,-0.360,-1.192,-0.046,-35.489,-184.534,-21.298,81.0,129.0
57177,0.492,-0.968,-0.497,48.527,8.679,-7.023,80.0,112.0
57225,-0.501,-0.699,0.280,-17.008,131.366,-6.656,81.0,110.0
57274,-0.673,-1.127,0.310,-35.802,-65.771,-15.527,81.0,130.0
57323,0.122,-1.025,-0.327,37.573,-15.931,2.695,81.0,105.0
57371,-0.562,-0.761,0.180,-10.992,59.786,-2.290,81.0,122.0
57419,-0.862,-0.940,0.210,-73.389,-189.458,4.443,80.0,104.0
57472,0.354,-1.245,-0.519,-20.031,-177.840,19.687,80.0,113.0
57523,0.414,-1.061,-0.615,60.924,154.756,-14.519,80.0,176.0
57572,-0.963,-0.653,0.430,-15.557,205.473,-27.458,81.0,107.0
57620,-1.185,-1.035,0.405,-70.450,-208.771,0.832,80.0,110.0
57668,0.429,-1.198,-0.575,4.206,-208.878,16.947,80.0,112.0
57720,0.591,-0.927,-0.700,58.344,172.931,-7.878,80.0,173.0
57768,-0.671,-0.863,-0.010,13.046,250.130,-17.191,80.0,103.0
57817,-1.502,-0.947,0.924,-46.443,-122.153,-23.702,80.0,104.0
57870,0.413,-1.246,-0.659,17.710,-222.252,4.099,79.0,132.0
57918,0.620,-0.864,-0.754,55.344,187.275,-9.229,79.0,106.0
57965,-0.691,-0.777,0.085,-5.855,250.130,-23.763,81.0,99.0
58013,-1.170,-1.079,0.698,-39.153,-71.962,-32.939,80.0,100.0
58061,0.197,-1.206,-0.511,34.237,-131.458,-6.710,79.0,99.0
58108,0.161,-0.797,-0.368,17.008,88.252,-0.313,79.0,101.0
58157,-0.775,-0.849,0.560,-65.160,-28.153,-18.756,79.0,105.0
58208,0.074,-1.443,-0.412,-7.748,-145.931,-41.809,78.0,157.0
58261,0.267,-0.818,-0.280,35.565,47.511,-53.107,78.0,182.0
58306,-0.287,-0.826,0.118,-53.221,93.687,-11.824,79.0,99.0
58354,0.003,-1.311,-0.269,-4.420,99.542,19.443,79.0,99.0
58402,-0.255,-0.981,-0.043,39.489,172.618,-8.557,79.0,100.0
58450,-0.875,-0.764,0.510,-26.557,21.847,-42.611,79.0,102.0
58500,-0.415,-1.053,0.146,-51.702,-174.771,-35.809,78.0,124.0
58548,0.607,-1.219,-0.496,25.580,-24.748,-19.321,76.0,106.0
58597,0.281,-0.683,-0.204,46.702,219.779,-39.794,76.0,132.0
58647,-0.218,-0.422,0.059,53.450,250.130,-39.252,78.0,135.0
58700,-0.460,-0.835,0.331,46.198,126.886,-11.214,115.0,111.0
58752,-0.983,-1.045,0.673,-39.947,-215.672,32.489,111.0,111.0
58796,0.774,-1.841,-0.659,-1.626,-237.137,55.489,74.0,44.0
58841,0.911,-1.085,-0.448,132.351,67.786,-17.344,74.0,44.0
58887,0.136,-0.507,-0.405,124.931,250.130,-46.618,105.0,45.0
58942,-1.126,-0.614,0.318,-25.542,203.580,-13.573,0.0,104.0
58990,-0.867,-0.931,0.169,-154.046,-250.137,36.817,122.0,53.0
59080,1.050,-0.875,-0.643,93.977,61.351,-55.603,114.0,58.0
59141,-0.034,-1.801,-1.138,89.763,250.130,-67.313,0.0,127.0
59197,-1.311,-0.990,0.787,-89.985,86.122,73.145,0.0,128.0
59250,-0.137,-1.422,0.366,-130.504,-250.137,46.305,0.0,60.0
59297,0.919,-1.394,-0.565,51.611,-190.863,-137.595,102.0,60.0
59344,0.508,-1.199,-0.728,44.885,110.664,-134.458,101.0,62.0
59398,-0.178,-0.170,0.062,-60.832,192.000,77.099,0.0,82.0
59452,-0.482,-1.174,0.801,-130.893,-88.023,127.969,0.0,69.0
59499,0.207,-1.300,-0.097,80.519,-115.740,-122.206,95.0,67.0
59546,0.408,-0.709,-0.306,65.267,13.969,-116.450,94.0,69.0
59596,-0.367,-0.501,0.085,-65.710,79.160,-8.153,94.0,74.0
59643,-0.531,-0.953,1.083,-143.969,-151.305,99.863,91.0,72.0
59691,0.520,-2.000,-1.023,57.237,-216.168,-21.817,88.0,79.0
59739,0.750,-0.745,-0.591,129.985,31.939,-117.855,87.0,84.0
59786,-0.106,-0.218,-0.075,-17.061,144.588,-10.656,88.0,65.0
59833,-0.584,-1.089,0.814,-141.977,-28.840,59.191,88.0,75.0
59879,0.717,-2.000,-0.839,41.824,-81.702,31.649,86.0,66.0
59927,0.696,-0.604,-0.540,169.580,179.153,20.603,100.0,79.0
59984,-0.677,-0.301,0.352,-30.015,175.397,-5.237,196.0,79.0
60035,-0.917,-1.039,1.064,-174.511,-176.794,-53.870,145.0,81.0
60082,0.083,-1.723,-0.875,69.939,-250.137,-17.550,83.0,72.0
60129,0.585,-0.647,-0.335,129.397,-108.916,-19.473,81.0,73.0
60175,0.169,-0.418,-0.264,-29.542,32.389,7.282,80.0,69.0
60222,0.123,-0.946,0.412,-137.931,66.405,46.176,79.0,79.0
60269,0.124,-1.956,-0.515,32.267,51.450,21.809,79.0,81.0
60315,0.021,-0.781,0.009,128.878,95.000,3.252,79.0,71.0
60362,-0.429,-0.412,0.317,-55.878,-20.496,-3.634,79.0,72.0
60412,-0.210,-0.983,0.729,-168.618,-117.542,0.542,78.0,85.0
60460,0.370,-1.983,-0.761,65.916,-61.672,2.954,77.0,81.0
60506,0.399,-0.675,-0.332,157.137,134.557,9.756,77.0,71.0
60553,-0.562,-0.379,0.315,-27.031,93.611,-11.397,78.0,71.0
60599,-0.542,-1.056,0.758,-140.237,-116.550,-50.763,78.0,73.0
60646,0.367,-1.929,-0.870,53.336,-149.855,-27.000,77.0,72.0
60692,0.500,-0.716,-0.410,152.198,71.313,-4.191,77.0,72.0
60739,-0.245,-0.448,-0.062,-9.748,140.473,1.908,78.0,76.0
60788,-0.279,-0.904,0.277,-146.962,27.382,3.511,78.0,73.0
60835,-0.286,-1.896,-0.253,-25.107,-96.588,27.664,77.0,73.0
60881,0.348,-0.989,-0.354,148.214,-19.710,11.328,77.0,73.0
60929,-0.119,-0.340,-0.044,11.458,44.237,-9.145,77.0,74.0
60975,-0.212,-0.886,0.110,-136.702,-59.794,-26.847,77.0,72.0
61022,-0.003,-1.851,-0.392,-59.794,-93.191,-21.099,75.0,75.0
61069,0.232,-1.063,-0.238,153.901,-13.687,16.763,76.0,73.0
61115,-0.153,-0.435,-0.047,28.366,16.779,12.977,75.0,76.0
61162,-0.021,-0.820,0.214,-116.695,-41.542,7.496,76.0,75.0
61212,0.159,-1.846,-0.471,-1.565,-29.947,-8.122,78.0,75.0
61258,0.223,-0.867,-0.204,104.122,75.924,-24.160,75.0,74.0
61305,-0.438,-0.431,0.172,-15.420,60.588,-23.634,76.0,74.0
61352,-0.387,-0.851,0.280,-138.328,-112.344,-23.160,76.0,74.0
61399,0.058,-2.000,-0.699,-24.176,-168.656,-10.229,71.0,76.0
61446,0.475,-0.865,-0.390,133.496,20.740,-24.634,76.0,75.0
61536,-0.174,-0.862,0.132,-98.939,56.420,5.023,76.0,78.0
61583,-0.141,-1.757,-0.297,-39.069,-12.344,9.382,75.0,89.0
61634,0.017,-0.945,-0.167,119.252,43.588,21.534,74.0,90.0
61681,-0.592,-0.411,0.267,-46.557,-98.969,8.817,73.0,90.0
61727,-0.056,-0.939,-0.167,-150.565,-190.420,36.252,73.0,54.0
61772,0.319,-2.000,-0.857,-14.794,-101.771,29.527,66.0,53.0
61817,0.491,-0.936,-0.589,160.206,119.290,-11.649,73.0,54.0
61865,-0.546,-0.042,0.203,2.038,167.878,-8.695,73.0,92.0
61910,-0.781,-1.046,0.499,-151.260,-159.786,-35.260,66.0,53.0
61956,0.227,-1.995,-0.884,2.122,-239.588,-17.618,64.0,55.0
62006,0.480,-0.697,-0.464,139.473,17.038,-7.679,72.0,53.0
62052,-0.545,-0.421,0.321,-46.802,-11.473,15.977,62.0,53.0
62097,-0.112,-1.156,0.578,-128.412,-141.832,7.992,71.0,55.0
62142,0.932,-1.941,-1.214,89.260,23.198,-25.481,72.0,60.0
62185,0.043,-0.435,-0.255,148.198,250.130,-19.000,62.0,53.0
62229,-0.692,-0.415,0.443,-46.000,135.863,15.084,65.0,55.0
62274,-0.439,-1.324,0.489,-102.038,-37.496,-14.466,73.0,54.0
62318,0.279,-1.566,-0.781,90.206,-48.595,3.137,67.0,52.0
62362,-0.245,-0.368,0.274,74.389,46.786,3.382,65.0,51.0
62408,-0.328,-0.848,-0.045,-62.267,-76.641,5.748,68.0,49.0
62450,0.049,-1.531,-0.202,-33.275,-63.626,-1.802,36.0,48.0
62496,0.135,-0.913,-0.351,86.595,59.382,5.038,70.0,76.0
62542,-0.667,-0.604,0.453,-36.298,-53.176,30.443,69.0,91.0
62588,-0.084,-1.431,-0.195,-56.351,-169.840,22.748,68.0,95.0
62633,0.632,-1.166,-0.490,90.748,12.206,6.046,70.0,53.0
62678,-0.050,-0.393,-0.089,42.809,175.221,16.847,79.0,52.0
62721,-0.639,-0.935,0.366,-70.344,37.992,-7.496,40.0,51.0
62765,-0.502,-1.294,0.434,-43.473,-118.664,-31.893,40.0,80.0
62814,0.415,-1.384,-0.424,104.313,-71.153,-21.527,71.0,83.0
62858,0.186,-0.528,-0.279,78.168,152.634,-13.359,78.0,50.0
62904,-0.577,-0.730,0.331,-53.107,101.427,18.557,74.0,77.0
62948,-0.501,-1.708,0.220,-14.580,-86.939,12.160,40.0,69.0
62993,0.390,-1.195,-0.265,159.924,-25.244,23.260,85.0,50.0
63037,0.270,-0.685,-0.378,95.779,160.481,10.954,42.0,75.0
63080,-0.623,-0.623,0.277,-18.046,139.427,2.740,38.0,67.0
63124,-1.105,-1.304,0.888,-101.794,-114.336,-41.496,42.0,64.0
63170,-0.173,-1.549,-0.113,10.931,-250.137,-24.611,44.0,64.0
63216,0.837,-0.956,-0.546,144.191,-104.740,-5.000,79.0,64.0
63261,0.816,-0.203,-0.521,64.954,218.214,-10.412,81.0,65.0
63305,-0.282,-0.924,-0.419,-50.656,250.130,-97.771,51.0,67.0
63350,-1.614,-1.225,0.896,-70.458,218.504,-117.405,56.0,67.0
63395,-1.116,-0.688,0.675,-4.481,-250.137,18.908,58.0,68.0
63438,-0.312,-0.908,0.011,4.588,-250.137,71.863,59.0,55.0
63482,0.675,-1.338,-0.817,82.496,-101.977,70.924,60.0,55.0
63527,0.200,-1.225,-0.541,47.015,185.748,43.275,62.0,62.0
63585,-1.534,-1.635,1.077,-91.740,9.130,-38.069,65.0,74.0
63630,-0.788,-1.714,0.099,-25.924,-250.137,-44.260,37.0,71.0
63675,1.016,-1.276,-0.682,90.435,-139.779,-46.313,38.0,51.0
63720,0.635,-0.607,-0.666,91.359,250.130,8.176,38.0,52.0
63767,-1.247,-0.399,-0.038,4.840,250.130,13.679,73.0,46.0
63860,-0.876,-0.955,-0.365,-40.794,-250.137,1.771,111.0,66.0
63909,1.759,-0.952,-0.842,142.099,-54.954,-66.206,102.0,60.0
63963,0.347,-0.663,-0.321,30.878,250.130,34.908,162.0,69.0
64018,-1.026,-0.883,0.344,-83.252,250.130,21.351,29.0,184.0
64073,-1.693,-1.017,1.641,-76.092,-44.847,-32.679,75.0,186.0
64129,-0.395,-0.758,0.361,45.435,-250.137,-8.939,76.0,193.0
64186,0.567,-0.557,-0.144,-26.664,-112.015,-17.344,98.0,0.0
64239,-0.218,-0.935,0.294,-57.122,14.725,-28.977,32.0,0.0
64288,-0.629,-0.689,0.864,-79.542,-206.748,31.634,82.0,85.0
64338,0.357,-1.400,-0.389,-5.542,-250.137,36.985,77.0,87.0
64385,0.862,-0.713,-0.338,70.008,-20.977,-42.748,32.0,82.0
64434,0.086,-0.429,0.105,-35.374,134.099,2.893,78.0,87.0
64486,-0.833,-1.057,1.006,-111.626,-78.191,23.733,78.0,83.0
64535,0.199,-1.670,-0.403,45.656,-225.977,16.908,76.0,84.0
64582,0.862,-0.700,-0.462,80.931,12.412,-25.359,32.0,84.0
64633,0.089,-0.587,0.033,-68.420,173.061,5.420,116.0,84.0
64683,-0.215,-1.382,0.370,-83.985,65.550,14.702,80.0,86.0
64733,-0.045,-1.082,-0.077,93.687,56.504,3.504,81.0,84.0
64782,-0.625,-0.517,0.573,-53.740,-40.519,8.809,82.0,84.0
64831,-0.472,-1.152,0.448,-116.519,-239.267,20.824,81.0,85.0
64883,0.893,-1.558,-0.823,89.924,-53.771,-19.481,80.0,82.0
64933,-0.030,-0.187,0.122,47.817,247.282,-11.168,87.0,79.0
64985,-0.657,-0.856,0.513,-95.817,103.038,24.031,109.0,81.0
65034,-0.352,-1.740,-0.097,-4.550,-66.557,3.802,85.0,80.0
65083,-0.065,-0.763,0.047,89.214,2.573,-3.191,85.0,80.0
65133,-0.212,-0.735,0.099,-29.420,-11.695,34.107,86.0,81.0
65182,-0.001,-1.361,0.015,-25.802,-19.229,35.504,86.0,80.0
65232,0.040,-0.940,-0.376,94.824,155.229,-9.954,87.0,80.0
65282,-0.906,-0.536,0.713,-64.878,31.153,4.023,89.0,80.0
65335,-0.619,-1.318,0.236,-86.893,-237.687,2.237,87.0,81.0
65384,0.557,-1.424,-0.705,106.962,-49.046,-31.183,85.0,84.0
65433,-0.075,-0.218,0.037,32.626,218.321,-6.282,87.0,75.0
65483,-0.658,-0.965,0.508,-95.305,83.084,31.664,89.0,79.0
65533,-0.175,-1.754,-0.268,39.771,-42.885,-4.481,89.0,78.0
65583,-0.266,-0.421,0.271,94.366,55.771,-4.595,90.0,78.0
65633,-0.926,-0.721,0.538,-81.229,-187.267,3.534,87.0,79.0
65682,0.102,-1.743,-0.724,-19.557,-247.008,4.420,82.0,75.0
65731,0.643,-0.746,-0.580,139.534,131.840,-36.252,82.0,75.0
65783,-0.734,-0.344,0.514,-37.679,221.550,16.550,85.0,76.0
65833,-0.986,-1.375,0.828,-59.588,-82.878,7.702,85.0,79.0
65883,0.371,-1.374,-0.485,130.870,-50.679,-33.595,84.0,75.0
65932,-0.101,-0.232,0.204,7.382,133.733,-23.069,86.0,74.0
65981,-0.546,-0.987,0.544,-84.130,32.176,14.603,88.0,76.0
66031,-0.148,-1.577,-0.079,51.305,-70.550,-11.588,86.0,74.0
66080,-0.237,-0.225,0.467,43.053,28.954,-30.374,87.0,76.0
66129,-0.679,-0.930,0.558,-91.290,-100.260,20.710,85.0,76.0
66183,0.179,-1.627,-0.309,27.031,-135.443,20.168,82.0,75.0
66232,0.336,-0.542,-0.284,80.702,112.450,8.282,83.0,76.0
66281,-0.821,-0.545,0.904,-107.893,43.626,27.748,86.0,76.0
66330,-0.480,-1.525,0.247,-69.336,-198.886,33.908,84.0,78.0
