Timestamp(ms),AccelX(g),AccelY(g),AccelZ(g),GyroX(deg/s),GyroY(deg/s),GyroZ(deg/s),DistanceLeft(cm),DistanceRight(cm)
24377,-0.066,-1.025,0.208,-6.397,-23.992,-3.099,158.0,80.0
24427,-0.023,-0.989,0.186,-1.893,0.008,2.275,158.0,80.0
24478,-0.083,-0.992,0.240,-0.237,15.771,9.878,158.0,85.0
24529,-0.112,-0.990,0.250,0.916,7.305,7.939,158.0,87.0
24581,-0.085,-0.975,0.236,0.954,0.168,2.580,158.0,86.0
24632,-0.076,-0.965,0.219,-0.015,4.290,-2.878,158.0,87.0
24684,-0.114,-0.978,0.227,-1.519,5.328,-6.229,160.0,88.0
24738,-0.108,-0.966,0.223,-2.183,0.366,-9.115,160.0,89.0
24790,-0.111,-0.974,0.218,-3.160,-1.038,-9.076,158.0,92.0
24843,-0.110,-0.969,0.215,-2.687,-1.298,-6.328,158.0,107.0
24893,-0.114,-0.967,0.211,-3.046,-2.015,-1.107,158.0,79.0
24944,-0.119,-0.974,0.221,-3.580,-6.473,1.359,158.0,78.0
24994,-0.117,-0.970,0.223,-3.053,-11.916,3.626,147.0,74.0
25044,-0.102,-0.984,0.217,-2.336,-12.870,5.481,142.0,74.0
25094,-0.096,-0.989,0.217,-1.031,-10.771,8.534,143.0,77.0
25144,-0.086,-0.989,0.229,1.496,-9.000,12.435,145.0,80.0
25198,-0.084,-0.985,0.225,2.695,-8.618,15.939,155.0,79.0
25248,-0.075,-0.979,0.219,3.733,-8.023,15.511,155.0,79.0
25299,-0.081,-0.976,0.213,2.855,-6.137,12.840,155.0,81.0
25351,-0.074,-0.976,0.214,2.412,-4.511,9.137,156.0,81.0
25402,-0.067,-0.963,0.199,1.359,-0.695,6.389,156.0,83.0
25452,-0.084,-0.969,0.217,-0.481,2.481,2.718,155.0,81.0
25503,-0.087,-0.961,0.220,-1.885,2.321,-1.534,155.0,82.0
25554,-0.084,-0.974,0.218,-3.672,3.626,-5.397,154.0,77.0
25605,-0.090,-0.976,0.217,-4.542,6.702,-8.420,155.0,76.0
25659,-0.100,-0.971,0.224,-5.527,8.076,-10.771,153.0,77.0
25709,-0.094,-0.973,0.232,-6.473,8.008,-12.031,154.0,81.0
25760,-0.114,-0.981,0.229,-7.779,7.260,-14.565,155.0,81.0
25811,-0.102,-0.954,0.226,-8.748,7.015,-16.107,154.0,83.0
25863,-0.118,-0.969,0.226,-10.344,5.656,-16.046,154.0,82.0
25914,-0.107,-0.954,0.217,-10.603,2.252,-15.634,155.0,79.0
25964,-0.109,-0.948,0.210,-12.519,3.061,-12.763,145.0,81.0
26018,-0.119,-0.948,0.203,-13.504,2.473,-10.153,0.0,79.0
26068,-0.097,-0.947,0.177,-14.588,5.046,-7.366,152.0,75.0
26122,-0.063,-0.968,0.149,-14.565,10.260,-3.328,152.0,71.0
26173,-0.041,-0.988,0.173,-11.977,30.298,5.221,151.0,72.0
26223,-0.075,-1.065,0.226,-12.351,32.916,8.878,150.0,75.0
26271,0.046,-0.881,0.112,-6.351,49.679,8.420,107.0,73.0
26322,0.095,-0.623,0.046,-9.305,108.901,28.542,149.0,90.0
26370,-0.017,-0.555,0.018,-7.328,141.985,42.511,87.0,92.0
26419,-0.022,-0.096,0.098,9.344,143.695,65.878,59.0,142.0
26467,-0.122,-0.348,0.207,24.496,96.733,57.931,77.0,97.0
26515,0.035,-1.141,-0.261,88.511,64.855,5.511,30.0,107.0
26564,-0.322,-2.000,-0.573,114.634,140.679,-118.496,67.0,139.0
26611,-0.305,-1.476,-0.390,26.481,201.153,-171.481,19.0,139.0
26660,-0.812,-1.305,0.628,-150.863,53.710,-25.122,62.0,141.0
26710,-0.541,-1.750,0.301,-88.389,-250.137,102.664,59.0,143.0
26756,0.974,-1.844,-0.324,65.450,-238.779,-2.298,59.0,96.0
26803,1.171,-1.014,-0.896,41.183,174.466,-142.084,59.0,96.0
26852,-0.644,-0.986,0.002,-28.298,250.130,-76.573,60.0,146.0
26941,-0.244,-1.385,0.521,-16.947,-250.137,133.450,59.0,98.0
26991,1.240,-1.131,-0.876,83.084,-5.580,-122.359,60.0,98.0
27040,0.409,-0.802,-0.609,59.221,250.130,-134.824,62.0,144.0
27090,-0.835,-0.824,-0.110,-15.076,250.130,-68.931,65.0,140.0
27140,-2.000,-1.003,1.373,-79.962,-234.435,10.931,66.0,138.0
27189,-1.058,-1.144,-0.365,-63.733,-250.137,50.313,65.0,144.0
27239,1.372,-1.560,-1.606,69.221,-250.137,-70.229,57.0,149.0
27290,1.365,-0.470,-0.995,60.763,250.130,-152.168,96.0,148.0
27343,-0.585,-0.506,-0.508,-53.641,250.130,-27.389,67.0,0.0
27386,-1.259,-1.241,1.405,-102.672,91.000,54.183,66.0,0.0
27436,-0.474,-1.773,0.217,55.756,-200.985,76.969,66.0,145.0
27489,0.172,-0.523,0.132,66.916,-144.137,-20.740,64.0,0.0
27539,-0.319,-0.365,0.332,-90.000,-158.886,39.107,65.0,145.0
27588,-0.527,-1.376,0.669,-97.130,-250.137,73.008,64.0,128.0
27637,0.757,-1.496,-0.742,122.542,-203.985,-25.695,59.0,149.0
27687,0.772,-0.451,-0.532,61.573,147.809,-58.443,60.0,148.0
27737,-0.290,-0.421,-0.090,-60.710,250.130,15.160,63.0,146.0
27790,-0.936,-1.269,1.063,-142.496,-16.435,51.290,66.0,145.0
27840,0.209,-1.964,-0.745,60.824,-199.962,63.351,64.0,147.0
27890,0.809,-0.788,-0.569,84.313,84.733,-21.794,66.0,146.0
27940,0.061,-0.571,-0.302,-49.435,250.130,18.008,63.0,143.0
27990,-0.757,-1.080,1.015,-144.878,204.336,19.160,64.0,141.0
28040,-0.206,-1.825,-0.095,36.351,-57.634,20.206,64.0,140.0
28089,0.004,-0.751,0.011,121.191,12.382,-38.885,65.0,138.0
28138,-0.490,-0.609,0.309,-44.779,-21.710,-60.115,67.0,137.0
28188,-0.163,-1.584,-0.244,-80.557,-140.412,-15.824,69.0,135.0
28240,0.552,-1.117,-0.678,106.901,113.718,-2.573,71.0,135.0
28288,-0.429,-0.436,-0.100,17.740,250.130,4.290,30.0,134.0
28335,-0.667,-0.793,0.399,-101.908,47.168,24.260,29.0,134.0
28383,-0.213,-1.758,-0.345,-26.206,-75.359,10.290,30.0,134.0
28432,0.074,-0.891,-0.073,73.382,23.977,0.260,71.0,134.0
28482,-0.449,-0.666,0.286,-39.481,3.298,-7.672,37.0,177.0
28532,-0.497,-1.189,0.293,-58.840,-126.511,5.374,71.0,135.0
28579,-0.013,-1.276,-0.254,47.756,-122.008,11.008,32.0,136.0
28633,-0.187,-0.807,0.035,15.779,-71.718,14.809,83.0,136.0
28683,-0.142,-0.971,-0.167,-42.489,-138.260,34.557,67.0,137.0
28732,0.365,-1.178,-0.693,13.023,31.580,40.153,66.0,137.0
28780,-0.117,-0.781,-0.281,26.053,203.641,25.992,30.0,138.0
28827,-0.891,-0.592,0.526,-31.015,61.908,14.015,31.0,138.0
28875,-0.283,-1.185,0.090,4.351,-139.557,3.221,32.0,139.0
28923,0.244,-1.162,-0.462,104.153,27.206,-54.595,31.0,139.0
28971,-0.326,-0.507,0.015,3.275,181.924,-42.969,30.0,140.0
29019,-0.870,-0.996,0.894,-68.206,-12.412,12.893,31.0,140.0
29064,-0.220,-1.514,-0.382,52.809,-131.282,7.435,31.0,141.0
29112,-0.644,-0.413,0.373,24.305,-122.092,-27.466,31.0,143.0
29160,-0.837,-0.883,0.251,-72.679,-250.137,28.176,68.0,115.0
29206,0.612,-1.666,-0.946,30.092,-250.137,44.832,61.0,77.0
29254,0.752,-0.856,-0.584,72.855,127.802,-36.107,95.0,83.0
29303,-0.351,-0.717,0.009,6.336,250.130,-22.160,95.0,96.0
29362,-0.806,-1.035,0.517,-28.977,115.824,14.840,0.0,146.0
29455,-0.342,-0.828,0.144,-20.061,-190.977,25.008,100.0,120.0
29507,-0.180,-0.924,0.161,-40.260,-205.076,-7.771,85.0,90.0
29561,0.408,-1.283,-0.186,4.145,-153.901,-35.718,0.0,82.0
29611,0.437,-0.842,-0.079,49.191,149.519,-33.962,102.0,93.0
29659,-0.550,-0.839,0.514,-3.252,158.947,13.710,84.0,94.0
29707,-0.539,-0.990,0.620,5.221,-87.603,48.229,84.0,95.0
29755,0.575,-1.299,-0.536,47.786,-34.405,-25.305,83.0,85.0
29803,-0.639,-0.621,0.643,2.779,135.305,-83.481,84.0,94.0
29851,-0.716,-0.742,0.458,-4.046,-231.916,27.260,84.0,97.0
29908,0.872,-1.184,-0.657,15.336,-62.496,9.496,0.0,80.0
29957,-0.399,-0.812,0.366,8.908,250.130,-14.779,81.0,95.0
30006,-0.878,-0.853,1.084,-6.092,-37.855,33.237,81.0,101.0
30054,0.391,-1.242,-0.098,3.939,-92.405,-5.351,89.0,95.0
30103,-0.232,-0.924,0.451,3.359,71.427,-20.206,89.0,101.0
30158,-0.640,-0.840,0.690,1.878,-135.229,47.267,0.0,94.0
30206,0.616,-1.234,-0.378,-4.328,-94.458,25.832,82.0,97.0
30256,-0.183,-0.896,0.324,27.420,123.886,-28.313,83.0,102.0
30304,-0.649,-0.737,0.966,-9.183,-79.107,2.618,83.0,103.0
30355,0.514,-1.189,-0.212,3.672,-73.710,-10.641,81.0,86.0
30410,-0.239,-0.851,0.565,14.084,61.183,-22.053,0.0,88.0
30456,-0.405,-0.941,0.581,-8.122,-153.038,17.824,83.0,67.0
30511,0.975,-1.222,-0.517,18.107,-36.847,10.702,0.0,66.0
30560,-0.287,-0.682,0.550,21.695,208.015,-1.374,95.0,94.0
30608,-0.709,-1.027,0.743,-12.313,-18.374,4.802,95.0,93.0
30657,0.191,-0.983,0.040,-2.298,-69.511,-12.107,96.0,92.0
30712,0.079,-0.831,0.227,0.885,49.695,8.015,96.0,109.0
30760,-0.158,-0.928,0.354,-13.710,59.275,-2.000,89.0,93.0
30811,-0.124,-0.917,0.389,-12.603,37.382,-8.450,90.0,90.0
30858,-0.147,-0.940,0.412,-12.901,15.954,-8.908,92.0,90.0
30906,-0.195,-0.969,0.470,-8.038,-18.641,-6.092,86.0,93.0
30953,-0.293,-0.922,0.571,-0.176,-92.725,15.847,88.0,91.0
31005,-0.074,-0.996,0.356,32.328,-156.328,69.008,0.0,61.0
31057,0.756,-0.930,0.071,90.626,-96.168,94.519,0.0,61.0
31111,0.891,-0.777,-1.101,144.290,250.130,-53.603,0.0,85.0
31166,-1.534,-0.586,0.502,-24.099,250.130,-136.359,0.0,114.0
31221,-1.760,-0.998,0.899,-55.573,-250.137,-3.695,0.0,114.0
31279,-0.125,-1.020,0.011,63.084,-250.137,48.664,0.0,85.0
31331,0.918,-0.738,-0.396,7.313,24.969,-42.954,0.0,71.0
31387,-0.287,-0.966,0.419,-5.954,219.397,9.969,0.0,70.0
31440,-0.744,-1.332,0.968,-18.397,27.473,-0.496,0.0,71.0
31498,-0.488,-0.944,0.786,-13.847,-140.000,-38.435,0.0,84.0
31550,0.115,-1.051,0.261,2.985,-156.855,14.084,0.0,53.0
31605,-0.005,-0.889,0.366,19.046,-110.359,22.305,0.0,53.0
31657,0.308,-0.906,0.144,-3.374,-28.656,26.611,0.0,69.0
31713,-0.015,-0.821,0.437,-23.374,48.542,38.885,0.0,66.0
31766,-0.278,-1.072,0.583,-42.252,-24.275,40.618,0.0,64.0
31818,0.187,-0.973,0.250,-18.115,-48.916,0.664,0.0,70.0
31872,0.165,-0.709,0.111,-8.893,78.191,-24.298,0.0,72.0
31925,-0.698,-0.567,0.769,-29.611,-43.198,-2.977,0.0,78.0
31975,0.163,-0.838,-0.060,-5.679,-160.198,6.374,142.0,75.0
32068,-0.473,-0.740,0.531,8.038,40.092,-31.145,141.0,88.0
32119,-0.115,-1.100,0.238,-8.885,-100.511,-2.931,138.0,92.0
32168,0.506,-0.960,-0.072,9.855,12.153,0.305,136.0,71.0
32221,0.365,-0.963,0.030,-1.282,153.015,5.321,135.0,78.0
32271,0.041,-0.514,0.343,7.565,202.634,5.435,136.0,87.0
32321,-0.136,-0.947,0.677,-30.458,114.954,21.809,141.0,80.0
32372,-0.381,-1.439,0.934,-46.366,-59.702,-26.542,151.0,84.0
32424,0.291,-1.210,0.381,-21.397,-90.008,-23.107,150.0,92.0
32475,0.048,-0.945,0.583,-26.748,6.519,4.527,152.0,79.0
32526,0.055,-0.789,0.593,-20.061,-61.405,30.115,156.0,75.0
32576,0.631,-0.705,-0.054,21.397,74.252,5.962,157.0,70.0
32629,-0.557,-0.433,0.718,4.656,153.076,-29.359,0.0,71.0
32686,-0.632,-0.641,0.536,-8.824,-187.290,29.611,0.0,70.0
32737,0.596,-1.222,-0.516,12.031,-62.122,27.832,0.0,49.0
32789,-0.206,-1.431,-0.181,6.351,230.901,-22.802,0.0,46.0
32836,-0.942,-1.511,0.490,-15.634,84.779,-27.802,101.0,69.0
32883,-0.201,-1.022,0.142,-25.305,-34.924,-15.153,104.0,68.0
32931,-0.104,-1.015,0.394,-59.733,-3.221,-9.351,104.0,67.0
32982,-0.209,-1.104,0.309,-13.618,-5.374,-19.550,161.0,67.0
33033,-0.296,-0.746,0.325,-8.740,4.489,-22.870,163.0,67.0
33092,-0.205,-0.852,0.328,-20.328,-39.534,14.611,0.0,124.0
33145,0.182,-1.042,-0.152,35.885,96.641,-16.252,163.0,109.0
33201,-0.927,-0.995,0.859,-9.916,17.977,-18.824,0.0,111.0
33254,-0.326,-1.146,0.210,-7.687,-250.137,6.328,0.0,74.0
33304,0.700,-1.008,-0.419,15.160,-79.496,-22.107,151.0,73.0
33355,0.461,-0.649,-0.086,9.153,166.084,5.504,152.0,73.0
33406,-0.142,-0.923,0.333,-0.824,199.611,15.198,171.0,75.0
33461,-0.266,-0.989,0.643,3.191,73.626,14.931,172.0,119.0
33515,-0.201,-0.920,0.619,5.534,-95.122,7.260,0.0,77.0
33569,0.381,-1.123,0.040,17.824,-76.084,-5.878,158.0,74.0
33620,0.251,-0.916,0.051,15.443,79.183,-20.489,161.0,74.0
33672,-0.118,-0.963,0.448,8.588,69.252,0.366,162.0,89.0
33728,0.157,-1.020,-0.056,57.771,127.580,-3.817,0.0,110.0
33788,-0.409,-0.865,0.437,13.893,126.435,-1.588,0.0,0.0
33836,-0.402,-0.965,0.370,11.015,-25.802,0.122,0.0,0.0
33896,-0.123,-0.962,0.141,2.710,-78.069,0.122,0.0,0.0
33942,0.043,-0.908,0.051,-3.099,-3.511,-11.977,0.0,0.0
34002,-0.118,-0.939,0.190,-13.931,37.153,-13.191,0.0,0.0
34053,-0.208,-0.947,0.290,-8.527,17.267,-8.382,0.0,0.0
34113,-0.178,-0.913,0.313,-11.267,0.641,0.786,0.0,0.0
34160,-0.153,-0.961,0.342,-9.641,-18.863,11.672,0.0,0.0
34215,-0.105,-0.986,0.323,-3.802,-25.176,11.740,0.0,107.0
34270,-0.039,-0.966,0.289,0.992,-17.817,12.107,0.0,86.0
34325,-0.041,-1.008,0.293,3.924,-3.718,10.473,0.0,107.0
34385,-0.046,-0.979,0.291,7.679,-4.198,8.870,0.0,0.0
34446,-0.054,-0.968,0.263,7.435,9.405,5.649,0.0,0.0
34493,-0.079,-0.954,0.254,7.954,9.145,5.038,0.0,0.0
34556,-0.086,-0.934,0.274,6.702,14.084,5.626,0.0,0.0
34604,-0.125,-0.933,0.250,9.176,27.855,4.603,0.0,0.0
34664,-0.180,-0.925,0.271,1.626,24.863,4.802,0.0,0.0
34761,-0.168,-0.937,0.301,-2.336,-23.511,9.786,0.0,84.0
34822,-0.125,-0.942,0.291,-2.557,-17.450,12.344,0.0,0.0
34882,-0.094,-0.965,0.315,2.031,-4.794,13.679,0.0,196.0
34937,-0.093,-0.946,0.333,3.870,13.191,12.954,0.0,98.0
34996,-0.053,-0.938,0.267,7.786,34.748,8.305,0.0,159.0
35056,-0.195,-0.928,0.303,6.840,45.931,3.786,0.0,0.0
35121,-0.272,-0.938,0.306,2.931,7.015,-10.160,0.0,0.0
35167,-0.203,-0.834,0.277,3.534,2.305,-3.748,0.0,0.0
35228,-0.205,-0.949,0.307,-0.214,1.809,6.344,0.0,0.0
35289,-0.166,-0.947,0.358,5.229,-0.733,16.580,0.0,0.0
35349,-0.073,-1.095,0.380,6.267,15.084,12.351,0.0,0.0
35396,0.016,-1.205,0.482,13.389,4.511,-17.511,0.0,0.0
35457,0.154,-0.592,0.242,40.878,65.267,-48.427,0.0,0.0
35504,-0.875,-1.050,0.207,15.809,107.573,-82.412,0.0,0.0
35551,-1.465,-0.548,0.481,3.427,-70.382,-0.473,0.0,0.0
35611,-0.529,-0.145,0.512,-84.931,-250.137,204.366,0.0,0.0
35662,1.417,-1.328,-0.433,50.122,-148.374,-30.374,0.0,0.0
35723,0.486,-1.207,-0.848,41.382,219.397,-79.198,0.0,0.0
35770,-1.271,-0.870,0.719,-98.420,122.519,94.985,0.0,0.0
35830,-0.701,-1.709,0.448,-88.206,-145.046,-13.893,0.0,190.0
35891,-0.840,-0.814,0.887,2.489,-120.641,-94.519,0.0,188.0
35947,0.240,-1.139,0.055,2.313,-120.985,96.985,0.0,125.0
36008,-0.341,-0.020,-0.019,-12.679,250.130,-41.756,0.0,0.0
36069,-0.750,-1.737,-0.160,-74.611,-250.137,56.321,0.0,186.0
36122,0.813,-0.491,-0.772,29.145,235.160,-47.115,83.0,123.0
36178,-1.391,-1.029,1.299,-65.290,150.656,-14.168,0.0,123.0
36233,-0.183,-1.377,-0.076,23.366,-165.992,-82.206,81.0,0.0
36279,0.201,-0.775,0.325,-42.229,-88.107,-38.893,79.0,54.0
36324,0.544,-1.061,-0.064,23.084,20.893,-67.053,78.0,54.0
36370,0.134,-0.529,0.154,32.565,145.290,-51.817,80.0,54.0
36416,-0.558,-1.018,0.614,-38.374,-17.198,-3.405,82.0,54.0
36461,0.265,-1.315,0.002,10.969,-76.252,-25.198,81.0,56.0
36507,-0.222,-0.329,0.635,-35.443,10.061,-20.191,81.0,58.0
36556,0.020,-1.315,0.284,-8.260,-142.000,40.573,80.0,51.0
36602,0.936,-0.889,-0.300,61.733,57.061,4.656,81.0,52.0
36647,-0.420,-0.726,0.570,-8.992,179.153,37.450,84.0,52.0
36694,-0.295,-1.326,0.275,3.817,-47.290,23.962,85.0,52.0
36740,0.515,-1.000,-0.483,22.519,69.695,-24.901,88.0,54.0
36801,-0.414,-0.616,0.233,-18.672,193.588,6.901,0.0,0.0
36862,-0.014,-1.209,0.114,-0.130,-19.344,29.718,0.0,0.0
36923,-0.439,-0.599,0.520,-21.885,117.305,8.496,0.0,0.0
36987,-0.058,-1.366,-0.043,-3.924,-170.809,-9.489,0.0,197.0
37049,0.215,-0.685,-0.138,-3.374,134.328,-19.321,0.0,0.0
37109,-0.530,-1.338,0.339,-6.687,-58.763,0.565,0.0,0.0
37171,0.356,-0.806,-0.269,18.947,98.618,0.527,0.0,0.0
37232,-0.710,-1.052,0.569,-17.191,6.885,9.718,0.0,0.0
37293,0.361,-1.072,-0.230,26.611,12.275,-12.802,0.0,0.0
37350,-0.357,-0.990,0.264,-9.763,91.511,-4.565,126.0,0.0
37405,-0.243,-1.042,0.296,-4.397,-51.710,7.496,125.0,180.0
37467,0.038,-0.938,0.023,6.756,-14.634,-9.183,0.0,0.0
37574,0.359,-1.252,-0.275,20.084,-123.397,-0.244,0.0,0.0
37636,0.176,-0.885,-0.089,14.183,164.229,-4.748,0.0,0.0
37698,-0.496,-1.012,0.456,0.443,83.221,12.931,123.0,0.0
37753,-0.259,-0.978,0.229,12.511,-45.053,7.382,125.0,0.0
37814,-0.080,-0.980,0.157,-4.878,-70.145,-5.313,0.0,0.0
37874,0.064,-0.917,0.037,7.771,0.519,-15.374,0.0,0.0
37934,-0.099,-1.014,0.223,-5.122,8.893,5.298,0.0,0.0
37994,-0.132,-0.954,0.191,8.687,40.427,-3.947,0.0,0.0
38053,-0.324,-1.046,0.342,-12.115,-56.427,18.511,0.0,0.0
38117,0.103,-0.975,0.059,4.664,-63.160,-8.466,0.0,0.0
38177,0.071,-0.952,0.094,1.328,34.725,-23.687,0.0,0.0
38237,-0.145,-0.975,0.250,5.221,53.679,0.786,0.0,0.0
38297,-0.189,-0.975,0.298,3.939,9.779,11.198,0.0,0.0
38358,-0.062,-0.993,0.189,3.702,-17.221,-1.313,0.0,0.0
38418,-0.014,-0.981,0.146,3.588,3.328,-1.847,0.0,0.0
38477,-0.098,-0.974,0.213,1.290,19.962,-1.053,0.0,0.0
38538,-0.108,-0.967,0.208,1.893,2.382,-3.168,0.0,0.0
38598,-0.081,-0.981,0.191,-2.420,-5.580,-4.046,0.0,0.0
38658,-0.075,-0.977,0.202,-1.748,5.473,-6.626,0.0,0.0
38721,-0.097,-0.981,0.219,-2.756,2.344,-5.679,0.0,0.0
38781,-0.072,-0.980,0.215,-1.954,-2.969,-4.992,0.0,0.0
38842,-0.077,-0.983,0.218,-2.687,2.282,-8.053,0.0,0.0
38897,-0.064,-0.981,0.195,-1.718,7.534,-8.664,118.0,0.0
38952,-0.095,-0.978,0.225,-3.382,0.710,-9.588,116.0,0.0
39008,-0.059,-0.963,0.187,-3.374,-0.321,-13.985,115.0,0.0
39063,-0.064,-0.973,0.182,-4.573,4.931,-13.351,113.0,0.0
39118,-0.085,-0.959,0.212,-6.168,5.450,-14.870,112.0,0.0
39174,-0.055,-0.947,0.172,-7.092,4.733,-17.527,110.0,0.0
39232,-0.063,-0.940,0.175,-9.649,5.916,-18.412,109.0,0.0
39286,-0.411,-0.981,0.262,-11.191,4.748,-12.046,107.0,0.0
39347,-1.118,-1.126,0.583,-57.519,-250.137,56.198,0.0,0.0
39404,0.346,-0.871,-0.261,-43.565,-250.137,140.771,190.0,156.0
39458,1.088,-1.073,-0.344,30.649,104.053,-121.160,176.0,113.0
39510,-0.272,-1.195,-0.642,91.130,250.130,-250.137,123.0,113.0
39564,-1.396,0.128,1.170,-26.092,55.519,-35.687,84.0,0.0
39608,-0.127,-1.440,-0.112,-33.328,-250.137,173.481,158.0,0.0
39661,1.586,-1.449,-0.652,66.252,-125.160,6.214,149.0,77.0
39712,0.954,-1.032,-0.705,-24.756,235.588,-74.321,107.0,126.0
39761,-0.782,-0.838,0.895,-136.679,245.840,14.908,69.0,121.0
39809,-0.278,-1.550,0.447,-1.740,-213.672,150.275,65.0,106.0
39858,0.570,-1.021,-0.199,64.260,-178.405,-124.412,101.0,104.0
39907,0.331,-1.319,-0.558,-13.336,34.931,-84.740,101.0,100.0
39957,0.055,-0.760,0.250,-59.580,64.031,140.908,99.0,123.0
40006,0.125,-1.944,-0.138,-6.748,-94.038,150.008,96.0,107.0
40054,0.791,-1.174,-0.301,36.580,61.374,-87.221,96.0,84.0
40107,-0.409,-0.972,0.083,-22.634,109.679,-11.763,97.0,110.0
40155,-0.450,-0.759,0.898,-39.527,-159.947,201.313,97.0,84.0
40203,0.772,-1.719,-0.732,72.344,-163.718,-59.168,95.0,95.0
40252,0.730,-0.718,-0.698,61.405,132.901,-183.023,97.0,92.0
40301,-0.565,-0.632,-0.294,-39.527,250.130,-70.321,105.0,107.0
40394,-0.497,-1.481,0.472,-50.366,-250.137,108.702,99.0,111.0
40441,0.910,-0.944,-0.688,97.977,-107.733,-127.252,97.0,73.0
40492,0.560,-0.577,-0.684,45.336,245.427,-93.511,98.0,111.0
40542,-1.245,-0.769,0.716,-112.855,172.191,47.153,52.0,111.0
40591,-0.813,-1.532,0.635,-65.489,-237.931,97.649,97.0,111.0
40640,0.691,-1.440,-0.675,141.802,-138.023,-27.855,95.0,86.0
40690,0.406,-0.500,-0.476,70.962,187.214,-80.351,96.0,128.0
40737,-0.602,-0.744,0.424,-117.962,130.763,1.603,53.0,118.0
40784,-0.408,-1.762,0.293,-59.382,-112.176,32.550,58.0,96.0
40832,0.250,-1.057,-0.294,136.191,-49.237,-1.656,58.0,120.0
40880,-0.444,-0.238,0.431,-32.489,-40.870,-4.855,57.0,122.0
40929,-0.323,-1.141,0.393,-114.947,-250.137,50.069,90.0,49.0
40974,1.192,-1.573,-1.026,101.122,28.947,-62.061,90.0,48.0
41022,-0.050,-0.210,0.271,66.802,250.130,-35.802,90.0,78.0
41070,-0.916,-0.806,0.938,-83.244,70.634,38.214,59.0,124.0
41117,-0.447,-1.808,0.142,-19.458,-210.863,58.718,89.0,79.0
41167,0.093,-0.808,-0.018,101.695,-53.557,-33.710,90.0,136.0
41216,-0.300,-0.565,0.500,-39.450,-140.252,32.840,91.0,82.0
41266,0.406,-1.633,-0.409,-17.771,-185.145,77.649,149.0,70.0
41316,0.321,-0.928,-0.230,94.389,135.221,-43.008,146.0,68.0
41373,-0.264,-0.247,0.740,-25.130,123.008,39.870,0.0,79.0
41426,-0.044,-1.758,-0.130,-17.519,-3.840,-6.527,0.0,78.0
41481,-0.331,-0.356,0.623,48.641,61.397,-59.496,0.0,80.0
41534,0.086,-1.030,0.506,-50.214,-125.969,64.840,0.0,77.0
41586,0.373,-0.815,-0.426,89.886,191.840,-68.069,164.0,79.0
41637,-0.856,-0.350,1.084,-49.687,97.649,34.947,126.0,102.0
41691,-0.415,-1.565,-0.024,-27.725,-215.359,-26.092,0.0,79.0
41748,0.582,-0.542,-0.422,53.664,68.466,-79.481,0.0,128.0
41802,-0.507,-0.711,0.903,-62.198,29.466,61.641,167.0,75.0
41851,0.661,-1.835,-0.857,66.153,88.260,50.672,115.0,73.0
41908,-0.728,-0.353,0.820,31.931,233.221,0.038,0.0,124.0
41960,-0.983,-0.968,0.807,-77.504,-250.137,29.061,118.0,131.0
42013,0.840,-1.563,-1.157,52.603,-139.481,-39.985,0.0,65.0
42062,-0.279,-0.227,0.580,-16.481,160.962,-33.099,119.0,71.0
42116,-0.835,-1.134,0.797,-87.405,-126.832,30.748,0.0,69.0
42167,0.561,-1.447,-0.809,63.427,-53.504,-21.237,168.0,68.0
42219,-0.361,-0.322,0.605,-39.130,104.855,11.137,170.0,69.0
42273,-0.149,-1.579,0.132,-55.786,-91.153,42.290,168.0,67.0
42326,0.249,-0.741,-0.390,91.855,214.962,-30.405,168.0,69.0
42379,-1.075,-0.622,1.075,-56.443,32.031,56.458,0.0,72.0
42432,0.124,-1.675,-0.471,-4.031,-158.779,11.031,0.0,69.0
42488,-0.068,-0.346,0.266,45.779,147.771,-10.053,0.0,125.0
42544,-0.746,-1.110,0.702,-67.351,-121.771,27.550,0.0,100.0
42599,0.420,-1.022,-0.655,71.313,41.214,-39.443,0.0,97.0
42655,-1.065,-0.668,1.039,-56.519,-55.038,27.771,0.0,117.0
42710,0.816,-2.000,-0.927,26.031,-150.916,-25.924,171.0,58.0
42764,-0.108,0.006,0.311,29.458,250.130,-12.779,0.0,69.0
42820,-1.280,-1.323,0.934,-67.290,-70.565,38.786,0.0,124.0
42875,0.549,-0.903,-0.540,85.076,-27.313,-30.092,0.0,96.0
42930,-0.600,-0.733,0.635,-68.893,29.939,35.313,0.0,97.0
43027,-0.312,-0.343,0.261,27.328,105.450,-1.504,0.0,70.0
43082,-0.716,-1.125,0.427,-68.031,-103.725,46.954,0.0,99.0
43136,0.009,-1.055,-0.128,-16.885,-137.519,-10.282,0.0,61.0
43189,0.310,-0.875,-0.196,-9.931,19.015,-1.534,0.0,69.0
43244,-0.006,-1.062,0.076,-0.664,145.481,-15.015,169.0,71.0
43299,-0.292,-0.919,0.039,34.008,224.794,3.794,0.0,97.0
43354,-0.920,-0.829,0.962,-39.710,50.092,8.824,0.0,98.0
43409,-0.021,-1.338,-0.146,39.473,-90.260,-2.481,0.0,95.0
43464,-0.138,-0.600,0.220,3.252,59.015,-16.130,0.0,94.0
43521,-0.560,-1.163,0.314,-22.969,-42.153,0.649,0.0,123.0
43578,-0.123,-0.943,0.048,15.374,-102.557,-26.244,0.0,126.0
43630,0.021,-0.906,-0.035,-2.641,-21.649,-25.870,170.0,82.0
43685,-0.154,-0.963,0.180,-11.901,7.702,3.344,167.0,126.0
43735,0.131,-1.109,-0.062,16.824,57.382,2.832,167.0,75.0
43787,-0.181,-0.931,0.201,3.351,125.740,-29.160,118.0,125.0
43842,-0.206,-0.985,0.470,-11.992,39.962,3.000,0.0,96.0
43898,0.032,-0.969,-0.102,48.588,120.832,-26.321,0.0,123.0
43948,-1.092,-0.622,0.892,-40.588,22.244,30.122,59.0,123.0
43994,-0.285,-1.375,-0.072,-7.641,-234.824,24.702,58.0,74.0
44050,0.584,-0.867,-0.423,55.099,-11.634,-45.756,0.0,122.0
44098,-0.564,-0.851,0.475,-9.382,120.893,3.427,59.0,120.0
44158,-0.393,-1.180,0.295,30.214,-49.183,6.321,0.0,121.0
44207,-0.503,-0.631,0.596,11.344,-54.519,11.443,59.0,120.0
44262,-0.837,-1.010,0.445,-5.412,-250.137,61.458,0.0,96.0
44313,0.521,-1.144,-0.276,32.786,-250.137,41.481,169.0,57.0
44364,1.042,-1.110,-0.726,72.252,166.214,-31.206,169.0,57.0
44420,-0.703,-0.502,0.045,52.031,250.130,-3.359,0.0,91.0
44475,-2.000,-0.790,1.499,-44.153,-123.450,86.344,0.0,91.0
44527,-0.076,-1.041,-0.198,-24.641,-250.137,23.954,0.0,57.0
44587,0.912,-0.692,-0.583,44.107,102.282,-83.969,0.0,65.0
44638,-0.338,-0.793,-0.169,-5.267,250.130,-72.809,95.0,100.0
44685,-1.815,-1.169,0.539,-22.542,250.130,-55.870,51.0,118.0
44730,-1.546,-0.863,0.718,-83.534,-250.137,43.458,52.0,92.0
44778,-0.174,-1.155,0.081,-85.565,-250.137,3.786,87.0,95.0
44825,1.043,-1.332,-0.976,31.832,60.695,-107.870,84.0,100.0
44873,0.021,-0.379,-0.474,25.947,250.130,-28.176,84.0,102.0
44920,-1.486,-0.462,0.470,-49.885,250.130,34.588,48.0,125.0
44967,-1.522,-0.660,0.932,-66.573,-140.305,74.176,47.0,129.0
45020,0.122,-0.908,-0.051,-40.168,-250.137,34.718,64.0,130.0
45068,0.883,-1.054,-0.712,33.183,45.580,-105.107,75.0,130.0
45123,-0.206,-0.928,-0.345,25.481,250.130,-105.061,48.0,130.0
45170,-1.609,-1.193,0.917,-54.008,93.000,-55.779,49.0,123.0
45217,-0.932,-1.347,0.146,-68.817,-250.137,45.603,48.0,136.0
45266,0.697,-1.085,-0.090,-23.878,-250.137,77.939,60.0,137.0
45315,0.936,-1.751,-0.572,-6.130,128.023,-130.939,61.0,137.0
45363,-0.737,-1.361,0.673,12.084,227.954,-135.756,61.0,126.0
45415,-0.595,-1.236,0.435,-20.550,-136.611,61.282,61.0,140.0
45463,0.093,-1.111,-0.022,-18.145,-197.153,64.023,57.0,141.0
45512,0.861,-1.140,-0.360,-7.878,-105.321,-51.061,57.0,142.0
45560,0.373,-1.155,-0.288,47.962,130.344,-172.115,58.0,142.0
45652,-0.359,-0.935,0.585,-31.664,-26.435,174.992,60.0,142.0
45702,0.099,-1.592,-0.065,37.176,-63.634,52.015,60.0,141.0
45750,0.192,-0.740,0.006,14.748,7.985,-127.122,60.0,142.0
45799,-0.317,-0.706,0.138,-48.740,71.534,-76.458,62.0,143.0
45848,-0.410,-0.723,0.582,-64.779,-62.542,92.374,63.0,143.0
45900,0.118,-1.158,0.209,-3.153,-133.267,-26.229,62.0,142.0
45949,0.171,-0.756,-0.086,-12.328,-12.855,-188.962,64.0,144.0
45999,-0.312,-0.633,-0.045,-19.336,89.145,-36.290,64.0,146.0
46048,-0.043,-0.686,0.764,-60.328,-90.740,246.603,62.0,141.0
46097,0.180,-1.542,-0.214,9.969,-86.855,-146.901,61.0,140.0
46146,0.097,-0.901,-0.129,-0.985,-25.847,-65.458,61.0,142.0
46194,0.241,-0.847,0.324,-14.748,-67.206,194.023,60.0,129.0
46242,0.448,-1.832,-0.603,42.122,54.870,8.183,60.0,142.0
46295,-0.169,-0.761,0.020,59.305,127.389,-61.916,60.0,140.0
46344,-0.983,-0.697,0.604,-54.229,-114.573,53.580,60.0,141.0
46392,0.076,-1.876,-0.482,-9.710,-250.137,59.450,59.0,142.0
46441,1.312,-0.822,-1.051,111.458,136.107,-74.908,58.0,138.0
46490,-0.282,-0.130,-0.146,-27.916,250.130,7.595,59.0,141.0
46539,-0.912,-1.344,0.998,-108.290,61.649,19.260,59.0,142.0
46587,-0.004,-1.674,-0.344,99.214,-106.229,-4.115,59.0,143.0
46637,-0.036,-0.175,0.262,34.977,-42.031,14.550,57.0,143.0
46689,-0.221,-1.021,0.330,-102.847,-140.817,25.115,58.0,143.0
46738,0.638,-1.986,-0.820,24.473,-56.756,-34.412,58.0,144.0
46787,0.067,-0.666,-0.267,65.771,236.252,-67.618,59.0,144.0
46836,-0.899,-0.813,0.740,-81.038,38.824,-3.855,59.0,144.0
46885,-0.255,-1.559,-0.114,-40.588,-232.420,44.405,58.0,146.0
46935,0.505,-0.874,-0.385,54.611,-60.893,-11.748,58.0,147.0
46984,0.199,-0.569,0.041,-24.542,33.985,37.786,59.0,148.0
47033,0.099,-1.312,0.093,-48.084,24.412,7.947,58.0,148.0
47082,0.076,-1.094,-0.276,61.305,104.542,-48.290,51.0,149.0
47134,-0.806,-0.574,0.712,-45.084,-123.275,16.038,51.0,149.0
47183,0.092,-1.268,-0.327,-20.229,-245.267,23.573,59.0,150.0
47233,0.721,-0.986,-0.697,68.740,47.695,-13.702,93.0,112.0
47283,-0.169,-0.571,0.250,-6.832,161.550,29.107,59.0,151.0
47331,-0.171,-1.370,0.039,21.359,76.756,27.641,58.0,133.0
47380,-0.058,-0.806,0.048,73.328,131.221,3.412,51.0,152.0
47429,-0.771,-0.822,0.754,-31.718,-43.115,26.260,59.0,151.0
47479,0.288,-1.419,-0.332,44.000,-125.244,0.053,57.0,152.0
47532,0.077,-0.622,0.095,31.359,91.870,2.008,59.0,152.0
47582,-0.448,-1.042,0.286,-20.405,-14.779,54.435,59.0,153.0
47630,0.137,-1.209,-0.107,24.397,-41.794,9.206,59.0,132.0
47679,-0.130,-0.680,0.171,1.061,47.145,-10.427,60.0,132.0
47729,-0.191,-1.100,0.131,-21.527,-45.855,0.427,83.0,132.0
47780,0.263,-0.925,-0.072,32.191,46.061,-9.145,84.0,153.0
47831,-0.203,-0.866,0.171,13.237,138.038,-3.130,63.0,153.0
47880,-0.405,-0.926,0.330,3.519,81.557,9.740,50.0,152.0
47929,-0.376,-0.872,0.294,0.588,11.366,25.198,50.0,152.0
47981,-0.330,-0.815,0.174,-13.374,-35.649,48.046,51.0,154.0
48032,-0.363,-0.617,0.156,-30.656,-53.267,114.107,84.0,152.0
48088,-0.354,-0.589,0.333,-42.924,-67.389,137.886,0.0,109.0
48188,0.350,-0.535,-0.022,61.588,77.969,-66.374,0.0,143.0
48238,-0.142,-0.586,-0.196,67.725,199.351,-170.641,57.0,147.0
48285,-0.692,-1.268,0.185,16.954,186.137,-200.748,50.0,121.0
48333,-1.386,-1.984,0.341,40.092,-56.603,-209.603,62.0,118.0
48382,-0.263,-0.738,0.036,68.000,-241.664,-51.992,58.0,141.0
48435,0.174,-0.846,-0.194,-68.229,-218.832,162.595,57.0,142.0
48482,0.440,-1.753,-0.049,-39.519,-96.496,197.221,54.0,98.0
48530,0.700,-1.982,-0.340,47.336,63.031,52.954,55.0,142.0
48579,0.266,-1.117,-0.550,54.893,250.130,21.817,57.0,140.0
48627,-0.832,-0.567,0.101,-67.840,250.130,98.336,55.0,122.0
48677,-1.653,-2.000,0.582,-20.321,45.977,-31.473,57.0,168.0
48729,-0.561,-0.951,0.038,123.962,-201.183,-153.321,54.0,164.0
48778,-0.564,-0.506,-0.125,-31.931,-235.069,-73.160,66.0,134.0
48827,-0.219,-1.263,-0.266,-71.939,-193.252,-8.954,65.0,132.0
48879,-0.283,-1.186,-0.187,31.542,-72.763,23.267,65.0,132.0
48928,0.123,-0.669,0.043,-14.260,-55.458,135.763,65.0,133.0
48977,0.089,-1.740,-0.488,-23.336,75.015,-89.214,64.0,133.0
49027,-0.466,-1.111,0.060,25.573,173.427,-108.389,67.0,133.0
49076,-0.206,-0.484,0.393,-35.153,18.588,156.275,59.0,134.0
49125,-0.369,-1.465,-0.114,2.534,-17.443,-35.611,66.0,135.0
49174,0.002,-0.589,0.109,0.275,-70.931,62.756,67.0,136.0
49224,0.096,-1.623,-0.290,6.000,-47.000,50.969,69.0,136.0
49276,-0.436,-0.526,0.240,14.237,52.977,-41.313,70.0,135.0
49334,-0.490,-0.722,0.623,-42.550,-194.931,107.252,0.0,136.0
49384,0.527,-0.695,-0.587,81.840,6.076,-107.214,73.0,136.0
49433,-0.757,-0.168,0.474,-11.740,60.366,72.214,62.0,134.0
49489,-0.170,-1.907,-0.100,-27.351,-184.427,32.321,0.0,133.0
49547,0.473,-0.826,-0.890,92.550,246.473,-140.473,0.0,130.0
49596,-2.000,-0.946,1.377,-58.840,-24.832,32.122,69.0,129.0
49653,0.183,-1.733,-0.700,19.290,-250.137,-4.618,0.0,131.0
49710,0.485,-0.244,-0.539,54.603,250.130,-65.412,0.0,130.0
49763,-1.543,-1.203,1.156,-44.733,-70.969,16.931,74.0,128.0
49820,0.400,-1.472,-0.499,57.794,-153.427,-36.115,0.0,131.0
49876,-0.269,-0.625,0.299,-31.298,103.664,-22.229,0.0,130.0
49934,-0.145,-0.916,0.359,-9.954,-99.511,-21.015,0.0,130.0
49995,0.290,-0.945,-0.213,56.122,114.878,-75.061,0.0,0.0
50052,-1.207,-1.112,0.495,-4.840,-168.412,-11.489,127.0,0.0
50106,0.908,-1.086,-0.623,13.550,-171.954,-26.412,131.0,146.0
50160,0.254,-0.464,-0.361,38.916,235.656,-24.092,136.0,144.0
50217,-0.950,-1.294,0.972,-85.870,-54.092,74.779,79.0,0.0
50274,0.628,-1.650,-0.126,12.206,-115.160,7.878,125.0,0.0
50330,0.263,-0.790,0.154,-10.237,143.084,-41.267,114.0,0.0
50384,-0.545,-0.810,0.771,-60.840,55.710,51.954,90.0,0.0
50442,-0.067,-0.935,0.482,-18.237,-97.893,-3.763,197.0,140.0
50496,0.176,-0.949,-0.066,-12.893,-9.313,-4.962,129.0,138.0
50549,-0.211,-0.887,0.623,-64.534,-40.550,75.672,128.0,139.0
50598,0.420,-1.549,-0.395,31.053,-30.977,-53.847,51.0,138.0
50655,-0.034,-0.345,0.052,13.893,157.618,6.374,118.0,138.0
50708,-0.925,-1.306,0.772,-90.527,-186.695,87.053,124.0,139.0
50760,0.930,-1.443,-0.571,52.779,-122.748,-49.458,124.0,117.0
50856,-0.789,-1.169,0.584,-63.756,124.458,43.725,129.0,136.0
50909,-0.001,-1.337,-0.065,64.092,-52.939,15.962,129.0,115.0
50961,-0.097,-0.480,0.099,10.847,72.588,8.015,131.0,116.0
51017,-0.654,-1.174,0.144,-58.427,-60.038,44.397,0.0,115.0
51070,0.443,-1.302,-0.335,10.962,-63.206,25.214,144.0,114.0
51124,0.132,-0.632,-0.492,54.023,241.183,-22.382,146.0,117.0
51178,-1.306,-0.986,0.911,-75.122,-34.282,-6.748,79.0,134.0
51234,-0.069,-1.437,-0.320,8.504,-250.137,-34.763,0.0,114.0
51287,0.478,-0.768,-0.407,28.359,46.679,-42.901,132.0,116.0
51344,-0.249,-0.919,0.194,-44.092,147.679,26.962,0.0,133.0
51397,-0.261,-1.298,-0.024,39.137,71.992,-0.626,132.0,132.0
51447,-0.673,-0.715,0.544,-34.351,-59.931,21.649,78.0,131.0
51501,-0.145,-1.265,-0.083,-40.183,-196.298,38.290,132.0,131.0
51555,0.700,-1.187,-0.656,53.489,35.466,-0.962,133.0,131.0
51608,-0.555,-0.566,0.145,-3.031,224.771,0.053,79.0,131.0
51658,-1.138,-1.190,0.546,-56.641,-155.939,5.160,80.0,130.0
51716,0.351,-1.151,-0.435,41.718,-180.840,-7.779,0.0,130.0
51778,-0.134,-0.597,-0.026,-12.267,117.031,-0.840,0.0,130.0
51834,-0.519,-1.306,0.312,-29.908,-60.435,8.817,0.0,130.0
51890,0.385,-0.917,-0.385,58.275,65.679,-26.924,0.0,112.0
51946,-0.679,-0.743,0.420,-39.634,106.550,5.359,0.0,130.0
52001,-0.366,-1.186,0.156,-11.092,-104.389,15.130,0.0,129.0
52058,0.194,-0.937,-0.339,29.466,10.321,-9.947,0.0,129.0
52117,-0.446,-0.967,0.212,-23.198,46.092,10.420,0.0,130.0
52173,-0.143,-1.098,0.003,18.031,-17.824,0.275,0.0,129.0
52230,-0.224,-0.807,0.027,0.534,33.458,2.748,0.0,130.0
52285,-0.452,-1.054,0.189,-35.115,-69.786,23.504,0.0,130.0
52341,0.182,-1.135,-0.206,11.252,-53.885,5.489,0.0,129.0
52398,0.080,-0.902,-0.286,23.870,132.901,-13.397,0.0,129.0
52454,-0.833,-0.909,0.499,-33.389,30.359,20.733,0.0,129.0
52510,-0.181,-1.099,-0.034,-1.489,-134.489,0.443,0.0,129.0
52570,0.175,-0.917,-0.223,11.137,15.901,-23.336,0.0,129.0
52622,-0.208,-0.990,-0.012,9.130,116.252,-7.962,136.0,129.0
52671,-0.386,-0.967,0.150,6.656,81.427,-2.198,78.0,129.0
52720,-0.408,-0.978,0.164,-1.771,1.061,-6.573,78.0,130.0
52769,-0.299,-0.987,0.081,-8.473,-62.969,-12.214,78.0,129.0
52824,-0.176,-0.982,-0.029,-8.000,-76.710,-11.466,148.0,129.0
52876,-0.088,-0.982,-0.068,-7.427,-40.855,-9.802,138.0,130.0
52929,-0.080,-0.973,-0.035,-6.931,7.420,-8.069,136.0,130.0
52981,-0.165,-0.998,0.030,-5.191,23.443,-5.359,137.0,131.0
53038,-0.194,-0.962,0.027,-5.954,19.740,-1.366,149.0,129.0
53088,-0.244,-0.908,0.072,-15.595,0.695,10.344,77.0,131.0
53137,-0.196,-0.898,0.129,-16.107,-28.168,15.611,78.0,130.0
53186,0.154,-0.963,-0.205,26.634,21.099,17.244,75.0,129.0
53235,-0.049,-0.831,-0.062,20.496,140.092,-17.191,72.0,130.0
53283,-0.525,-1.005,0.106,-1.198,139.290,-24.000,70.0,130.0
53332,-0.715,-0.881,0.319,-25.321,-22.924,34.252,70.0,130.0
53382,-0.374,-0.912,0.044,-39.840,-149.870,48.405,69.0,129.0
53442,0.126,-1.170,-0.211,-28.611,-65.107,8.168,80.0,130.0
53494,0.301,-0.991,0.067,23.336,77.611,-20.786,81.0,129.0
53592,-0.727,-0.438,-0.337,75.076,250.130,-50.534,59.0,0.0
53642,-2.000,-0.823,1.232,4.595,-50.176,-50.084,58.0,105.0
53692,-1.436,-1.124,-0.721,-72.168,-250.137,-29.710,58.0,127.0
53743,1.002,-1.731,-1.815,-7.275,-250.137,35.618,71.0,127.0
53794,1.216,-1.068,-0.641,42.885,148.863,-31.168,71.0,126.0
53846,-0.159,-0.894,-0.302,63.122,250.130,-85.450,73.0,126.0
53896,-0.834,-1.475,0.320,22.473,250.130,-47.176,57.0,123.0
53951,-1.210,-1.096,0.653,-55.939,-250.137,24.237,86.0,124.0
54002,-0.235,-1.117,-0.223,-86.229,-250.137,101.893,74.0,127.0
54049,0.961,-1.402,-0.908,11.542,-250.137,26.840,74.0,48.0
54098,0.928,-0.997,-0.513,39.168,43.519,-69.031,113.0,47.0
54148,0.219,-1.251,-0.769,46.053,250.130,-63.763,113.0,44.0
54197,-0.851,-0.816,0.147,-20.557,214.237,28.885,87.0,72.0
54245,-0.793,-1.316,0.269,-85.427,-96.588,66.260,87.0,72.0
54292,0.294,-1.361,-0.383,-4.420,-202.344,26.634,86.0,39.0
54344,0.614,-1.044,-0.683,58.313,80.458,-138.252,119.0,37.0
54396,-0.375,-0.618,-0.222,-0.687,250.130,-58.053,90.0,120.0
54446,-1.134,-1.017,0.549,-75.886,-35.863,80.542,36.0,119.0
54496,-0.077,-1.533,-0.372,-14.580,-250.137,52.168,90.0,101.0
54548,0.746,-0.809,-0.743,63.122,32.366,-84.702,111.0,98.0
54600,-0.386,-0.435,0.011,-43.534,200.076,-0.244,112.0,96.0
54648,-0.632,-1.393,0.374,-62.603,-53.206,56.183,38.0,95.0
54699,0.152,-1.191,-0.365,65.748,-38.435,-1.824,90.0,95.0
54747,-0.227,-0.579,0.026,-26.145,22.130,6.893,37.0,98.0
54802,-0.115,-1.388,-0.060,-49.939,-55.031,4.763,90.0,122.0
54854,0.389,-0.998,-0.606,81.443,154.527,-16.733,90.0,122.0
54903,-0.729,-0.600,0.236,-11.916,175.939,-0.511,37.0,122.0
54952,-0.805,-1.054,0.536,-62.656,-123.046,-11.038,38.0,122.0
55003,0.001,-1.245,-0.325,29.145,-208.977,-4.656,88.0,98.0
55054,0.166,-0.873,-0.330,24.412,-67.313,4.435,87.0,99.0
55105,0.278,-1.165,0.156,-11.840,-10.802,29.275,90.0,101.0
55154,0.467,-1.091,-0.747,114.145,250.130,-36.855,38.0,123.0
55206,-1.286,-0.355,0.729,7.023,250.130,-4.595,38.0,128.0
55255,-1.106,-1.123,0.659,-44.328,-250.137,21.107,36.0,107.0
55308,0.600,-1.271,-0.853,78.450,-241.740,-17.359,82.0,133.0
55358,0.428,-0.587,-0.265,22.496,111.756,-11.687,83.0,104.0
55407,-0.434,-1.129,0.351,-33.511,126.000,23.863,39.0,104.0
55460,-0.200,-1.085,0.182,42.137,12.221,49.435,91.0,135.0
55510,0.002,-0.831,0.031,32.977,46.466,40.115,35.0,137.0
55569,-0.252,-0.717,0.368,-4.947,25.847,37.382,0.0,137.0
55627,-0.439,-1.190,0.325,10.802,-132.748,42.924,0.0,111.0
55689,-0.335,-1.123,0.268,20.992,-185.221,61.229,0.0,112.0
55740,-0.143,-0.959,0.295,36.275,-173.237,65.939,106.0,83.0
55793,-0.069,-1.029,0.361,56.038,-106.893,52.855,149.0,78.0
55851,-0.111,-0.737,0.495,64.290,-37.916,68.710,0.0,101.0
55906,-0.365,-0.702,0.665,35.504,-46.649,68.092,0.0,56.0
55961,-0.263,-0.694,0.567,28.664,-70.588,66.542,0.0,58.0
56013,-0.153,-0.716,0.531,24.954,-44.122,61.832,143.0,74.0
56069,-0.246,-0.700,0.624,22.832,-4.924,44.260,0.0,57.0
56127,-0.355,-0.662,0.682,22.550,-9.153,40.420,0.0,63.0
