Timestamp(ms),AccelX(g),AccelY(g),AccelZ(g),GyroX(deg/s),GyroY(deg/s),GyroZ(deg/s),DistanceLeft(cm),DistanceRight(cm)
21898,-0.063,-0.918,0.115,2.305,1.015,1.481,124.0,71.0
21951,-0.106,-0.981,0.156,0.771,4.473,5.145,0.0,66.0
21998,-0.127,-1.017,0.186,0.099,-13.420,-3.603,124.0,66.0
22046,-0.043,-0.982,0.105,2.573,-7.809,-7.527,122.0,67.0
22095,-0.063,-0.956,0.167,-0.038,9.565,-1.176,123.0,72.0
22144,-0.105,-1.000,0.181,0.992,2.740,4.809,124.0,73.0
22192,-0.100,-0.992,0.173,1.985,-5.244,5.580,123.0,73.0
22243,-0.097,-0.992,0.192,-0.122,-12.794,6.626,123.0,75.0
22291,-0.069,-0.992,0.165,1.702,-13.458,5.260,125.0,73.0
22344,-0.064,-0.989,0.167,2.664,-9.878,1.542,0.0,74.0
22392,-0.058,-0.992,0.168,3.901,-1.931,0.214,121.0,74.0
22440,-0.070,-0.994,0.171,5.275,0.603,3.313,119.0,73.0
22489,-0.077,-0.989,0.166,5.443,-1.015,2.130,118.0,63.0
22536,-0.074,-0.968,0.170,4.763,-1.412,0.840,118.0,65.0
22589,-0.058,-0.988,0.151,4.595,1.496,-2.137,0.0,68.0
22641,-0.078,-0.983,0.155,1.061,3.382,-1.779,0.0,68.0
22696,-0.061,-0.992,0.154,1.908,3.084,-3.863,0.0,70.0
22750,-0.082,-0.967,0.167,0.359,6.336,-4.557,0.0,69.0
22798,-0.083,-1.005,0.166,-0.107,4.076,-7.137,119.0,73.0
22846,-0.076,-0.971,0.176,0.931,8.015,-4.634,118.0,74.0
22894,-0.099,-0.984,0.195,1.351,3.794,-0.290,118.0,75.0
22942,-0.086,-0.994,0.182,2.511,-1.076,-0.885,118.0,75.0
22991,-0.086,-0.982,0.159,0.947,0.359,-1.115,118.0,76.0
23040,-0.072,-0.990,0.166,2.618,4.542,-0.992,118.0,75.0
23088,-0.091,-0.955,0.175,1.489,10.160,0.580,118.0,75.0
23139,-0.107,-0.992,0.191,1.534,2.252,1.076,118.0,75.0
23187,-0.080,-0.983,0.168,2.511,1.260,0.191,118.0,75.0
23235,-0.089,-0.985,0.165,0.527,3.695,-0.183,118.0,76.0
23284,-0.088,-0.981,0.177,1.389,2.198,-1.031,118.0,76.0
23332,-0.098,-0.973,0.178,1.260,2.275,-0.885,118.0,76.0
23380,-0.083,-0.989,0.166,1.481,1.176,-1.229,118.0,78.0
23436,-0.085,-0.965,0.163,2.427,9.321,0.008,105.0,77.0
23483,-0.096,-0.970,0.177,1.855,9.588,1.527,104.0,76.0
23536,-0.105,-0.973,0.186,1.160,3.847,1.298,0.0,77.0
23584,-0.087,-0.969,0.160,0.069,1.382,0.870,118.0,76.0
23635,-0.089,-0.971,0.157,-2.206,8.061,-0.305,116.0,76.0
23688,-0.115,-0.966,0.174,-3.450,9.176,-0.573,0.0,77.0
23736,-0.120,-0.958,0.184,-3.565,4.901,-0.191,116.0,77.0
23789,-0.106,-0.956,0.176,-3.382,3.878,-0.771,0.0,78.0
23838,-0.105,-0.949,0.157,-1.771,9.229,0.954,117.0,80.0
23894,-0.115,-0.949,0.160,-1.954,12.481,2.084,0.0,134.0
23946,-0.115,-0.938,0.159,-2.092,13.947,3.473,118.0,135.0
24002,-0.106,-0.940,0.157,-1.573,19.260,4.924,0.0,133.0
24055,-0.121,-0.984,0.163,0.015,21.107,7.076,0.0,82.0
24115,-0.104,-0.972,0.168,-3.092,19.786,2.328,0.0,132.0
24162,-0.120,-0.973,0.160,-4.496,19.206,-0.649,91.0,84.0
24210,-0.132,-0.932,0.151,-7.916,14.550,-5.389,83.0,101.0
24257,-0.130,-0.913,0.138,-11.130,12.000,-5.847,82.0,104.0
24305,-0.142,-0.900,0.133,-10.649,7.336,-4.260,82.0,101.0
24353,-0.118,-0.898,0.101,-9.733,6.183,-3.634,82.0,104.0
24444,-0.134,-0.805,0.102,-1.298,38.038,12.885,85.0,107.0
24492,-0.142,-0.768,0.087,1.771,25.382,17.023,62.0,106.0
24543,-0.049,-0.759,0.051,8.435,38.061,23.595,84.0,107.0
24592,0.029,-0.898,-0.060,28.824,99.901,29.176,84.0,125.0
24638,-0.091,-1.140,-0.094,52.687,168.886,11.901,36.0,125.0
24684,-0.200,-0.987,-0.179,77.099,211.206,-30.206,35.0,123.0
24731,-0.359,-0.966,-0.157,66.053,236.153,-54.282,35.0,129.0
24778,-1.042,-1.257,0.107,23.748,147.618,-67.740,36.0,130.0
24825,-1.057,-1.315,0.408,-48.084,-112.366,-3.489,34.0,129.0
24871,-0.665,-1.284,0.142,-37.618,-250.137,151.328,33.0,123.0
24916,-0.014,-2.000,-0.250,17.725,-250.137,168.534,51.0,90.0
24967,1.060,-1.805,-0.163,67.809,-216.382,-75.939,86.0,77.0
25015,1.037,-1.665,-0.271,2.802,117.183,-250.137,105.0,79.0
25062,-0.490,-2.000,-0.701,-12.496,250.130,-250.137,40.0,128.0
25109,-2.000,0.154,0.122,54.305,250.130,142.870,43.0,118.0
25155,-1.940,-0.775,0.205,-79.618,-250.137,154.290,44.0,121.0
25203,1.005,0.167,-0.537,-7.084,-250.137,-4.366,51.0,126.0
25252,0.760,-0.234,-0.575,83.328,60.153,-217.321,84.0,129.0
25299,-0.187,-0.041,-0.169,35.763,250.130,-34.511,45.0,120.0
25350,-1.208,-0.849,0.307,-121.595,210.489,151.427,44.0,121.0
25397,-1.146,-1.488,0.898,-104.351,-107.504,96.908,43.0,120.0
25444,-0.174,-1.193,0.458,-3.489,-250.137,7.763,44.0,124.0
25492,1.098,-0.984,-0.391,72.718,-23.611,-62.679,51.0,144.0
25540,-0.355,-1.345,0.230,-11.641,250.130,-49.321,50.0,120.0
25586,-1.760,-1.383,1.382,-143.313,6.679,5.252,44.0,115.0
25636,-0.959,-1.500,0.892,-56.061,-250.137,66.237,44.0,165.0
25686,1.102,-0.823,0.042,85.947,-250.137,-70.969,52.0,152.0
25738,1.035,-0.889,-0.529,60.962,175.840,-76.573,74.0,134.0
25787,-0.385,-0.750,-0.449,30.855,250.130,-47.603,74.0,125.0
25834,-2.000,-0.528,1.470,-74.290,139.282,48.595,46.0,116.0
25882,-1.355,-1.057,0.714,-55.992,-250.137,79.656,75.0,122.0
25932,1.088,-1.162,-0.852,53.527,-250.137,-81.420,51.0,160.0
25980,1.161,-0.624,-0.654,28.687,215.344,-91.733,51.0,132.0
26030,-0.842,-0.745,-0.091,-16.969,250.130,-47.496,78.0,118.0
26078,-2.000,-0.979,1.781,-89.420,-177.000,14.863,77.0,115.0
26131,-0.069,-1.385,-0.297,-6.321,-250.137,18.481,75.0,0.0
26186,1.237,-0.583,-0.272,14.336,3.000,-55.267,45.0,0.0
26234,0.035,-0.688,0.097,-28.298,241.618,-6.863,48.0,130.0
26284,-0.929,-0.711,1.472,-85.313,51.473,28.137,76.0,131.0
26336,0.153,-1.541,0.021,29.481,-196.282,42.191,46.0,0.0
26385,0.717,-0.455,-0.112,42.405,35.756,-58.015,46.0,162.0
26434,-0.445,-0.493,0.581,-79.038,89.015,-15.649,51.0,144.0
26485,-0.550,-1.302,0.600,-59.389,-194.229,18.374,49.0,0.0
26535,0.519,-0.899,-0.201,79.924,-102.588,11.084,46.0,163.0
26591,0.114,-0.620,0.127,-25.237,82.351,48.588,47.0,0.0
26640,-0.383,-1.372,0.743,-96.992,7.611,56.099,49.0,161.0
26690,0.408,-1.462,-0.121,48.450,24.969,18.679,46.0,160.0
26737,-0.281,-0.263,0.581,-0.603,155.191,5.786,49.0,121.0
26789,-0.939,-0.919,1.091,-123.412,-130.038,1.634,47.0,0.0
26840,0.424,-1.851,-0.522,16.458,-242.542,-10.389,71.0,159.0
26933,-0.247,-0.675,0.124,-23.450,197.740,-21.649,50.0,161.0
26981,-0.622,-1.147,0.530,-63.641,43.931,-0.359,52.0,117.0
27029,-0.300,-1.314,0.235,8.748,-99.733,1.763,55.0,119.0
27082,0.026,-0.899,0.123,15.924,-90.641,3.962,57.0,162.0
27131,0.105,-1.122,0.149,-24.046,-47.176,21.069,51.0,161.0
27183,0.232,-1.143,-0.014,14.870,39.702,20.649,57.0,162.0
27233,-0.171,-0.771,0.269,-21.794,100.534,16.634,50.0,164.0
27281,-0.446,-0.864,0.587,-88.656,-21.779,26.168,57.0,133.0
27331,0.113,-1.420,-0.063,8.565,-111.679,28.496,53.0,164.0
27381,0.343,-0.763,-0.100,56.473,48.382,-10.420,48.0,165.0
27432,-0.208,-0.632,0.179,-33.160,112.344,-4.893,51.0,166.0
27484,-0.510,-1.132,0.490,-68.481,-22.031,-7.260,51.0,132.0
27534,-0.088,-1.189,0.041,20.389,-90.756,-8.557,51.0,165.0
27584,-0.115,-0.873,0.093,-1.649,-48.664,-8.069,50.0,164.0
27634,-0.113,-1.052,0.280,-43.206,-84.939,16.832,53.0,163.0
27685,0.374,-1.217,-0.335,50.947,23.336,2.870,56.0,163.0
27736,-0.112,-0.651,0.051,4.893,168.748,-2.412,51.0,166.0
27788,-0.566,-0.963,0.463,-58.779,37.863,19.786,50.0,0.0
27827,-0.086,-1.316,-0.100,28.160,-63.489,3.115,51.0,0.0
27877,-0.011,-0.843,-0.053,39.275,1.870,-12.267,52.0,163.0
27930,-0.499,-0.767,0.336,-43.046,-85.382,16.015,54.0,163.0
27984,0.204,-1.363,-0.357,15.145,-112.580,6.076,115.0,163.0
28035,0.288,-0.833,-0.288,54.809,150.160,-11.527,54.0,162.0
28085,-0.453,-0.702,0.168,-7.924,185.214,20.519,53.0,161.0
28135,-0.624,-1.143,0.315,-15.321,29.473,6.092,52.0,150.0
28185,-0.334,-0.931,0.165,10.008,-75.237,4.313,52.0,165.0
28235,-0.181,-0.844,-0.007,-7.534,-86.504,3.771,52.0,162.0
28285,0.004,-1.146,-0.091,-4.397,-59.878,3.924,53.0,160.0
28336,0.055,-0.929,-0.110,26.763,54.824,0.481,57.0,160.0
28390,-0.324,-0.892,0.198,-11.328,71.626,2.435,59.0,159.0
28443,-0.419,-1.006,0.237,-0.779,-14.275,-0.870,115.0,162.0
28497,-0.275,-0.973,0.156,1.580,-91.351,1.435,115.0,160.0
28552,-0.014,-0.969,-0.047,9.977,-64.992,3.473,115.0,160.0
28605,-0.028,-0.953,0.046,4.313,8.939,-1.466,115.0,160.0
28656,-0.195,-0.979,0.158,7.924,31.015,-6.351,57.0,159.0
28708,-0.250,-0.991,0.204,6.618,6.313,-11.344,93.0,158.0
28759,-0.209,-0.981,0.175,6.908,-23.023,-13.725,57.0,160.0
28815,-0.166,-0.974,0.138,4.931,-29.008,-11.122,106.0,158.0
28868,-0.137,-0.986,0.137,5.511,-22.427,-7.740,104.0,158.0
28922,-0.119,-0.985,0.135,7.000,-7.321,-6.153,118.0,158.0
28974,-0.142,-0.978,0.156,7.580,7.603,-3.595,59.0,158.0
29026,-0.170,-0.961,0.183,7.176,8.962,-1.183,95.0,159.0
29078,-0.184,-0.943,0.191,4.702,-1.878,1.084,96.0,158.0
29129,-0.154,-0.961,0.176,3.802,-7.260,1.252,57.0,157.0
29181,-0.151,-0.960,0.173,2.969,-3.489,1.473,94.0,159.0
29234,-0.151,-0.953,0.173,1.649,0.588,2.641,89.0,159.0
29290,-0.143,-0.939,0.182,0.405,-0.634,6.939,93.0,158.0
29342,-0.142,-0.948,0.173,-1.336,-1.008,9.328,95.0,158.0
29401,-0.136,-0.917,0.191,-4.046,-3.084,11.595,0.0,158.0
29460,-0.144,-0.931,0.208,-7.137,-6.000,10.634,0.0,159.0
29555,-0.153,-1.000,0.216,-9.863,-19.046,2.031,88.0,157.0
29607,-0.147,-1.046,0.207,-7.458,-24.649,-3.466,90.0,158.0
29660,-0.096,-0.986,0.188,-3.824,-18.473,-1.511,89.0,157.0
29719,-0.089,-0.951,0.179,-4.466,-0.099,5.061,0.0,156.0
29772,-0.143,-0.925,0.200,-3.618,1.229,5.916,105.0,156.0
29828,-0.146,-0.905,0.173,-6.809,-7.656,2.679,101.0,155.0
29887,-0.129,-0.923,0.132,-9.023,-9.061,-2.359,0.0,154.0
29939,-0.127,-0.914,0.111,-12.153,-2.878,-4.870,90.0,154.0
29993,-0.147,-0.932,0.119,-15.443,-0.885,-5.504,57.0,138.0
30043,-0.167,-0.935,0.130,-18.145,-4.015,-4.267,57.0,151.0
30092,-0.173,-0.971,0.143,-14.374,-13.176,-2.962,50.0,149.0
30140,-0.116,-0.948,0.098,-7.198,-9.099,6.389,59.0,130.0
30188,-0.104,-0.965,0.074,-5.290,11.939,23.840,59.0,148.0
30235,-0.306,-0.941,0.250,-23.015,-11.336,35.076,57.0,106.0
30286,-0.261,-1.333,0.134,-24.198,-82.832,40.328,59.0,146.0
30336,-0.105,-1.338,0.106,-30.198,-83.107,17.740,59.0,146.0
30390,0.094,-1.323,-0.035,-25.084,-31.397,-1.298,0.0,98.0
30436,0.056,-0.960,0.129,-41.229,72.160,-16.733,62.0,94.0
30482,-0.018,-1.046,0.108,-34.366,103.886,-16.351,66.0,91.0
30528,-0.143,-0.775,0.290,-21.366,115.740,-21.611,58.0,91.0
30576,-0.317,-0.420,0.428,-14.031,70.809,-26.802,59.0,134.0
30624,-0.390,-0.196,0.465,3.076,-33.679,-25.939,50.0,131.0
30674,-0.198,-0.272,0.119,51.267,-105.817,-15.527,77.0,106.0
30723,0.111,-1.737,-0.597,97.595,-28.031,-15.641,67.0,125.0
30773,0.108,-1.442,-1.156,142.908,207.611,81.145,108.0,107.0
30820,-1.641,-1.177,0.079,-118.443,-57.672,250.130,53.0,119.0
30871,-0.199,-1.604,-0.772,-90.603,-171.053,168.656,115.0,116.0
30925,0.063,-1.376,0.046,25.084,-194.443,61.992,0.0,105.0
30980,0.380,-1.305,-0.796,128.534,71.710,-194.267,186.0,101.0
31030,-1.140,-0.574,-0.614,-10.573,250.130,-222.931,131.0,98.0
31079,-2.000,-1.235,0.969,-175.634,-55.947,23.053,57.0,94.0
31128,-0.695,-1.453,0.722,-3.069,-250.137,86.260,149.0,43.0
31176,0.863,-1.251,-0.990,81.557,-25.275,-149.962,153.0,39.0
31219,-0.703,-0.411,-0.819,68.145,250.130,-170.382,67.0,36.0
31263,-2.000,-0.302,0.835,-157.573,63.313,40.687,67.0,41.0
31306,-1.357,-1.729,0.230,-63.450,-250.137,87.557,70.0,36.0
31352,0.808,-1.530,-0.594,110.489,-250.137,-15.252,119.0,33.0
31399,0.364,-0.685,-0.958,112.641,250.130,-89.473,120.0,33.0
31446,-1.287,0.306,0.592,-72.084,212.336,55.427,73.0,83.0
31496,-1.453,-1.678,0.849,-128.916,-220.359,94.573,150.0,32.0
31538,0.246,-2.000,-0.881,98.840,-246.229,-33.824,30.0,33.0
31585,0.895,-0.612,-0.729,137.198,127.763,-128.435,152.0,33.0
31630,-0.630,-0.175,-0.434,28.405,250.130,-56.519,78.0,35.0
31676,-1.058,-0.458,0.501,-155.611,173.947,9.351,77.0,81.0
31722,-0.778,-1.726,0.337,-76.344,-96.977,8.733,79.0,80.0
31769,0.130,-1.055,-0.185,155.130,-41.198,-44.481,81.0,78.0
31815,-0.306,-0.138,-0.115,28.832,112.710,-76.794,82.0,78.0
31865,-0.678,-0.399,0.332,-161.886,-88.176,-9.878,84.0,78.0
31911,-0.800,-1.517,-0.004,-133.702,-250.137,9.542,86.0,58.0
31962,0.137,-1.607,-0.619,103.550,-160.489,-67.229,163.0,56.0
32054,-0.598,-0.825,0.575,-151.580,-76.450,-38.534,137.0,74.0
32104,0.082,-2.000,-0.835,-9.191,-159.008,2.084,138.0,73.0
32156,0.347,-0.714,-0.273,97.992,128.763,-37.061,168.0,87.0
32206,-0.785,-0.556,0.548,-89.153,88.947,17.107,140.0,76.0
32258,-0.778,-1.836,0.115,-61.267,-202.191,53.435,170.0,72.0
32312,0.594,-0.981,-0.787,179.298,63.817,-48.313,170.0,55.0
32362,-0.590,-0.192,0.055,13.962,202.580,-33.221,143.0,83.0
32413,-0.366,-1.032,0.359,-99.252,-16.702,2.443,144.0,83.0
32465,0.283,-1.469,-1.268,94.641,170.229,-11.450,172.0,88.0
32520,-1.248,-0.253,0.792,-43.038,158.282,5.351,91.0,0.0
32568,-0.763,-1.251,-0.039,-84.000,-250.137,48.397,92.0,84.0
32621,0.589,-1.439,-0.754,93.573,-124.908,-0.344,183.0,86.0
32669,-0.084,-0.547,-0.130,16.534,163.748,-26.290,91.0,85.0
32716,-0.662,-0.814,0.633,-68.550,5.618,6.435,90.0,90.0
32771,-0.112,-1.368,-0.380,31.695,-97.145,19.450,140.0,87.0
32821,-0.625,-0.581,0.432,6.672,-116.695,1.824,139.0,87.0
32874,-0.088,-1.142,-0.282,-26.618,-250.137,19.466,0.0,57.0
32928,1.125,-1.145,-1.382,79.916,216.534,-64.710,0.0,89.0
32983,-0.935,-0.306,-0.246,-11.649,250.130,-48.397,90.0,0.0
33035,-1.419,-1.168,0.976,-44.817,-78.603,-34.580,90.0,170.0
33089,-0.364,-1.121,-0.075,45.183,-250.137,20.244,93.0,183.0
33144,0.000,-0.848,-0.177,-4.573,-227.809,20.023,0.0,103.0
33202,0.575,-1.383,-0.592,13.145,-38.992,20.534,0.0,90.0
33262,0.142,-0.937,-0.410,31.145,250.130,-27.954,0.0,191.0
33318,-1.802,-0.849,1.373,-25.527,-12.855,-4.450,0.0,125.0
33373,-0.406,-1.174,-0.259,10.313,-250.137,20.092,0.0,99.0
33429,0.615,-0.863,-0.671,18.725,-67.763,-15.695,190.0,126.0
33480,-0.467,-0.965,0.545,-16.290,-110.336,35.954,188.0,49.0
33532,0.458,-1.150,-0.318,20.534,-108.832,-7.305,189.0,47.0
33587,0.254,-0.821,-0.049,14.198,151.359,-22.832,188.0,102.0
33640,-0.469,-0.978,0.502,-3.053,78.824,20.878,188.0,84.0
33696,-0.000,-1.083,-0.019,32.924,31.710,7.145,188.0,84.0
33751,-0.318,-0.740,0.379,-12.427,47.939,3.916,188.0,83.0
33802,-0.533,-1.117,0.328,-18.107,-107.160,18.389,0.0,43.0
33853,0.175,-0.978,-0.049,8.252,-126.527,26.076,187.0,44.0
33905,0.479,-0.971,-0.334,24.298,112.786,4.366,0.0,46.0
33959,-0.306,-0.959,0.169,16.145,241.305,-7.832,0.0,84.0
34014,-1.008,-0.880,0.861,17.031,9.298,5.046,0.0,84.0
34065,-0.546,-0.948,0.288,-2.840,-234.855,12.412,0.0,48.0
34122,0.174,-0.965,-0.182,2.832,-160.626,-3.031,0.0,84.0
34177,0.195,-0.890,-0.017,1.916,18.160,-0.794,0.0,84.0
34231,-0.099,-0.938,0.168,-3.725,102.855,-0.420,0.0,83.0
34283,-0.269,-0.957,0.311,-0.130,85.206,-0.840,0.0,44.0
34335,-0.304,-0.927,0.374,-0.702,23.008,-0.947,0.0,43.0
34391,-0.213,-0.986,0.270,-2.061,-26.916,-7.061,0.0,104.0
34445,-0.086,-0.958,0.175,-0.107,-22.832,-9.588,0.0,84.0
34499,-0.061,-0.971,0.145,-2.450,13.298,-16.656,0.0,85.0
34553,-0.153,-0.959,0.211,-3.817,29.237,-22.023,190.0,104.0
34611,-0.197,-0.979,0.241,-5.168,17.275,-28.504,191.0,83.0
34664,-0.184,-0.996,0.262,-6.824,4.107,-29.130,192.0,82.0
34761,-0.170,-1.014,0.275,-1.763,-9.519,-13.038,191.0,87.0
34812,-0.108,-0.893,0.226,3.870,-10.534,1.046,190.0,42.0
34867,-0.114,-0.899,0.196,1.710,2.099,9.519,191.0,85.0
34918,-0.174,-0.955,0.203,-2.748,0.107,1.031,190.0,42.0
34978,-0.207,-0.944,0.240,-9.122,-18.252,-11.954,0.0,0.0
35025,-0.181,-0.905,0.219,-11.237,-38.084,-13.611,190.0,0.0
35077,-0.169,-0.940,0.207,-9.176,-43.336,-6.962,185.0,59.0
35132,-0.078,-0.930,0.137,-2.840,-24.809,8.542,184.0,47.0
35183,-0.058,-0.858,0.131,-1.359,8.550,31.771,183.0,47.0
35233,-0.109,-0.783,0.137,1.847,25.626,53.061,181.0,26.0
35283,-0.128,-0.800,0.148,3.443,31.252,63.321,0.0,28.0
35335,-0.138,-0.859,0.153,11.076,29.099,61.130,0.0,28.0
35386,-0.135,-0.889,0.199,20.763,27.244,44.137,0.0,29.0
35439,-0.040,-1.105,0.097,46.679,50.641,9.206,0.0,66.0
35488,0.072,-0.695,-0.049,52.153,141.550,-30.015,110.0,69.0
35537,-0.070,-0.814,-0.112,22.450,224.153,-27.687,150.0,53.0
35591,-0.334,-0.942,-0.174,5.824,250.130,-57.420,135.0,73.0
35638,-1.644,-0.692,0.917,-49.046,32.214,-62.053,57.0,101.0
35687,-1.029,-1.057,0.026,-59.977,-250.137,20.443,112.0,82.0
35736,0.280,-1.418,-0.666,-16.443,-221.511,-24.305,100.0,93.0
35786,0.677,-1.172,-0.637,23.939,161.435,-86.038,99.0,103.0
35830,-0.273,-1.179,-0.698,-4.229,250.130,-129.992,51.0,54.0
35877,-1.615,-1.625,0.491,-15.908,250.130,-121.374,49.0,107.0
35924,-1.209,-1.073,0.519,-44.595,-250.137,-21.443,47.0,109.0
35978,0.079,-1.344,-0.507,-25.137,-250.137,89.786,86.0,113.0
36027,1.174,-1.435,-0.931,4.275,-211.573,31.779,81.0,120.0
36077,0.662,-1.226,-0.416,6.863,120.504,-56.122,80.0,119.0
36124,0.016,-0.986,-0.245,9.557,216.145,-14.038,81.0,76.0
36172,-0.505,-0.854,0.269,-22.634,78.977,92.519,108.0,70.0
36219,-0.168,-1.299,0.533,-21.550,-129.137,52.565,79.0,74.0
36267,0.582,-1.269,-0.558,95.786,-16.229,-112.206,77.0,74.0
36316,0.124,-0.597,-0.319,67.031,189.626,-113.046,78.0,124.0
36366,-0.895,-0.790,0.636,-75.870,32.260,-32.534,80.0,122.0
36413,-0.553,-1.435,0.254,-24.786,-250.137,32.069,78.0,124.0
36463,0.702,-1.123,-0.538,113.275,-108.313,15.939,76.0,126.0
36515,0.249,-0.574,-0.325,32.084,193.076,13.389,76.0,77.0
36561,-0.376,-0.745,0.082,-59.405,186.298,47.092,77.0,79.0
36610,-0.645,-1.418,0.520,-66.985,21.000,27.237,76.0,127.0
36659,-0.112,-1.213,-0.140,88.748,-49.733,9.450,76.0,127.0
36708,-0.266,-0.529,0.187,-20.137,-72.870,-4.214,74.0,129.0
36755,-0.138,-0.932,0.355,-87.985,-143.122,19.260,73.0,104.0
36806,0.469,-1.684,-0.650,49.802,-50.489,-33.160,72.0,118.0
36854,0.052,-0.493,0.049,46.702,156.511,-38.901,73.0,117.0
36902,-0.788,-0.785,0.723,-81.992,-35.206,4.794,72.0,131.0
36951,-0.210,-1.662,-0.275,-11.588,-226.840,14.588,72.0,115.0
36997,0.456,-0.888,-0.303,76.443,-52.664,-15.427,72.0,79.0
37043,-0.008,-0.558,0.109,-27.221,56.695,14.015,72.0,79.0
37089,-0.244,-1.061,0.502,-77.214,5.527,45.985,71.0,84.0
37135,0.112,-1.663,-0.332,66.664,-13.656,23.069,72.0,85.0
37184,0.051,-0.620,0.059,76.595,121.328,-9.985,71.0,90.0
37275,-0.409,-1.164,0.325,-32.145,-4.206,3.870,73.0,110.0
37321,0.036,-1.213,-0.211,58.962,-15.496,-3.511,73.0,91.0
37369,-0.220,-0.666,0.129,14.954,34.695,-12.366,73.0,109.0
37416,-0.315,-0.858,0.217,-53.031,-53.878,-0.626,74.0,98.0
37464,0.046,-1.266,-0.146,8.420,-74.901,11.519,75.0,96.0
37512,0.095,-0.829,-0.016,42.672,47.809,2.534,75.0,110.0
37560,-0.282,-0.803,0.307,-10.557,55.786,-1.809,77.0,112.0
37611,-0.088,-1.173,-0.037,18.840,22.931,-0.611,151.0,90.0
37665,-0.752,-0.780,0.710,-18.779,-21.191,-17.107,113.0,138.0
37721,-0.384,-1.071,0.130,-21.954,-250.137,32.397,0.0,99.0
37774,0.558,-1.124,-0.404,42.748,-65.954,2.542,0.0,80.0
37824,-0.044,-0.667,0.126,5.725,166.397,-12.084,152.0,82.0
37878,-0.470,-1.119,0.390,-16.237,71.802,16.481,0.0,89.0
37933,-0.118,-1.126,0.096,63.244,13.023,11.847,0.0,83.0
37980,-0.142,-0.708,0.083,31.725,92.420,-17.992,97.0,85.0
38031,-0.420,-0.977,0.292,-10.374,50.183,-22.557,99.0,133.0
38079,-0.410,-1.061,0.297,19.420,-55.527,-7.916,99.0,88.0
38129,-0.085,-0.914,0.090,16.221,-76.771,16.198,98.0,79.0
38177,-0.068,-0.881,0.100,1.710,-19.542,8.687,98.0,77.0
38224,-0.239,-1.001,0.312,-6.763,-45.809,-2.122,97.0,78.0
38273,-0.077,-0.984,0.186,6.244,-64.718,-15.443,98.0,84.0
38320,0.028,-0.901,0.166,2.031,-23.588,-9.366,98.0,84.0
38374,-0.052,-0.941,0.219,-0.153,12.076,9.962,0.0,83.0
38427,-0.153,-0.956,0.286,4.786,14.366,18.786,0.0,82.0
38480,-0.145,-0.953,0.280,3.458,3.832,11.931,0.0,81.0
38535,-0.135,-0.951,0.270,1.618,-2.305,2.092,0.0,81.0
38590,-0.127,-0.937,0.264,1.229,-2.374,-4.191,0.0,75.0
38644,-0.115,-0.952,0.262,0.153,1.595,-5.366,0.0,83.0
38697,-0.132,-0.959,0.277,0.176,2.809,-6.084,0.0,83.0
38749,-0.130,-0.950,0.269,-0.145,1.649,-4.832,155.0,82.0
38800,-0.134,-0.945,0.269,0.130,0.740,-3.275,154.0,80.0
38851,-0.131,-0.953,0.273,0.176,0.771,-1.344,153.0,81.0
38901,-0.137,-0.947,0.271,0.519,-0.267,0.076,154.0,80.0
38952,-0.098,-0.952,0.249,1.244,1.901,1.145,154.0,81.0
39004,-0.116,-0.956,0.271,1.618,6.672,1.710,154.0,80.0
39059,-0.129,-0.966,0.281,1.855,6.634,-0.069,156.0,107.0
39112,-0.161,-0.964,0.304,1.702,-6.183,-2.687,159.0,108.0
39168,-0.123,-0.991,0.285,3.565,-13.336,-2.763,0.0,105.0
39221,-0.106,-0.996,0.269,6.672,-2.412,0.061,0.0,79.0
39275,-0.136,-0.999,0.309,8.267,0.305,1.366,0.0,80.0
39328,-0.134,-0.959,0.299,11.023,-3.832,2.740,0.0,77.0
39382,-0.117,-0.939,0.287,13.221,-3.542,2.885,0.0,75.0
39435,-0.128,-0.936,0.281,13.794,-0.985,1.107,0.0,77.0
39488,-0.135,-0.939,0.270,13.588,-0.389,0.023,0.0,71.0
39544,-0.136,-0.981,0.284,10.336,-0.855,1.626,0.0,73.0
39598,-0.092,-0.894,0.279,9.641,0.038,10.450,0.0,74.0
39651,-0.098,-0.880,0.312,2.985,13.840,25.153,0.0,73.0
39704,-0.126,-1.159,0.420,-1.908,18.779,59.481,0.0,73.0
39757,-0.277,-1.276,0.623,-7.977,-31.015,95.099,0.0,75.0
39812,-0.201,-1.174,0.571,-15.985,-109.626,99.588,0.0,72.0
39907,0.007,-0.227,0.273,-1.122,-55.053,33.672,0.0,64.0
39960,0.186,0.226,0.270,-14.626,-21.237,9.366,0.0,61.0
40012,-0.002,-0.274,0.036,-27.863,71.901,-83.504,0.0,57.0
40070,-0.498,-1.457,-0.027,-6.435,173.298,-177.237,0.0,83.0
40122,-1.783,-2.000,0.292,30.267,39.870,-206.802,0.0,55.0
40174,-0.413,-0.166,0.617,-42.695,-193.534,123.221,0.0,55.0
40226,-0.188,-1.454,0.196,-41.832,-168.252,250.130,0.0,37.0
40278,0.828,-0.861,-0.151,100.427,21.725,20.863,0.0,37.0
40330,0.296,-0.482,-0.244,48.832,250.130,-100.382,0.0,57.0
40384,-1.405,-1.161,0.136,-38.779,250.130,-87.916,0.0,74.0
40437,-1.565,-0.847,0.776,-37.344,-133.840,23.954,0.0,72.0
40494,-0.158,-1.237,-0.434,-19.344,-224.473,-64.565,0.0,74.0
40548,0.089,-0.626,-0.329,10.878,104.046,-155.260,0.0,73.0
40606,-0.933,-0.747,0.501,-79.076,157.382,-19.389,0.0,149.0
40662,-0.375,-1.330,0.081,26.305,-57.168,58.985,0.0,102.0
40717,-0.220,-0.469,0.138,25.000,95.618,-9.908,0.0,103.0
40767,-0.720,-1.068,0.368,-44.038,-72.710,-13.954,118.0,103.0
40816,-0.093,-1.272,-0.163,9.511,-186.603,1.824,113.0,79.0
40871,0.034,-0.955,-0.133,1.695,-112.695,4.031,0.0,111.0
40924,0.286,-0.972,0.109,-53.534,-117.962,20.053,0.0,44.0
40980,0.743,-1.129,-0.620,59.244,202.130,-37.656,176.0,91.0
41029,-0.770,-0.527,0.543,-17.420,250.130,-17.214,110.0,85.0
41078,-0.776,-1.312,0.655,-38.756,-156.176,-0.763,110.0,85.0
41127,0.383,-1.054,-0.227,28.656,-131.267,-68.954,110.0,83.0
41178,0.268,-0.868,-0.200,-13.000,46.840,-55.130,113.0,105.0
41229,-0.306,-0.970,0.282,-61.305,55.733,-30.038,112.0,118.0
41284,-0.458,-1.104,0.249,-34.176,-125.176,0.580,179.0,113.0
41334,-0.389,-0.877,0.076,-69.977,-224.893,-21.206,170.0,46.0
41381,0.677,-1.518,-0.688,-22.939,-204.160,-23.992,45.0,45.0
41424,0.956,-1.072,-0.778,89.450,172.237,-76.168,44.0,44.0
41481,-0.155,-0.594,-0.296,22.969,250.130,-45.885,169.0,156.0
41535,-1.081,-1.060,0.680,-61.534,81.084,15.634,121.0,159.0
41589,-0.207,-1.208,0.160,2.374,-230.405,27.924,170.0,113.0
41641,0.493,-0.976,-0.448,36.229,-81.336,-32.916,143.0,111.0
41697,0.268,-0.780,0.042,-5.084,73.153,-14.824,146.0,145.0
41756,-0.124,-1.020,-0.089,23.313,154.718,19.458,172.0,0.0
41810,-0.697,-1.019,0.510,-39.191,-123.160,52.725,170.0,112.0
41865,0.326,-1.309,-0.333,-7.092,-227.374,12.626,168.0,46.0
41913,0.700,-0.915,-0.495,58.565,27.435,-37.740,138.0,46.0
41967,-0.032,-0.618,0.050,-7.336,175.130,-1.809,169.0,116.0
42021,-0.342,-1.284,0.365,-29.832,1.748,64.664,169.0,113.0
42077,0.289,-1.135,-0.263,57.695,46.794,13.786,169.0,114.0
42133,-0.269,-0.710,0.180,-4.718,131.382,-9.290,172.0,156.0
42190,-0.462,-1.189,0.394,-27.511,-81.481,12.229,172.0,156.0
42245,0.106,-0.957,-0.213,41.573,-44.565,9.137,172.0,114.0
42303,-0.859,-1.026,0.575,-56.519,-229.794,-1.702,171.0,113.0
42355,0.362,-1.256,-0.490,6.298,-250.137,25.122,0.0,44.0
42407,0.881,-0.892,-0.630,56.198,111.282,-9.046,0.0,44.0
42462,-0.278,-0.779,-0.030,17.053,250.130,-2.649,173.0,118.0
42518,-0.873,-1.109,0.633,4.885,90.977,18.466,175.0,144.0
42618,0.406,-0.830,-0.378,33.405,89.198,-10.000,174.0,142.0
42678,-1.177,-0.911,0.911,-29.649,104.137,-19.275,178.0,0.0
42733,-0.293,-1.076,-0.045,12.290,-250.137,17.374,175.0,116.0
42788,0.714,-0.819,-0.541,31.099,69.076,-7.985,175.0,73.0
42845,-0.513,-0.957,0.521,-0.252,110.237,-2.023,176.0,137.0
42902,0.177,-1.054,-0.189,39.038,85.855,-21.863,178.0,139.0
42958,-0.715,-0.925,0.669,-6.382,27.130,-5.672,180.0,138.0
43014,-0.205,-0.975,0.098,-2.053,-153.450,9.611,177.0,115.0
43068,0.179,-0.958,-0.164,-11.992,-35.435,23.947,178.0,109.0
43124,-0.307,-0.945,0.283,-30.344,-42.573,33.229,177.0,127.0
43176,0.294,-1.106,-0.229,3.733,16.298,19.763,177.0,71.0
43232,-0.238,-0.789,0.211,0.282,171.908,-11.069,178.0,112.0
43294,-0.618,-1.092,0.489,-22.405,-86.527,-13.137,178.0,116.0
43346,0.225,-0.989,-0.145,12.588,-42.802,-7.870,178.0,86.0
43401,-0.182,-0.939,0.255,-16.626,47.298,0.389,178.0,109.0
43456,-0.203,-1.086,0.206,6.359,8.130,-4.611,178.0,138.0
43511,-0.115,-0.929,0.007,10.908,62.557,-7.397,179.0,138.0
43563,-1.029,-0.960,0.705,-25.237,-156.458,-9.427,178.0,61.0
43612,0.000,-0.993,-0.244,-6.511,-250.137,9.107,177.0,38.0
43662,0.915,-1.019,-0.691,22.435,17.405,7.626,176.0,39.0
43716,-0.080,-0.772,-0.120,17.664,250.130,-3.260,177.0,82.0
43770,-0.754,-1.035,0.560,5.290,166.649,4.405,178.0,115.0
43826,-0.428,-1.112,0.336,17.672,-26.832,13.244,190.0,117.0
43880,-0.261,-1.002,0.186,0.511,-86.763,9.412,0.0,103.0
43932,-0.004,-0.984,0.050,4.489,-63.107,16.099,177.0,77.0
43985,0.026,-0.924,0.084,14.252,24.992,11.939,0.0,79.0
44039,-0.190,-0.868,0.270,12.183,56.359,0.015,0.0,74.0
44090,-0.239,-0.828,0.306,14.931,29.962,-10.588,178.0,80.0
44145,-0.180,-0.766,0.208,14.504,18.710,-14.321,0.0,108.0
44203,-0.189,-0.804,0.127,14.084,36.221,-18.893,0.0,95.0
44255,-0.342,-0.862,0.149,2.038,45.000,-12.160,190.0,71.0
44304,-0.474,-0.782,0.259,-24.985,-12.191,31.511,122.0,74.0
44352,-0.503,-0.854,0.224,-61.099,-96.420,54.145,121.0,68.0
44404,-0.179,-0.860,0.178,-80.313,-151.672,17.672,0.0,70.0
44457,0.350,-0.775,-0.056,-36.985,-82.420,-73.756,0.0,67.0
44508,0.421,-0.787,-0.270,46.916,146.489,-137.718,160.0,67.0
44558,-0.321,-1.069,-0.711,85.168,250.130,-147.481,116.0,93.0
44604,-1.770,-0.320,1.313,-91.359,34.588,10.466,69.0,89.0
44653,-1.125,-1.744,-0.549,-105.099,-250.137,244.168,112.0,40.0
44703,-0.023,-2.000,-0.734,2.916,-250.137,235.527,129.0,91.0
44753,1.563,-0.762,-0.832,51.863,-113.702,4.359,127.0,93.0
44808,0.366,-1.124,-0.395,-65.107,248.618,-164.374,0.0,91.0
44857,-0.531,-1.733,0.283,-89.489,250.130,-150.275,111.0,88.0
44906,-0.773,-1.593,0.689,-27.473,144.565,-21.221,112.0,88.0
44952,-0.457,-1.302,0.403,50.229,-39.252,67.733,113.0,36.0
45000,-0.355,-0.582,0.696,-30.863,-127.611,54.473,113.0,85.0
45053,0.427,-0.827,-0.321,5.809,-151.672,34.947,146.0,79.0
45105,-0.104,-1.203,-0.140,-28.008,52.573,-136.466,164.0,76.0
45157,-1.155,-1.267,0.296,-21.473,-200.305,-41.847,166.0,73.0
45201,-0.791,-1.194,-0.780,15.687,-250.137,-4.710,51.0,72.0
45285,0.866,-0.506,-0.444,56.435,-2.107,250.130,38.0,13.0
45329,0.339,-1.271,-0.523,-21.718,238.099,11.786,37.0,71.0
45379,-0.939,-1.664,-0.484,61.420,250.130,-150.450,153.0,67.0
45429,-1.528,-0.344,0.378,-37.534,67.359,15.824,154.0,66.0
45483,-0.782,-1.471,-0.288,-53.672,-229.718,96.756,157.0,68.0
45526,0.546,-1.108,-0.303,1.656,-127.832,55.580,24.0,68.0
45579,0.630,-1.021,-0.527,11.786,155.328,-29.267,0.0,69.0
45635,-0.839,-0.872,-0.069,15.298,250.130,-34.496,0.0,66.0
45688,-1.354,-0.718,0.491,-30.046,-150.122,33.557,0.0,64.0
45745,0.062,-1.022,-0.330,-22.305,-213.908,22.656,0.0,66.0
45797,0.349,-0.977,-0.487,23.832,116.771,-15.626,0.0,65.0
45853,-0.897,-0.796,0.099,9.389,222.977,-13.000,0.0,64.0
45896,-1.138,-0.945,0.184,-15.275,-164.870,46.794,21.0,64.0
45952,-0.226,-0.955,-0.446,-7.008,-180.298,19.893,0.0,66.0
46005,-0.118,-0.730,-0.268,-9.855,7.290,18.641,0.0,67.0
46061,-0.377,-1.013,0.000,-37.885,18.908,5.374,0.0,68.0
46114,-0.019,-0.991,-0.235,14.046,69.840,-50.672,0.0,66.0
46171,-0.366,-0.875,-0.090,13.260,154.893,-59.557,0.0,66.0
46224,-0.819,-0.995,0.330,-0.382,-40.840,-36.588,0.0,66.0
46280,0.031,-1.108,-0.296,13.710,-95.992,-31.992,0.0,66.0
46323,0.060,-1.035,-0.304,16.168,131.160,-26.221,18.0,66.0
46374,-0.695,-1.030,0.173,7.435,131.282,-19.954,171.0,66.0
46425,-0.594,-1.134,0.397,6.084,-119.321,-12.328,0.0,67.0
46478,0.396,-1.266,-0.497,82.382,-21.420,-24.069,0.0,69.0
46531,0.104,-0.793,-0.300,58.405,227.603,-20.519,0.0,67.0
46584,-0.867,-0.867,0.399,10.443,155.695,-3.412,0.0,62.0
46637,-0.726,-1.108,0.258,-3.641,-163.099,-18.771,0.0,52.0
46689,0.089,-1.007,-0.348,18.840,-199.450,-23.664,0.0,48.0
46740,0.336,-0.803,-0.443,16.397,29.695,-1.519,192.0,50.0
46792,-0.605,-0.707,0.426,-59.336,-2.198,24.160,0.0,51.0
46848,0.151,-1.340,-0.263,6.771,-108.244,18.267,0.0,52.0
46900,0.393,-0.699,-0.291,49.511,91.489,-20.840,0.0,54.0
46956,-0.435,-0.743,0.324,-48.298,79.076,0.122,0.0,56.0
47008,-0.238,-1.200,0.118,-31.198,-89.969,1.328,0.0,53.0
47065,0.186,-0.836,-0.192,16.962,-34.351,-1.221,0.0,54.0
47117,-0.443,-0.834,0.310,-55.366,-106.954,12.282,0.0,55.0
47173,0.291,-1.462,-0.461,-2.115,-119.366,1.885,0.0,57.0
47225,0.411,-0.993,-0.413,32.176,166.107,-22.176,0.0,54.0
47278,-0.655,-0.919,0.281,-35.565,178.344,-1.053,0.0,56.0
47334,-0.280,-1.384,0.022,-11.206,-55.924,4.168,0.0,54.0
47386,0.169,-0.966,-0.156,18.313,10.611,7.076,0.0,53.0
47443,-0.430,-0.969,0.228,-28.412,-5.969,23.260,0.0,71.0
47496,-0.156,-1.369,-0.027,-8.389,-128.038,15.725,0.0,52.0
47551,0.563,-1.156,-0.792,92.565,88.198,-11.450,0.0,50.0
47603,-0.726,-0.486,0.260,-13.466,141.290,17.626,0.0,48.0
47655,-0.493,-1.074,0.113,-64.611,-101.779,-13.626,0.0,47.0
47706,0.197,-1.098,-0.341,18.710,-73.290,-19.504,0.0,13.0
47759,0.030,-0.861,-0.183,10.824,62.809,-7.550,0.0,9.0
47812,-0.541,-0.884,0.157,-30.069,28.534,18.206,0.0,9.0
47862,-0.273,-1.139,-0.104,-8.366,-67.519,14.664,0.0,9.0
47955,-0.896,-0.856,0.492,-27.435,-76.382,45.962,0.0,9.0
48006,-0.272,-1.158,-0.162,2.015,-229.008,20.710,0.0,10.0
48059,0.347,-0.959,-0.315,33.023,-64.427,1.550,0.0,12.0
48109,-0.406,-0.912,0.243,33.198,47.405,-13.229,0.0,12.0
48163,-0.599,-0.924,0.384,10.321,-128.809,2.191,0.0,14.0
48224,0.187,-0.993,-0.232,25.710,-96.183,-0.198,0.0,0.0
48271,-0.151,-0.858,0.011,12.847,85.420,12.962,0.0,0.0
48328,-0.343,-0.953,0.084,14.557,73.725,38.809,0.0,16.0
48379,-0.216,-0.948,-0.034,27.069,92.725,15.137,0.0,29.0
48433,-0.541,-0.770,0.313,-8.931,84.481,-4.893,0.0,15.0
48484,-0.623,-1.070,0.304,-3.863,-64.756,1.489,0.0,16.0
48534,-0.286,-0.993,0.093,10.267,-138.947,-3.237,0.0,28.0
48589,0.116,-0.974,-0.130,13.336,-28.344,-11.542,0.0,27.0
48641,-0.405,-0.927,0.337,5.985,42.214,-7.702,0.0,27.0
48695,-0.291,-1.019,0.162,22.466,-40.115,-7.550,0.0,26.0
48749,-0.117,-0.854,0.125,10.366,27.870,-22.962,0.0,25.0
48804,-0.679,-0.894,0.401,-4.519,-31.710,-1.534,0.0,26.0
48856,-0.185,-0.969,0.047,-1.931,-107.084,6.656,0.0,28.0
48910,0.180,-0.931,-0.198,13.656,45.534,2.076,0.0,29.0
48961,-0.611,-0.813,0.343,4.015,142.260,23.389,0.0,27.0
49015,-0.659,-0.953,0.413,-2.282,-21.084,23.786,0.0,28.0
49067,-0.174,-0.886,0.182,-1.344,-59.336,-0.374,0.0,29.0
49122,-0.148,-0.963,0.198,-7.359,-14.153,-2.595,0.0,31.0
49173,-0.281,-0.984,0.311,-3.939,-20.107,-10.221,0.0,33.0
49228,-0.252,-0.947,0.266,-5.397,-50.206,-14.626,0.0,32.0
49284,-0.177,-0.993,0.144,-7.504,-52.420,-11.298,0.0,31.0
49335,-0.126,-1.002,0.017,-1.046,22.817,-13.313,0.0,31.0
49390,-0.330,-0.827,0.150,3.305,88.405,19.137,0.0,30.0
49441,-0.479,-0.877,0.256,1.298,67.733,37.672,0.0,32.0
49497,-0.435,-0.891,0.333,-3.901,6.748,12.382,0.0,32.0
49548,-0.283,-0.911,0.275,0.206,-37.908,-1.344,0.0,33.0
49603,-0.224,-0.966,0.244,-1.122,-48.939,-6.489,0.0,32.0
49654,-0.167,-0.973,0.203,3.458,-46.557,-18.046,0.0,33.0
49710,-0.076,-0.965,0.125,3.206,-9.260,-28.626,0.0,33.0
49765,-0.124,-0.974,0.164,1.985,37.321,-28.786,0.0,32.0
49816,-0.230,-0.970,0.232,4.252,50.985,-31.977,0.0,32.0
49871,-0.263,-0.948,0.264,4.817,40.489,-29.000,0.0,32.0
49923,-0.242,-0.917,0.221,8.702,27.794,-28.595,0.0,32.0
49978,-0.205,-0.910,0.181,6.229,36.206,-31.687,0.0,31.0
50034,-0.246,-0.918,0.163,7.916,63.023,-30.145,0.0,30.0
50084,-0.329,-0.943,0.207,5.427,57.718,-24.260,0.0,31.0
50136,-0.340,-0.895,0.206,6.160,36.397,-21.260,0.0,32.0
50189,-0.275,-0.786,0.107,2.962,24.000,-5.763,0.0,33.0
50239,-0.234,-0.758,0.023,-6.252,47.412,1.733,0.0,35.0
50289,-0.276,-0.766,0.050,-10.252,62.611,-8.427,0.0,24.0
50338,-0.364,-0.962,0.179,-10.328,51.176,-30.313,174.0,26.0
50387,-0.251,-0.951,0.115,26.878,9.290,-43.336,179.0,29.0
50436,-0.076,-0.534,0.072,50.244,41.328,-57.153,166.0,31.0
50481,0.007,-0.433,-0.090,58.252,69.237,-55.412,101.0,36.0
50528,-0.042,-0.171,-0.160,64.557,137.374,-47.924,96.0,75.0
50618,-0.934,-1.509,0.990,-178.649,-107.427,-77.519,88.0,88.0
50675,-0.093,-1.377,0.555,-37.824,-250.137,122.947,57.0,91.0
50721,1.707,-1.569,-0.858,190.351,-250.137,-34.351,52.0,53.0
50767,1.088,-0.752,-1.133,17.557,200.779,-161.374,52.0,54.0
50816,-0.142,-0.941,-0.489,-172.939,250.130,-25.130,105.0,58.0
50865,-1.598,-2.000,0.330,-177.130,101.344,246.779,72.0,87.0
50913,-0.701,-2.000,0.949,-59.176,-250.137,112.397,75.0,63.0
50962,0.814,-1.242,-0.914,-17.939,-250.137,-182.985,96.0,63.0
51010,0.353,-1.641,-0.607,-50.802,-4.366,-207.718,96.0,65.0
51062,0.061,-0.630,-0.085,-25.947,125.824,81.870,98.0,65.0
51110,-0.255,-1.069,0.282,-49.366,55.519,201.656,72.0,65.0
51158,0.230,-1.480,-0.232,14.702,34.206,54.366,71.0,71.0
51206,0.237,-1.043,-0.232,61.427,143.542,-153.107,71.0,70.0
51255,-0.450,-1.115,-0.470,57.374,225.664,-147.260,92.0,65.0
51303,-0.986,-0.269,0.357,-40.542,-4.962,66.122,93.0,65.0
51352,-0.475,-1.137,0.151,-74.275,-218.588,153.305,93.0,67.0
51400,0.904,-1.473,-0.773,8.244,-183.405,-9.573,65.0,69.0
51447,0.758,-0.996,-0.535,65.855,135.244,-194.580,65.0,69.0
51501,-0.208,-0.913,-0.405,34.878,250.130,-96.374,68.0,114.0
51551,-1.051,-0.720,0.615,-68.550,91.794,146.969,67.0,119.0
51602,-0.791,-1.580,0.788,-46.084,-250.137,150.450,62.0,130.0
51648,0.913,-1.428,-0.682,69.519,-247.779,-122.740,30.0,75.0
51696,1.041,-0.881,-0.741,40.733,132.695,-162.954,32.0,120.0
51748,-0.136,-0.624,-0.384,-28.038,250.130,-34.603,96.0,120.0
51800,-1.190,-1.244,0.842,-88.679,116.092,117.962,94.0,91.0
51850,-0.788,-1.405,0.611,-14.359,-250.137,81.840,93.0,95.0
51900,0.570,-0.966,-0.635,51.748,-250.137,-98.718,45.0,86.0
51948,0.855,-0.606,-0.511,-5.763,10.450,-97.603,46.0,86.0
51995,-0.106,-0.955,-0.114,-67.137,196.908,-46.634,58.0,84.0
52043,-0.663,-0.955,0.587,-41.626,-3.718,84.649,58.0,84.0
52091,-0.003,-1.142,0.151,16.519,-228.427,107.214,57.0,85.0
52140,0.839,-0.822,-0.433,27.710,-41.305,-116.420,45.0,85.0
52188,0.531,-0.883,-0.386,-37.275,180.878,-140.893,57.0,84.0
52236,-0.201,-1.204,0.023,-54.580,250.130,-74.534,60.0,83.0
52287,-0.809,-0.861,0.751,6.672,-58.260,63.023,61.0,85.0
52335,-0.275,-0.959,0.212,-6.893,-250.137,102.145,59.0,84.0
52383,0.618,-1.163,-0.590,-11.061,-239.053,-14.198,57.0,85.0
52431,1.024,-0.940,-0.398,-23.031,17.771,-88.901,59.0,84.0
52480,0.308,-1.228,-0.373,-19.718,245.305,-84.763,60.0,84.0
52528,-0.530,-0.659,0.446,10.099,151.252,42.267,64.0,82.0
52576,-0.473,-0.860,0.372,-9.191,-143.771,177.534,61.0,83.0
52624,0.070,-1.422,-0.193,-5.656,-232.733,90.924,60.0,84.0
52672,0.465,-1.022,-0.237,5.550,-134.160,-76.221,60.0,84.0
52722,0.509,-1.045,-0.470,3.382,72.351,-67.084,31.0,83.0
52768,0.060,-0.574,0.012,-7.695,167.656,70.687,34.0,82.0
52818,-0.178,-1.066,0.323,-13.534,108.206,127.863,93.0,81.0
52869,0.050,-1.284,-0.039,53.038,114.939,12.634,96.0,80.0
52920,-0.330,-0.823,0.300,35.328,148.443,-5.099,116.0,80.0
52971,-0.824,-0.908,0.733,-4.916,-225.947,45.160,120.0,80.0
53018,0.509,-1.359,-0.518,31.618,-246.656,6.511,33.0,79.0
