Timestamp(ms),AccelX(g),AccelY(g),AccelZ(g),GyroX(deg/s),GyroY(deg/s),GyroZ(deg/s),DistanceLeft(cm),DistanceRight(cm)
49712,-0.322,-0.301,0.948,0.305,2.298,0.183,116,23
49760,-0.33,-0.301,0.95,0.038,-0.473,0.008,116,23
49808,-0.315,-0.295,0.944,0.672,-1.237,0.221,116,23
49856,-0.303,-0.292,0.945,0.214,0.023,-0.038,116,23
49904,-0.307,-0.298,0.941,0.115,1.038,0.16,116,23
49952,-0.312,-0.29,0.94,0.298,0.534,0.092,117,23
50000,-0.324,-0.3,0.94,-0.313,-0.679,0.023,117,23
50052,-0.31,-0.297,0.948,0.061,-1.321,0.092,117,23
50100,-0.309,-0.295,0.94,-0.099,-1.466,0.397,117,23
50148,-0.314,-0.296,0.943,0.107,-1.267,0.26,117,23
50196,-0.309,-0.296,0.942,0.183,-0.443,0.298,117,23
50244,-0.31,-0.297,0.948,0.061,-0.13,0.412,117,23
50292,-0.312,-0.287,0.948,0.214,0.107,0.176,116,23
50340,-0.317,-0.297,0.951,0.603,-0.458,0.42,117,23
50388,-0.31,-0.296,0.944,0.382,-1,0.107,117,23
50437,-0.306,-0.287,0.941,-0.832,-1.489,0.878,117,23
50488,-0.305,-0.299,0.949,-0.122,-1.672,1.099,117,23
50536,-0.296,-0.295,0.94,0.802,-0.252,-0.435,117,23
50584,-0.312,-0.296,0.943,0.74,0.198,-0.183,117,23
50632,-0.312,-0.291,0.939,0.305,-0.145,0.053,117,23
50680,-0.313,-0.292,0.943,-0.069,-1.481,0.321,117,23
50728,-0.313,-0.3,0.952,0.282,-2.42,0.489,117,23
50778,-0.301,-0.297,0.944,1.183,-0.031,0.756,117,23
50826,-0.308,-0.286,0.944,-0.008,1.153,0.183,117,23
50874,-0.317,-0.288,0.952,-0.611,-2.031,-0.443,117,23
50925,-0.299,-0.293,0.937,-0.504,-2.183,-0.679,117,23
50973,-0.311,-0.299,0.949,-0.115,-0.443,0.015,117,23
51021,-0.31,-0.288,0.943,0.359,1.443,1.084,117,23
51069,-0.323,-0.291,0.948,-0.618,-0.931,0.405,116,23
51119,-0.325,-0.3,0.955,-0.069,-3.595,-0.412,116,24
51167,-0.286,-0.302,0.939,1.496,-3.191,-1.038,117,25
51215,-0.303,-0.297,0.951,0.962,-0.16,-1.458,117,24
51263,-0.309,-0.295,0.938,1.191,0.794,-2.718,117,23
51312,-0.306,-0.282,0.95,0.588,-0.29,-1.321,117,23
51363,-0.31,-0.295,0.953,-0.573,-0.221,-0.916,118,23
51411,-0.301,-0.291,0.947,-0.115,-1.008,-0.008,118,23
51460,-0.302,-0.294,0.954,-0.87,-0.382,0.046,118,23
51509,-0.307,-0.304,0.952,0,-2.366,-0.771,118,23
51557,-0.302,-0.293,0.941,-0.031,-3.038,0.282,118,23
51605,-0.296,-0.293,0.945,-1.031,-3.145,-0.053,117,23
51654,-0.296,-0.306,0.998,0.405,-3.107,6.336,117,24
51702,-0.295,-0.367,1.006,14.832,15.031,16.733,117,25
51751,-0.343,-0.356,1.029,34.397,22.504,22.42,118,26
51798,-0.388,-0.305,1.096,51.931,18.13,25.145,17,25
51856,-0.452,-0.308,1.129,72.924,-0.229,32.878,119,0
51910,-0.388,-0.185,1.079,99.435,-10.107,30.466,37,0
51969,-0.303,-0.025,1.001,102.939,-5.282,19.511,121,0
52023,-0.264,0.092,0.973,98.595,-19.557,1.924,37,0
52082,-0.258,0.177,0.942,88.832,-29.626,-16.359,122,0
52142,-0.236,0.302,0.902,72.42,-17.191,-21.588,123,0
52237,-0.286,0.413,0.803,45.282,6.756,-31.023,31,189
52290,-0.4,0.393,0.819,38.389,2.863,-30.183,33,187
52346,-0.393,0.441,0.823,32.649,-1.321,-26.221,33,187
52400,-0.365,0.404,0.793,27.107,0.42,-28.084,35,186
52453,-0.313,0.543,0.767,14.107,14.069,-24.786,35,185
52507,-0.381,0.482,0.796,-3.359,36.542,-19.122,36,185
52560,-0.429,0.435,0.771,-10.969,49.733,-10.832,37,185
52619,-0.489,0.429,0.769,-22.458,72.939,-1.176,129,186
52673,-0.572,0.37,0.775,-31.305,76.847,2.534,38,0
52727,-0.674,0.291,0.848,-25.359,50.977,-4.588,38,0
52785,-0.691,0.27,0.833,-13.542,16.137,-0.885,39,0
52840,-0.664,0.26,0.814,-10.733,7.092,4.107,45,0
52894,-0.62,0.305,0.786,-12.275,3.603,12.275,44,0
52954,-0.635,0.219,0.827,-8.611,-4.748,4.061,132,0
53009,-0.558,0.293,0.721,-4.901,16.198,5.435,45,0
53063,-0.682,0.317,0.836,-15.282,28.969,19.977,45,0
53117,-0.81,0.321,0.81,-8.443,-11.901,14.389,40,0
53173,-0.678,0.34,0.796,-10.588,-30.336,18.924,41,0
53227,-0.697,0.307,0.787,-9.786,-40.42,24.954,39,0
53281,-0.546,0.35,0.783,-4.115,-36.71,31.824,37,0
53339,-0.653,0.36,0.874,2.939,-5.336,50.122,36,0
53393,-0.65,0.425,0.897,10.313,-21.733,60.351,37,0
53447,-0.533,0.465,0.854,12.076,-28.908,71.916,35,0
53500,-0.463,0.475,0.845,12.695,-30.473,77.359,33,0
53555,-0.358,0.51,0.828,14.466,-31.496,79.229,29,0
53609,-0.261,0.515,0.779,12.595,-17.626,81.351,26,0
53662,-0.215,0.535,0.815,9.962,-13.183,76.87,28,0
53716,-0.147,0.56,0.794,9.015,-13.061,71.366,26,0
53770,-0.138,0.539,0.831,9.908,-15.183,65.687,24,0
53826,-0.039,0.583,0.805,11.13,-10.611,59.832,22,0
53879,-0.062,0.581,0.837,10.595,-6.435,56.809,19,0
53933,-0.016,0.616,0.837,11.931,-10.672,51.443,20,0
53986,0.054,0.629,0.811,10.832,-10.359,46.191,20,0
54031,0.094,0.624,0.767,8.405,-4.092,40.809,16,57
54076,0.117,0.644,0.794,8.603,-0.29,33.962,16,57
54121,0.125,0.648,0.81,8.427,1.588,28.794,16,57
54166,0.124,0.649,0.805,9.366,0.344,24.969,16,57
54210,0.13,0.669,0.821,10.221,-2.786,19.122,16,57
54258,0.143,0.718,0.837,10.618,-8.725,14.466,16,57
54313,0.145,0.69,0.823,7.847,-12.885,13.198,0,57
54359,0.171,0.712,0.809,7.817,-11.412,10.55,17,57
54404,0.162,0.696,0.821,9.29,-14.084,9.221,16,57
54449,0.179,0.698,0.789,10.206,-18.237,8.252,16,59
54504,0.216,0.735,0.76,11.405,-11.611,7.649,0,58
54549,0.195,0.723,0.775,10.679,-17.573,4.916,16,58
54594,0.225,0.741,0.739,7.985,-18.84,5.481,16,59
54650,0.221,0.736,0.743,8.137,-15.725,4.405,0,59
54699,0.249,0.733,0.726,10.924,-20.145,4.45,18,60
54752,0.265,0.732,0.691,11.931,-15.435,3.679,16,0
54808,0.258,0.746,0.694,11.802,-14.397,3.863,12,0
54904,0.259,0.747,0.709,11.26,-17.763,3.176,12,0
54958,0.289,0.768,0.68,11.672,-16.519,3.618,13,0
55011,0.307,0.789,0.659,11.45,-17.672,3.168,19,0
55064,0.334,0.789,0.635,7.977,-14.985,3.687,16,0
55120,0.323,0.792,0.648,6.115,-14.969,5.191,12,0
55174,0.348,0.792,0.623,6.336,-13.832,6,12,0
55230,0.344,0.777,0.627,6.45,-15.107,6.855,12,0
55286,0.373,0.77,0.608,6.076,-11.427,6.153,12,0
55340,0.371,0.779,0.597,5.718,-11.214,4.275,13,0
55393,0.373,0.786,0.592,3.74,-5.893,4.924,13,0
55449,0.389,0.782,0.605,6,-11.237,3.115,11,0
55501,0.398,0.794,0.57,6.992,-10.794,2.878,11,0
55559,0.422,0.797,0.566,6.092,-10.924,1.153,11,0
55611,0.395,0.795,0.565,4.595,-8.389,2.328,11,0
55664,0.406,0.787,0.568,3.313,-6.908,3.519,11,0
55720,0.419,0.793,0.574,4.046,-7.87,2.13,11,0
55777,0.419,0.792,0.547,1.282,-4.718,2.427,12,0
55830,0.415,0.791,0.564,2.382,-4.023,1.863,12,0
55883,0.428,0.804,0.552,3.221,-3.275,1.244,12,0
55937,0.426,0.806,0.542,2.809,-1.427,2.13,12,0
55990,0.434,0.793,0.55,3.359,-3.885,1.672,12,0
56043,0.447,0.798,0.525,2.076,-2.427,0.137,17,0
56101,0.417,0.789,0.552,2.206,0.321,1.145,108,0
56155,0.435,0.799,0.515,1.008,-2.176,1.519,16,0
56209,0.416,0.799,0.554,0.061,0.053,0.092,16,0
56267,0.434,0.798,0.535,-0.29,-1.168,1.023,16,0
56323,0.433,0.797,0.537,0.366,-0.053,0.527,16,0
56379,0.446,0.805,0.526,0.779,-0.763,0.794,16,0
56431,0.432,0.8,0.539,0.389,-0.847,0.053,16,0
56487,0.438,0.799,0.538,-0.099,1.595,0.748,16,0
56541,0.438,0.797,0.55,0.382,-1.855,0.282,18,0
56596,0.435,0.806,0.536,0.885,0.137,-0.328,18,0
56649,0.438,0.816,0.529,0.893,-1.58,0.137,17,0
56706,0.434,0.8,0.543,0.015,1.466,0.336,17,0
56758,0.425,0.805,0.546,0.443,-1.985,0.489,22,0
56814,0.429,0.795,0.53,0.511,-1.443,0.176,22,0
56869,0.437,0.806,0.537,1.038,-2.771,0.13,17,0
56923,0.439,0.801,0.533,0.099,-0.206,0.26,17,0
56979,0.438,0.8,0.534,0.481,-1.298,-0.069,20,0
57031,0.45,0.804,0.509,0.595,-0.053,-0.565,17,0
57088,0.428,0.803,0.526,-0.42,1.74,-0.145,17,0
57140,0.433,0.804,0.538,-0.244,-0.45,-0.328,17,0
57198,0.446,0.803,0.532,-1.847,2.359,-0.382,108,0
57255,0.437,0.803,0.533,-1.229,0.412,-1.092,108,0
57309,0.432,0.791,0.529,-0.061,-0.344,-1.634,16,0
57369,0.43,0.812,0.541,-0.565,0.573,-1.069,108,0
57422,0.421,0.797,0.55,-1.504,1.595,-0.824,17,0
57475,0.417,0.797,0.54,-2.878,3.374,-0.046,17,0
57528,0.423,0.798,0.542,-2.885,2.176,-1.29,17,0
57580,0.423,0.8,0.527,-4.664,4.145,-1.168,12,0
57675,0.421,0.794,0.546,-7.664,6.153,-3.023,12,0
57728,0.402,0.784,0.566,-8.695,6.832,-4.275,11,0
57781,0.408,0.78,0.573,-8.87,4.092,-7.443,11,0
57833,0.408,0.79,0.539,-11.038,9.168,-8.588,11,0
57888,0.357,0.786,0.602,-11.794,15.916,-8.389,11,0
57940,0.334,0.779,0.665,-9.748,5.397,-9.237,12,0
57993,0.381,0.782,0.603,-12.672,11.802,-8.718,13,0
58046,0.353,0.768,0.67,-12.718,13.473,-13.176,17,0
58099,0.369,0.785,0.625,-15.298,21.344,-16.664,17,0
58151,0.331,0.769,0.661,-17.122,19.084,-23.023,17,0
58210,0.296,0.756,0.7,-16.282,10.45,-29.13,111,0
58263,0.252,0.737,0.712,-18.267,7.634,-33.931,16,0
58316,0.261,0.761,0.67,-17.473,3.031,-41.656,16,0
58372,0.225,0.737,0.693,-20,19.359,-44.58,18,0
58425,0.147,0.726,0.722,-19.679,18.885,-49.427,19,0
58478,0.095,0.731,0.736,-21.939,12.099,-55.733,17,0
58531,0.073,0.713,0.736,-25.366,9.198,-62.061,20,0
58584,0.017,0.683,0.747,-26.534,10.198,-65.954,20,0
58637,-0.044,0.668,0.765,-28.229,19.863,-67.588,19,0
58690,-0.141,0.642,0.804,-28.13,26.992,-65.191,19,0
58743,-0.227,0.607,0.79,-25.038,30.931,-60.405,23,0
58798,-0.307,0.578,0.857,-22.534,29.145,-56.466,25,0
58854,-0.338,0.541,0.845,-16.794,11.802,-54.237,26,0
58907,-0.366,0.527,0.846,-14.389,8.473,-51.794,26,0
58960,-0.411,0.49,0.857,-13.115,2.641,-45.672,30,0
59015,-0.4,0.491,0.844,-10.168,1.053,-43.183,28,0
59068,-0.398,0.47,0.839,-9.076,11.473,-40,30,0
59122,-0.455,0.463,0.855,-7.412,12.092,-36.885,34,0
59176,-0.488,0.438,0.868,-8.55,14.435,-31.023,38,0
59231,-0.527,0.415,0.865,-7.046,11.55,-23.832,33,0
59285,-0.508,0.405,0.849,-4.695,5.221,-19.458,33,0
59341,-0.497,0.402,0.823,-3.511,10.427,-16.45,34,0
59396,-0.552,0.376,0.852,-2.939,5.473,-15.985,33,0
59450,-0.513,0.365,0.805,-3.679,2.061,-15.611,34,0
59504,-0.539,0.36,0.825,-5.008,5.679,-12.969,36,0
59557,-0.544,0.346,0.842,-5.206,4.595,-12.489,35,0
59612,-0.562,0.335,0.838,-2.901,8.374,-9.817,38,0
59667,-0.554,0.334,0.852,-1.076,5.557,-8.427,46,0
59721,-0.563,0.317,0.831,-1.443,8.382,-6.313,36,0
59776,-0.574,0.302,0.824,-1,5.023,-5.55,35,0
59832,-0.57,0.315,0.821,-0.221,4.977,-5.351,36,0
59886,-0.581,0.311,0.826,-0.313,6.267,-5.206,36,0
59940,-0.543,0.368,0.847,4.298,11.641,-3.069,44,0
59995,-0.615,0.31,0.819,3.053,4.817,-1.962,37,0
60049,-0.576,0.311,0.786,1.634,3.168,-3.496,37,0
60103,-0.575,0.322,0.783,2.092,11.84,-5.71,36,0
60157,-0.624,0.298,0.786,0.863,11.16,-5.916,36,0
60212,-0.651,0.317,0.779,-0.733,7.649,-3.061,37,0
60266,-0.627,0.363,0.821,-2.824,-0.366,-2.122,38,0
60320,-0.633,0.311,0.792,0.313,4.145,-3.328,38,0
60421,-0.637,0.288,0.809,-0.634,-6.214,0.015,37,0
60482,-0.624,0.269,0.796,-0.87,-15.313,-2.13,159,0
60536,-0.652,0.169,0.856,2.29,-17.389,-3.695,38,0
60591,-0.568,0.241,0.836,7.366,-30.305,-9.702,39,0
60651,-0.575,0.148,0.888,6.817,-39.786,-8.718,130,0
60710,-0.51,0.221,0.89,5.916,-58.282,-15.962,129,0
60769,-0.48,0.244,0.819,-6.252,-66.71,-22.916,129,185
60823,-0.47,0.279,0.867,-22.176,-55.069,-14.809,44,184
60881,-0.455,0.228,0.942,-11.221,-52.756,-19.267,129,183
60944,-0.376,0.291,0.893,-10.679,-45.779,-16.389,129,182
61002,-0.381,0.279,0.964,-21.863,-37.664,-0.702,129,182
61060,-0.35,0.201,0.963,-17.374,-53.038,0.74,129,153
61117,-0.262,0.249,0.977,-11.328,-39.603,7.412,128,155
61175,-0.261,0.245,1.007,-9.992,-21.817,17.718,119,183
61233,-0.213,0.214,0.989,-5.473,-17.084,20.122,118,184
61291,-0.191,0.23,0.977,-13.023,-6.458,30.275,117,185
61345,-0.177,0.163,1.008,-22.046,-9.046,36.115,37,187
61402,-0.122,0.125,0.96,-24.679,-12.992,31.107,33,188
61460,-0.076,0.092,0.972,-27.962,2.519,25.786,114,189
61513,-0.143,0.038,1.043,-27.824,11.519,20.511,17,190
61572,-0.134,0.021,1.072,-23.985,2.603,19.786,113,192
61624,-0.092,0.033,1.068,-23.282,1.977,16.718,16,192
61683,-0.116,-0.001,1.057,-24.779,1.58,13.511,119,193
61735,-0.114,-0.051,1.074,-25.443,-5.45,10.863,12,194
61789,-0.084,-0.065,1.045,-24.466,-0.328,8.122,13,194
61842,-0.12,-0.078,1.056,-24.344,7.565,3.924,11,194
61898,-0.15,-0.097,1.1,-19.588,4.679,-1.252,16,195
61952,-0.137,-0.106,1.029,-15.817,8.115,-1.802,16,195
62010,-0.182,-0.126,1.019,-15.656,19.443,-3.282,119,195
62069,-0.228,-0.158,1.061,-12.969,10.435,-3.13,119,195
62128,-0.217,-0.17,1.017,-6.947,10.885,-0.069,119,194
62187,-0.258,-0.138,1.052,-3.817,15.649,-1.328,119,194
62240,-0.234,-0.176,0.991,1.26,-1.626,-2.496,16,195
62294,-0.249,-0.119,1.002,-1.389,9.214,-1.511,16,194
62349,-0.253,-0.122,1.031,-4.137,-2.374,-2.733,16,194
62402,-0.209,-0.132,0.972,-6.221,-0.595,-2.779,17,194
62461,-0.249,-0.175,1.018,-8.382,2.115,-3.122,119,195
62515,-0.237,-0.156,1.012,-6.344,-4.893,-2.198,17,195
62568,-0.214,-0.167,0.981,-6.718,2.985,-2.099,17,195
62621,-0.24,-0.158,1.021,-8.908,0.992,-3.122,16,195
62674,-0.18,-0.144,0.968,-11.687,7.672,-3.328,16,195
62728,-0.224,-0.161,1.002,-16.344,18.634,-3.023,17,195
62781,-0.21,-0.179,0.956,-20.748,24.069,-2.359,16,195
62837,-0.321,-0.228,1.124,-14.924,17.359,4.229,17,195
62891,-0.216,-0.341,1.019,8.779,24.26,15.931,19,195
62949,-0.309,-0.284,1.09,38.099,61.664,30.374,119,195
63009,-0.447,-0.256,1.149,69.13,59.397,38.702,121,0
63064,-0.718,-0.136,1.3,98.718,21.878,58.656,33,0
63118,-0.519,0.305,0.68,120.969,-31.366,49.748,37,0
63172,-0.354,0.475,0.33,45.435,-35.55,22.687,32,0
63270,-0.172,0.564,0.821,45.573,12.756,16.71,36,0
63326,-0.305,0.366,0.754,-10.802,39.84,18.718,57,0
63389,-0.495,0.196,1.034,5.405,4.389,8.229,38,0
63442,-0.25,0.271,0.81,-9.534,-1.626,-2.206,29,0
63496,-0.641,0.158,0.955,-4.191,14.221,-0.626,32,0
63550,-0.493,0.394,0.855,-3.878,-6.718,0.832,33,0
63603,-0.427,0.25,0.92,-2.45,8.626,1.779,30,0
63656,-0.485,0.254,0.933,-1.977,18.008,7.206,28,0
63715,-0.359,0.23,0.806,-14.969,9.282,-6.573,124,0
63768,-0.65,0.282,0.993,-4.885,22.45,2.748,26,0
63821,-0.443,0.285,0.85,-8.107,-13.977,-0.756,26,0
63878,-0.507,0.266,1.003,1.496,11.718,9.595,26,0
63931,-0.371,0.175,0.72,-3.252,-2.595,-8.664,26,0
63984,-0.687,0.255,1.06,2.618,7.427,10.344,26,0
64037,-0.208,0.19,0.743,-1.565,-9.885,-11.053,24,0
64090,-0.844,0.184,1.15,5.557,26.038,16.588,24,0
64143,-0.251,0.329,0.746,17.809,-15.076,-0.405,25,0
64196,-0.743,0.149,1.187,25.504,11.183,16.038,25,0
64250,-0.27,0.38,0.717,36.565,-11.107,2.863,38,0
64304,-0.695,0.263,0.917,26.214,7.924,10.672,25,0
64360,-0.329,0.41,0.79,23.435,-3.176,9.237,23,0
64413,-0.677,0.194,0.953,8.885,12.084,13.214,27,0
64466,-0.315,0.514,0.81,28.282,-15.122,5.176,23,0
64520,-0.592,0.362,0.807,25.237,5.695,0.58,24,0
64573,-0.442,0.618,0.762,28.092,-14.824,11.473,24,0
64626,-0.411,0.365,0.741,18.099,-0.366,-0.74,24,0
64678,-0.612,0.443,0.903,22.924,-6.672,8.397,23,0
64732,-0.371,0.575,0.667,4.542,5.962,5.168,24,0
64785,-0.413,0.562,0.749,1.183,-7.397,-1.305,24,0
64838,-0.496,0.381,0.804,-8.45,4.275,-0.244,24,0
64894,-0.387,0.594,0.719,-9.878,6.863,-2.748,24,0
64948,-0.542,0.438,0.9,-12.275,-4.496,0.534,25,0
65001,-0.45,0.463,0.865,-2.122,1.756,1.626,27,0
65064,-0.469,0.391,0.858,6.679,-6.473,-3.206,0,0
65120,-0.574,0.46,0.814,4.282,6.053,2.344,58,0
65173,-0.455,0.459,0.784,1.427,-3.389,5.489,29,0
65236,-0.51,0.435,0.898,7.031,0.656,6.534,0,0
65291,-0.415,0.522,0.726,12.939,-6.87,6.366,30,0
65344,-0.44,0.5,0.771,6.725,1.443,2.038,36,0
65400,-0.51,0.451,0.859,10.137,-2,8.443,25,0
65454,-0.365,0.557,0.691,11.718,3.389,4.802,27,0
65508,-0.505,0.527,0.806,7.756,-11.336,4.336,28,0
65561,-0.426,0.558,0.698,1.031,9.771,4.679,24,0
65614,-0.395,0.425,0.844,0.42,-12.359,5.244,25,0
65668,-0.474,0.511,0.833,5.466,5.412,-4.634,25,0
65721,-0.469,0.633,0.71,10.664,-0.504,1.687,26,0
65774,-0.452,0.46,0.848,5.58,-9.847,-0.137,28,0
65828,-0.438,0.631,0.686,3.313,13.496,2.924,30,0
65882,-0.523,0.609,0.778,4.015,-6.282,8.076,35,0
65933,-0.402,0.414,0.829,2.481,3.267,11.008,25,0
66029,-0.561,0.658,0.819,6.71,-3.031,-7.931,26,0
66082,-0.502,0.527,0.792,5.573,1.855,6.504,26,0
66137,-0.332,0.547,0.722,6.779,-2.145,-1.748,26,0
66190,-0.52,0.586,0.829,9.977,-6.282,-1.519,25,0
66243,-0.495,0.646,0.798,9.901,-3.58,2.718,25,0
66296,-0.381,0.596,0.756,12.405,5.458,1.794,25,0
66350,-0.459,0.589,0.696,10.565,-4.252,2.489,26,0
66403,-0.42,0.592,0.718,7.718,3.947,3.092,26,0
66459,-0.432,0.633,0.738,2.969,-0.191,3.885,25,0
66512,-0.347,0.587,0.685,4.344,-0.519,-4.679,24,0
66567,-0.528,0.592,0.746,-2.679,-3.038,3.107,26,0
66620,-0.439,0.662,0.759,-2.878,0.802,0.855,24,0
66673,-0.315,0.539,0.686,-2.771,7.649,-2.504,24,0
66726,-0.524,0.604,0.772,0.847,-5.374,-3.71,25,0
66780,-0.49,0.609,0.771,0.092,5.267,5.092,27,0
66834,-0.367,0.667,0.695,0.802,1.298,-1.328,24,0
66887,-0.488,0.57,0.827,6.122,-8.779,3.176,25,0
66944,-0.433,0.622,0.707,9.733,13.618,0.565,24,0
66997,-0.452,0.565,0.748,5.939,-8.832,1.328,24,0
67050,-0.457,0.638,0.726,7.267,8.344,2.649,24,0
67103,-0.401,0.661,0.65,9.504,-11.641,2.305,25,0
67158,-0.419,0.681,0.649,-2.58,2.015,1.695,25,0
67211,-0.539,0.573,0.836,1.435,-2.237,9.153,25,0
67264,-0.302,0.617,0.683,12.183,-2.771,-1.382,25,0
67317,-0.496,0.726,0.627,4.366,2.473,0.023,27,0
67372,-0.41,0.662,0.708,-3.214,-9.13,6.427,30,0
67425,-0.311,0.6,0.804,-1.305,-10.061,-2.947,26,0
67482,-0.387,0.631,0.69,7.809,15.191,-7.962,29,0
67535,-0.526,0.63,0.78,22.802,5.107,3.954,29,0
67590,-0.401,0.679,0.625,2.489,-29.359,-8.206,26,0
67643,-0.368,0.681,0.608,-20.779,-8.611,-8.908,26,0
67697,-0.431,0.65,0.841,-21.565,3.336,-7.061,27,0
67750,-0.445,0.709,0.765,-33.962,-63.634,-29.641,26,0
67805,-0.365,0.644,0.515,-29.008,-1.901,0.328,26,0
67858,-0.535,0.541,0.902,-34.58,-6.13,-1.466,28,0
67912,-0.34,0.422,0.762,-25.573,-35.565,1.924,30,0
67970,-0.225,0.61,0.728,-12.656,28.435,-9.573,29,0
68023,-0.619,0.479,0.924,-9.771,28.061,8.634,29,0
68077,-0.271,0.629,0.825,-3.992,-24.878,-2.282,28,0
68130,-0.413,0.415,0.802,-13.206,1.023,2.481,28,0
68185,-0.433,0.503,0.896,-20.931,-11.206,-5.542,30,0
68239,-0.333,0.386,0.796,-10.382,-18.275,2.237,30,0
68293,-0.359,0.516,0.839,-21.985,17.924,-11.305,29,0
68346,-0.42,0.48,0.897,-3.664,3.183,10.405,27,0
68406,-0.218,0.509,0.738,-18.908,0.695,-22.855,126,0
68463,-0.515,0.545,0.949,-5.626,-14.168,7.053,28,0
68517,-0.356,0.36,0.782,-16.824,-11.595,-9.702,27,0
68571,-0.41,0.424,0.921,-11.42,6.58,3.786,27,0
68625,-0.457,0.326,0.939,-7.305,-13.573,-4.069,27,0
68679,-0.314,0.473,0.845,-16.786,-2.038,-1.588,28,0
68775,-0.314,0.393,0.894,-6.443,-6.534,0.916,29,0
68830,-0.444,0.306,0.895,-8.466,-2.42,-0.42,28,0
68884,-0.252,0.486,0.856,-2.321,-16.267,-5.473,30,0
68938,-0.453,0.249,0.903,-2.115,10.855,0.565,29,0
68995,-0.246,0.533,0.885,-4.038,-19.344,-3.565,30,0
69049,-0.428,0.125,0.921,-10.817,11.588,5.038,32,0
69103,-0.204,0.507,0.984,0.023,-17.481,-8.771,30,0
69157,-0.456,0.172,0.953,-20.344,7.473,0.099,39,0
69213,-0.306,0.417,0.992,6.679,-14.855,-4.832,37,0
69272,-0.349,0.299,0.918,-17.71,-1.183,-3.435,125,0
69331,-0.314,0.274,0.99,-4.267,-17.931,-6.916,125,0
69386,-0.321,0.326,0.88,-19.466,-0.832,-4.092,38,0
69440,-0.354,0.169,1.044,4.198,-15.328,-2.71,36,0
69498,-0.242,0.547,0.822,1.214,11.16,-3.298,37,0
69553,-0.49,0.163,1.117,-27.137,-19.038,7.534,34,0
69612,-0.077,0.282,0.874,21.542,-6.817,-11.328,125,0
69666,-0.5,0.366,1.05,-15.885,23.771,7.115,34,0
69726,-0.216,0.182,0.935,0.725,-34.435,-8.962,125,0
69780,-0.345,0.342,0.994,-8.092,20.221,4.221,32,0
69835,-0.315,0.203,1.02,-7.031,-32.649,-7.626,39,0
69895,-0.168,0.34,0.862,-1.489,7.405,-7.328,125,0
69949,-0.404,0.259,1.048,-0.122,-5.168,-4.252,35,0
70006,-0.268,0.276,0.92,-2.649,-5.107,1.573,37,0
70062,-0.219,0.264,0.97,-0.427,0.702,-6.916,38,0
70122,-0.358,0.258,1.027,-1.557,3.969,-1.237,38,0
70180,-0.272,0.262,0.938,2.527,-6.389,-4.069,125,0
70239,-0.374,0.219,1.039,-2.725,4.252,2.58,125,0
70298,-0.187,0.285,0.939,-0.519,-9.824,-3.611,125,0
70351,-0.33,0.195,0.998,-13,-8.26,3.267,33,0
70406,-0.207,0.281,0.982,6.13,-8.855,-8.588,36,0
70459,-0.347,0.35,0.978,-8.237,11.924,7.107,32,0
70515,-0.187,0.157,0.958,5.687,-20.458,-9.847,38,0
70568,-0.302,0.345,0.928,4.847,28,-0.305,32,191
70622,-0.358,0.162,1.049,-7.137,-24.405,-3.794,32,190
70675,-0.201,0.32,0.92,8.267,14.702,-0.466,36,190
70728,-0.384,0.214,1.091,-4.947,-6.687,-1.176,32,190
70781,-0.224,0.247,0.961,-0.206,-12.42,-2.221,37,190
70835,-0.405,0.168,1.068,1.595,2.099,5.458,37,191
70893,-0.09,0.302,0.909,-3.45,-24.191,-7.924,125,189
70951,-0.344,0.204,1.047,0.351,10.641,4.153,125,189
71013,-0.136,0.219,0.962,2.427,-13.473,-11.672,125,189
71066,-0.333,0.222,1.004,-1.382,12.107,-2.702,36,189
71124,-0.22,0.201,0.936,6.618,-4.031,-9.427,125,189
71178,-0.335,0.267,0.955,5.679,32.45,-2.023,38,189
71231,-0.255,0.238,0.974,-0.397,-4.962,-15.244,39,188
71284,-0.376,0.147,1.065,-1.023,31.206,1.282,38,188
71343,-0.321,0.309,1.009,-2.954,-14.824,-10.427,126,188
71401,-0.286,0.076,1.026,-10.733,-8.344,0.908,125,188
71459,-0.211,0.252,0.957,23.183,5.122,-12.359,126,188
71516,-0.619,0.22,1.064,-30.435,4.855,9.809,38,188
71612,-0.017,0.325,0.783,20.374,39.672,-14.13,40,187
71670,-0.624,0.138,1.153,-5.145,8.626,-2.42,126,187
71729,-0.105,0.196,0.815,9.153,-19.053,-13.908,126,187
71788,-0.455,0.257,0.994,-5.076,40.893,-8.115,126,187
71846,-0.384,0.178,0.968,-6.618,-25.794,-9.511,126,187
71900,-0.273,0.198,0.969,0.885,21.664,-1.771,37,187
71953,-0.342,0.207,0.995,3.756,1.916,-7.672,37,187
72006,-0.322,0.227,0.95,2.122,14.527,-8.962,36,187
72067,-0.366,0.233,0.951,-2.099,-3.954,-6.695,126,187
72121,-0.307,0.117,0.922,-2.58,24.45,-11.29,37,187
72174,-0.513,0.264,1.037,4.565,3.229,-0.603,37,187
72227,-0.238,0.207,0.886,-2.595,-7.237,-9.168,37,187
72286,-0.47,0.136,0.98,9.206,18.229,-4.718,126,187
72339,-0.393,0.214,0.913,1.855,-9.824,-3.718,39,187
72392,-0.368,0.2,0.906,0.389,20.122,-3.74,39,187
72445,-0.498,0.182,0.98,3.214,8.336,0.29,38,187
72504,-0.34,0.24,0.842,1.634,20.237,-11.45,127,187
72565,-0.511,0.215,0.959,-1.725,3.26,-4.405,127,188
72625,-0.453,0.168,0.918,4.779,28.779,1.137,127,188
72683,-0.484,0.238,0.977,1.969,-13.374,-9.45,127,188
72741,-0.434,0.164,0.867,-0.405,38.481,-2.802,127,188
72800,-0.536,0.167,0.95,9.115,0.046,-7.634,127,189
72859,-0.49,0.207,0.838,3.824,18.924,-3.275,128,189
72919,-0.607,0.162,0.923,5.282,14.481,-0.298,127,0
72977,-0.503,0.202,0.845,0.435,7.679,0.115,127,0
73036,-0.528,0.133,0.806,-6.382,16.924,-5.603,127,0
73099,-0.526,0.168,0.847,9.641,13.214,-3.374,127,0
73158,-0.686,0.119,0.894,-2.099,14.336,-1.153,128,0
73218,-0.465,0.262,0.827,2.519,-22.183,-4.153,127,0
73277,-0.64,0.182,0.85,-2.13,38.893,-3.405,128,0
73336,-0.664,0.212,0.861,6.588,-15.695,2.26,128,0
73396,-0.479,0.211,0.692,-5.893,20.137,-8.824,128,0
73455,-0.824,0.148,0.913,2.496,2.664,11.611,128,0
73515,-0.381,0.282,0.673,-6.328,7.863,-11.977,128,0
73574,-0.827,0.041,1.01,4.733,6.679,9.504,128,0
73635,-0.423,0.292,0.708,1.107,7.069,-11.443,128,0
73689,-0.77,0.133,0.863,0.275,25.603,-4.275,128,86
73742,-0.638,0.195,0.75,-1.962,4.427,-6.26,127,86
73794,-0.763,0.099,0.854,-0.794,7.58,4.748,128,86
73847,-0.567,0.254,0.768,0.466,2.382,-1.855,127,86
73901,-0.737,0.154,0.828,-0.061,12.595,-0.092,128,86
73960,-0.647,0.223,0.78,1.374,-5.595,5.962,128,0
74014,-0.668,0.187,0.753,0.992,4.641,2.557,43,0
74070,-0.763,0.097,0.804,-0.145,-0.504,10.504,43,0
74127,-0.597,0.171,0.725,6.687,-8.695,10.84,44,0
74181,-0.781,0.179,0.835,7.397,15.557,22.389,45,0
74235,-0.716,0.285,0.8,4.137,1,18.58,41,0
74291,-0.672,0.241,0.765,4.305,-27.939,17.389,40,0
74345,-0.592,0.31,0.681,3.664,14.519,16.534,40,0
74399,-0.861,0.166,0.826,0.351,-18.855,33.771,38,0
74497,-0.855,0.267,0.89,-4.786,13.687,31.626,39,0
74551,-0.527,0.382,0.763,-2.824,-40.634,30.305,38,0
74605,-0.617,0.344,0.667,-10.489,38.214,27.718,37,0
74662,-0.552,0.317,0.82,9.305,-47.573,27.985,38,0
74726,-0.57,0.438,0.83,-7.687,44.145,33.229,0,0
74780,-0.453,0.399,0.724,-1.931,-35.924,17.954,38,0
74834,-0.666,0.329,0.863,-5.389,1.16,25.168,34,0
74889,-0.384,0.42,0.698,-3.901,-10.412,20.779,32,0
74943,-0.573,0.357,0.863,-0.832,0.084,23.321,32,0
74997,-0.489,0.43,0.848,-0.282,-4.962,20.779,32,0
75051,-0.449,0.452,0.793,0.015,5.641,18.137,30,0
75105,-0.464,0.497,0.87,-3.557,-6.603,15.321,29,0
75161,-0.6,0.383,0.816,-0.718,2.328,18.16,30,0
75215,-0.26,0.571,0.729,1.473,-11.74,15.992,28,0
75270,-0.674,0.338,0.923,-6.137,27.878,9.908,29,0
75323,-0.296,0.505,0.782,10.71,-61.809,13.679,29,0
75377,-0.459,0.529,0.781,-9.939,55.099,12.893,29,0
75431,-0.584,0.421,0.878,7.183,-51.588,10.298,28,0
75485,-0.357,0.552,0.772,-4.42,22.557,21.176,27,0
75539,-0.51,0.471,0.902,1.534,-24.802,20,28,0
75592,-0.398,0.531,0.829,1.084,14.473,22.863,26,0
75650,-0.419,0.53,0.807,3.817,-13.878,23.069,26,0
75703,-0.351,0.557,0.768,-0.282,2.641,19.954,25,0
75757,-0.373,0.55,0.802,-1.534,-10.359,17.076,24,0
75810,-0.356,0.543,0.794,-1.527,3.084,14.229,24,0
75865,-0.361,0.507,0.856,-0.603,-16.962,13.122,23,0
75918,-0.379,0.527,0.821,-2.397,15.718,13.313,24,0
75971,-0.346,0.564,0.838,5.817,-21.336,14.382,24,0
76025,-0.27,0.591,0.801,-5.718,21.992,10.489,23,0
76079,-0.469,0.505,0.88,-0.42,-21.817,14.901,23,0
76133,-0.206,0.627,0.775,-2.565,14.298,15.076,23,0
76189,-0.435,0.549,0.876,-0.206,-15.863,10.519,23,0
76243,-0.232,0.592,0.765,0.397,-2.443,14.87,22,0
76297,-0.347,0.582,0.84,0.115,0.947,11.656,22,0
76350,-0.318,0.557,0.832,3.756,-12.603,12.878,21,0
76404,-0.302,0.613,0.821,0.885,7.725,16.466,22,0
76457,-0.303,0.594,0.813,-0.076,-7.939,14.901,20,0
76503,-0.213,0.614,0.809,4.176,-11.405,18.42,20,47
76547,-0.235,0.628,0.879,-0.229,4.359,15.672,21,46
76592,-0.315,0.559,0.838,-0.397,-3.298,13.237,20,48
76648,-0.146,0.617,0.794,4.397,-9.802,15.145,19,0
76693,-0.325,0.593,0.876,-1.374,18.664,11.656,19,48
76738,-0.232,0.597,0.833,3.542,-24.443,10.328,19,50
76783,-0.145,0.666,0.807,-1.695,20.206,18.786,20,50
76827,-0.307,0.651,0.876,-2.015,-5.832,15.336,20,50
76877,-0.209,0.565,0.861,1.817,-29.069,13.099,19,50
76922,-0.101,0.629,0.719,2.733,13.168,17.855,22,51
76966,-0.215,0.633,0.844,5.725,-5.756,15.305,23,50
77010,-0.153,0.625,0.864,2.313,-6.824,14.229,22,51
77058,-0.157,0.64,0.807,-0.359,-0.611,11.168,25,52
77156,-0.125,0.65,0.869,4.916,-22.389,17.794,0,58
77211,-0.08,0.653,0.847,0.275,1.702,13.466,0,60
77261,-0.143,0.62,0.846,6.053,-6.107,15.71,111,57
77305,0.04,0.693,0.815,4.672,-1.244,10.115,22,57
77356,-0.178,0.624,0.844,-2.504,4.443,6.107,110,58
77405,-0.123,0.656,0.793,2.595,-8.634,15.168,110,58
77450,-0.079,0.709,0.833,3.443,-4.389,17.282,22,58
77495,-0.055,0.66,0.814,-0.252,-14.473,12.344,25,59
77547,-0.083,0.634,0.816,3.183,-10.244,15.031,109,60
77592,-0.024,0.659,0.814,4.908,-3.13,18.229,16,60
77637,-0.004,0.687,0.839,3.618,-2.71,13.084,24,58
77686,-0.052,0.652,0.812,4.489,-11.069,11.282,107,59
77736,0.044,0.702,0.8,3.305,-11,12.794,107,59
77786,-0.007,0.677,0.826,0.099,0.237,7.053,107,59
77836,0.022,0.669,0.773,5.42,-13.656,9.015,107,60
77885,0.013,0.708,0.816,7.153,-3.55,13.351,106,60
77935,0.044,0.711,0.825,2.603,-11.427,10.084,106,62
77987,0.008,0.652,0.823,3.473,-16.061,11.969,106,61
78032,0.108,0.691,0.765,8.252,-2.901,14.763,19,61
78077,0.045,0.719,0.815,5.359,-3.473,10.473,25,62
78123,0.109,0.678,0.764,1.015,-9.702,5.397,23,62
78168,0.065,0.672,0.8,4.336,-0.351,10.359,20,62
78213,0.082,0.712,0.815,5.939,-8.267,10.534,18,61
78257,0.157,0.718,0.775,3.382,-17.954,6.191,19,62
78302,0.113,0.684,0.805,4.435,-10.115,5.496,18,62
78347,0.086,0.701,0.797,5.008,-6.916,9.183,18,63
78395,0.228,0.714,0.711,5.855,-8.374,4.198,18,63
78439,0.09,0.71,0.8,3.214,-1.435,3.496,18,62
78484,0.138,0.73,0.761,6.962,-13.366,8.206,18,63
78529,0.217,0.75,0.75,4.611,-4.023,6.336,17,63
78574,0.123,0.72,0.805,5.115,-13.702,5.023,16,63
78618,0.204,0.734,0.728,9.191,-2.015,8.359,16,64
78663,0.116,0.767,0.786,10.473,-7.275,5.206,16,63
78708,0.213,0.717,0.752,3.924,-14.763,4.664,16,64
78753,0.129,0.729,0.796,5.687,0.992,7.947,16,64
78798,0.264,0.725,0.656,5.191,-14.16,2.58,16,65
78845,0.153,0.719,0.782,4.267,-0.382,5.252,17,65
78891,0.247,0.78,0.732,9.702,-14.275,5.939,17,65
78936,0.24,0.774,0.73,5.305,-7.275,5.214,17,64
78981,0.18,0.746,0.749,6.71,-11,8.008,17,65
79026,0.273,0.757,0.688,5.733,-13.183,8.885,17,67
79071,0.244,0.724,0.726,3.435,-11.107,5.55,17,67
79116,0.246,0.76,0.681,7.389,-5.718,5.916,17,65
79161,0.211,0.735,0.698,6.649,-9.015,5.863,17,67
79206,0.326,0.777,0.66,0.794,-4.069,3.55,17,66
79254,0.265,0.742,0.69,5.16,-2.641,2.679,18,66
79299,0.239,0.763,0.707,6.351,-2.061,4.718,18,66
79344,0.35,0.788,0.683,4.275,-6.427,2.275,17,67
79389,0.276,0.802,0.695,3.496,-3.115,3.679,17,66
79434,0.274,0.744,0.7,3.733,-8.649,6.634,17,66
79522,0.196,0.768,0.684,0.756,3,2.038,17,67
79568,0.274,0.757,0.688,4.275,-4.855,8.748,17,67
79613,0.411,0.757,0.631,-1.321,1.389,-4.008,17,69
79659,0.177,0.744,0.743,4.26,1.023,5.099,17,69
79704,0.407,0.761,0.624,3.092,-9.237,1.687,17,69
79752,0.269,0.778,0.697,0.015,2.725,1.26,17,67
79797,0.237,0.76,0.738,7.237,-7.687,7.954,17,67
79850,0.429,0.754,0.584,0.832,-1.534,-2.901,17,0
79895,0.181,0.761,0.723,3.466,-1.046,3.496,17,67
79940,0.382,0.786,0.589,3.519,-5.458,1.176,17,69
79986,0.272,0.785,0.708,2.099,-4.634,0.939,17,68
80038,0.295,0.778,0.695,3.351,-1.511,6.702,17,0
80095,0.382,0.768,0.623,1.847,-8.931,2.427,17,0
80148,0.265,0.782,0.71,-0.137,-5.527,3.649,16,0
80204,0.388,0.758,0.599,1.145,-7.031,2.198,16,0
80261,0.294,0.761,0.657,-0.802,0,0.252,16,0
80314,0.328,0.761,0.634,4.893,-4.191,3.237,16,0
80370,0.358,0.814,0.636,1.366,5.962,-1.168,16,0
80423,0.299,0.773,0.652,3.725,-5.221,4.252,16,0
80480,0.384,0.761,0.612,-1.87,2.191,-0.366,16,0
80533,0.31,0.762,0.633,0.534,-1.595,2.977,16,0
80589,0.381,0.768,0.595,-0.794,2,-4.282,16,0
80643,0.27,0.764,0.669,0.321,5.084,1.924,16,0
80699,0.41,0.782,0.594,-5.359,10.305,-3.427,18,0
80747,0.284,0.787,0.68,-3.756,7.588,-3.321,16,69
80793,0.281,0.783,0.673,-0.198,3.42,1.321,16,67
80845,0.375,0.768,0.644,-3.962,4.183,-4.366,17,0
80891,0.246,0.763,0.693,-3.45,4.534,-1.672,17,67
80936,0.31,0.757,0.639,-3.527,3.74,-3.45,17,67
80982,0.31,0.774,0.687,-5.084,3.267,-4.298,17,66
81028,0.303,0.768,0.667,-4.687,4.588,-5.763,18,66
81073,0.278,0.775,0.698,-5.069,5.893,-5.031,19,66
81118,0.275,0.766,0.675,-5.229,6.55,-5.031,18,66
81175,0.28,0.771,0.668,-7.672,7.412,-6.198,16,66
81223,0.249,0.781,0.695,-6.824,7.42,-5.031,16,65
81270,0.318,0.752,0.707,-6.969,6.679,-9.962,16,65
81318,0.191,0.749,0.753,-6.817,16.702,-7.206,16,65
81367,0.226,0.737,0.721,-0.901,1.885,-5.679,17,64
81414,0.244,0.753,0.73,-4.763,12.008,-9.115,17,65
81462,0.209,0.776,0.693,-5.718,9.458,-9.939,18,63
81509,0.168,0.75,0.744,-4.099,7.924,-5.763,18,64
81557,0.236,0.727,0.716,-5.733,13.679,-9.29,18,63
81607,0.156,0.705,0.762,-7.26,8.458,-12.328,19,63
81660,0.275,0.747,0.681,-7.481,9.649,-20.183,103,62
81708,0.145,0.736,0.758,-13.092,25.298,-25.031,19,61
81756,0.082,0.713,0.782,-9.58,8.672,-24.611,16,61
81803,0.144,0.774,0.749,-8.962,6.748,-27.771,19,60
81851,0.049,0.699,0.786,-8.733,13.046,-27.756,20,60
81899,0.05,0.722,0.757,-5.458,7.344,-27.443,20,59
81946,-0.03,0.722,0.801,-6.176,10.412,-24.092,16,60