Timestamp(ms),AccelX(g),AccelY(g),AccelZ(g),GyroX(deg/s),GyroY(deg/s),GyroZ(deg/s),DistanceLeft(cm),DistanceRight(cm)
14585,-0.021,0.285,1.025,-6.74,1.824,-1.13,19,0
14642,-0.066,0.289,1.064,-3.809,3.183,-2.008,16,0
14695,-0.032,0.293,1.034,-0.374,0.191,-3.038,16,0
14751,-0.053,0.279,1.028,1.214,2.802,-1.916,19,0
14804,-0.058,0.276,1.02,3.405,3.626,-3.534,17,0
14857,-0.053,0.294,0.991,3.908,6.603,-4.84,20,0
14910,-0.083,0.315,1.019,1.641,4.092,-3.496,18,0
14963,-0.08,0.305,1.023,-0.115,0.84,-1.855,20,0
15020,-0.096,0.313,1.031,-3.489,3.015,5.702,21,0
15073,-0.091,0.303,1.026,-0.626,0.802,6.191,21,0
15129,-0.06,0.289,1.008,1.519,-0.359,3.878,19,0
15182,-0.061,0.268,1.033,-0.954,-5.237,2.412,18,0
15235,-0.031,0.27,1,-2.107,-5.55,-0.618,16,0
15288,-0.047,0.275,1.031,0.191,4.931,-0.092,17,0
15341,-0.068,0.262,1.037,1.168,-0.557,-1.023,17,0
15394,-0.022,0.248,0.968,-1.511,-3.252,-3.076,19,0
15448,-0.052,0.291,1.016,-4.832,-0.038,0.962,17,0
15503,-0.095,0.266,1.037,-4.038,3,7.031,17,0
15556,-0.04,0.271,1.02,-3.198,2.573,14.275,19,0
15609,-0.022,0.286,1.034,2.481,25.458,10.679,19,0
15663,-0.102,0.268,1.069,7.427,22.023,6.87,21,0
15716,-0.123,0.314,1.028,10.305,6.359,-0.511,20,0
15769,-0.13,0.317,0.974,7.466,1,-1.183,19,0
15822,-0.125,0.334,0.954,0.931,4.496,2.817,21,0
15876,-0.136,0.305,1,-4.328,-0.603,4.443,21,0
15929,-0.073,0.292,0.992,-6.389,-7.351,1.359,25,0
15985,-0.062,0.286,1.027,-4.092,2.321,-2.038,19,0
16038,-0.096,0.257,1.047,0.802,0.122,-5.16,19,0
16092,-0.098,0.291,1.009,3.305,3.298,-2.145,20,0
16145,-0.146,0.311,0.987,2.748,13.58,3.107,16,0
16198,-0.161,0.311,1.006,-1.664,5.481,4.458,19,0
16251,-0.094,0.302,1.003,-4.153,-8.214,-1.374,20,0
16305,-0.087,0.279,0.988,-6.427,-2.733,-3.985,20,0
16358,-0.133,0.275,1.032,-4.26,3.397,0.099,20,0
16411,-0.165,0.292,1.014,-2.916,2.832,4.718,23,0
16464,-0.137,0.281,1.017,-3.779,-5.008,4.557,20,0
16521,-0.094,0.275,1.009,-5.244,-8.489,1.84,20,0
16574,-0.07,0.264,1.021,-5.573,-9.87,-1.298,20,0
16627,-0.043,0.228,1.004,-2.855,-4.046,-5.87,18,0
16680,-0.104,0.226,1.096,2.802,2.855,-8.489,19,0
16734,-0.065,0.242,1.076,11.672,-14.137,-18.496,16,0
16787,-0.038,0.265,0.963,13.435,9.618,-11.008,18,0
16840,-0.173,0.307,1.018,12.947,32.053,-4.305,16,0
16893,-0.226,0.301,1.023,10.519,5.16,-2.87,16,0
16947,-0.137,0.34,0.934,3.626,-6.878,-0.595,16,0
17008,-0.153,0.325,0.957,-4.908,7.969,5.061,115,0
17062,-0.178,0.3,1.017,-6.733,-1.534,6.504,21,0
17116,-0.126,0.3,1.013,-6.191,-3.214,6.992,16,0
17169,-0.119,0.283,1.012,-4.71,2.214,6.382,19,0
17222,-0.14,0.281,1.023,-3.733,-0.985,5.29,16,0
17318,-0.143,0.289,1.012,-5.122,2.29,6.573,21,0
17372,-0.133,0.277,1.017,-5.71,-3.084,4.817,16,0
17430,-0.098,0.259,1.02,-5.756,-3.71,1.115,116,0
17489,-0.117,0.255,1.038,-2.015,1.725,-0.214,115,0
17551,-0.139,0.272,1.026,1.061,3.473,1.588,116,0
17610,-0.147,0.284,0.992,0.13,1.611,3.229,116,0
17674,-0.151,0.28,1,-4.985,-1.229,5.328,0,0
17727,-0.121,0.266,1.007,-7.802,-3.641,6.695,16,0
17790,-0.119,0.258,1.026,-6.794,0.481,6.863,0,0
17844,-0.126,0.252,1.042,-5.061,-1,6.176,23,0
17898,-0.106,0.24,1.024,-4.191,-2.191,2.947,23,0
17951,-0.099,0.221,1.042,-3.344,-6.901,-2.511,21,0
18004,-0.077,0.216,1.065,-0.053,-14.702,-9.359,19,0
18059,-0.013,0.234,1.031,6.817,-2.74,-12.29,16,0
18115,-0.11,0.234,1.06,12.008,6.802,-14.977,19,0
18168,-0.074,0.263,0.985,13.901,3.748,-9.786,20,0
18222,-0.16,0.301,1.003,11.954,24.71,-3.29,20,0
18276,-0.212,0.287,1.03,8.45,2.626,-3.099,21,0
18329,-0.125,0.302,0.988,3.641,-13.137,-5.115,21,0
18382,-0.115,0.292,0.985,0.107,2.107,-1.557,16,0
18436,-0.17,0.296,1.016,-0.214,3.244,0.107,16,0
18489,-0.144,0.297,0.984,-1.214,-2.023,1.878,16,0
18543,-0.137,0.297,0.991,-4.031,0.908,3.656,19,0
18599,-0.145,0.284,0.999,-5.756,0.115,4.58,19,0
18653,-0.151,0.279,1.017,-6.305,0.389,6.344,16,0
18706,-0.126,0.276,1.008,-6.405,-0.115,6.626,19,0
18760,-0.129,0.272,1.006,-7.168,1.221,7.534,21,0
18813,-0.14,0.276,1.022,-7.069,2.267,9.183,19,0
18867,-0.139,0.257,1.025,-6.42,-0.275,10.527,19,0
18920,-0.125,0.248,1.016,-6.26,0.771,10.763,19,0
18974,-0.101,0.251,1.015,-6.305,-0.634,8.099,19,0
19027,-0.096,0.242,1.019,-7.626,-2.466,4.603,20,0
19085,-0.104,0.228,1.031,-7.466,-2.26,1.733,20,0
19138,-0.119,0.198,1.083,-3.954,-11.908,-3.206,20,0
19201,-0.02,0.216,1.066,7.534,-10.015,-10.412,75,0
19257,-0.068,0.215,1.056,14.924,1.756,-18.092,75,0
19313,-0.087,0.235,1.009,15.992,-2.756,-18.511,18,0
19365,-0.143,0.288,0.977,13.473,18.901,-9.344,18,0
19419,-0.211,0.302,1.013,10.053,8.221,-3.74,21,0
19471,-0.149,0.302,0.976,6.336,-4.42,-1.252,20,0
19524,-0.126,0.299,0.969,0.344,3.313,2.985,20,0
19576,-0.143,0.289,1.005,-2.107,1.229,2.374,20,0
19633,-0.127,0.289,1.011,-2.466,-3.618,0.817,20,0
19685,-0.118,0.279,1,-2.389,0.817,1.137,16,0
19738,-0.144,0.277,1.022,-1.42,1.015,0.847,16,0
19790,-0.126,0.281,1.004,-1.496,-0.786,0.534,16,0
19843,-0.136,0.283,1.002,-3.046,1.13,2,18,0
19896,-0.142,0.266,1.011,-4.206,0.733,2.794,19,0
19949,-0.135,0.271,1.015,-4.13,-0.023,4.443,20,0
20001,-0.134,0.26,1.003,-4.237,2.031,5.679,23,0
20098,-0.153,0.266,1.016,-7.534,0.496,9.183,20,0
20153,-0.126,0.262,1.038,-8.099,-1.313,10.87,19,0
20209,-0.118,0.247,1.024,-7.137,-2.008,9.802,18,0
20262,-0.089,0.239,1.038,-5.603,-2.137,5.656,19,0
20319,-0.082,0.226,1.038,-4.557,-2.74,0.672,18,0
20372,-0.084,0.205,1.077,-1.305,-9.992,-8.618,18,0
20428,-0.025,0.221,1.026,6.71,-8.031,-13.122,20,0
20481,-0.118,0.226,1.074,12.977,7.015,-15.733,16,0
20538,-0.107,0.253,1.02,15.969,-2.527,-13.588,20,0
20591,-0.143,0.289,0.969,12.626,19.649,-5.779,23,0
20646,-0.226,0.297,1.033,7.878,5.145,-1.939,19,0
20699,-0.137,0.307,0.964,3.397,-8.908,-1.809,16,0
20752,-0.118,0.303,0.972,-1.359,1.863,0.366,19,0
20805,-0.155,0.28,1.031,-2.634,-1.405,0.427,19,0
20858,-0.119,0.289,1.014,-1.618,-2.695,0.183,20,0
20911,-0.127,0.276,1.016,-1.038,1.542,0.855,23,0
20964,-0.139,0.279,1.016,-0.954,0.13,1.084,19,0
21017,-0.138,0.277,1.005,-2.427,0.58,2.092,19,0
21070,-0.134,0.271,1.01,-2.908,-0.366,3.092,19,0
21124,-0.131,0.275,1.007,-2.87,0.542,2.656,21,0
21179,-0.14,0.275,1.016,-3.107,1.061,2.977,20,0
21232,-0.158,0.276,0.996,-4.435,2.13,5.122,19,0
21285,-0.17,0.283,1.004,-7.481,2.542,8.588,19,0
21338,-0.145,0.261,1.02,-8.832,-0.702,11.679,20,0
21395,-0.114,0.24,1.023,-8.366,-2.985,10.771,20,0
21448,-0.108,0.234,1.017,-7.496,0.252,7.466,20,0
21505,-0.097,0.243,1.024,-8.107,-0.122,3.489,19,0
21558,-0.096,0.205,1.076,-6.74,-7.481,-4.74,19,0
21610,-0.066,0.212,1.09,1.58,-1.275,-7.748,18,0
21666,-0.11,0.197,1.075,10.092,-4.275,-12.832,17,0
21723,-0.064,0.221,1.012,13.023,-8.466,-17.718,16,0
21776,-0.134,0.25,0.988,11.145,15.16,-9.634,16,0
21832,-0.205,0.272,1.027,8.954,7.031,-6.099,17,0
21885,-0.152,0.275,0.99,5.237,-6.519,-5.481,18,0
21942,-0.117,0.266,0.986,2.496,1.855,-3.557,19,0
21995,-0.171,0.261,1.029,2.137,0.962,-2,20,0
22051,-0.135,0.278,0.999,1.519,-2.115,-1.473,19,0
22105,-0.144,0.277,1.011,0.618,1.473,-1.588,19,0
22161,-0.137,0.279,1.002,-0.649,-1.069,-1.733,19,0
22213,-0.156,0.263,1.017,-1.618,2.443,1.328,19,0
22266,-0.16,0.275,1.022,-1.176,2.16,5.74,19,0
22320,-0.178,0.281,0.953,-4.656,10.573,12.847,21,0
22373,-0.186,0.272,1.019,-10.55,-1.985,11.42,19,0
22426,-0.104,0.239,1.008,-11.84,-15.588,4.427,19,0
22479,-0.072,0.213,1.049,-9.321,-10,-2.008,20,0
22533,-0.087,0.221,1.115,2.16,2.756,-5.565,19,0
22586,-0.142,0.222,1.09,11.137,-3.565,-14.679,19,0
22642,-0.088,0.255,0.945,11.252,8.26,-8.069,16,0
22699,-0.203,0.293,1.01,5.969,20.611,-2.565,18,0
22752,-0.226,0.279,1.017,1.359,-6.481,-0.573,19,0
22848,-0.128,0.259,1.011,-4.74,1.412,1.893,19,0
22904,-0.132,0.252,1.027,-2.328,-0.336,-0.733,18,0
22958,-0.142,0.249,1.025,-0.45,-0.939,-1.122,18,0
23011,-0.142,0.252,1.024,0.122,2.237,-0.191,19,0
23064,-0.139,0.253,1.023,0.275,-0.641,-1.321,19,0
23117,-0.138,0.252,1.018,-0.824,-0.366,-0.504,19,0
23171,-0.135,0.256,1.02,-0.893,0.71,-1.008,19,0
23227,-0.136,0.251,1.017,-0.466,-0.718,-0.901,19,0
23280,-0.146,0.251,1.026,0.237,-0.855,-0.893,18,0
23333,-0.143,0.259,1.017,0.382,0.328,-0.29,18,0
23390,-0.139,0.258,1.012,-0.084,-1.328,-1.076,18,0
23443,-0.136,0.266,1.001,-0.534,-2.412,-0.672,19,0
23496,-0.128,0.245,1.017,-2.046,-0.962,-0.985,19,0
23549,-0.152,0.251,1.024,-2.031,-6.13,-0.992,20,0
23603,-0.125,0.246,1.006,-0.847,1.802,2.42,20,0
23656,-0.15,0.26,1.036,-0.13,3.771,4.122,22,0
23712,-0.114,0.251,0.998,0.038,3.183,6.947,21,0
23766,-0.143,0.241,1.033,1.321,8.015,4.496,18,0
23819,-0.144,0.244,1.024,3.145,-3.473,0.733,18,0
23872,-0.134,0.257,1.009,1.908,1.702,1.092,18,0
23925,-0.151,0.258,1.014,1.099,0.435,1.023,18,0
23979,-0.134,0.264,1.01,0.023,-3.359,0.183,21,0
24032,-0.131,0.262,1.01,-0.725,1.305,1,20,0
24085,-0.146,0.257,1.027,-0.282,-0.328,0.534,20,0
24139,-0.134,0.259,1.016,-0.244,-0.977,0.557,20,0
24196,-0.131,0.265,1.016,-0.168,1.031,1.313,21,0
24249,-0.138,0.256,1.015,-0.321,-0.344,0.695,20,0
24302,-0.143,0.256,1.013,-0.87,-1.137,0.802,22,0
24355,-0.142,0.254,1.022,-0.771,1.122,1.313,19,0
24409,-0.147,0.264,1.013,-1.305,-0.115,2.282,19,0
24462,-0.147,0.263,1.018,-2.443,-0.695,1.473,18,0
24516,-0.124,0.261,1.015,-3.382,-2.198,0.519,20,0
24569,-0.13,0.232,1.037,-3.809,-6.198,-2.893,16,0
24623,-0.073,0.238,1.005,0.84,-5.901,-5.466,21,0
24676,-0.137,0.22,1.043,3.603,6.885,-5.031,20,0
24732,-0.119,0.264,1.038,6.229,-10.191,-10.786,21,0
24786,-0.117,0.257,0.983,5.038,9.84,-3.611,21,0
24840,-0.198,0.264,1.041,3.626,6.931,-0.214,16,0
24893,-0.157,0.274,0.999,1.885,-5.672,0.924,21,0
24946,-0.114,0.273,0.996,-0.947,1.198,1.794,21,0
24999,-0.145,0.249,1.03,-1.298,0.718,1.092,19,0
25054,-0.127,0.26,1.013,-0.473,0.771,-0.061,23,0
25107,-0.141,0.261,1.022,-0.435,1.046,0.504,19,0
25160,-0.14,0.256,1.009,-0.214,-0.992,0.74,19,0
25217,-0.139,0.265,1.011,-0.389,0.901,1.771,20,0
25270,-0.139,0.259,1.016,-0.481,0.985,1.855,20,0
25324,-0.15,0.264,1.011,-1.176,1.84,2.122,22,0
25377,-0.145,0.268,1.02,-1.443,0.275,2.87,22,0
25431,-0.149,0.267,0.999,-2.359,1.504,4.672,16,0
25485,-0.16,0.247,1.021,-3.023,2.534,5.542,22,0
25581,-0.118,0.253,1.013,-2.641,-1.947,0.29,21,0
25634,-0.134,0.234,1.03,-2.771,-3.779,-2.511,21,0
25689,-0.094,0.212,1.006,0.031,-6.183,-8.527,21,0
25742,-0.152,0.234,1.07,3.626,5.55,-6.443,21,0
25799,-0.101,0.234,1.014,5.55,-19.656,-11.359,23,0
25852,-0.106,0.262,0.968,4.267,18.183,-1.588,16,0
25906,-0.229,0.263,1.062,4.794,11.794,0.023,20,0
25959,-0.156,0.269,0.992,4.237,-9.023,-1.595,16,0
26012,-0.127,0.274,0.975,0.756,2.565,0.557,16,0
26066,-0.173,0.257,1.031,-0.183,0.443,0.534,16,0
26120,-0.138,0.26,1.006,0.237,-0.763,-0.947,16,0
26178,-0.153,0.265,1.017,0.588,1.71,-1.267,16,0
26234,-0.156,0.26,1.011,0.527,-0.305,-0.916,16,0
26290,-0.157,0.271,1.004,0.153,1.053,0.038,16,0
26346,-0.154,0.265,1.01,0.031,-0.855,0.656,16,0
26398,-0.145,0.263,1.01,0.221,-0.252,-0.313,16,0
26455,-0.157,0.273,1.03,0.374,0.626,0.13,16,0
26507,-0.141,0.271,1.02,-0.023,-0.947,-0.214,16,0
26563,-0.145,0.27,1.005,0.031,0.366,0.275,16,0
26615,-0.149,0.256,1.036,0.756,-1.435,-0.153,16,0
26673,-0.042,0.186,1.125,7.351,11.321,-4.855,23,0
26725,0.088,0.154,1.101,44.511,117.794,-6.588,16,0
26781,-0.425,0.319,0.926,50.534,132.893,-6.58,27,0
26834,-0.905,0.317,0.768,28.534,103.084,13.977,28,0
26888,0.03,0.721,0.786,40.038,-57.641,4.29,26,0
26941,-0.376,0.325,0.687,-2.382,66.015,-13.107,28,0
26994,-0.594,0.435,0.973,10.55,-22.809,-3.985,25,0
27047,-0.417,0.394,0.635,-0.229,37.634,-2.947,26,0
27101,-0.704,0.468,0.981,10.176,-2.58,9.878,24,0
27154,-0.327,0.372,0.786,3.221,9.771,4.824,24,0
27207,-0.503,0.364,0.962,16.985,-3.298,-1.244,25,0
27260,-0.582,0.413,0.818,15.145,8.206,2.718,24,0
27316,-0.359,0.448,0.722,8.344,-2.519,-1.565,24,0
27370,-0.539,0.482,0.865,6.916,0.122,-0.176,30,0
27422,-0.479,0.473,0.757,0.786,2.809,0.908,24,0
27476,-0.535,0.52,0.853,9.191,-6.847,4.664,30,0
27530,-0.463,0.493,0.766,11.214,-3.122,3.634,24,0
27583,-0.526,0.505,0.76,2.901,7.313,11.16,28,0
27636,-0.373,0.473,0.783,-2.473,-4.763,2.725,23,0
27688,-0.469,0.468,0.827,0.053,4.992,-0.763,22,0
27742,-0.413,0.482,0.704,-4.412,3.466,-3.977,23,0
27798,-0.626,0.482,0.878,-5.481,3.511,1.405,23,0
27851,-0.41,0.474,0.756,-7.328,-1.038,2.099,23,0
27905,-0.548,0.436,0.866,-1.305,-0.45,2.397,27,0
27958,-0.428,0.469,0.819,4.374,-5.893,3.618,23,0
28011,-0.49,0.474,0.775,1.084,6.817,3.069,23,0
28064,-0.47,0.49,0.812,0.779,-2.527,5.679,22,0
28118,-0.416,0.5,0.757,-0.382,0.252,-1.038,22,0
28170,-0.592,0.5,0.9,-0.206,5.939,13.458,21,0
28223,-0.25,0.494,0.692,1.107,-11.206,-3.443,22,0
28322,-0.489,0.504,0.888,7.344,-13.992,3.985,21,0
28376,-0.278,0.512,0.674,-2.107,14.588,-14.977,20,0
28429,-0.778,0.481,0.96,2.076,-2.679,8.015,22,0
28482,-0.26,0.497,0.697,5.328,-2.267,2.611,21,0
28535,-0.559,0.453,0.876,5.641,4.008,0.893,23,0
28589,-0.419,0.513,0.755,9.84,-4.794,1.969,25,0
28642,-0.536,0.518,0.774,6.702,4.168,5.634,23,0
28695,-0.406,0.51,0.723,1.221,-3.969,1.351,25,0
28748,-0.429,0.519,0.761,-8.588,4.122,-3.412,22,0
28802,-0.54,0.492,0.844,-6.145,2.618,0.443,22,0
28857,-0.497,0.458,0.843,0.183,-1.26,-0.718,23,0
28911,-0.429,0.514,0.765,2.573,-3.626,-2.878,23,0
28964,-0.505,0.503,0.784,0.618,1.863,-1.122,23,0
29018,-0.522,0.49,0.825,2.519,5.29,5.55,23,0
29071,-0.524,0.442,0.912,15.802,-7.267,8.87,27,0
29124,-0.403,0.499,0.798,26.336,-8.962,6.931,26,0
29177,-0.408,0.619,0.671,17.267,9.87,3.618,23,0
29241,-0.539,0.588,0.739,9.504,-2.336,8.985,0,0
29304,-0.364,0.516,0.733,5.634,-7.824,0.229,0,0
29361,-0.542,0.564,0.847,9.168,6.397,7.153,23,0
29414,-0.339,0.607,0.72,21.45,-21.672,-1.282,23,0
29467,-0.491,0.586,0.721,7.29,19.779,0.649,23,0
29520,-0.537,0.596,0.753,7.183,-4.267,6.733,26,0
29574,-0.3,0.584,0.705,11.282,-6.817,-2.901,22,0
29628,-0.531,0.635,0.733,5.618,8.916,1.664,22,0
29681,-0.356,0.615,0.683,8.527,-15.954,-1.237,23,0
29734,-0.469,0.602,0.756,7,5.26,-0.13,23,0
29788,-0.453,0.584,0.725,9.947,-17.542,-0.672,25,0
29841,-0.394,0.663,0.677,6.74,3.863,1.099,24,0
29897,-0.531,0.608,0.77,7.511,-4.069,5.321,25,0
29952,-0.344,0.629,0.696,9.511,4.008,3.878,28,0
30005,-0.432,0.656,0.659,11.664,8.153,-3.992,23,0
30058,-0.517,0.674,0.751,15.519,-8.198,7.099,23,0
30111,-0.363,0.688,0.679,15.244,-0.282,-0.626,25,0
30166,-0.414,0.689,0.661,16.13,-11.397,1.145,22,0
30219,-0.393,0.719,0.63,3.061,4.321,2.427,23,0
30272,-0.407,0.72,0.647,1.412,-8.076,2.534,24,0
30325,-0.351,0.712,0.668,1.985,-2.053,0.611,24,0
30382,-0.504,0.649,0.741,2.908,-2.58,-0.275,23,0
30436,-0.308,0.723,0.626,1.55,0.527,-3.916,23,0
30489,-0.464,0.687,0.645,-1.13,-1.565,-0.817,23,0
30542,-0.386,0.719,0.654,-9.557,-1.557,0.954,23,0
30597,-0.48,0.655,0.75,-3.443,3.603,1.534,25,0
30650,-0.383,0.649,0.705,3.809,-3.87,1.16,22,0
30703,-0.463,0.656,0.758,11.794,-10.832,-2.496,22,0
30757,-0.33,0.753,0.524,6.809,-0.153,-0.626,23,0
30811,-0.507,0.709,0.739,-4.924,-4.664,4.863,23,0
30867,-0.321,0.685,0.7,-0.527,-0.145,2.344,23,0
30921,-0.457,0.665,0.743,4.405,2.771,-0.427,23,0
30974,-0.361,0.72,0.617,3.496,-0.809,-1.504,22,0
31072,-0.439,0.67,0.713,-1.344,3.282,1.634,23,0
31125,-0.393,0.683,0.7,7.198,-4.695,0.855,22,0
31179,-0.399,0.694,0.658,4.733,-1.076,-2.321,22,0
31233,-0.386,0.735,0.625,7.115,-5.763,3.977,22,0
31287,-0.352,0.702,0.626,-2.42,1.305,-3.084,22,0
31340,-0.403,0.712,0.658,-2.527,2.008,0.725,23,0
31394,-0.43,0.689,0.725,1.947,-5.748,1.87,22,0
31451,-0.358,0.708,0.666,3.168,3.954,-1.359,22,0
31505,-0.415,0.712,0.695,4.496,-0.336,0.344,23,0
31558,-0.384,0.702,0.608,8.389,-2.412,-0.916,22,0
31612,-0.419,0.75,0.621,1.076,-7.489,-2.046,22,0
31666,-0.412,0.688,0.635,-3.053,-11.26,-1.832,23,0
31720,-0.42,0.684,0.814,3.427,-29.221,-7.305,23,0
31774,-0.312,0.736,0.62,11.809,-45.733,-11.534,22,0
31827,-0.262,0.799,0.486,-13.733,-23.702,-16.145,21,0
31882,-0.324,0.777,0.668,-45.153,7.885,-14.656,23,0
31939,-0.468,0.568,0.895,-42.588,-13.351,-3.939,23,0
31993,-0.315,0.72,0.806,-32.237,3.214,-1.969,23,0
32047,-0.297,0.528,0.755,-22.13,-16.519,-9.939,23,0
32101,-0.387,0.592,0.753,-21.969,15.214,-7.55,24,0
32155,-0.445,0.485,0.825,-15.267,-5.084,6.168,23,0
32209,-0.249,0.602,0.768,-21.763,-21.206,-17.718,23,0
32263,-0.38,0.524,0.806,-22.137,11.809,-0.344,24,0
32317,-0.411,0.581,0.871,-17.779,-30.786,-12.954,23,0
32371,-0.292,0.468,0.754,-16.076,10.588,-1.076,24,0
32429,-0.396,0.525,0.938,-16.115,0.763,-15.611,25,0
32485,-0.391,0.428,0.794,-10.481,-4.878,-3.282,57,0
32544,-0.401,0.537,0.892,-13.611,-10.71,-7.74,126,0
32605,-0.372,0.401,0.876,-11.947,-11.366,3.511,125,0
32659,-0.318,0.527,0.864,-8.099,-3.076,-3.802,30,0
32713,-0.398,0.381,0.895,-10.427,4.611,9.664,30,0
32768,-0.272,0.456,0.889,-1.824,-15.466,-7.626,29,0
32822,-0.33,0.372,0.871,-3.969,7.038,3.466,28,0
32876,-0.348,0.482,0.963,2.053,-13.069,-8.397,29,0
32933,-0.372,0.386,0.852,-14.71,8.817,5.802,29,0
32995,-0.278,0.46,0.91,5.817,-20.298,-5.107,27,0
33048,-0.378,0.366,0.893,-19.374,3.137,3.824,28,0
33101,-0.297,0.305,1.007,3.504,-21.038,-2.023,29,0
33155,-0.24,0.456,0.832,-0.557,6.985,-6.511,30,0
33209,-0.451,0.381,1.03,-5.176,-2.13,2.794,29,0
33262,-0.2,0.491,0.829,2.947,-7.824,-5.611,27,0
33315,-0.416,0.317,0.978,-13.481,10.504,7.29,28,0
33369,-0.197,0.417,0.857,4.618,-12.053,-7.351,26,0
33425,-0.415,0.393,0.914,-17.214,23.748,5.489,26,0
33479,-0.326,0.35,1.002,3.779,-16.435,-3.351,28,0
33532,-0.281,0.453,0.841,-0.832,27.427,7.046,28,0
33586,-0.429,0.353,1.024,-10.168,-11.015,4.847,26,0
33640,-0.243,0.416,0.802,-7.16,1.893,0.771,35,0
33693,-0.451,0.33,1.021,-9.802,7.023,8.527,26,0
33746,-0.22,0.414,0.89,4.779,-4.771,1.954,31,0
33844,-0.318,0.238,0.955,-4.061,-16.389,0.603,37,0
33898,-0.252,0.468,0.842,-1.87,18.282,0.832,37,0
33954,-0.431,0.256,1.038,-12.519,-15.366,3.183,32,0
34009,-0.209,0.405,0.907,9.511,9.634,1.084,37,0
34063,-0.449,0.343,0.984,-14.473,1.901,5.069,30,0
34116,-0.272,0.296,0.933,4.366,-8.084,2.603,31,0
34170,-0.316,0.436,0.894,-1.908,12.977,4.473,31,0
34224,-0.381,0.28,0.988,-4.267,-10.366,4.802,31,0
34278,-0.286,0.452,0.882,8.847,16.802,8.908,31,0
34331,-0.426,0.311,0.983,-18.962,-6.748,11.496,25,0
34384,-0.202,0.288,0.899,9.275,2.832,5.046,27,0
34438,-0.398,0.441,0.916,0.336,18.733,7.954,25,0
34494,-0.341,0.285,0.993,-11.962,-17.198,12.069,25,0
34548,-0.26,0.413,0.89,10.954,14.947,9.084,25,0
34601,-0.439,0.38,0.996,-10.947,-6.076,15.328,26,0
34655,-0.246,0.291,0.949,6.16,-10.405,9.969,25,0
34709,-0.35,0.463,0.875,5.695,17.397,13.649,28,0
34762,-0.333,0.317,0.977,-17.191,-25.901,10.115,24,0
34816,-0.208,0.336,0.902,8.908,11.275,9.763,25,0
34869,-0.325,0.449,0.971,-5.534,-0.565,5.305,23,0
34922,-0.297,0.239,0.961,-2.794,-7.58,5.45,24,0
34979,-0.281,0.463,0.932,6.176,7.366,7.954,24,0
35033,-0.262,0.314,0.93,-11.817,-11.992,2.794,24,0
35086,-0.282,0.385,0.948,5.954,9.069,6.336,24,0
35139,-0.312,0.415,0.92,-9.145,-13.847,3.137,27,0
35193,-0.246,0.343,0.912,-0.168,2.931,7.191,23,0
35247,-0.257,0.437,0.937,5.023,7.389,3.588,22,0
35300,-0.353,0.329,1.041,-16.695,-11.092,10.832,23,0
35363,-0.175,0.407,0.948,3.313,-11.412,4.847,0,0
35427,-0.293,0.369,0.956,-15.962,2.756,9.16,0,0
35484,-0.154,0.364,0.955,12.481,-4.153,1.802,27,0
35537,-0.279,0.432,0.928,-7.626,7.763,5.962,25,0
35591,-0.266,0.262,1.031,-5.687,-22.038,5.351,26,0
35645,-0.126,0.439,0.902,15.45,9.008,-0.802,24,0
35698,-0.392,0.374,1.013,-15.382,-2.855,11.122,25,0
35751,-0.167,0.276,1.008,4.687,-36.481,-3.473,27,0
35816,-0.155,0.445,0.916,13.229,7.901,-1.573,0,0
35879,-0.278,0.321,1.003,-3.061,-25.015,-0.015,0,0
35933,-0.109,0.401,0.88,2.863,-0.748,0.023,30,0
35987,-0.231,0.342,0.999,-3.55,3.58,2.107,24,0
36043,-0.177,0.378,0.939,2.672,-4.206,0.389,25,0
36097,-0.214,0.357,0.969,-3.618,9.298,8.916,27,0
36151,-0.068,0.348,0.928,-1.267,-9.725,-8.038,30,0
36205,-0.325,0.308,1.016,3.107,30.328,10.824,30,0
36269,-0.046,0.469,0.964,0.298,-26.924,-9.756,0,0
36323,-0.355,0.372,0.98,-0.412,42.962,14.565,29,0
36376,-0.219,0.392,1.003,-3.084,-46.336,-1.733,23,0
36430,-0.035,0.323,0.796,-4.931,12.924,0.802,30,0
36494,-0.318,0.376,1.132,0.168,9.26,-0.084,0,0
36560,-0.148,0.394,0.853,-5.191,9.031,-1.466,0,0
36667,-0.09,0.327,0.887,-1.817,-4.489,-7.412,0,0
36721,-0.321,0.466,1.101,1.702,-5.74,11.618,23,0
36774,0.068,0.385,0.807,-19.588,-24.969,-11.344,24,0
36828,-0.382,0.325,1.076,-9.053,29.802,11.878,21,0
36892,-0.041,0.382,0.94,-4.84,-25.008,-6.702,0,0
36956,-0.303,0.348,1.086,-2.176,24.221,8.55,0,0
37009,-0.033,0.32,0.941,-3.71,-30.321,-14.298,26,0
37063,-0.264,0.308,1.091,4.206,29.985,0.496,28,0
37131,-0.093,0.381,0.97,14.145,-23.466,-12.359,0,0
37184,-0.275,0.288,1.036,10.947,11.153,-2.076,23,0
37237,-0.226,0.4,0.953,17.962,2.702,4.626,23,0
37302,-0.176,0.375,0.898,1.137,-9.45,-2.794,0,0
37365,-0.206,0.368,0.956,-1.183,17.069,5.664,0,0
37419,-0.154,0.415,0.928,-5.13,2.031,-3.137,23,0
37473,-0.29,0.344,1.046,-4.16,9.687,8.015,23,0
37526,-0.115,0.476,0.932,-0.198,-9.344,0.282,22,0
37590,-0.311,0.325,0.99,-25.389,-0.183,15.794,0,0
37657,-0.017,0.312,0.936,8.366,9.71,-2.305,0,0
37721,-0.324,0.373,1.082,-17.878,0.115,4.947,0,0
37784,0,0.331,0.981,20.099,3.847,-8.794,0,0
37838,-0.427,0.412,1.005,-8.046,-5.58,7.817,22,0
37902,-0.067,0.255,0.893,-12.916,-19.137,2.786,0,0
37956,-0.266,0.383,0.995,9.038,18.267,1.473,22,0
38020,-0.177,0.331,0.959,-13.771,-6.786,1.313,0,0
38083,-0.203,0.364,1.009,4.328,9.244,-0.824,0,0
38148,-0.229,0.315,0.98,-5.863,-2.412,0.817,0,0
38211,-0.157,0.353,0.953,0.16,-0.069,0.099,0,0
38278,-0.239,0.324,0.99,-3.962,1.443,4.176,0,0
38342,-0.178,0.383,0.962,-2.702,-4.435,-0.374,0,0
38406,-0.254,0.287,1.046,-2.817,5.443,4.779,0,0
38469,-0.141,0.373,0.967,-1.779,-7.748,-2.427,0,0
38534,-0.295,0.272,1.066,6.137,13.924,5.13,0,0
38597,-0.112,0.433,0.898,-3.076,-9.893,-1.832,0,0
38662,-0.269,0.236,1.03,-0.748,8.702,5.061,0,0
38725,-0.146,0.407,0.938,2.702,-9.153,-1.183,0,0
38789,-0.235,0.262,1.02,-6.992,9.069,2.573,0,0
38856,-0.146,0.376,0.953,-0.756,-2.45,-4.145,0,0
38920,-0.296,0.271,1.047,-1.267,5.771,5.282,0,0
38984,-0.056,0.362,0.882,-8.198,-5.565,-6.344,0,0
39048,-0.293,0.325,1.094,4.679,5.015,3.489,0,0
39112,-0.081,0.308,0.914,-5.397,-26.878,-10.198,0,0
39166,-0.292,0.278,1.178,10.198,-7.916,-5.298,30,0
39230,0,0.35,0.924,25.023,-0.031,-15.16,0,0
39294,-0.373,0.366,0.973,14.168,8.702,8.244,0,0
39358,-0.102,0.342,0.863,-4.481,-12.954,0.832,0,0
39422,-0.225,0.335,0.988,0.229,16.42,4.336,0,0
39489,-0.165,0.401,0.927,-10.679,1.107,-2.924,0,0
39554,-0.239,0.359,1.085,7.229,3.802,5.435,0,0
39617,-0.131,0.348,0.88,-13.344,-3.916,-7.023,0,0
39682,-0.252,0.348,1.042,6.427,-1.908,7.802,0,0
39788,-0.309,0.26,1.083,-7.115,4.015,6.107,0,0
39853,-0.116,0.396,0.921,6.397,7.038,-2.588,0,0
39916,-0.29,0.283,1.038,-9.832,-4.45,3.145,0,0
39981,-0.139,0.364,0.921,5.13,12.229,-0.809,0,0
40044,-0.212,0.312,1.013,-6.794,-14.84,0.443,0,0
40112,-0.184,0.417,0.973,11.893,10.321,1.992,0,0
40181,-0.223,0.266,0.993,-15.458,-8.519,1.435,0,0
40245,-0.177,0.394,1.018,14.511,7.641,1.809,0,0
40307,-0.223,0.308,0.942,-13.557,-3.344,-0.84,0,0
40371,-0.168,0.317,1.043,10.084,4.771,-0.397,0,0
40434,-0.242,0.365,0.914,-9.527,-1.573,2.924,0,0
40498,-0.163,0.255,1.02,-1.023,-3.122,1.015,0,0
40561,-0.229,0.431,0.97,13.427,14.679,-4.244,0,0
40625,-0.196,0.289,0.991,-11.26,-25.366,2.191,0,0
40687,-0.15,0.328,0.997,19.718,24.237,-4.069,0,0
40754,-0.285,0.394,0.925,-17.779,-29.786,6.366,0,0
40817,-0.072,0.265,0.998,2.267,15.443,-3.802,0,0
40881,-0.29,0.403,1.04,10.626,-3.252,-4.046,0,0
40934,-0.172,0.324,0.953,-0.641,2.885,1.733,24,0
40987,-0.218,0.344,0.992,8.351,-1.427,-2.618,23,0
41040,-0.19,0.276,0.926,-1.885,7.458,-3.015,23,0
41094,-0.274,0.363,1.033,8.802,12.336,5.573,22,0
41147,-0.046,0.43,0.904,-6.405,-14.198,-11.695,24,0
41200,-0.412,0.302,1.107,0.817,13.664,9.649,28,0
41267,-0.065,0.402,0.914,5.878,-19.817,-3.137,0,0
41330,-0.318,0.296,1.062,0.992,14.191,5.977,0,0
41384,-0.095,0.384,0.919,3.053,-12.626,-3.344,30,0
41438,-0.246,0.316,0.979,-3.908,9.053,2.031,37,0
41492,-0.176,0.364,0.975,2,-8.916,-3.115,36,0
41555,-0.191,0.36,0.977,-2.267,0.595,-2.168,0,0
41610,-0.229,0.361,1.033,4.466,-1.527,-0.977,36,0
41664,-0.165,0.382,0.941,-0.55,0.527,-1.115,36,0
41718,-0.23,0.348,1.008,2.511,0.122,0.313,37,0
41785,-0.202,0.372,0.928,-2.87,-1.053,-0.565,0,0
41838,-0.201,0.356,1.01,2.084,-0.672,2.771,30,0
41891,-0.15,0.379,0.95,-0.435,0.038,-3.939,29,0
41946,-0.27,0.288,1.043,0.099,5.924,1.931,25,0
41999,-0.126,0.434,0.948,5.87,-6.435,-2.855,24,0
42052,-0.196,0.33,0.95,-6.687,2.679,-0.931,26,0
42105,-0.245,0.351,1.046,5.244,-7.13,1.649,25,0
42160,-0.1,0.389,0.946,2.336,-2.176,-4.641,26,0
42213,-0.249,0.346,0.994,1.458,0.748,-2.901,24,0
42266,-0.184,0.363,0.956,2.672,-2.42,-2.763,25,0
42323,-0.217,0.359,0.967,-4.427,-2.565,-2.58,30,0
42387,-0.187,0.346,0.999,1.931,-0.191,-0.679,0,0
42450,-0.182,0.4,0.98,4,-3.565,-5.672,0,0
42514,-0.236,0.346,0.976,-1.29,-8.481,-3.733,0,0
42577,-0.18,0.317,0.894,-6.092,-6.282,-4.55,0,0
42631,-0.288,0.322,1.031,-10.595,3.954,6.931,26,0
42684,-0.097,0.341,0.976,-3.802,1.771,4.298,23,0
42790,-0.165,0.413,0.97,2.061,-14.473,-5.489,0,0
42854,-0.257,0.293,1,-2.687,7.42,4.626,0,0
42921,-0.141,0.411,0.892,0.45,3.977,-3.16,0,0
42975,-0.28,0.265,1.071,-9.649,-6.084,4.023,25,0
43028,-0.107,0.403,0.965,7.634,5.725,-1.962,23,0
43081,-0.267,0.332,0.995,-8.992,4.069,1.695,25,0
43136,-0.158,0.32,0.993,7.298,-1.802,-2.641,23,0
43189,-0.213,0.407,0.975,-1.176,4.366,1.221,30,0
43243,-0.208,0.296,1.003,-5.237,-3.901,0.405,30,0
43296,-0.174,0.378,0.974,4.947,-1.916,-1.359,31,0
43351,-0.232,0.279,0.976,-6.008,6.176,0.26,33,0
43405,-0.203,0.371,0.989,5.496,-2.771,-0.313,32,0
43462,-0.24,0.32,0.978,-3.672,6.84,0.641,33,0
43516,-0.255,0.349,1.038,8.565,1.137,5.16,34,0
43571,-0.069,0.377,0.913,-4.679,-8.557,-6.84,38,0
43625,-0.364,0.303,1.055,3.191,12.534,9.588,38,0
43679,-0.033,0.398,0.891,3.015,-17.053,-6.046,30,0
43734,-0.329,0.296,1.022,-5.733,22.672,6.382,38,0
43787,-0.136,0.4,0.948,6.519,-20.901,-4.221,26,0
43841,-0.254,0.315,0.964,-5.702,20.229,2.557,29,0
43895,-0.247,0.363,1.042,5.305,-10.511,2.153,25,0
43952,-0.119,0.335,0.924,-4.748,8.29,-3.809,26,0
44006,-0.33,0.346,1.04,2.405,-1.618,5.015,27,0
44059,-0.081,0.357,0.905,-0.916,-2.435,-3.626,25,0
44113,-0.331,0.31,1.056,-3.046,5.008,4.71,24,0
44167,-0.114,0.357,0.917,3.198,-2.687,-3.718,27,0
44221,-0.278,0.347,1.05,-1.977,0.313,0.702,23,0
44284,-0.154,0.341,0.953,2.595,-5.015,-1.458,0,0
44348,-0.214,0.31,0.966,-4.191,5.802,-2.87,0,0
44411,-0.129,0.409,0.947,1.115,-9.832,-3.382,0,0
44479,-0.365,0.274,1.025,-2.695,23.061,6.053,0,0
44542,-0.061,0.392,0.893,1.069,-14.412,-7.977,0,0
44606,-0.375,0.25,1.085,3.992,13.374,5.519,0,0
44669,-0.028,0.402,0.851,-6.45,-9.557,-8.702,0,0
44734,-0.386,0.34,1.112,6.794,-1.771,6.634,0,0
44797,-0.074,0.351,0.899,-7.45,-0.115,-5.282,0,0
44861,-0.334,0.334,1.1,11.275,-5.832,3.038,0,0
44924,-0.106,0.345,0.909,-3.26,0.229,-6.466,0,0
44989,-0.284,0.371,1.045,7.687,-1.42,-1.847,0,0
45052,-0.133,0.368,0.91,-0.504,1.427,-7.008,0,0
45119,-0.295,0.3,0.922,-4.099,-6.634,-4.863,0,0
45173,-0.224,0.342,0.918,-12.58,-5.656,6.947,25,0
45237,-0.187,0.293,0.989,-8.901,5.977,5.992,0,0
45301,-0.251,0.317,1.048,-4.519,7.603,10.244,0,0
45365,-0.122,0.374,1.018,5.008,-6.069,3.313,0,0
45428,-0.262,0.286,1.012,-3.366,1.969,6.061,0,0
45493,-0.089,0.369,0.963,16.733,14.198,-10.84,0,0
45547,-0.426,0.344,0.956,-17.824,-11.244,8.534,30,0
45600,0.02,0.271,0.931,-1.176,-8.382,-4.412,22,0
45658,-0.365,0.387,1.044,5.847,20.038,1.595,27,0
45755,-0.169,0.326,1.007,7.061,17.366,-1.137,23,0
45808,-0.254,0.364,0.919,-5.153,-4.71,2.046,24,0
45862,-0.203,0.238,1.026,-0.45,4.527,0.412,23,0
45916,-0.229,0.398,0.956,5.244,6,0.015,23,0
45970,-0.187,0.301,0.975,-8.053,-7.237,-2.13,22,0
46023,-0.259,0.347,1.029,9.122,10.214,0.641,24,0
46077,-0.173,0.342,0.895,-6.947,-6.496,-3.664,25,0
46132,-0.302,0.299,1.038,6.55,8.832,5.687,24,0
46185,-0.127,0.398,0.909,-5.725,-9.145,-3.695,23,0
46242,-0.333,0.261,1.097,0.496,7.557,7.282,23,0
46296,-0.125,0.408,0.903,4.458,-5.489,-1.84,23,0
46350,-0.338,0.235,1.023,-13.74,5.29,7.443,24,0
46404,-0.112,0.352,0.932,11.885,0.557,-1.588,23,0
46457,-0.285,0.32,0.978,-11.794,4.412,-0.198,23,0
46512,-0.198,0.31,1.017,4.71,-1.672,-1.061,23,0
46566,-0.242,0.402,0.948,1.42,2.679,-1.244,23,0
46619,-0.265,0.253,1.005,-8.145,-1.885,3.771,23,0
46673,-0.161,0.378,0.965,10.679,6.046,-1.031,25,0
46731,-0.263,0.292,0.942,-14.87,-0.137,-1.191,23,0
46794,-0.191,0.311,1.129,9.466,-8.328,-2.84,0,0
46849,-0.212,0.389,0.975,6.992,6.802,-6.015,24,0
46903,-0.311,0.312,1.039,5.198,-21.672,-0.992,29,0
46967,-0.056,0.399,0.846,11.588,8.947,-10.87,0,0
47022,-0.358,0.284,0.987,-5.84,-8.733,-5.42,30,0
47076,-0.16,0.279,0.964,8.221,-1.969,-2.817,30,0
47140,-0.296,0.363,0.967,8.42,10.817,-0.748,0,0
47204,-0.135,0.316,0.96,-5.031,-16.29,-3.42,0,0
47266,-0.399,0.41,1.02,6.885,10.718,-1.71,23,0
47321,-0.177,0.346,0.927,-14.305,-22.992,-1.16,37,0
47374,-0.255,0.326,1.015,9.977,17.344,-0.626,27,0
47427,-0.225,0.357,0.869,-15.137,-9.069,0.069,30,0
47491,-0.315,0.298,0.948,-16.405,0.038,6.45,0,0
47554,-0.204,0.313,1.028,-16.626,4.809,8.855,0,0
47618,-0.191,0.349,1.17,13.885,6.046,5.84,0,0
47671,-0.185,0.385,0.963,5.718,-8.031,-1.443,23,0
47734,-0.228,0.25,0.867,-5.489,-3.176,-0.916,0,0
47801,-0.278,0.313,0.967,5.389,4.405,1.756,0,0
47853,-0.201,0.335,0.941,-9.206,2.023,4.382,22,0
47917,-0.203,0.281,1.035,0.16,1.466,-1.626,0,0
47980,-0.27,0.351,0.95,-3.947,1.977,0.794,0,0
48044,-0.239,0.288,1.051,-3.794,-5.031,3.229,0,0
48097,-0.179,0.389,0.92,7.374,20.45,-2.42,23,0
48160,-0.377,0.291,1.032,-19.26,-14.023,3.618,0,0
48224,-0.108,0.323,0.975,11.405,19.252,-0.321,0,0
48287,-0.333,0.329,1.007,-9.901,-13.282,2.557,0,0
48351,-0.152,0.278,1.002,7.031,11.412,0.023,0,0
48424,-0.233,0.358,0.952,-7.176,-14.42,-1.481,0,0
48481,-0.25,0.288,1.029,16.954,14.794,-2.931,25,0
48536,-0.263,0.385,0.902,-5.977,-11.244,-1.878,23,0
48591,-0.224,0.206,1.008,-1.58,-1.649,-0.26,24,0