Timestamp(ms),AccelX(g),AccelY(g),AccelZ(g),GyroX(deg/s),GyroY(deg/s),GyroZ(deg/s),DistanceLeft(cm),DistanceRight(cm)
16769,-0.384,-0.322,0.908,0.313,0.015,0.038,124,189
16827,-0.39,-0.323,0.892,0.229,0.603,0.053,123,190
16884,-0.392,-0.327,0.895,0.046,0.321,0.084,123,189
16943,-0.385,-0.324,0.908,0.031,0.16,0.168,123,189
17001,-0.392,-0.327,0.901,0.183,0,-0.298,123,189
17059,-0.387,-0.323,0.899,0.321,-0.786,-0.099,123,189
17118,-0.387,-0.323,0.903,0.298,-0.221,-0.351,123,189
17178,-0.38,-0.324,0.907,0.321,-0.679,-0.336,123,189
17236,-0.388,-0.323,0.906,0.237,-0.214,-0.145,123,189
17295,-0.391,-0.323,0.908,0.153,0.672,0.237,123,189
17353,-0.39,-0.325,0.902,0.26,0.351,0.046,123,189
17412,-0.39,-0.328,0.908,0.267,0.374,0.122,123,189
17470,-0.397,-0.324,0.896,0.198,0.023,0.099,123,189
17528,-0.394,-0.321,0.902,0.115,-0.901,0.542,123,189
17587,-0.375,-0.331,0.888,-0.939,1.84,1.916,123,189
17644,-0.389,-0.33,0.889,-0.618,3.519,2.198,123,190
17705,-0.374,-0.343,0.907,3.985,13.008,8.618,124,190
17764,-0.414,-0.341,0.924,15.328,37.794,13.641,124,190
17822,-0.512,-0.372,0.971,38.053,37.458,23.664,124,190
17882,-0.559,-0.308,1.021,68.656,36.45,35.687,125,0
17936,-0.549,-0.098,0.962,87.603,40.519,42.84,44,0
17995,-0.579,0.086,0.939,84.023,44.969,43.595,128,0
18050,-0.651,0.151,0.86,74.794,33.237,31.084,38,0
18097,-0.659,0.182,0.799,62.672,17.481,25.656,39,80
18151,-0.639,0.23,0.721,50.779,7.962,15.58,43,0
18208,-0.624,0.228,0.699,35.55,0.527,8.74,43,0
18255,-0.606,0.2,0.677,25.13,-1.87,0.16,39,86
18310,-0.601,0.209,0.656,18.603,1.313,-0.954,40,0
18357,-0.583,0.257,0.661,7.992,18.282,-1.115,39,86
18411,-0.63,0.239,0.643,-4.183,31.183,-1.702,40,0
18459,-0.688,0.231,0.71,-10.565,27.901,-4.489,41,86
18506,-0.738,0.192,0.729,-12.878,18.092,-1.107,44,85
18554,-0.752,0.172,0.73,-9.145,3.137,0.695,45,86
18603,-0.675,0.206,0.706,-5.84,-3.13,-1.618,47,86
18654,-0.668,0.188,0.723,-8.771,8.855,-3.115,46,88
18708,-0.69,0.187,0.719,-7.214,13.756,-3.718,46,0
18762,-0.701,0.169,0.688,-4.962,20.153,-1.29,47,0
18818,-0.709,0.184,0.668,-6.626,21.351,-1.206,48,0
18872,-0.723,0.172,0.668,-10.061,17.588,-3.504,48,0
18927,-0.755,0.169,0.666,-8.069,7.511,-4.809,48,0
18981,-0.789,0.161,0.687,-6.527,5.282,-2.947,49,0
19037,-0.779,0.162,0.67,-7.779,2.786,-2.046,51,0
19091,-0.764,0.179,0.704,-2,17.405,6.137,50,0
19149,-0.883,0.122,0.699,-5.427,13.244,3.924,50,0
19204,-0.874,0.147,0.693,-10.611,-21.229,4.122,48,0
19259,-0.867,0.158,0.69,-14.244,-31.641,17.893,51,0
19313,-0.813,0.169,0.719,-10.496,-51.321,26.015,51,0
19368,-0.75,0.206,0.693,-4.962,-26.107,42.481,44,0
19423,-0.78,0.24,0.763,-1.298,-17.855,54.374,42,0
19477,-0.715,0.286,0.757,3.756,-23.084,60.061,39,0
19574,-0.603,0.323,0.796,7.992,-28.038,61.588,36,0
19629,-0.516,0.369,0.756,6.916,-19.756,59,37,0
19685,-0.517,0.397,0.791,3.992,-15.809,54.573,35,0
19739,-0.499,0.418,0.782,4.023,-20.557,51.947,34,0
19793,-0.491,0.439,0.839,6.252,-31.206,51.198,31,0
19847,-0.373,0.496,0.808,9.427,-43.252,46.389,29,0
19892,-0.303,0.507,0.81,7.13,-34.87,42.305,28,43
19936,-0.285,0.525,0.862,7.969,-31.015,39.374,28,44
19981,-0.248,0.532,0.826,9.954,-27.595,36.145,28,46
20034,-0.226,0.551,0.852,10.321,-22.931,33.756,27,0
20088,-0.208,0.571,0.856,11.802,-19.519,31.954,27,0
20145,-0.178,0.59,0.84,13.092,-18.542,28.725,25,0
20198,-0.179,0.604,0.864,13.802,-19.954,28.985,26,0
20252,-0.133,0.623,0.852,16.405,-24.977,28.13,23,0
20305,-0.067,0.643,0.804,14.466,-19.603,26.656,21,0
20359,-0.058,0.649,0.82,12.198,-15.229,28.42,21,0
20412,-0.019,0.656,0.807,13.351,-14.069,25.443,21,0
20465,0.01,0.672,0.798,13.763,-8.359,24.412,21,0
20511,0.016,0.69,0.814,13.626,-2.145,23.542,21,60
20563,0,0.681,0.807,15.26,-6.099,22.145,19,0
20610,0.024,0.705,0.79,15.817,-10.351,22.45,16,60
20657,0.055,0.717,0.791,15.29,-14,21.153,16,62
20710,0.097,0.73,0.755,13.908,-12.649,21.267,16,0
20763,0.116,0.733,0.761,11.534,-11.092,19.534,19,0
20809,0.153,0.734,0.75,10.626,-15.573,14.74,16,62
20861,0.169,0.74,0.737,7.718,-7.237,13.985,18,0
20908,0.144,0.738,0.756,7.603,-6.817,12.931,16,64
20960,0.156,0.74,0.745,9.015,-8.969,12.954,16,0
21013,0.155,0.746,0.753,7.817,-9.809,14.305,16,0
21066,0.209,0.745,0.71,9.557,-17.748,12.481,16,0
21123,0.235,0.75,0.688,6.397,-10.405,10.74,16,0
21176,0.231,0.737,0.699,5.847,-6.466,10.55,15,0
21229,0.245,0.756,0.701,7.725,-8.847,6.008,15,0
21282,0.251,0.774,0.678,5.42,-9.023,5.557,16,0
21335,0.256,0.771,0.72,8.053,-13.221,4.42,16,0
21388,0.289,0.773,0.676,9.779,-11.198,3.397,14,0
21441,0.263,0.776,0.701,10.74,-10.061,1.595,16,0
21494,0.283,0.777,0.633,10.618,-12.076,-0.427,16,0
21548,0.269,0.782,0.662,10.405,-5.985,2.916,16,0
21604,0.281,0.792,0.626,10.366,-10.29,1.725,17,0
21657,0.373,0.801,0.61,7.221,-7.519,3.45,17,0
21710,0.303,0.803,0.632,6.26,-9.611,3.282,16,0
21764,0.329,0.805,0.615,5.748,-5.611,5.603,16,0
21817,0.308,0.793,0.623,7.42,-5.55,4.282,16,0
21870,0.312,0.796,0.615,7.832,-7.389,4.435,16,0
21923,0.32,0.798,0.615,8.672,-8.542,3.756,16,0
21976,0.339,0.8,0.59,8.985,-8.916,2.573,16,0
22034,0.342,0.805,0.592,9.122,-11.947,1.573,104,0
22087,0.354,0.825,0.556,7.649,-9.718,1.702,17,0
22144,0.36,0.827,0.56,4.863,-10.015,2.656,17,0
22240,0.352,0.825,0.549,5.13,-6.015,3.344,17,0
22293,0.379,0.821,0.542,5.481,-7.992,2.847,17,0
22351,0.387,0.82,0.532,5.015,-6.099,2.588,104,0
22405,0.383,0.826,0.524,5.504,-6.023,1.718,17,0
22458,0.393,0.835,0.525,3.992,-3.985,2.099,17,0
22511,0.398,0.833,0.527,3.046,-3.74,1.344,17,0
22565,0.394,0.826,0.518,2.656,-4.176,1.122,17,0
22619,0.409,0.83,0.51,2.252,-3.053,1.267,17,0
22675,0.409,0.831,0.515,1.725,-2,0.779,17,0
22728,0.406,0.834,0.513,2.29,-1.573,1.237,17,0
22781,0.402,0.827,0.525,3.229,-2.496,0.634,17,0
22835,0.401,0.826,0.529,4.649,-2.733,0.336,16,0
22888,0.405,0.818,0.505,4.145,-3.802,0.168,16,0
22941,0.415,0.835,0.483,1.191,-2.618,-0.038,16,0
22994,0.402,0.833,0.51,0.16,-2.542,-0.397,16,0
23048,0.412,0.828,0.485,-0.687,-0.847,-0.939,16,0
23101,0.407,0.828,0.482,-1.229,-1.069,-1.756,16,0
23154,0.409,0.835,0.501,-2.611,3.099,-1.046,16,0
23212,0.394,0.821,0.516,-3.748,0.786,-2.237,16,0
23265,0.416,0.823,0.5,-4.817,3.863,-2.916,16,0
23318,0.392,0.815,0.506,-5.595,5.519,-3.298,16,0
23371,0.402,0.818,0.493,-6,6.618,-6.947,15,0
23425,0.388,0.843,0.491,-7.992,17.603,-7.298,15,0
23478,0.326,0.822,0.578,-7.13,16.87,-6.282,16,0
23531,0.352,0.82,0.584,-5.519,0.725,-8.206,16,0
23590,0.382,0.836,0.548,-6.924,7.427,-8.74,16,0
23644,0.334,0.832,0.554,-8.321,5.962,-10.351,17,0
23699,0.328,0.826,0.581,-8.786,7.802,-10.244,17,0
23751,0.311,0.825,0.601,-6.71,7.534,-10.779,16,0
23804,0.313,0.828,0.573,-7.214,9.893,-12.443,17,0
23857,0.288,0.836,0.608,-9.267,17.504,-12.321,16,0
23910,0.255,0.843,0.647,-9.748,13.359,-11.84,17,0
23962,0.31,0.809,0.623,-8.084,13.099,-14.565,16,0
24014,0.267,0.824,0.641,-9.901,25.618,-18.023,17,0
24068,0.238,0.801,0.639,-12.092,12.916,-25.313,17,0
24120,0.219,0.817,0.652,-14.374,9.618,-30.809,16,0
24173,0.203,0.802,0.633,-15.496,9.267,-36.786,20,0
24228,0.16,0.789,0.66,-17.153,17.061,-41.893,18,0
24282,0.111,0.78,0.662,-19.588,21.099,-46.847,18,0
24335,0.041,0.756,0.685,-21.031,23.046,-50.244,19,0
24387,-0.005,0.745,0.687,-20.122,19.221,-56.557,17,0
24441,-0.03,0.725,0.673,-21.046,26.176,-59.84,29,0
24494,-0.11,0.698,0.696,-24.595,51.084,-57.985,18,0
24547,-0.245,0.662,0.735,-22.053,55.206,-56.756,22,0
24600,-0.312,0.65,0.757,-17.344,43.687,-59.534,24,0
24656,-0.374,0.622,0.737,-15.527,35.863,-58.061,23,0
24710,-0.435,0.59,0.753,-14.092,24.137,-59.252,24,0
24763,-0.476,0.561,0.722,-13.237,20.756,-56.45,26,0
24817,-0.525,0.534,0.762,-13.45,29.931,-49.763,29,0
24870,-0.57,0.501,0.728,-11.519,21.305,-47.962,29,0
24967,-0.645,0.46,0.759,-10.16,13.626,-39.802,30,0
25021,-0.647,0.444,0.721,-8.901,5.802,-36.344,34,0
25075,-0.659,0.405,0.72,-9.878,8.237,-32.26,35,0
25128,-0.662,0.382,0.698,-8.145,10.359,-29.443,38,0
25186,-0.709,0.351,0.731,-6.122,10.664,-24.916,38,0
25240,-0.696,0.35,0.697,-4.878,10.901,-20.832,40,0
25294,-0.725,0.341,0.702,-4.611,14.206,-17.344,46,0
25350,-0.74,0.324,0.698,-4.756,6.847,-15.313,45,0
25404,-0.718,0.298,0.677,-4.13,1.679,-14.664,46,0
25467,-0.713,0.281,0.687,-4.359,3.55,-15.26,0,0
25531,-0.731,0.257,0.687,-4.412,4.053,-13.496,0,0
25584,-0.745,0.254,0.699,-2.855,5.947,-10.519,37,0
25638,-0.744,0.261,0.688,-1.634,4.863,-9.527,36,0
25696,-0.76,0.25,0.695,-0.893,5.26,-7.489,37,0
25750,-0.761,0.256,0.682,-1.092,4.557,-4.84,39,0
25804,-0.766,0.24,0.682,-1.328,3.641,-4.008,40,0
25858,-0.751,0.225,0.675,-1.42,0.366,-4.466,38,0
25912,-0.739,0.221,0.665,-0.443,1.802,-4.588,39,0
25966,-0.756,0.216,0.643,-2,3.374,-4.489,43,0
26028,-0.775,0.211,0.664,-0.58,2.107,-2.55,150,0
26082,-0.77,0.23,0.666,-0.573,-0.321,-1.29,44,0
26136,-0.744,0.228,0.656,-1.573,4.13,-1.153,42,0
26190,-0.776,0.213,0.677,0.275,1.924,-1.626,44,0
26248,-0.743,0.215,0.646,-1.122,1.176,-2.634,44,0
26293,-0.771,0.2,0.663,-1.084,0.107,-2,42,24
26346,-0.74,0.177,0.637,-0.985,-0.443,-4.206,40,0
26400,-0.784,0.215,0.672,0.885,5.878,-0.771,40,0
26456,-0.762,0.194,0.653,1.366,1.092,-2.519,41,0
26510,-0.758,0.217,0.641,1.656,8.099,-3.511,42,0
26564,-0.789,0.199,0.655,1.42,6.267,-4.481,41,0
26618,-0.773,0.206,0.625,0.931,0.771,-4.87,42,0
26673,-0.788,0.211,0.643,-1.305,1.527,-3.221,44,0
26730,-0.785,0.209,0.627,-1.511,-1.481,-2.618,42,0
26784,-0.791,0.206,0.628,-0.855,1.389,-1.565,43,0
26840,-0.786,0.167,0.64,0.771,2.313,1.397,43,0
26894,-0.789,0.167,0.632,-1.137,-2.16,-0.664,43,0
26948,-0.76,0.08,0.695,-0.908,-9.351,-6.076,45,0
27003,-0.746,0.077,0.814,5.954,-18.282,-8.16,43,0
27058,-0.745,-0.124,0.775,8.885,-37.351,-0.977,43,0
27106,-0.685,-0.143,0.756,28.527,-73.893,-3.725,40,85
27165,-0.77,-0.051,0.79,18.382,-91.26,-13.947,132,0
27223,-0.773,-0.081,0.78,-14.618,-143.191,-16.313,38,0
27276,-0.521,0.892,0.53,-46.26,-145.542,-72.252,36,183
27329,-0.617,0.008,1.02,-36.794,9.244,6.634,36,183
27382,-0.289,0.471,1.002,-4.168,-80.099,-27.992,34,184
27436,-0.508,0.119,1.254,0.427,8.611,8.71,36,184
27493,-0.24,0.427,0.906,31.977,-27.397,-3.58,128,156
27546,-0.473,0.144,1.023,27.771,5.618,26.985,37,184
27606,-0.209,0.231,0.91,42.198,-2.557,20.794,127,185
27664,-0.392,0.213,0.906,19.855,35.412,26.908,127,185
27768,-0.221,0.138,0.97,22.725,-19.153,11.725,126,185
27822,-0.497,0.238,1.124,13.397,22.832,2.962,30,186
27875,-0.372,0.27,1.267,38.763,-4.931,9.13,33,185
27928,-0.433,0.113,1.287,104.802,12.802,17.038,32,184
27981,-0.68,0.252,1.13,125.679,25.618,44.443,29,184
28035,-0.283,0.306,0.551,133.29,2.519,37.863,33,183
28088,-0.425,0.429,0.726,103.168,0.084,43.954,28,183
28140,-0.233,0.848,0.276,81.16,14.748,29.504,26,183
28193,-0.205,0.71,0.577,54.947,-5.084,31.527,26,183
28250,-0.336,1.048,0.322,52.679,6.344,21.122,28,183
28302,-0.192,0.719,0.531,10.221,-1.733,22.893,25,185
28356,-0.099,0.915,0.461,18.924,10.885,5.359,27,0
28409,-0.179,0.82,0.328,-12.496,7.443,-8.405,24,0
28464,-0.2,0.713,0.555,-23.542,15.229,-11.153,27,0
28517,-0.323,0.81,0.554,-19.695,13.137,-22.267,26,186
28570,-0.479,0.951,0.789,-11.45,6.206,-5.618,26,185
28622,-0.365,0.745,0.856,12.802,-13.649,6.42,26,184
28676,-0.377,0.73,0.658,44.015,-6.603,11.458,26,184
28732,-0.383,0.772,0.547,60.924,-15.679,20.214,25,0
28786,-0.06,1.163,-0.019,39.13,-3.977,15.992,30,0
28840,-0.271,0.89,0.098,-37.725,33.87,17.336,28,0
28895,-0.115,0.546,0.755,-47.473,16.031,-8.565,27,0
28948,-0.169,0.938,0.488,-20.527,5.84,-28.641,27,0
29008,-0.513,0.829,0.36,-40.305,18.55,-18.153,134,0
29063,-0.337,0.803,0.722,-47.511,23.244,-8.397,30,0
29117,-0.475,0.577,1.194,-6.26,-6.366,-12.641,27,0
29170,-0.465,0.779,0.85,65.29,-14.595,7.115,24,0
29228,-0.438,0.854,0.295,27.725,-12.008,24.008,28,0
29281,-0.16,0.687,0.5,7.061,-15.069,15.557,26,185
29335,-0.334,0.782,0.864,27.198,-12.427,2,27,0
29388,-0.309,0.944,0.327,38.435,-4,5.74,24,0
29443,-0.281,0.788,0.246,-4.534,-11.504,3.496,27,0
29496,-0.391,0.742,0.921,6.244,2.649,12.237,24,0
29550,-0.134,0.661,0.659,51.962,-29.221,-14.977,27,0
29604,-0.509,1.356,0.12,45.565,-2.145,10.168,25,0
29658,-0.147,0.764,0.594,15.328,-18.466,25.092,25,0
29715,-0.246,0.784,0.604,47.137,-16.137,-0.458,24,0
29768,-0.277,1.026,0.343,53.443,-41.145,3.679,16,0
29822,-0.112,1.059,0.037,33.328,-4.756,-5.588,25,0
29876,-0.348,0.967,0.5,8.672,-9.176,8.405,26,0
29930,-0.131,0.937,0.278,28.672,-6.015,4.603,26,0
29983,-0.283,0.987,0.431,23.679,-4.237,14.366,24,0
30036,-0.077,0.956,0.078,25.901,-0.718,7.504,25,183
30090,-0.148,0.857,0.182,-5.412,-5.168,0.527,24,184
30143,-0.038,0.995,0.251,-15.313,-5.13,-13.031,25,183
30199,-0.34,1.144,0.289,6.13,9.542,-11.885,16,0
30253,-0.375,0.983,0.672,9.916,-18.29,20.969,27,183
30305,-0.134,0.888,0.509,52.489,-31.763,13.344,16,182
30358,-0.349,1.031,0.555,50.656,-41.328,19.656,29,182
30411,-0.029,0.839,0.001,69.099,-57.794,12.832,26,183
30509,-0.3,0.832,-0.027,53.885,-33.763,3.794,26,0
30563,0.105,1.091,-0.428,32.87,-22.031,2.084,27,0
30623,-0.207,1.235,0.173,-11.053,-7.405,-4.176,27,0
30676,-0.063,1.073,-0.399,17.176,12.71,-7.29,26,0
30732,-0.328,1.073,0.484,-34.992,-0.008,23.427,26,0
30785,0.033,0.721,0.346,47.595,-33.412,3.397,25,0
30838,-0.206,1.031,-0.014,29.908,-19.191,-9.473,26,0
30892,-0.071,1.045,-0.227,22.878,-27.221,-0.282,26,0
30945,-0.064,1.092,-0.201,0.252,0.977,0.168,28,0
30998,-0.041,0.867,-0.129,-8.053,15.87,-6.176,27,0
31052,-0.238,1.113,0.197,5.908,-8.16,-3.374,28,0
31106,-0.035,1.109,-0.069,-12.748,-1.626,-0.145,37,0
31159,-0.064,1,0.087,-0.725,-11.939,-8.458,29,0
31215,-0.269,0.848,0.291,42.466,-2.16,11.534,29,0
31269,-0.028,1.039,-0.318,39.687,-33.321,0.16,28,0
31323,-0.145,1.183,-0.453,-17.397,28.84,-5.275,28,0
31376,-0.127,0.974,0.386,-20.069,-3.489,1.832,27,0
31429,-0.083,0.881,-0.136,22.84,-17.855,-4.855,28,0
31482,-0.135,1.195,-0.581,-10.656,22.756,0.794,27,0
31536,-0.192,1.021,0.41,-7.214,24.55,9.603,29,0
31589,-0.053,0.802,0.173,16.221,-12.26,-2.84,26,0
31643,-0.139,1.182,-0.46,-6.099,-2.183,-4.405,28,0
31698,-0.166,0.953,0.169,-21.206,5.191,4.466,16,0
31751,-0.106,0.943,0.121,18.496,-5.427,-2.344,16,0
31804,-0.184,1.047,-0.044,3.893,-6.473,3.702,16,0
31857,-0.034,0.999,-0.388,5.153,14.649,5.198,16,0
31909,-0.062,1.053,0.131,-27.26,5.42,-8.641,16,0
31963,-0.242,0.895,0.516,1.565,-27.26,-2.191,16,0
32023,-0.224,1.066,-0.16,29.359,-40.74,9.924,152,0
32076,0.095,1.135,-0.746,-22.107,44.107,-1.359,27,0
32130,-0.305,0.967,0.812,-5.168,20.366,1.023,16,0
32186,-0.016,0.904,-0.085,29.313,-39.939,0.977,26,0
32239,-0.089,1.171,-0.512,-4.351,9.893,-10.26,26,0
32292,-0.205,1.032,0.23,-22.794,3.435,3.015,27,0
32347,-0.153,0.848,0.195,26.252,-15.443,9.374,29,0
32400,0.014,1.194,-0.52,-0.252,4.924,-5.282,26,0
32452,-0.072,0.979,0.079,-26.305,14.237,-9.305,16,0
32506,-0.203,0.836,0.261,2.672,2.916,-14.015,27,0
32560,-0.159,1.113,-0.372,12.832,-6.626,-2.374,27,0
32613,-0.098,1.101,-0.067,-19.489,5.405,1.679,28,0
32670,-0.205,0.869,0.164,-0.229,-12.084,0.275,28,0
32723,-0.148,1.13,-0.022,5.115,2.977,1.168,29,0
32777,-0.096,0.968,-0.051,3.695,0.061,6.664,27,0
32830,-0.153,0.983,0.124,19.397,-4.084,4,27,0
32884,0.017,1.073,-0.29,3.053,-14.809,1.855,28,0
32937,-0.27,0.975,0.027,-19.252,21.573,-5.122,28,0
32991,-0.128,0.989,0.131,-1.466,-1.214,5.702,27,0
33045,-0.038,1.022,-0.136,19.74,-6.427,-3.435,29,0
33098,-0.168,1.101,-0.227,-4.534,8.573,2.183,29,0
33155,-0.027,0.946,0.062,10.45,-7.45,-1.603,28,0
33252,-0.092,0.998,-0.187,-4.298,-0.588,9.137,28,0
33305,-0.015,1.047,-0.215,-13.137,8.061,-9.275,30,0
33358,-0.005,1.173,-0.603,-71.176,29.817,-16.237,28,0
33413,-0.112,0.989,-0.132,-123.481,66.137,-9.527,29,0
33466,-0.229,0.822,0.238,-124.878,62.702,-13.954,26,0
33519,-0.28,0.692,0.59,-57.664,23.298,-24.153,27,180
33571,-0.29,1.005,0.452,-42.458,20.443,-24.901,27,180
33624,-0.306,1.104,0.33,-63.366,19.695,-15.374,28,180
33680,-0.234,0.983,0.29,-81.687,4.26,-14.321,26,181
33733,-0.177,0.744,0.396,-79.611,32.038,-16.13,27,0
33787,-0.198,0.901,0.499,-67.443,26.817,-22.565,30,0
33841,-0.314,0.837,0.619,-87.931,1.733,-26.824,27,0
33895,-0.35,0.728,0.526,-77.244,3.214,-23.756,30,0
33947,-0.63,0.663,0.814,-88.191,7.336,-9.634,32,179
34000,-0.261,0.474,0.746,-53.061,-20.565,-11.137,29,179
34053,-0.189,0.877,0.612,-41.427,35.206,-15.031,29,179
34106,-0.711,0.311,1.137,-53.924,12.214,5.511,29,180
34161,-0.146,0.682,0.666,-7.275,-42.603,-30.534,30,179
34214,-0.543,0.586,0.805,-63.046,39.359,10.229,30,180
34268,-0.412,0.418,0.863,9.198,-31.611,-19.527,30,180
34320,-0.345,0.684,0.63,-28.847,30.55,3,30,180
34373,-0.521,0.315,1.119,-38.084,-24.672,0.939,30,181
34425,-0.159,0.529,0.721,10.107,-8.092,-23.092,30,180
34479,-0.674,0.443,1.062,-72.092,29.351,13.145,30,181
34531,-0.264,0.176,0.856,5.374,-63.542,-26.153,30,180
34587,-0.312,0.832,0.621,-24.809,74.061,0.824,30,179
34640,-0.864,0.134,1.217,-48.473,-47.687,-2.893,30,180
34693,0.067,0.44,0.765,40.817,-35.809,-21.626,30,180
34746,-0.695,0.429,0.926,-46.344,48.298,9.763,31,179
34798,-0.337,0.219,0.937,17.504,-76.382,-14.87,30,180
34851,-0.211,0.551,0.612,-23.076,60.962,-6.137,31,179
34905,-0.681,0.206,1.284,-5.275,-19.603,1,31,179
34957,-0.063,0.464,0.6,-8.298,-4.305,-20.282,31,179
35010,-0.768,0.219,1.344,-11.695,4.962,17.641,31,180
35066,0.117,0.7,0.481,-0.618,-45.618,-42.626,32,179
35119,-1.099,0.025,1.384,-26.58,39.458,42.038,34,179
35172,0.249,0.634,0.485,11.832,-94.931,-45.145,33,179
35225,-0.929,0.011,1.271,-32.618,98.069,54.794,34,179
35278,0.088,0.473,0.563,16.237,-105.794,-47.511,33,178
35332,-0.719,0.281,1.133,-20.931,85.756,42.977,35,179
35385,-0.061,0.317,0.759,15.687,-70.168,-32.183,37,178
35438,-0.62,0.372,1.068,-20.321,40.443,28.328,35,179
35496,0.018,0.305,0.634,16.634,-44.145,-34.443,133,178
35558,-0.749,0.385,1.385,-21.611,4.992,27.931,133,179
35612,0.323,0.054,0.438,27.809,20.26,-40.374,44,178
35665,-1.453,0.732,1.591,-51.55,23.779,44.649,35,179
35723,0.604,-0.039,0.281,-3.389,-136.763,-48.023,132,150
35776,-1.051,0.812,1.391,-31.084,140.359,37.351,38,179
35834,0.01,-0.356,0.891,-2.412,-157.313,-36.252,132,179
35894,-0.63,1.106,0.975,-0.504,155.573,23.382,133,179
35995,0.37,0.938,0.512,57.267,83.527,-4.916,132,178
36058,-1.084,-0.308,1.366,-68.58,-61.237,8.985,133,178
36116,0.625,0.766,0.429,80.87,34.466,-31.565,133,178
36174,-1.375,-0.204,1.468,-100.176,-0.244,19.611,133,178
36234,0.837,0.328,0.441,90.802,-35.992,-44.221,133,178
36287,-1.443,0.059,1.489,-85.901,85.023,27.489,43,178
36341,0.285,0.059,0.83,56.832,-151.481,-35.924,40,178
36395,-0.634,0.603,0.695,-33.153,178.672,33.321,38,178
36457,-0.037,-0.13,0.94,25.16,-158.45,-35.595,38,178
36509,-0.256,0.74,0.678,1.71,157.244,18.603,39,178
36566,-0.711,-0.207,1.22,-17.847,-117.466,-13.542,39,178
36618,0.205,0.633,0.57,31.496,69.626,3.328,37,178
36676,-0.852,0.079,1.231,-40.412,-21.939,-4.832,133,178
36729,0.06,0.31,0.81,42.748,-9.611,-2.817,37,178
36787,-0.603,0.3,0.911,-35.718,29.962,-6.809,134,178
36840,-0.19,0.175,1.133,37.618,-65.397,-4.824,36,178
36898,-0.187,0.439,0.581,-25.076,79.679,-5.924,133,177
36951,-0.607,-0.004,1.406,22.824,-106.87,-5.168,37,178
37012,0.067,0.493,0.343,-10.824,111.489,-2.55,133,178
37064,-0.751,0.094,1.486,7.794,-124.794,-21.26,37,178
37123,0.117,0.519,0.39,14.519,104.305,3.779,134,177
37176,-0.787,0.221,1.421,-12.313,-112.733,-14.145,37,178
37228,0.092,0.213,0.349,27.336,91.298,5.015,40,177
37281,-0.915,0.467,1.447,-25.16,-56.489,-9.573,36,177
37340,0.055,-0.155,0.691,18.763,24.496,3.252,134,177
37392,-0.507,0.62,1.079,-12.427,-21.924,-18.382,37,177
37450,-0.471,-0.283,1.043,4.153,5.145,19.489,135,177
37506,-0.057,0.823,0.748,-4.55,-7.718,-28.756,38,177
37559,-0.948,-0.479,1.185,-23.084,7.908,30.267,38,177
37611,0.533,0.9,0.525,40.756,-54.107,-39.947,37,176
37664,-1.167,-0.328,1.257,-48.076,81.16,34.427,39,176
37716,0.254,0.359,0.748,54.099,-106.489,-32.969,38,176
37775,-0.709,0.185,0.784,-45.618,129.275,20.863,135,176
37833,-0.043,0.065,1.146,40.55,-147.26,-31,134,177
37892,-0.754,0.443,0.782,-24.809,178.878,28.405,135,176
37950,-0.221,-0.083,1.221,11.336,-198.168,-24.664,134,177
38006,-0.448,0.704,0.619,3.481,211.71,21.763,47,176
38064,-1.02,-0.142,1.401,-48.115,-192.374,-9.794,134,149
38120,0.699,0.485,0.173,51.847,131.916,-3.725,134,149
38178,-1.436,0.074,1.497,-54.855,-55,5.489,135,177
38236,0.667,0.306,0.463,40.038,-13.344,-16.183,134,149
38288,-1.245,0.225,1.384,-41.664,64.725,10.389,38,177
38341,0.032,-0.052,0.913,16.756,-100.939,-6.634,37,177
38393,-0.332,0.641,0.709,6.832,120.695,-0.725,37,177
38450,-0.853,-0.2,1.219,-38.481,-103.687,13.275,37,178
38506,0.553,0.528,0.447,39.214,53.664,-15.901,133,150
38559,-1.165,-0.021,1.383,-48.244,-25.305,10.023,40,178
38617,0.197,0.202,0.735,39.26,-34.214,-11.374,133,150
38675,-0.906,0.247,1.108,-29.427,64.191,15.885,134,178
38733,0.076,0.046,0.843,14.573,-75.092,-7.679,128,178
38830,-0.819,0.016,1.171,-38.389,-99.702,10.435,42,178
38883,0.244,0.162,0.605,37.557,50.244,7.389,45,179
38941,-0.817,0.435,1.321,-18.42,-10.611,2.176,133,179
39003,0.02,-0.076,0.803,1.855,-0.977,9.786,125,179
39055,-0.549,0.538,1.026,4.809,18.489,-3.237,40,179
39113,-0.383,-0.144,0.969,-19.389,-28.786,17.809,132,179
39173,0.03,0.507,0.772,27.824,28.153,-12.435,132,180
39231,-0.836,-0.124,1.171,-39,-19.893,21.252,132,181
39284,0.367,0.519,0.638,24.237,-15.496,-18.046,41,180
39343,-1.041,-0.102,1.234,-33.931,58.069,27.725,126,181
39396,0.403,0.273,0.591,30.84,-55.947,-20.351,40,181
39457,-0.856,0.181,1.073,-28.405,81.71,9.061,131,182
39516,-0.014,0.077,0.897,10.901,-92.351,-12.58,123,181
39569,-0.412,0.386,0.896,3.244,99.305,4.947,39,181
39627,-0.629,0.057,1.235,-23.626,-95.901,2.565,123,182
39686,0.164,0.323,0.654,27.282,88.771,-12.122,131,182
39744,-1.082,0.087,1.29,-48.183,-64.13,2.855,125,182
39802,0.456,0.056,0.521,30.916,16.756,-13.206,122,182
39861,-1.042,0.288,1.246,-29.382,23.351,1.443,131,182
39919,0.269,-0.041,0.794,7.55,-57.084,-18.672,124,182
39981,-0.969,0.492,1.258,-1.847,52.779,1.794,130,182
40039,-0.083,-0.128,0.943,-22.366,-105.221,-8.053,130,182
40097,-0.441,0.449,0.979,16.321,105.672,0.153,130,181
40157,-0.491,0.006,1,-27.962,-93.435,-9.198,130,182
40215,-0.073,0.215,0.709,27.183,87.443,-3.313,130,182
40273,-0.819,0.144,1.104,-24.183,-35.214,-0.939,131,182
40333,0.374,0.042,0.717,57.511,43.435,-26.817,130,181
40391,-1.502,0.392,1.344,-44.115,72.71,22.176,133,182
40450,0.354,-0.018,0.64,27.817,-110.137,-24.084,131,182
40512,-1.272,0.422,1.321,-28.176,121.687,31.344,132,182
40570,0.201,-0.074,0.65,12.221,-137.924,-24.939,130,182
40630,-0.957,0.464,1.021,6.397,170.145,33.45,132,183
40688,-0.295,0.004,0.82,-15.069,-142.405,-11.702,130,183
40747,-0.324,0.29,0.78,16.504,137.588,17.992,131,183
40806,-0.673,0.01,1.082,-18.351,-98.573,-10.29,130,183
40864,-0.202,0.224,0.69,19.122,84.634,12.702,131,184
40924,-0.657,0.208,0.968,-15.565,-42.511,-1.191,131,184
40985,-0.207,0.135,0.689,14.634,42.702,10.092,130,184
41044,-0.627,0.279,1.016,-2.344,-8.504,-3.115,131,184
41103,-0.524,0.173,0.733,4.153,49.26,18.275,131,185
41162,-0.568,0.196,0.928,1.473,12.916,10.649,131,188
41217,-0.594,0.131,0.762,-1.031,47.412,12.519,43,0
41272,-0.383,0.344,0.735,3.031,10.618,0.16,42,0
41326,-0.649,0.127,0.924,-17.908,4.824,-0.87,44,0
41381,-0.473,0.203,0.725,0.794,47.74,0.214,44,0
41436,-0.794,0.041,0.966,-21.924,-2.992,1.763,45,0
41494,-0.543,0.326,0.808,9.832,30.412,5.695,46,0
41553,-0.712,0.121,0.839,-26.489,12.733,-1.366,132,0
41609,-0.473,0.165,0.718,12.16,25.42,-1.359,46,0
41669,-0.581,0.169,0.725,-3.756,47.069,-20.649,142,0
41773,-0.813,0.082,0.828,-3.954,1.214,9.55,148,0
41828,-0.744,0.047,0.821,18.298,-3.908,13.206,46,0
41888,-0.644,0.335,0.703,-0.336,9.924,-0.244,155,0
41944,-0.993,-0.045,0.744,0.84,-59.443,8.244,46,0
41999,-0.085,0.57,0.543,19.908,34.145,-9.198,44,0
42056,-1.625,-0.252,1.074,-17.511,-53.634,18.901,44,0
42112,0.365,0.625,0.206,30.076,-20.664,-6.328,44,0
42172,-1.465,0.001,1.326,-12.275,45.74,12.198,144,0
42232,-0.092,0.346,0.327,19.702,-31.649,-0.763,143,0
42293,-1.187,0.107,1.123,-9.275,-34.74,10.382,146,0
42354,0.094,0.317,0.264,26.992,24.313,-7.901,144,0
42417,-1.274,0.17,1.185,-13.779,-36.031,4.405,186,0
42478,-0.133,0.191,0.41,-0.26,30.099,-8.061,144,0
42532,-1.131,0.167,1.071,-8.893,-21.985,2.901,44,0
42599,-0.185,0.253,0.498,-0.321,25.397,-7.504,187,0
42661,-1.091,0.254,1.023,-13.405,-25.099,-4.198,187,0
42723,-0.254,0.173,0.52,-3.252,20.847,-6.344,155,0
42784,-1.06,0.19,1.081,-8.397,-3.855,-3.908,144,0
42845,-0.35,0.118,0.599,-2.55,3.45,-8.26,142,0
42905,-0.983,0.237,0.998,-5.29,2.427,0.771,143,0
42966,-0.388,0.117,0.588,-3.405,-3.916,-11.618,143,0
43027,-0.964,0.227,0.97,0.588,23.817,3.908,155,0
43088,-0.518,0.106,0.684,-8.511,-13.458,-5.832,154,0
43152,-0.8,0.19,0.75,4.809,22.771,1.832,144,0
43212,-0.612,0.091,0.847,0.863,-0.611,-0.969,141,0
43273,-0.704,0.131,0.715,1.588,-1.267,-5.756,142,0
43328,-0.72,0.161,0.81,-0.885,-2.031,-0.885,47,0
43383,-0.638,0.139,0.766,7.298,0.267,-6.702,46,0
43450,-0.699,0.06,0.829,8.305,0.282,-0.908,143,0
43509,-0.709,0.201,0.613,-1.328,10.382,-7.687,142,0
43569,-0.569,-0.217,0.921,16.351,-7.053,-12.74,143,0
43617,-0.612,0.459,0.683,22.664,39.718,-26.885,47,87
43668,-1.25,0.044,1.047,-30.489,-121.672,-36.221,47,86
43720,-0.175,-0.042,0.445,63.817,-57.916,-29.435,133,88
43773,-1.058,0.547,0.848,-14.863,83.031,5.763,138,87
43829,-0.695,-0.248,0.869,-21.763,-168.313,-28.939,51,0
43888,0.019,0.512,0.283,40.511,84.359,-9.221,134,0
43941,-1.523,-0.286,1.39,-47.718,-145.733,-13.481,51,182
44001,0.549,0.283,0.152,48.168,-19.069,-23.099,132,181
44059,-1.466,-0.215,1.346,-49.45,15.947,10.626,135,182
44118,0.162,0.135,0.599,36.008,-105.344,-29.618,132,181
44178,-1.128,0.096,1.289,-42.977,55.977,18.137,133,180
44236,0.006,0.05,0.765,22.321,-135.221,-31.672,132,180
44295,-0.767,0.217,1.02,-22.672,90.046,19.885,133,180
44353,-0.307,-0.098,0.948,10.45,-156.779,-28.069,132,179
44411,-0.431,0.319,0.907,-6.191,90.886,15.794,132,179
44469,-0.408,-0.044,1.072,-9.534,-137.031,-12.71,123,160
44525,0.093,0.156,0.65,6.641,102.763,1.298,122,161
44581,-1.028,-0.012,1.474,-15.687,-50.389,5.702,124,159
44639,0.349,-0.053,0.476,8.389,-12.718,-4.794,59,179
44736,-0.208,-0.107,0.922,-12.099,-123.45,-12.855,59,180
44790,-0.052,0.201,0.825,18.42,74.748,21.267,60,180
44847,-0.371,0.052,1.064,-32.237,-84.305,-14.328,122,160
44901,-0.112,0.035,0.972,23.237,30.893,27.84,58,181
44955,-0.119,0.331,1.019,-12.458,-46.618,-14.679,58,181
45008,-0.318,-0.245,1.189,1.489,-17.023,20.405,41,181
45062,0.236,0.542,0.861,5.023,-12.107,-21.069,44,181
45115,-0.477,-0.478,1.208,-11.137,24.992,21.435,40,181
45171,0.413,0.457,0.717,26.901,-29.908,-24.954,51,180
45225,-0.526,-0.145,1.291,-40.84,-1.84,1.695,46,181
45279,0.252,-0.086,0.915,34.863,-35.115,-21.55,39,180
45332,-0.44,0.401,1.105,-4.756,111.344,1.046,43,179
45385,-0.517,-0.433,1.265,-33.87,-167.038,0.115,42,180
45438,1.009,0.239,0.141,55.702,130.237,-35.519,45,179
45493,-1.592,0.099,1.856,-43.031,45.649,31.046,51,179
45546,0.74,-0.179,0.569,22.046,-210.031,-43.366,43,180
45602,-0.521,0.398,1.008,-10.145,245.664,31.756,51,179
45657,-0.637,-0.351,1.313,-20.137,-212.389,-27.038,58,179
45710,0.488,0.469,0.495,27.969,155.481,11.496,46,179
45763,-0.875,-0.124,1.519,-35.641,-69.985,-17.351,45,179
45816,0.304,-0.042,0.717,19.237,8.427,9.672,38,179
45870,-0.314,0.305,1.178,-14.351,17.656,-14.351,43,179
45931,-0.111,-0.235,1.077,17.061,-24.382,12.473,37,179
45984,0.036,0.419,0.924,-5.863,33.466,-20.412,38,179
46036,-0.528,-0.447,1.264,-5.748,-19.519,16.542,37,179
46093,0.402,0.523,0.677,15.702,8.924,-25.87,38,179
46145,-0.707,-0.406,1.319,-19.046,13.687,17.443,38,178
46198,0.318,0.311,0.777,24.229,-44.038,-15.214,39,179
46252,-0.407,-0.253,1.159,-17.87,57.099,7.519,51,178
46306,-0.028,0.128,1.12,17.824,-74.473,-5.893,57,179
46359,-0.083,0.072,0.919,-4.771,101.496,-12.412,42,178
46412,-0.775,-0.025,1.409,-6.45,-79.511,15.336,58,178
46466,0.679,0.149,0.483,19.145,38.42,-19.405,38,178
46523,-1.155,0.046,1.635,-13.321,21.359,19.611,58,178
46576,0.578,-0.117,0.642,5.168,-107.947,-21.565,58,178
46630,-0.497,0.266,1.096,20.71,183.176,17.962,59,178
46684,-0.417,-0.079,1.155,-29.008,-162.267,-12.496,51,178
46738,0.511,-0.009,0.458,26.427,124.573,-4.176,51,178
46791,-1.141,0.166,1.608,-19.481,-26.351,6.794,59,178
46845,0.666,-0.233,0.538,6.168,-41.198,-13.344,58,178
46900,-0.727,0.315,1.4,6.481,93.282,10.466,59,178
46953,-0.033,-0.255,0.889,-19.595,-102.359,-7.061,49,178
47010,-0.198,0.388,1.05,29.389,95.435,4.55,61,178
47064,-0.406,-0.12,1.1,-42.473,-72.886,-5.847,54,178
47118,0.074,0.009,0.878,44.244,45.55,10.763,51,178
47171,-0.46,0.211,1.154,-24.221,1.885,-12.168,57,178
47225,-0.104,-0.304,0.996,5.42,-28.145,10.26,58,178
47280,-0.141,0.426,0.982,11.344,50.046,-8.206,58,178
47333,-0.492,-0.279,1.173,-22.931,-49.359,8.832,58,178
47387,0.228,0.297,0.736,34.832,41,-6.985,59,179
47483,-0.047,-0.29,0.818,0.061,-45.374,-0.878,45,179
47541,-0.352,0.353,1.08,13.313,64.649,7.733,57,179
47595,-0.243,-0.079,1.01,-27.603,-65.107,0.748,60,179
47649,0.01,0.036,0.825,25.092,77.015,8.718,61,179
47703,-0.679,0.146,1.257,8.824,13.015,3.618,60,179
47757,0.042,-0.16,0.87,-8.328,-44.733,-4.412,58,179
47814,-0.378,0,0.96,30.626,110.176,14.588,123,161
47870,-0.568,0.367,1.118,-15.275,-27.641,4.267,131,152
47925,-0.034,-0.187,0.837,13.771,-11.504,2.046,58,180
47979,-0.42,0.494,1.074,8.908,66.687,5.305,61,180
48039,-0.477,-0.343,0.988,-22.809,-51.748,9.893,123,181
48098,-0.076,0.436,0.848,31.176,39.557,4.29,124,180
48156,-0.611,-0.097,1.113,-21.237,-30.885,5.008,123,181
48214,-0.084,0.171,0.849,26.695,-1.321,11.763,123,181
48272,-0.333,0.259,1.037,-27.55,9.053,-9.618,123,181
48330,-0.564,-0.031,1.138,27.26,18.389,29.344,121,181
48387,-0.031,0.546,0.813,-21.321,-26,-18.214,120,163
48445,-0.693,-0.211,1.117,2.679,45.756,33.557,121,182
48514,0.069,0.535,0.725,-16.908,-16.939,-13.267,121,162
48574,-0.803,-0.194,1.287,7.214,21.679,23.58,129,182
48633,0.015,0.438,0.687,-9.458,-3.168,-11.58,129,154
48693,-0.792,-0.116,1.248,5.985,27.351,35.13,130,153
48752,0.207,0.6,0.675,-1.679,-27.206,-16.542,120,163
48813,-0.965,-0.155,1.385,-2.061,39.855,33.954,121,183
48872,0.234,0.448,0.543,-8.771,-33.084,-15.878,120,164
48932,-0.971,-0.037,1.47,7.679,27.122,32.252,129,183
48994,0.333,0.408,0.514,-11.458,-12.885,-18.229,121,182
49057,-0.972,-0.011,1.502,9.534,-13.664,17.84,129,183
49118,0.129,0.319,0.606,-15.069,25.427,-10.305,129,183
49179,-0.877,0.072,1.492,5.748,-43.015,10.802,129,183
49240,0.049,0.118,0.635,-5.153,72.359,-1.359,121,183
49300,-0.7,0.246,1.372,10.588,-100.229,10.214,120,183
49360,-0.039,-0.175,0.674,-7.55,108.42,4.351,120,183
49417,-0.516,0.356,1.12,7.687,-125.985,-7.328,37,183
49477,-0.166,-0.241,0.761,-8.634,103.908,19.412,120,183
49541,-0.142,0.489,0.892,-0.42,-106.863,-13.725,127,184
49601,-0.701,-0.275,1.162,3.458,112.092,35.229,121,184
49657,0.272,0.612,0.591,-13.214,-95.183,-25.542,37,184
49718,-0.879,-0.239,1.333,0.527,90.618,33.443,121,184
49778,0.229,0.548,0.572,-11.443,-58.344,-21.015,120,184
49840,-0.972,-0.047,1.58,9.672,14.771,21.931,120,184
49900,0.213,0.335,0.557,-22.382,12.908,-15.954,119,184
49960,-0.942,0.093,1.564,22.198,-47.435,15.168,127,185
50022,0.053,0.156,0.613,-23.916,81.916,-10.992,119,184
50085,-0.487,0.3,1.243,15.649,-111.855,0.015,120,185
50141,-0.214,-0.076,0.824,-8.45,115.931,12.069,38,184
50202,-0.426,0.328,1.092,6.038,-119.504,-10.168,120,185
50257,-0.488,-0.135,0.954,-3.649,122.221,15.931,37,184
50318,-0.328,0.337,1.016,1.214,-111.985,-8.176,119,185
50374,-0.355,-0.155,0.893,3.901,122.435,13.885,37,185