Timestamp(ms),AccelX(g),AccelY(g),AccelZ(g),GyroX(deg/s),GyroY(deg/s),GyroZ(deg/s),DistanceLeft(cm),DistanceRight(cm)
21707,-0.195,-0.185,0.967,-0.26,6.29,-3.45,121,191
21766,-0.227,-0.192,0.983,-4.275,19.489,-0.992,121,191
21824,-0.297,-0.225,1.033,-4.336,19.603,0.191,121,191
21882,-0.364,-0.308,1.098,10.29,-0.71,2.206,122,192
21941,-0.258,-0.279,1.095,42.427,-3.656,17.496,122,192
21999,-0.153,-0.137,0.954,53.664,27.42,19.786,121,191
22057,-0.167,-0.033,0.837,31.695,42,1.046,122,191
22118,-0.227,0.063,0.767,-6.298,60.802,-23.084,123,190
22176,-0.463,-0.022,0.914,-32.214,77.565,-37.939,125,190
22236,-0.847,-0.258,1.14,-1.076,19.656,-7.038,125,189
22294,-0.534,-0.065,0.881,19.389,9.481,23.511,126,190
22352,-0.429,-0.051,0.821,-2.618,4.076,14.611,126,0
22411,-0.391,-0.094,0.844,-21.679,-4,-11.794,125,191
22470,-0.518,-0.196,1.003,-16.809,8.71,-20.305,125,190
22529,-0.563,-0.209,0.996,15.321,15.153,2.13,126,191
22588,-0.47,-0.154,0.913,28.008,21,13.053,126,0
22644,-0.497,-0.151,0.905,31.168,20.328,2.58,40,0
22699,-0.508,-0.066,0.832,39.405,48.267,-0.473,39,0
22753,-0.598,0.011,0.814,36.962,59.489,-2.336,43,0
22807,-0.95,-0.05,1.006,35.893,46.305,24.901,38,0
22860,-1.02,0.049,0.96,78.725,36.26,82.427,36,0
22915,-0.945,0.106,0.889,91.229,-12.252,111.267,35,0
22968,-0.624,0.224,0.695,100.023,-59.084,103.504,31,0
23022,-0.403,0.36,0.58,87.42,-62.336,85.542,29,0
23075,-0.26,0.529,0.433,58.473,-51.878,48.763,28,0
23132,-0.159,0.647,0.515,19.084,-31.878,10.397,26,0
23185,-0.136,0.745,0.592,-24.008,-8.496,-17.42,26,0
23239,-0.523,0.421,0.695,-29.794,42.366,0.023,29,0
23292,-0.539,0.658,0.874,-16.672,37.977,9.802,30,0
23346,-0.468,0.561,0.786,-10.878,-6.084,-7.252,30,0
23400,-0.61,0.431,0.87,-14.092,-37.588,-6.382,30,0
23453,-0.453,0.492,0.783,-2.191,-36.519,7.389,28,0
23506,-0.275,0.521,0.631,-10.626,3.015,2.756,27,0
23560,-0.198,0.532,0.397,-48.466,48.74,-15.527,29,0
23617,-0.209,0.499,0.64,-105.74,55.069,-50.618,30,0
23670,-0.438,0.252,0.838,-124.229,-1.748,-65,30,0
23725,-0.559,0.21,1.033,-107.863,-16.313,-74.382,31,0
23779,-0.836,-0.183,1.264,-73.435,-4.176,-68.198,35,0
23833,-0.805,-0.105,1.039,1.313,32.344,18.305,36,0
23886,-0.56,0.15,0.96,24.427,33.344,31.603,35,0
23941,-0.422,0.129,0.764,7.344,-3.336,10.214,35,0
23995,-0.358,0.109,0.722,-24.496,-6.328,-24.695,34,0
24048,-0.354,0.067,0.798,-46.45,-3.649,-61.847,35,0
24105,-0.526,-0.057,0.885,-50.664,47.038,-58.733,37,0
24153,-0.813,-0.121,0.863,-21.496,95.84,-20.366,38,73
24200,-0.882,-0.11,0.898,0.832,72.221,-2.237,38,71
24246,-0.781,-0.124,0.819,9.298,14.389,-7.359,39,71
24293,-0.757,-0.187,0.683,7.069,-1.748,-5.824,39,71
24340,-0.769,-0.111,0.689,3.046,9.687,6.489,40,71
24386,-0.756,-0.05,0.742,2.969,-2.832,5.069,40,71
24476,-0.65,-0.061,0.728,-5.267,-12.855,-7.115,40,72
24535,-0.817,-0.165,0.909,9.076,-0.137,8.779,198,72
24582,-0.959,-0.204,1.093,65.847,2.267,49.763,37,73
24629,-0.934,-0.061,1.029,110.237,-20.168,74.122,35,75
24683,-0.858,0.2,0.975,130.053,-33.076,82.397,33,0
24737,-0.813,0.283,0.806,140.527,-71,101.321,37,0
24791,-0.614,0.349,0.674,143.076,-92.092,105.359,28,0
24845,-0.336,0.474,0.552,130.939,-83.389,102.794,29,0
24898,-0.234,0.509,0.422,106.863,-46.031,95.344,25,0
24951,-0.154,0.617,0.436,83.763,-21.046,80.687,23,0
25008,-0.021,0.706,0.451,64.886,-15.847,49.282,23,0
25062,0.019,0.764,0.451,49.214,-14.328,24.267,23,0
25115,0.083,0.867,0.395,28.618,6.069,1.107,23,0
25168,-0.01,0.932,0.41,-2.977,20.786,-19.427,24,0
25222,-0.101,0.902,0.428,-20.099,13.557,-28.618,27,0
25276,-0.018,0.864,0.375,-31.359,17.153,-42.702,22,0
25329,-0.227,0.952,0.551,-43.16,29.053,-58,23,0
25382,-0.922,0.523,0.904,-0.756,2.382,3.939,23,0
25436,-0.065,1.007,0.581,14.481,9.786,52.649,22,0
25492,0.215,0.879,0.455,-14.534,14.725,-8.656,22,0
25546,-0.431,0.72,0.62,-12.771,32.87,-23.344,23,0
25600,-0.443,0.807,0.566,6.374,20.229,6.779,22,0
25653,-0.209,0.91,0.58,-0.992,6.687,-1.794,22,0
25706,-0.321,0.821,0.637,-1.664,-20.527,-9.595,22,0
25760,-0.228,0.865,0.49,4.794,-17.733,-7.267,22,0
25814,-0.223,0.91,0.474,5.824,6.786,-3.099,23,0
25867,-0.252,1.006,0.34,-0.191,18.939,-0.626,23,0
25920,-0.312,1.212,0.18,-25.16,42.649,12.641,22,0
25976,-0.51,0.989,0.596,-66.458,49.328,43.389,21,0
26030,-0.439,0.59,1.223,-34.527,-44.206,50.947,19,0
26084,-0.035,0.517,1.191,38.45,-117.908,25.481,18,0
26137,0.173,0.798,0.934,55.489,-72.504,17.328,16,0
26190,-0.106,0.74,0.957,37.947,-50.412,25.282,19,0
26244,-0.232,0.662,0.823,42.137,-106.053,10.687,23,0
26297,-0.15,0.662,0.463,56.863,-136.641,-13.015,19,0
26351,-0.047,0.732,0.223,57.771,-107.305,-23.885,25,0
26404,-0.027,0.84,0.089,56.122,-60.008,-24.824,23,0
26462,-0.015,0.92,0.035,54.969,-23.542,-18.603,25,0
26515,-0.01,0.96,0.034,53.527,-22.992,-14.519,29,0
26569,0.012,0.999,0.008,44.847,-40.282,-14.611,30,0
26631,0.104,0.961,-0.031,25.351,-48.863,-25.779,158,0
26685,0.313,1.065,-0.105,-4.511,-39.786,-57.71,27,0
26739,0.345,1.132,-0.124,-36.588,16,-88.374,27,0
26792,-0.606,1.039,0.342,-46.863,130.489,-37.794,29,0
26847,-0.55,1.017,0.575,-13.122,9.641,1.901,31,0
26901,0.046,1.077,0.244,9.702,-107.672,-13.908,29,0
26958,0.184,1.101,0.067,-12.198,11.191,-22.603,28,0
27012,-0.3,0.976,0.354,-16.557,75.145,-0.168,30,0
27066,-0.346,0.954,0.43,2.954,-4.42,-0.863,30,0
27120,-0.094,1.002,0.206,7.763,-28.053,-7.992,29,0
27217,-0.188,0.98,0.187,-7.611,23.672,-2.13,29,0
27272,-0.122,0.875,-0.025,-15.496,18.443,-8.443,28,0
27324,-0.049,0.809,-0.355,-59.519,62.916,-34.328,28,176
27377,-0.111,0.873,-0.201,-109.687,111.389,-64.893,30,175
27431,-0.56,1.055,0.151,-130.565,156.672,-55.198,30,0
27489,-1.147,1.251,0.535,-118.115,187.183,15.374,30,0
27543,-1.288,1.111,0.945,-78.45,76.802,87.641,30,0
27596,-0.779,0.808,0.802,-31.634,-0.733,130.626,28,0
27642,-0.421,0.628,0.557,-10.282,29.191,146.038,22,56
27696,-0.317,0.519,0.612,-12.42,35.252,141.489,20,0
27749,-0.108,0.51,0.533,-12.947,5.733,112.779,18,0
27803,0.058,0.553,0.593,-7.321,-20.29,78.298,16,0
27856,0.197,0.663,0.643,12.183,-37.038,44.992,18,0
27910,0.282,0.832,0.542,14.084,-12.939,24.282,17,0
27966,0.255,0.836,0.525,12.038,-1.458,9.397,16,0
28019,0.278,0.892,0.396,9.282,4.374,-9.153,17,0
28072,0.275,0.938,0.347,0.206,15.107,-28.061,18,0
28127,0.493,0.945,0.314,-25.015,15.74,-73.519,16,0
28180,0.233,0.978,0.391,-57.656,68.389,-117.198,17,0
28226,-1.092,0.566,0.803,-24.275,167.672,11.153,19,64
28271,-0.671,1.016,1.053,26.244,-8.29,19.573,22,57
28324,0.028,1.142,0.457,29.756,-149.969,-11.191,19,0
28379,0.301,0.928,0.133,-9.206,-4.214,-8.351,20,0
28428,-0.239,0.843,0.594,-9.58,83.023,7.847,24,67
28482,-0.359,0.87,0.708,7.992,-2.969,-3.817,23,0
28541,-0.061,0.914,0.448,9.832,-53.504,-7.733,23,0
28595,0.044,0.967,0.376,-2.748,2.504,-2.901,23,0
28647,-0.106,0.9,0.513,-4.069,24.305,-3.099,19,0
28700,-0.148,0.883,0.544,1.084,4.565,-5.046,26,0
28753,-0.108,0.921,0.477,1.26,-1.26,-6.298,23,0
28806,-0.125,0.934,0.475,-2.252,8.397,-6.382,23,0
28859,-0.16,0.919,0.515,-2.443,7.191,-5,22,0
28914,-0.152,0.916,0.533,-0.634,4.153,-1.786,21,0
28967,-0.151,0.905,0.536,1.656,7.458,-0.748,19,0
29012,-0.158,0.893,0.613,5.687,5.519,0.588,19,66
29057,-0.165,0.791,0.725,20.985,-16.145,-3.198,19,58
29102,-0.095,0.761,0.639,43.321,-43.573,-19.931,18,57
29146,-0.046,0.772,0.513,44.458,-41.275,-37.122,19,57
29191,-0.115,0.86,0.263,26.771,-44.725,-59.13,23,57
29248,-0.065,1.114,-0.122,-14.985,-0.947,-67.634,102,0
29302,-0.459,1.146,-0.044,-70.229,44.542,-38.832,32,0
29349,-0.568,1.369,0.171,-121.824,56.183,13.916,23,52
29404,-0.616,1.249,0.606,-143.313,38.519,61.679,29,0
29448,-0.484,0.832,1.107,-105.313,-6.817,97.191,17,61
29493,-0.263,0.523,1.309,-45.908,-56.069,100.038,16,57
29538,0.01,0.262,1.343,17.878,-91.756,72.237,16,61
29582,0.217,0.185,1.113,64.893,-100.427,24.046,12,63
29627,0.267,0.205,0.837,77.099,-88.031,-22.885,11,66
29679,0.199,0.229,0.644,65.702,-70.947,-61.947,11,0
29731,0.075,0.353,0.379,44.267,-51.038,-104.26,16,0
29831,-0.311,0.801,-0.115,1.763,-11.038,-146.824,20,0
29884,-0.596,1.209,-0.3,-46.947,40.687,-118.458,24,0
29937,-0.76,1.573,-0.131,-103.29,117.542,-45.115,26,0
29991,-0.955,1.494,0.586,-158.58,137.725,44.641,25,0
30045,-0.968,0.928,1.208,-145.824,40.87,102.756,21,0
30090,-0.608,0.248,1.521,-60.626,-42.542,120.008,26,61
30134,-0.08,0.01,1.318,29.573,-68.702,81.664,16,52
30179,0.206,0.144,0.85,66.565,-40.328,39.618,14,57
30224,0.011,0.447,0.532,49.305,8.038,5.511,19,62
30271,-0.258,0.781,0.442,6.527,48.893,-9.947,16,61
30316,-0.438,0.768,0.651,-16.534,26.015,0.023,16,62
30361,-0.314,0.744,0.762,-16.87,-27.809,-1.763,21,61
30406,-0.12,0.727,0.759,-5.855,-52.038,-5.443,17,57
30450,-0.014,0.781,0.701,5.74,-32.107,-4.656,16,58
30495,-0.044,0.793,0.72,8.168,-0.069,1.328,16,66
30540,-0.138,0.798,0.734,6.748,13.878,3.466,23,58
30585,-0.2,0.744,0.746,6.626,3.168,-0.031,23,63
30630,-0.181,0.734,0.743,7.679,-11.504,-3.924,16,57
30679,-0.185,0.741,0.748,8.496,-7.985,-0.542,23,65
30724,-0.253,0.727,0.87,17.58,-6.481,7.893,22,65
30770,-0.234,0.777,0.881,31.809,-36.267,11.023,26,66
30823,-0.081,0.805,0.761,45.893,-63.008,1.985,23,0
30876,0.062,0.822,0.537,48.29,-41.26,-7.069,20,0
30921,0.572,1.069,0.21,15.061,6.786,-59,17,59
30965,0.431,0.934,0.254,-42.87,72.618,-119.893,19,58
31010,-0.054,0.713,0.491,-64.756,58.992,-175.122,19,54
31055,-0.476,0.636,0.478,-74.977,124.58,-125.847,26,51
31112,-1.553,0.069,0.626,-27.885,134.061,-26.267,22,0
31156,-1.077,0.461,0.899,31.366,-15.55,33.389,21,47
31201,-0.164,1.072,0.758,32.489,-105.427,-23.55,19,51
31245,-0.015,0.791,0.352,-8.45,-39.863,-45.496,18,48
31298,-0.474,0.51,0.386,-31.313,91.084,-15.115,19,0
31342,-1.058,0.375,0.826,-6.13,60.748,7.374,21,42
31387,-0.615,0.695,0.848,11.618,-72.672,-26,21,44
31431,-0.329,0.661,0.406,-4.198,-53.733,-29.695,20,47
31478,-0.585,0.536,0.543,-15.611,53.641,10.809,20,43
31522,-0.768,0.58,0.814,2.58,16.496,11.809,21,44
31576,-0.572,0.672,0.691,13.672,-43.16,1.008,21,0
31629,-0.417,0.672,0.543,4.611,-15.954,4.74,20,0
31682,-0.51,0.613,0.629,-0.366,12.038,7.023,20,0
31735,-0.541,0.581,0.66,2.206,-8.076,3.244,20,0
31789,-0.456,0.554,0.65,8.145,-8.412,5.13,20,0
31842,-0.372,0.461,0.713,22.855,17.748,3.252,20,0
31887,-0.319,0.462,0.713,34.374,31.931,-6.985,22,47
31931,-0.399,0.552,0.269,28.748,98.321,4.466,25,45
31979,-1.199,0.712,0.127,-38.771,190.756,83.099,28,42
32024,-1.431,0.821,0.331,-72.58,23.366,95.573,37,36
32072,-0.581,1.018,0.087,-97.344,-63.466,98.969,106,37
32121,-0.364,0.96,0.257,-117.168,20.389,126.84,103,41
32171,-0.417,0.812,0.795,-105.031,19.015,141.397,99,46
32264,0.4,0.463,1.013,-37.924,8.489,91.26,95,63
32313,0.263,0.513,1.063,3.13,36.031,2.198,95,66
32363,-0.234,0.74,0.655,21.26,32.107,-43.298,96,62
32412,-0.736,0.851,0.552,-1.901,15.45,12.977,97,62
32464,-0.183,0.666,0.695,-17.87,-26.038,34.901,96,48
32514,0.079,0.629,0.729,-11.779,4.42,-1.405,96,48
32563,-0.247,0.637,0.896,-3.099,19.519,-19.29,97,48
32612,-0.246,0.669,0.868,-1.542,-16.863,-37.382,98,48
32661,-0.146,0.625,0.891,-4.603,-58.351,-76.733,99,48
32710,-0.031,0.648,0.727,-10.969,-85.443,-121.626,101,58
32760,-0.255,0.588,0.743,-26.473,-64.802,-126.84,103,50
32805,-0.439,0.556,0.836,-32.496,-83.237,-119.573,22,51
32854,-0.39,0.525,0.807,-30.534,-104.55,-119.794,22,54
32907,-0.384,0.454,1.004,-28.427,-130.397,-107.13,23,0
32961,-0.329,0.383,1.033,-17.802,-178.817,-113.595,24,0
33026,-0.029,0.329,0.995,2.183,-192.634,-119.534,0,0
33079,-0.148,0.713,0.834,14.855,-94.733,-71.565,25,195
33132,-0.392,0.825,0.85,13.481,32.824,38.122,26,196
33186,-0.474,0.635,1.036,3.382,11.435,109.725,30,0
33240,0.132,0.215,1.003,-0.122,-81.412,113.489,20,0
33294,0.924,-0.016,0.873,12.824,-87.42,49.382,19,0
33350,1.167,0.003,0.725,2.901,0.214,-49.435,16,0
33403,0.521,0.165,0.863,-15.076,42.802,-115.931,21,0
33457,-0.266,0.647,0.935,-11.756,31.45,-116.198,21,197
33512,-0.735,0.91,0.857,6.519,27.985,-24.824,58,196
33566,-0.327,0.7,0.896,-0.366,6.099,70.634,22,199
33625,0.515,0.292,1.012,-18.618,-55.847,61.015,115,0
33678,1.049,0.158,0.765,-26.931,-7.061,-25.679,17,0
33732,0.401,0.2,0.967,-43.672,37.855,-79.504,23,0
33785,-0.088,0.416,1.026,-46.634,-13.588,-90.351,27,197
33843,-0.075,0.427,0.982,-48.099,-7.695,-51.954,27,195
33897,-0.012,0.365,1.074,-42.496,-10.931,-27.366,48,194
33952,0.15,0.3,1.039,-37.603,-9.947,-20.282,51,193
34008,0.117,0.213,1.087,-27.046,-3.321,-15.893,45,192
34062,0.093,0.228,1.085,-14.687,1.58,-10.725,47,192
34116,0.087,0.209,1.075,-6.282,-1.588,-5.817,44,192
34171,0.13,0.223,1.024,-2.603,2.534,-2.634,47,192
34226,0.113,0.224,1.037,-1.58,3.496,-0.634,47,191
34283,0.146,0.238,1.033,-1.298,1.962,-1.031,37,192
34337,0.138,0.221,1.031,-1.191,-0.42,-1.55,30,192
34392,0.162,0.23,1.005,-2.557,3.092,-4.565,50,192
34447,0.153,0.208,0.98,-3.733,10.626,-5.885,49,191
34501,0.143,0.049,0.974,3.008,27.725,-11.282,46,191
34555,0.147,0.071,0.945,22.42,68.511,-22.153,39,190
34609,-0.105,0.046,1.43,57.702,137.969,0.504,29,190
34668,-0.356,0.167,1.558,144.359,96.733,19.137,116,189
34721,-0.111,0.678,0.884,185.886,94.015,44.405,30,188
34778,0.063,1.26,0.167,83.939,25.244,29.099,26,188
34837,0,0.817,0.092,-50.313,52.359,-25.55,127,187
34891,-0.903,0.445,1.169,-0.328,53.397,21.725,26,0
34989,-0.348,1.072,0.14,-57.221,112.313,12.924,26,0
35042,-1.078,0.563,1.077,-69.802,93.565,67.641,24,0
35102,0.327,-0.227,1.38,-22.214,-157.023,-3.115,26,0
35155,0.573,0.594,0.146,6.931,102.656,-40.954,22,0
35209,-1.39,0.722,0.914,-23.527,156.573,7.588,23,0
35262,-0.573,0.455,0.862,-25.733,-80.031,-12.565,25,0
35317,0.008,0.557,0.754,-20.794,55.305,5.015,23,0
35371,-0.675,0.403,1.044,-0.115,26.733,-11.099,25,0
35424,-0.456,0.508,0.723,2.473,3.176,-4.115,25,0
35477,-0.477,0.496,0.704,-3.382,30.695,1.412,26,0
35530,-0.43,0.495,0.718,-0.534,40.45,-2.634,25,0
35584,-0.617,0.488,0.822,-6.649,15.015,-10.145,26,0
35637,-0.566,0.672,0.852,-15.122,6.145,-10.489,25,0
35690,-0.603,0.441,0.812,-3.443,15.405,-1.565,29,0
35743,-0.46,0.458,0.736,2.71,-1.947,-3.313,26,0
35800,-0.554,0.47,0.705,-6.45,15.954,-6.511,23,0
35853,-0.63,0.45,0.784,-12.702,0.435,-11.076,26,0
35906,-0.547,0.485,0.728,-9.527,5.87,-4.099,22,0
35959,-0.631,0.427,0.815,0.496,5.748,-0.473,26,0
36012,-0.526,0.405,0.734,-1.786,4.55,-2.107,23,0
36065,-0.747,0.45,0.776,-3.466,10.702,3.443,22,0
36118,-0.597,0.454,0.771,13.214,-7.748,15.718,20,0
36171,-0.35,0.439,0.674,7.748,0.473,3.168,20,0
36224,-0.676,0.458,0.774,-0.679,11.397,-2.618,22,0
36277,-0.822,0.46,0.842,23.595,-5.221,23.244,21,0
36333,-0.406,0.43,0.669,16.252,-6.443,8.351,22,0
36386,-0.695,0.518,0.795,15.389,2.405,15.344,21,0
36440,-0.495,0.617,0.746,16.427,-27.504,13.962,23,0
36493,-0.462,0.64,0.69,17.435,-7.985,16.29,21,0
36546,-0.323,0.625,0.615,12.702,-18.115,16.954,21,0
36599,-0.335,0.592,0.549,2.893,14.313,6.748,21,0
36653,-0.44,0.643,0.61,-10.427,14.29,-1.168,22,0
36706,-0.456,0.602,0.752,-17.298,4.954,-5.397,22,0
36759,-0.512,0.531,0.766,-12.282,6.588,-7.008,21,0
36815,-0.538,0.541,0.813,-0.084,-0.977,-3.664,22,0
36869,-0.598,0.578,0.824,7.595,1.26,-1.87,22,0
36921,-0.602,0.591,0.712,5.74,-4.588,12.443,22,0
36974,-0.457,0.525,0.717,6.168,-12.359,9.374,22,0
37027,-0.496,0.592,0.672,8.344,-0.328,7.71,22,0
37081,-0.422,0.634,0.58,0.931,0.611,8.374,22,0
37134,-0.318,0.421,0.704,-6.534,4.908,-6.069,23,0
37187,-0.466,0.62,0.699,7.466,12.244,-15.397,23,0
37240,-0.543,0.781,0.588,-13.641,11.382,-11.275,23,0
37297,-0.601,0.536,0.832,-15.672,-2,-1.023,27,0
37350,-0.455,0.585,0.892,6.504,4.053,0.214,23,0
37403,-0.567,0.673,0.702,7.931,-3.397,-2.305,24,0
37458,-0.552,0.555,0.654,0.611,-6.893,8.443,48,0
37522,-0.399,0.586,0.696,6.137,-8.855,2.504,0,0
37575,-0.57,0.617,0.637,-4.916,7.626,6.901,30,0
37628,-0.375,0.554,0.704,-2.069,-7.977,4.84,23,0
37725,-0.533,0.618,0.733,4.916,1.145,-6.626,24,0
37778,-0.443,0.69,0.663,-3.458,4.893,-1.29,23,0
37831,-0.441,0.555,0.731,-1.595,-0.603,-3.939,22,0
37888,-0.53,0.599,0.744,0.527,5.046,-1.252,22,0
37941,-0.469,0.563,0.706,-4.038,2.504,-2.45,24,0
37994,-0.512,0.585,0.719,3.008,-0.634,-1.557,23,0
38047,-0.525,0.621,0.694,-2,3.733,0.397,23,0
38100,-0.492,0.567,0.745,0.076,-1.282,-1.412,23,0
38154,-0.489,0.615,0.745,3.84,-1.137,1.321,23,0
38208,-0.471,0.615,0.688,3.153,-0.069,0.275,24,0
38261,-0.459,0.655,0.648,1.603,-1.267,0.099,25,0
38315,-0.453,0.569,0.741,-4.832,1.206,1.435,23,0
38371,-0.43,0.546,0.769,6.786,-1.137,-5.504,23,0
38424,-0.521,0.646,0.746,20.038,1.214,-6.695,22,0
38477,-0.505,0.797,0.474,-2.519,0.817,1.214,26,0
38531,-0.534,0.442,0.79,-10.832,-7.412,10.328,24,0
38585,-0.323,0.53,0.763,5.183,-2.023,-7.282,38,0
38639,-0.61,0.745,0.636,9.115,6.321,-3.038,31,0
38694,-0.492,0.657,0.685,1.374,-9.038,6.214,58,0
38748,-0.418,0.549,0.761,1.84,-3.962,2.382,22,0
38802,-0.43,0.712,0.579,-1.847,3.969,2.107,32,0
38858,-0.456,0.549,0.738,-4.214,-5.198,0.634,23,0
38912,-0.359,0.625,0.713,6.74,1.725,-3.267,32,0
38966,-0.501,0.712,0.61,1.664,4.458,-3.557,24,0
39019,-0.526,0.559,0.8,-3.718,1.618,2.985,23,0
39083,-0.436,0.619,0.778,6.794,-3.832,-1.901,0,0
39146,-0.547,0.655,0.671,3.16,0.069,4.725,0,0
39209,-0.437,0.624,0.705,6.084,-4.397,8.962,0,0
39263,-0.414,0.626,0.637,-0.084,-1.405,-0.466,30,0
39317,-0.51,0.647,0.695,3.809,0.305,6.664,23,0
39370,-0.365,0.686,0.689,4.656,-5.305,5.015,23,0
39427,-0.404,0.65,0.649,3.695,4.038,3.893,23,0
39480,-0.354,0.705,0.641,-2.374,-4.015,0.611,23,0
39543,-0.412,0.627,0.697,-1.901,3.565,-3.405,0,0
39598,-0.482,0.671,0.722,0.611,4.962,0.053,27,0
39651,-0.389,0.558,0.818,5.374,-7.351,-5.214,23,0
39704,-0.47,0.708,0.624,12.702,-0.756,-10.924,23,0
39758,-0.485,0.744,0.572,-7.557,7.908,-0.168,25,0
39812,-0.451,0.534,0.825,2.84,-1.221,1.206,23,0
39865,-0.367,0.722,0.655,6.542,-2.733,-4.939,26,0
39922,-0.543,0.714,0.67,7.595,-0.863,5.473,26,0
39975,-0.446,0.737,0.754,8.588,-1.962,12.511,24,0
40030,-0.403,0.645,0.68,16.412,-8.878,4.87,24,0
40083,-0.435,0.699,0.654,12.748,0.031,10.244,25,0
40136,-0.421,0.719,0.67,20.107,-16.115,10.397,22,0
40190,-0.326,0.753,0.56,8.16,1.679,6.779,23,0
40244,-0.508,0.67,0.626,7.458,-0.71,13.344,24,0
40298,-0.365,0.794,0.75,17.031,-0.26,16.107,26,0
40351,-0.184,0.857,0.523,15.443,-4.71,8.939,23,0
40404,-0.215,0.69,0.56,0.542,-13.397,1.893,23,0
40491,-0.388,0.84,0.664,6.298,-17.298,2.16,23,55
40537,-0.281,0.744,0.6,-4.985,10.214,2.977,23,59
40582,-0.374,0.729,0.669,10.649,-10.176,0.214,24,57
40627,-0.328,0.813,0.558,8.977,5.038,2.672,24,56
40673,-0.353,0.77,0.589,3,-9.168,-0.679,24,57
40718,-0.259,0.733,0.629,1.954,2.832,-1.374,24,57
40763,-0.364,0.836,0.604,14.855,-6.618,-2.992,23,57
40809,-0.349,0.959,0.497,1.87,2.16,3.786,25,58
40854,-0.34,0.664,0.765,3.45,-9.985,4.069,23,58
40902,-0.209,0.735,0.621,36.504,-5.107,-9.573,24,57
40948,-0.53,0.895,0.557,34.122,-8.382,1.718,24,55
40993,-0.197,1.084,0.004,-10.618,6.229,7.412,25,56
41038,-0.432,0.512,0.941,-15.084,-13.046,12.885,23,56
41084,-0.022,0.853,0.545,14.947,-8.931,-9.611,23,57
41129,-0.372,1.003,0.24,-11.901,12.458,-7.504,23,56
41176,-0.359,0.797,0.531,-24.305,1.87,5.267,23,57
41221,-0.149,0.725,0.804,-21.504,-9.756,-8.824,23,57
41274,-0.23,0.752,0.764,-19.832,-47.794,-47.458,24,0
41331,-0.412,0.78,0.436,-41.389,-20.824,-30.015,26,0
41385,-0.41,0.834,0.646,-42.336,-43.748,-19.13,25,0
41440,-0.265,0.679,0.794,-64.641,-78.824,-38.756,30,0
41494,-0.268,0.489,0.751,-29.427,-22.573,-11.565,30,0
41548,-0.254,0.71,0.851,-23.069,8.237,-15.832,29,0
41603,-0.32,0.585,0.846,-12.802,26.55,-11.481,27,0
41657,-0.461,0.656,0.82,-12.458,-27.298,-13.397,26,0
41716,-0.239,0.542,0.729,-15.031,28.87,-3.58,28,0
41773,-0.344,0.677,0.906,-1.71,-20.427,-7.595,29,0
41826,-0.166,0.509,0.697,-22.275,3.771,-14.328,25,0
41879,-0.481,0.572,0.942,-10.046,24.84,-1.244,26,0
41932,-0.2,0.536,0.762,-12.557,-5.13,-12.611,24,0
41986,-0.538,0.486,1.022,-5.901,21.885,5.389,25,0
42039,-0.178,0.617,0.782,-19,-42.565,-15.252,24,0
42092,-0.37,0.479,0.884,-11.328,7.718,0.191,26,0
42145,-0.314,0.542,0.927,-13.916,-27.603,-14.382,25,0
42199,-0.236,0.425,0.857,-11.282,-14.374,-14.42,30,0
42255,-0.436,0.62,0.932,-20.176,6.55,5.901,30,0
42308,-0.133,0.401,0.955,-16.588,-45.557,-13.992,30,0
42362,-0.311,0.554,0.826,6.168,48.023,1.206,29,0
42416,-0.503,0.437,1.108,-33.863,-54.183,3.153,29,0
42468,0.129,0.316,0.715,13.076,-2.832,-17.985,30,189
42522,-0.578,0.624,0.947,-9.878,44.42,3.13,29,0
42574,-0.291,0.262,0.934,-29.107,-80.634,-2.55,30,190
42628,0.012,0.474,0.77,19.076,44.55,-5.275,30,189
42686,-0.553,0.427,1.108,-11.603,-2.55,-2.267,126,191
42742,-0.112,0.366,0.794,3.107,4.855,-0.611,30,190
42796,-0.312,0.515,1.011,-7.58,5.641,-8.595,38,191
42854,-0.308,0.289,0.927,0.939,-1.901,0.183,126,189
42907,-0.226,0.526,0.941,-10.847,-7.389,-11.092,29,190
42966,-0.4,0.296,0.985,-3.305,0.603,3.847,126,190
43019,-0.116,0.54,0.841,-0.618,-12,-16.305,32,190
43115,-0.089,0.5,0.857,2.023,-24.298,-5.985,30,189
43168,-0.351,0.263,0.993,-12.87,19.252,3.176,30,189
43220,-0.115,0.467,0.903,11.321,-18.443,-12.359,30,189
43277,-0.461,0.424,0.924,-21.84,23.977,5.695,29,189
43330,-0.158,0.264,1.057,-0.74,-42.977,-5.397,30,189
43383,-0.102,0.552,0.82,30.405,55.794,-13.206,30,189
43437,-0.732,0.464,1.14,-33.321,-33.71,7.557,30,189
43489,0.13,0.205,0.778,2.893,-24.466,-6.282,30,189
43542,-0.457,0.569,0.975,15.053,54.221,2.336,30,189
43595,-0.332,0.276,0.959,-21.771,-62.863,1.13,28,189
43649,-0.095,0.315,0.896,16.489,44.832,0.053,29,189
43701,-0.298,0.493,0.997,-11.496,-21.038,-11.458,28,189
43757,-0.313,0.325,0.931,7.55,14.229,7.55,30,189
43810,-0.206,0.537,0.9,-8.061,-13.779,-9.924,28,189
43864,-0.326,0.239,0.983,5.115,8.137,7.87,30,189
43917,-0.096,0.623,0.819,-0.84,-4.489,-12.87,28,189
43969,-0.463,0.148,1.041,-17.031,6.802,7.565,28,189
44022,-0.074,0.541,0.931,22.679,-6.519,-9.794,29,189
44076,-0.431,0.387,0.954,-22.076,11.29,7.137,29,189
44129,-0.076,0.298,0.928,14.427,-20.473,-12.298,28,189
44182,-0.391,0.569,0.922,-0.679,35.969,1.023,30,188
44237,-0.22,0.242,1.024,-16.664,-53.015,-5.229,29,188
44291,-0.117,0.419,0.866,26.992,59.137,-4.565,30,188
44344,-0.558,0.454,1.082,-31.115,-41.931,-0.962,30,188
44397,0.048,0.201,0.813,8.466,7.076,-5.115,30,188
44450,-0.479,0.598,1.029,10.679,30.763,-2.221,32,188
44504,-0.198,0.262,0.911,-25.031,-42.45,-2.221,30,188
44557,-0.199,0.3,0.957,17.84,41.725,-3.672,30,188
44610,-0.374,0.526,0.967,-9.282,-14.84,-3.092,31,188
44663,-0.321,0.108,0.943,-4.824,9.374,5.26,38,188
44720,-0.139,0.685,0.981,24.053,12.58,-0.061,37,188
44779,-0.39,0.135,0.952,-28.916,15.389,3.855,126,189
44832,-0.09,0.512,0.885,11.496,-27.183,-7.115,37,188
44886,-0.465,0.26,1.012,-5.557,23.71,4.817,34,189
44940,-0.187,0.39,0.916,-0.13,-17.863,-7.313,36,189
44993,-0.337,0.234,0.888,-13.664,27.504,-5.649,35,189
45046,-0.341,0.47,1.092,8.672,-31.756,-0.84,31,190
45101,-0.24,0.18,0.81,-9.237,37.802,-3.145,30,0
45157,-0.309,0.555,1.118,10.244,-47.435,-5.366,29,189
45210,-0.266,0.171,0.815,-12.786,44.855,4.061,33,189
45263,-0.368,0.457,1.135,6.794,-47.802,-4.305,30,190
45317,-0.156,0.231,0.788,-7.305,43.618,0.87,31,189
45370,-0.441,0.453,1.176,9.252,-35.42,-2.511,29,189
45423,-0.108,0.259,0.766,-11.221,26.42,-6.473,30,188
45477,-0.563,0.398,1.216,9.382,-9.618,5.328,30,0
45530,-0.04,0.31,0.75,-9.977,14.45,-12.489,30,188
45584,-0.51,0.404,1.22,6.198,-17.405,5.282,30,189
45639,-0.038,0.337,0.744,-8.496,10.13,-13.817,30,188
45693,-0.606,0.503,1.202,6.756,-7.489,5.214,33,188
45747,-0.067,0.35,0.733,-11.13,-7.733,-8.534,30,188
45843,-0.013,0.417,0.796,-2.015,-31.466,-15.359,30,188
45896,-0.506,0.205,1.135,3.008,21.168,13.046,33,188
45949,0.01,0.51,0.724,-4.176,-27.55,-22.832,33,188
46003,-0.611,0.213,1.179,0.527,22.496,18.321,29,188
46057,0.121,0.539,0.672,-2.061,-34.389,-23.252,36,188
46110,-0.65,0.103,1.149,-7.817,32.145,11.802,29,187
46167,0.123,0.59,0.727,1.183,-48.496,-20.405,30,188
46220,-0.61,0.073,1.123,-14.878,51.718,15.58,30,188
46273,0.046,0.573,0.839,9.13,-67.748,-22.252,29,187
46326,-0.525,0.108,1.021,-18.916,57.878,20.168,30,188
46380,0.034,0.452,0.903,10.267,-75.893,-25.718,30,187
46433,-0.479,0.181,0.969,-16.947,67.107,13.359,30,187
46486,-0.133,0.389,1.016,-1.74,-79.565,-20.916,29,187
46540,-0.237,0.285,0.96,-6.885,43.221,3.183,30,187
46594,-0.227,0.351,1.006,-1.87,-47.183,-13.55,30,187
46650,-0.21,0.247,0.895,-5.611,37.527,-4.725,29,186
46703,-0.211,0.384,1.073,-2.985,-42.84,-11.344,29,187
46756,-0.188,0.125,0.935,-3.382,41.031,2.29,30,187
46810,-0.285,0.397,1.129,-1.107,-47.908,-9.305,30,186
46863,-0.162,0.052,0.797,-12.412,42.58,-1.267,30,186
46916,-0.319,0.503,1.265,1.038,-56.198,-6.87,30,187
46969,0.01,-0.014,0.792,-10.603,54.282,0.71,30,186
47023,-0.44,0.477,1.334,9.183,-49.725,-12.435,30,186
47076,-0.074,0.203,0.808,-22.366,33.137,2.878,30,186
47132,-0.309,0.38,1.19,7,-44.725,-15.214,30,186
47186,-0.136,0.156,0.847,-16.618,30.099,-0.641,31,186
47240,-0.263,0.388,1.152,9.038,-42.366,-11.244,30,186
47293,-0.183,0.148,0.869,-15.939,37.595,4.802,31,186
47346,-0.197,0.373,1.137,9.412,-53.733,-12.382,31,186
47399,-0.178,0.125,0.873,-14.168,51.786,4.656,31,186
47454,-0.199,0.271,1.164,-3.832,-58.878,-16.893,32,186
47507,-0.183,0.109,0.881,-11.771,53.267,-5.985,34,186
47563,-0.262,0.309,1.11,-4.153,-56.679,-10.015,33,186
47618,-0.047,0.134,0.865,-11.015,46.366,-8.611,35,186
47671,-0.449,0.207,1.2,-2.733,-36.992,-0.191,35,186
47725,0.117,0.069,0.818,-9.649,15.489,-11.244,35,186
47778,-0.582,0.024,1.274,0.771,14.702,8.656,37,186
47834,0.256,0.425,0.698,-9.931,-28.611,-25.053,58,186
47888,-0.697,-0.079,1.337,-5.71,35.649,24,36,186
47941,0.295,0.377,0.609,-7.756,-34.649,-32.389,36,186
47995,-0.664,-0.078,1.39,-12.931,32.786,20.878,35,186
48052,0.327,0.276,0.698,4.534,-36.275,-27.519,36,186
48111,-0.649,0.057,1.284,-6.779,51.267,16.275,119,186
48165,0.172,0.204,0.798,-0.901,-53.389,-15.58,57,185
48220,-0.388,0.091,1.172,-2.374,60.389,8.504,38,186
48279,-0.052,0.126,0.967,2.565,-49.977,-15.641,36,186
48336,-0.28,0.081,1.038,4.504,56.58,9,120,185
48391,-0.057,0.195,0.985,-5.214,-55.771,-16.405,58,185
48445,-0.246,0.089,1.055,0.931,44.885,2.71,63,185
48498,-0.219,0.115,1.071,-1.893,-45.321,-8.595,37,185
48598,-0.605,0.115,1.302,-8.481,5.351,9.649,37,185
48651,0.185,0.177,0.794,-4.282,-30.137,-12,37,185
48705,-0.407,0.171,1.217,-2.641,33.397,4.817,58,185
48759,0.084,0.146,0.889,-9.71,-33.87,-19.221,59,185
48817,-0.372,0.05,1.154,2.87,36.611,-2.58,126,185
48871,-0.101,0.158,1.014,-5.916,-34.672,-10.916,60,185
48926,-0.199,0.062,1.042,10.55,43.916,0.939,58,185
48979,-0.397,0.134,1.133,-17.855,-26.298,8.237,58,185
49035,0.142,0.015,0.92,5.198,-1.618,-3.389,70,185
49096,-0.377,0.304,1.114,-7.992,26.046,-6.336,126,185
49150,-0.127,-0.164,1.054,-7.71,-52.427,-4.496,65,185
49206,-0.058,0.342,0.93,14.603,51.863,-8.55,65,184
49263,-0.465,-0.06,1.215,-24.084,-40.053,-1.863,125,185
49318,0.105,0.072,0.885,18.351,19.527,-5.389,62,185
49373,-0.455,0.161,1.197,-14.45,5.885,-0.137,64,185
49427,0.03,-0.042,0.973,6.214,-20.725,-1.802,57,185
49485,-0.234,0.224,1.035,1.962,39.023,-7.588,126,185
49543,-0.272,-0.19,1.093,0.947,-27.42,12.305,65,185
49598,0.128,0.339,0.855,10.191,25.603,-9.481,69,185
49652,-0.446,-0.074,1.169,-8.893,-2.305,6.061,61,185
49707,0.081,0.186,0.888,7.832,-9.458,-11.183,58,184
49765,-0.357,0.048,1.075,-15.29,24.191,-4.954,127,184
49819,-0.127,0.104,1.055,4.313,-39.649,-6.504,58,184
49874,-0.078,0.211,0.94,-15.023,43.122,-11.656,65,184
49933,-0.381,-0.105,1.137,-4.634,-30.145,-3.023,126,184
49988,0.129,0.253,0.814,-9.252,25.198,-26.824,66,184
50045,-0.611,-0.317,1.312,-13.237,7.58,3.42,68,184
50101,0.185,0.21,0.798,0.122,-11.29,-25.137,69,184
50159,-0.557,-0.072,1.236,-23.618,15.29,-6.198,127,183
50217,0.079,0.175,0.846,-0.145,-24.481,-20.221,126,183
50276,-0.395,-0.164,1.124,-19.595,22.389,-8.534,127,183
50334,-0.03,0.209,1.018,10.672,-37.237,-14.969,127,183
50391,-0.41,-0.137,1.065,-25.763,49.893,-4.344,126,160
50445,-0.063,-0.017,1.001,6.962,-53.015,-11.847,58,182
50500,-0.176,0.058,1.026,-23.802,29.153,-14.008,71,182
50557,-0.291,-0.153,1.16,10.45,-29.58,3.855,52,182
50611,0.028,0.167,0.878,-14.328,23.863,-24.763,51,182
50665,-0.455,-0.371,1.206,-6.466,-7.542,9.527,55,182
50719,0.209,0.265,0.781,10.435,1.435,-23.046,51,182
50774,-0.563,-0.236,1.197,-27.351,28.443,-1.221,59,182
50828,0.048,0.078,0.943,19.672,-57.191,-12.87,50,182
50882,-0.3,-0.079,1.048,-23.359,68.611,-3.137,52,182
50935,-0.286,-0.159,1.116,-3.13,-63.588,0.252,51,182
50993,0.188,0.055,0.748,-10.412,43.947,-19.985,49,182
51047,-0.529,-0.239,1.274,-9.328,-3.947,2.382,51,182
51100,0.107,-0.008,0.867,-3.901,-10,-12,51,182
51155,-0.297,-0.212,1.159,-9.214,25.45,-3.962,65,181
51209,-0.168,-0.073,1.046,3.771,-13.634,-5.076,48,181
51263,-0.2,-0.074,1.015,-7.282,23.733,-5.527,43,181
51316,-0.354,-0.175,1.135,5.191,-4.496,6.939,43,182
51412,-0.271,-0.211,1.16,-8.015,19.786,0.053,46,181
51467,-0.21,-0.099,0.944,8.351,-17.557,1.603,47,181
51523,-0.205,-0.164,1.051,-8.969,27.252,-0.802,47,182
51577,-0.23,-0.156,1.031,6.725,-28.931,-0.725,56,182
51632,-0.1,0.05,0.931,-5.809,25.87,-11.863,48,181
51686,-0.523,-0.402,1.262,4.298,13.954,14.87,49,182
51739,0.095,0.128,0.737,1.435,-42.855,-9.099,49,181
51793,-0.458,-0.297,1.23,-1.847,54.435,6.382,48,182
51848,-0.045,0,0.866,1.725,-54.389,-7.359,50,181
51901,-0.29,-0.124,1.071,-5.786,62.427,0.389,49,181
51955,-0.211,-0.116,0.988,8.985,-47.733,-2.779,51,182
52013,-0.172,-0.081,1.034,-10.786,30.725,-9.305,56,182
52067,-0.495,-0.257,1.162,10.924,-10.947,18.802,51,182
52121,0.309,0.123,0.548,-11.084,7.183,-17.092,54,181
52175,-0.738,-0.241,1.462,3.023,6.481,5.374,57,182
52230,0.079,-0.076,0.81,-4.076,-19.817,-0.55,58,181
52284,-0.307,-0.156,1.111,2.573,-3.779,-2.786,44,181
52337,-0.33,-0.284,1.056,17.267,6.427,18.763,51,182
52391,-0.29,0.082,1.063,19.626,-71.275,5.214,46,182
52446,-0.22,0.011,1.005,0.557,-43.412,22.908,48,183
52512,-0.107,-0.023,0.99,9.168,-36.16,29.725,50,185
52569,0.013,-0.106,1.018,4.687,-4.496,31.237,49,186
52625,0.064,0.049,0.902,15.893,36.031,21,50,187
52683,-0.243,-0.119,1.225,6.763,-20.641,24.718,67,189
52740,0.049,0.043,0.835,18.962,18.901,17.733,44,190
52797,-0.543,-0.045,1.348,-8.878,5.466,45.733,51,192
52853,0.49,0.041,0.555,17.969,-4.885,9.168,38,193
52911,-0.701,0.131,1.335,-19.832,84.603,47.115,50,195
52971,0.24,-0.115,0.871,4.824,-83.382,13.397,43,197
53027,-0.267,0.159,1.071,-10.534,118.519,34.527,42,198
53086,-0.219,-0.146,1.181,-8.695,-69.962,11.489,62,200
53143,0.039,0.133,0.874,-5.084,63.71,19.046,40,0
53199,-0.476,-0.247,1.334,-12.763,-49.099,16.397,38,0
53257,0.202,0.125,0.76,2.611,33.053,1.214,37,0
53313,-0.618,-0.191,1.374,-15.542,-9.74,19.42,38,0
53370,0.197,0.054,0.796,3.71,-8.45,0.313,37,0
53427,-0.403,-0.029,1.177,-12.947,11.885,13.092,36,0
53487,0.084,-0.031,0.878,7.771,-7.153,-3.443,35,0
53543,-0.378,0.093,1.145,-10.221,4.473,7.496,36,0
53600,-0.097,-0.199,1.017,0.916,-14.855,2.664,35,0
53657,-0.24,0.156,1.053,-0.916,20.107,8.038,34,0
53713,-0.082,-0.214,1.032,-10.084,-30.802,2.053,35,0
53770,-0.126,0.189,0.966,8.985,37.542,-2.069,34,0
53827,-0.392,-0.167,1.187,-17.359,-36.053,6.008,34,0
53874,0.074,0.122,0.835,15.939,36.855,-2.336,35,36
53931,-0.496,-0.062,1.269,-14.992,11.328,5.321,34,0
53988,0.178,-0.002,0.818,3.267,-21.779,-8.55,34,0
54042,-0.392,0.06,1.192,-0.588,41.153,-0.489,33,0
54098,-0.074,-0.046,0.924,-12.687,-47.733,-8.824,34,0
54156,-0.228,-0.003,1.035,4.122,47.969,3.649,34,0