Timestamp(ms),AccelX(g),AccelY(g),AccelZ(g),GyroX(deg/s),GyroY(deg/s),GyroZ(deg/s),DistanceLeft(cm),DistanceRight(cm)
27062,-0.299,-0.373,0.915,1.45,6.298,1.015,123,190
27120,-0.308,-0.368,0.912,1.13,5.145,1.763,122,190
27177,-0.305,-0.362,0.925,0.366,3.099,1.573,123,190
27236,-0.302,-0.373,0.931,1.817,3.527,1.137,122,190
27294,-0.284,-0.391,0.933,6.565,8.504,5.176,122,190
27353,-0.281,-0.405,0.941,16.924,24.305,5.496,123,190
27411,-0.359,-0.48,1.061,45.962,41.427,16.038,123,189
27472,-0.433,-0.473,1.152,104.443,35.336,27.489,124,189
27531,-0.438,-0.229,1.066,143.382,45.214,35.847,126,188
27584,-0.603,-0.102,1.104,153.824,28.611,46.802,37,188
27637,-0.559,0.105,1.024,157.252,-8.55,40.588,35,186
27691,-0.488,0.348,0.966,149.267,-30.015,45.031,37,184
27743,-0.469,0.471,0.789,133.435,-26.351,58.298,30,182
27795,-0.462,0.446,0.623,126.168,-23.038,63,30,182
27848,-0.345,0.487,0.442,111.901,-14.489,60.206,28,182
27900,-0.282,0.531,0.428,90.45,-10.359,56.42,27,182
27957,-0.168,0.633,0.342,61.656,-7.023,37.969,27,0
28010,-0.038,0.787,0.345,24.466,8.26,20.519,23,0
28063,0.032,0.844,0.433,-15.534,18.496,-6.542,23,0
28115,0.001,0.917,0.633,-38.275,12.809,-45.702,25,184
28168,-0.313,0.831,0.855,-28.939,37.809,-26.084,24,185
28221,-0.644,0.787,0.965,21.947,47.038,19.916,25,0
28274,-0.379,0.877,0.682,38.42,37.534,42.267,25,0
28327,-0.215,0.816,0.476,28.473,9.756,29.191,23,0
28381,-0.075,0.759,0.395,3.031,-12.237,-13.229,24,0
28437,-0.214,0.781,0.5,-23.916,5.031,-33.244,25,0
28490,-0.596,0.619,0.716,-6.534,36.427,2.046,24,0
28544,-0.389,0.887,0.644,15.115,15.382,13.74,24,0
28597,-0.159,0.923,0.492,16.878,-7.489,-0.626,16,0
28650,-0.098,0.866,0.404,1.015,-5.298,-29.679,26,0
28703,-0.404,0.773,0.468,-19.519,32.336,-28.198,24,0
28756,-0.508,0.747,0.552,-19.145,33.099,-15.405,24,0
28810,-0.352,0.849,0.333,-36.733,37.511,-16.611,24,0
28864,-0.228,0.809,0.189,-101.947,69.641,-38.824,28,0
28920,-0.574,0.484,0.451,-163.634,59.84,-62.092,27,0
28974,-0.522,0.402,0.695,-183.626,-3.626,-61.16,27,0
29028,-0.693,0.26,0.834,-159.863,-15.298,-54.435,30,0
29081,-0.854,0.073,1.114,-119.29,-21.145,-21.015,31,0
29135,-0.832,-0.054,1.378,-69.466,-49.901,0.679,32,0
29190,-0.49,-0.094,1.199,0.16,-89.298,1.374,31,0
29243,-0.188,0.046,0.921,32.878,-38.817,-7.58,30,0
29297,-0.333,0.098,0.844,34.084,27.099,-9.771,32,0
29350,-0.775,0.297,0.892,24.267,39.359,13.87,31,0
29407,-0.848,0.353,0.859,3.878,-17.351,59.42,31,0
29461,-0.598,0.296,0.791,-17.878,-48.298,87.214,32,0
29524,-0.295,0.148,1.076,-23.435,-80.725,95.198,0,0
29588,0.289,-0.16,1.192,25.786,-105.115,28.145,0,0
29649,0.439,0.068,1.004,70.595,-12.786,-88.191,159,0
29708,-0.251,0.192,1.055,97.351,22.557,-137.74,124,192
29761,-0.803,0.588,0.741,104.771,16.74,-91.282,28,188
29857,-0.714,0.73,0.411,-11.679,7.924,99.053,26,189
29911,-0.316,0.476,0.649,-58.702,3.427,129.046,25,0
29962,0.024,0.165,1.17,-47.099,-39.198,104.153,24,0
30021,0.668,0.239,1.277,-10.412,-86.489,1.924,122,0
30080,0.361,0.192,0.99,22.321,26.382,-110.046,120,195
30133,-0.665,0.459,0.878,48.779,52.878,-100.282,29,191
30186,-0.863,0.778,0.627,26.626,45.473,3.252,27,190
30245,-0.533,0.707,0.454,-38.435,46.229,68.504,123,0
30305,-0.214,0.563,0.92,-92.893,-3.389,77.298,122,0
30368,0.128,0.251,0.991,-82.603,-76.206,35.153,0,0
30435,0.332,0.235,0.762,-68.786,44.504,-11.534,0,0
30488,-0.092,0.185,0.812,-89.397,151.695,-33.832,20,0
30547,-0.486,0.009,0.994,-100.931,104.634,-49.809,129,0
30601,-0.526,0.022,1.021,-89.641,55.244,-64.74,16,0
30655,-0.919,-0.218,1.369,-53.649,-13.672,-56.985,37,0
30708,-0.622,-0.163,1.146,-0.351,-53.947,-27.16,16,0
30761,-0.305,-0.071,0.886,19.168,-7.71,-1.145,19,0
30821,-0.322,-0.043,0.848,8.489,41.267,7.641,131,0
30881,-0.494,-0.061,0.971,-7.794,18.55,-0.985,131,0
30944,-0.499,-0.063,1.034,-6.084,-19.763,-3.748,131,0
31003,-0.394,-0.124,0.992,10.733,-1.298,9.817,131,0
31057,-0.632,-0.179,1.114,37.901,29.565,40.382,37,0
31111,-0.651,-0.063,1.145,61.107,3.763,67.244,16,0
31174,-0.474,0.07,0.98,74.275,-25.305,73.886,0,0
31235,-0.156,0.253,0.771,59.489,-20.557,50.656,130,0
31298,-0.094,0.26,0.677,20.031,-5.191,12.916,0,0
31357,-0.351,0.162,0.93,-7.473,16.496,-3.702,136,0
31419,-0.461,0.338,0.97,4.176,45.511,17.176,161,0
31486,-0.374,0.232,0.905,3.336,17.282,1.405,0,0
31548,-0.148,0.183,0.864,-11.908,7.137,-35.542,162,0
31601,-0.177,0.119,0.761,1.992,100.519,-48.847,30,0
31655,-0.645,0.133,0.795,22.336,203.351,-42,29,0
31710,-1.263,0.218,0.847,38.756,150.511,-28.748,33,0
31764,-1.355,0.316,0.739,32,-70.305,-2.351,33,0
31818,-0.794,0.409,0.349,-6.771,-140.916,16.924,32,0
31873,-0.477,0.331,0.417,-56.42,-68.878,39.031,29,0
31926,-0.52,0.162,0.775,-83.954,-33.771,45.382,29,0
31983,-0.427,0.017,0.979,-74.092,-38.359,30.16,31,0
32046,-0.406,-0.155,1.313,-39.145,-60.344,1.038,165,0
32109,-0.085,-0.055,1.088,25.16,-50.771,-46.351,0,0
32162,-0.028,0.063,0.671,28.603,59.84,-78.893,17,0
32217,-0.471,-0.044,0.628,12.939,126.901,-83.672,34,0
32271,-0.622,0.07,0.412,-11.481,191.504,-66.893,35,0
32326,-1.197,-0.012,0.601,-41.153,194.641,-46.824,37,0
32380,-1.499,-0.023,0.924,-42.359,17.718,-32.466,39,0
32436,-1.21,-0.128,0.78,-26.511,-156.977,-8.473,39,0
32493,-0.675,-0.185,0.657,-10.153,-163.405,13.71,38,0
32547,-0.356,-0.159,0.713,-4.55,-92.748,15.718,38,0
32603,-0.327,-0.196,0.768,-12.29,-23.504,13.107,40,0
32662,-0.435,-0.189,0.912,-10.237,8.412,8.031,124,0
32765,-0.538,-0.142,0.883,5.832,10.42,-4.374,134,0
32820,-0.555,-0.117,0.854,7.527,13.351,-0.924,38,0
32874,-0.569,-0.101,0.846,1.855,9.038,0.939,38,0
32929,-0.568,-0.112,0.849,-4.198,-1.336,1.71,38,0
32984,-0.549,-0.135,0.865,-6.977,-6.969,1.908,37,0
33041,-0.541,-0.187,0.896,-0.863,-12.115,1.206,37,0
33096,-0.486,-0.164,0.895,4.321,-0.763,3.183,38,0
33150,-0.576,-0.241,1.108,19.672,-2.916,8.603,37,0
33205,-0.664,-0.393,1.476,83.641,-21.916,22.282,37,0
33259,-0.569,-0.227,1.481,174.023,-31.496,27.183,34,0
33313,-0.53,0.25,1.392,222.855,-82.473,11.45,30,0
33368,-0.436,0.314,0.711,215.878,-96.168,-8.74,32,186
33421,-0.766,0.643,0.682,182.588,-95.679,28.183,31,183
33472,-0.799,0.732,0.278,105.229,-102.122,97.061,30,147
33528,-0.412,0.525,0.21,45.527,-80.649,147.626,24,187
33583,-0.094,0.378,0.461,24.527,-67.298,158.076,26,0
33639,0.349,0.252,0.666,25.84,-80.664,128.916,79,0
33696,0.959,0.213,0.66,46.733,-83.29,49.443,76,0
33754,1.075,0.34,0.559,43.191,-5.84,-52.565,76,0
33807,0.646,0.574,0.637,31.466,8.183,-130.26,23,0
33863,0.206,0.784,0.575,17.718,6.611,-152.756,71,191
33920,-0.4,1.05,0.506,16.748,12.427,-108.16,85,187
33976,-0.584,1.217,0.311,-0.481,17.26,7.511,24,186
34029,-0.3,1.128,0.271,-30.153,30.221,93.87,20,188
34082,-0.022,0.913,0.425,-51.008,33.847,126.916,19,192
34143,0.268,0.709,0.633,-55.557,27.71,130.137,30,0
34199,0.469,0.406,0.933,-37.26,12.305,99.466,17,0
34255,0.803,0.284,1.045,12.015,-39.176,23.084,76,0
34312,0.876,0.489,0.746,25.664,-11.87,-59.389,76,0
34367,0.491,0.632,0.7,11.824,16.924,-107.038,77,0
34420,0.026,0.678,0.755,7.832,19.473,-104.321,23,0
34480,-0.234,0.713,0.792,28.824,-17,-63.237,83,190
34535,-0.016,0.962,0.431,48.336,-17.756,-32.145,84,188
34587,0.071,1.188,0.165,21.038,59.443,3.397,19,187
34639,-0.096,1.042,0.485,-15.557,61.565,37.115,18,188
34692,0.049,1.014,0.616,-28.008,-0.603,31.916,19,189
34744,0.341,1.127,0.423,-50.702,-18.321,24.115,21,190
34797,0.375,1.165,0.581,-60.496,-5.992,1.939,22,0
34850,0.349,1.032,0.55,-90.908,17.527,-34.405,19,193
34907,0.274,0.735,0.632,-120.977,16.649,-71.382,83,193
34963,-0.077,0.112,1.142,-122.557,12.626,-82.641,51,192
35019,-0.379,-0.427,1.002,6.45,19.45,13.267,84,192
35076,0.015,0.713,0.927,34.702,21.115,19.168,84,192
35132,0.251,0.881,0.795,-30.679,-12.634,-22.397,84,192
35190,-0.076,0.072,0.922,-16.557,-1.397,-1.321,122,192
35247,-0.003,0.599,1.027,17.87,11.511,6.374,83,192
35303,0.091,0.618,0.911,15.931,6.328,-5.229,84,191
35359,0.15,0.483,0.833,34.137,23.107,-20.985,86,191
35418,0.012,0.494,0.73,39.412,67.183,-20.885,124,190
35479,-0.156,0.695,0.755,44.321,83.855,-13.687,126,188
35575,-0.445,0.81,0.414,35.969,150.534,26.061,23,0
35629,-0.902,0.976,0.484,-6.664,142.458,80.015,26,0
35682,-0.903,0.894,0.533,-51.13,32.389,121.504,23,0
35735,-0.52,0.863,0.657,-85.351,-47.145,148.969,21,0
35788,-0.226,0.576,0.946,-80.84,-104.565,155.374,18,0
35842,0.336,0.367,1.008,-33.389,-134.038,130.313,20,0
35898,0.796,0.334,0.938,7.84,-100.87,81.008,17,0
35951,0.824,0.306,0.919,28.504,-52.359,1.29,16,0
36006,0.714,0.403,0.752,30.687,-36.229,-79.115,18,0
36060,0.485,0.486,0.71,18.634,-33.626,-130.878,18,0
36113,0.359,0.633,0.576,5.229,-21.26,-162.908,16,0
36165,-0.018,0.791,0.504,-2.061,31.481,-159.817,17,0
36218,-0.802,0.997,0.48,-8.855,61.076,-67.992,20,190
36272,-0.698,1.102,0.404,-43.55,32.443,38.885,20,0
36325,-0.216,0.873,0.518,-66.16,18.229,83.656,21,0
36377,0.036,0.615,0.843,-59.458,-6.084,79.42,19,0
36430,0.35,0.43,1.066,-24.748,-63.84,28.809,21,0
36487,0.731,0.481,0.873,-2.45,-43.084,-33.557,16,0
36540,0.506,0.45,0.721,-17.702,71.405,-69.374,26,196
36593,-0.131,0.467,0.748,-26.969,139.496,-72.183,20,193
36646,-0.8,0.551,0.887,-45.863,57.763,-39.519,23,0
36699,-0.528,0.643,0.719,-88.763,-108.649,-22.336,22,191
36758,0.031,0.524,0.491,-134,-78.733,15.084,123,190
36810,0.156,0.344,0.724,-143.435,37.092,13.878,21,192
36864,-0.038,0.14,1.096,-110,71.794,-11.87,25,194
36926,-0.114,0.182,1.228,-76.588,54.374,-30.153,123,194
36978,-0.23,0.074,1.211,-79.191,51.611,-28.29,16,193
37038,-0.229,0.04,1.19,-76.336,12.916,-25.702,123,193
37096,-0.228,-0.088,1.36,-79.504,-8.84,-27.664,122,193
37148,-0.195,-0.28,1.177,-42.885,-10.214,-10.496,9,193
37208,-0.23,-0.277,1.018,-5.45,16.863,-1.672,122,193
37260,-0.263,-0.232,1.057,4.992,10.588,1.634,16,193
37312,-0.204,-0.232,1.029,3.504,-2.366,4.466,18,193
37371,-0.186,-0.189,0.989,3.565,5.939,5.634,121,193
37433,-0.19,-0.17,1.012,0.992,0.832,3.504,121,193
37485,-0.226,-0.198,1.035,0.786,-1.252,4.038,16,193
37538,-0.2,-0.186,0.986,3.221,-6.672,4.557,16,193
37591,-0.214,-0.182,1.045,3.931,0.122,8.893,17,194
37649,-0.2,-0.188,1.038,12.397,-17.229,8.664,122,194
37702,-0.155,-0.159,1.008,11.931,1.649,9.237,9,194
37754,-0.13,-0.132,0.98,6.679,1.336,3.779,17,194
37808,-0.153,-0.132,1.015,-0.71,0.817,0.038,17,194
37860,-0.144,-0.147,1.007,-1.595,-1.344,0.252,17,194
37916,-0.171,-0.145,1.042,-1.107,6.084,0.511,17,194
37968,-0.181,-0.164,1.052,2.252,-2.038,0.42,17,194
38022,-0.164,-0.15,1.049,4.985,5.924,2.733,17,194
38075,-0.123,-0.195,1.23,20.458,-2.802,3.496,17,194
38127,0.117,-0.384,1.27,73.756,9.588,-5.168,17,194
38179,-0.094,-0.031,1.243,120.901,68.328,-39.832,11,192
38233,-0.345,0.146,1.301,122.214,21.267,-28.344,16,189
38329,-0.356,0.209,1.083,132.87,-13.687,0.351,30,186
38387,-0.417,0.26,0.971,143.206,-0.198,23.939,127,184
38444,-0.392,0.345,0.753,151.489,-2.237,43.565,32,183
38497,-0.281,0.506,0.615,139.244,-17.466,57.802,25,183
38549,-0.155,0.564,0.509,115.153,-19.427,58.244,24,183
38602,0.002,0.652,0.429,85.786,-24.969,45.725,24,184
38654,0.108,0.739,0.246,51.176,-27.107,16.061,21,184
38708,0.177,0.921,0.312,-2.412,-13.588,-7.626,22,184
38760,0.25,1.125,0.495,-50.855,10.748,-19.313,24,184
38813,-0.219,0.712,0.815,-18.534,69.718,16.389,23,185
38868,-0.302,0.849,0.884,34.137,35.565,33.534,22,185
38922,0.215,0.935,0.396,33.641,-38.55,-0.786,22,185
38974,0.257,0.958,0.386,-9.168,-19.542,-42.191,23,184
39027,-0.174,0.652,0.731,-36.015,44.504,-29.931,22,184
39079,-0.377,0.733,0.928,2.786,43.84,10.282,22,184
39133,-0.195,0.881,0.771,34.573,-11.992,6.802,24,184
39185,0.04,0.948,0.46,40.672,-47.038,-11.397,26,183
39238,0.059,0.921,0.365,18.023,-5.168,-19.29,23,182
39290,-0.056,0.866,0.212,-3.015,36.817,-24.061,23,182
39347,-0.268,1.478,-0.433,-52.26,118.886,-15.611,22,184
39400,-0.728,1.073,0.692,-186.298,153.275,59.511,23,0
39454,-0.257,-0.593,1.975,-50.206,-129.206,-3.832,21,0
39506,0.926,0.62,0.167,55.885,-62.015,-47.221,18,186
39561,-0.343,1.415,-0.333,-28.176,226.679,-2.336,20,0
39614,-1.124,0.645,1.053,-133.809,32.092,6.748,21,0
39667,-0.288,0.054,1.335,-60,-177.695,-36.26,19,0
39720,0.337,0.852,0.38,-10.13,-54.26,-22.496,16,186
39773,-0.421,0.635,1.034,-42.695,73.695,19.733,16,186
39828,-0.346,0.193,1.241,12.519,-26.252,-2.458,17,186
39881,-0.178,0.909,0.374,29.435,17.962,-0.634,19,186
39934,-0.419,0.717,1.021,-23.397,22.16,37.656,21,0
39989,-0.129,0.158,1.199,30.901,-9.366,23.336,21,0
40042,-0.046,0.819,0.427,33.221,9.939,-4.733,18,0
40095,-0.334,0.54,0.792,-29.313,31.725,22.817,18,0
40148,-0.09,0.459,0.959,27.412,1.061,15.16,19,0
40203,0.105,0.854,0.54,-10.878,13.672,0.557,18,0
40256,-0.242,0.484,0.738,-35.351,37.504,-6.122,19,0
40312,-0.302,0.607,0.92,-25.145,13.084,-11.817,19,0
40367,-0.169,0.643,0.88,-23.756,20.542,-11.366,19,0
40420,-0.351,0.536,0.915,-8.947,21.092,-7.389,19,0
40473,-0.444,0.498,1.043,7.504,8.061,2.084,19,0
40526,-0.323,0.52,0.87,27.176,5.992,5.313,18,0
40581,-0.371,0.58,0.988,17.603,7.145,19,19,0
40634,-0.16,0.559,0.871,24.603,-25.603,11.374,19,0
40687,-0.244,0.648,0.725,26.046,11.618,10.939,20,0
40741,-0.309,0.589,0.746,22.878,-5.588,9.252,19,0
40798,-0.091,0.468,0.762,21.863,-0.115,-0.527,18,0
40851,-0.193,0.771,0.595,19.458,5.229,-6.939,19,0
40905,-0.241,0.766,0.727,-2.771,4.687,-3.885,19,0
40958,-0.306,0.761,0.869,2.336,3.42,-1.221,20,0
41056,-0.224,0.725,0.674,22.718,3.229,12.168,21,0
41109,-0.259,0.698,0.842,15.489,-4.198,14.908,20,0
41168,-0.151,0.702,0.737,14.061,0.237,11.282,19,0
41222,-0.161,0.714,0.776,20.153,-11.443,1.947,19,0
41275,-0.198,0.746,0.619,19.809,-4.313,5.13,20,0
41330,-0.229,0.743,0.715,16.901,4.397,8.382,20,0
41383,-0.127,0.76,0.65,24.618,-14.542,0.626,20,0
41436,-0.238,0.86,0.615,21.267,15.351,7.198,20,0
41489,-0.068,0.831,0.686,15.985,-19.641,5.389,20,0
41541,-0.148,0.814,0.744,19.351,0.847,7.405,22,0
41594,-0.172,0.818,0.596,10.588,-9.221,5.595,24,0
41648,-0.134,0.824,0.64,-0.008,-3.779,4.374,22,0
41701,-0.017,0.813,0.601,18.031,-10.473,2.756,22,0
41754,-0.159,0.837,0.532,2.931,11.893,0.725,21,0
41809,-0.091,0.865,0.522,2.985,-2.16,2.198,22,0
41863,-0.155,0.791,0.638,-0.198,3.511,-2.756,22,0
41916,-0.112,0.798,0.579,2.252,-0.458,-2.687,23,0
41968,-0.11,0.885,0.63,5.847,9.321,-0.771,21,0
42021,-0.096,0.793,0.616,4.252,8.481,-6.229,21,0
42075,-0.158,0.895,0.549,1.198,0.237,-6.046,22,0
42128,-0.198,0.841,0.643,-7.214,13.443,-3.427,22,0
42180,-0.249,0.891,0.654,6.794,-7.366,7.176,22,0
42233,-0.146,0.846,0.75,3.733,-17.702,9.206,21,0
42287,-0.018,0.778,0.562,7.267,-5.588,-2.344,22,0
42343,-0.253,0.896,0.545,14.527,8.519,4.099,22,0
42396,-0.059,0.904,0.495,-5.008,-5.992,7.328,21,0
42448,-0.081,0.806,0.638,4.611,-0.344,-1.359,21,0
42502,-0.136,0.811,0.548,8.702,4.557,-1.008,22,0
42555,-0.102,0.887,0.482,-4.366,11.641,-1.282,22,0
42608,-0.107,0.804,0.632,-13.069,-0.252,-4.649,23,0
42662,-0.165,0.93,0.633,-0.71,14.344,-7.405,26,0
42716,-0.339,0.858,0.766,3.176,-2.191,11.847,29,0
42769,0.022,0.871,0.544,7.252,-0.031,2.176,22,0
42825,-0.323,0.833,0.804,4.74,4.191,12.771,28,0
42878,-0.006,0.902,0.443,8.695,-5.611,3.55,24,0
42932,-0.173,0.824,0.621,2.45,-1.664,6.382,26,185
42985,-0.081,0.866,0.623,8.031,0.099,5.107,22,0
43038,-0.124,0.883,0.583,16.481,-5.29,4.282,23,0
43091,-0.121,0.885,0.576,14.405,0.992,3.901,22,0
43145,-0.092,0.833,0.546,12.695,-6.809,4.244,22,0
43198,-0.109,0.858,0.568,15.412,-8.359,3.534,23,0
43252,-0.104,0.893,0.529,16.275,-1.221,2.771,23,0
43304,-0.11,0.925,0.535,10.802,-3.931,3.145,22,183
43361,-0.083,0.967,0.451,16.336,-6.817,5.985,24,0
43414,-0.086,0.879,0.541,13.359,-8.107,3.244,28,184
43466,-0.067,0.893,0.574,21.031,4.267,5.374,24,183
43518,-0.001,1.032,0.436,31.031,-18.763,-2.275,23,183
43572,-0.081,0.98,0.447,21.542,-6.26,0.489,30,182
43624,-0.1,0.9,0.364,21.397,-9.656,3.618,22,181
43677,0.007,0.934,0.471,18.748,-4.504,2.412,24,182
43772,-0.056,1.086,0.252,44.588,1.412,-0.275,24,181
43825,-0.084,1.024,0.194,33.008,-17.282,9.664,26,181
43881,0.001,0.944,0.374,14.092,-9.069,5.794,24,181
43933,-0.099,0.926,0.35,12.672,4.45,2.252,30,181
43986,0.052,1.053,0.23,25.649,-17.763,2.267,25,181
44039,-0.067,1.019,0.344,28.595,-13.412,4.649,24,181
44091,-0.016,1.029,0.135,29.191,-6.87,8.168,25,181
44145,-0.004,0.994,0.232,16.962,-7,8.893,25,0
44198,0.012,1.059,0.2,19.206,4.107,6.145,26,0
44253,0.023,1.06,0.162,17.13,-4.947,8.687,30,0
44307,0.045,0.946,0.203,24.405,-14.473,5.038,28,0
44363,0.061,1.083,-0.107,18.71,7.824,-1.198,26,0
44418,0.036,1.097,0.021,-7.435,-10.863,5.55,26,0
44471,0.035,0.914,0.236,-4.344,12.618,2.015,26,0
44525,0.011,0.95,0.271,4.977,-5.397,-5.664,28,0
44578,-0.039,1.097,0.08,14.947,-1.748,-1.359,26,0
44633,0.066,1.014,0.06,-2.153,-7.779,-0.122,27,0
44686,-0.014,0.94,0.244,-13.13,-8.252,-7.26,25,0
44739,-0.06,1.01,0.256,9.611,-19.084,-6.489,17,0
44793,-0.02,1.167,0.146,27.573,-4.55,5.26,25,0
44851,0.01,1.082,0.046,25.336,-5.649,15.878,26,0
44904,0.052,0.965,-0.095,9.015,2.374,-1.031,30,0
44958,-0.032,1.028,0.06,4.305,11.313,9.26,26,0
45011,0.09,0.973,0.156,3.137,-4.618,2.244,26,0
45066,0.006,1.078,0.045,5.061,6.038,-0.74,26,0
45119,0.053,1.089,0.094,0.786,-24.947,4.481,16,0
45172,-0.027,0.972,-0.154,1.725,19.557,0.794,16,0
45225,0.048,1.007,0.294,-3.542,-6.542,6.099,16,0
45279,0.008,1.036,0.263,33.824,-4.237,1.046,16,0
45335,0.063,1.16,-0.163,17,-11.153,1.634,16,0
45388,-0.051,1.017,-0.111,-14.145,11.137,10.336,16,0
45442,0.14,0.932,0.156,2.275,-5.176,6.458,16,0
45495,0.046,1.081,-0.118,4.824,11.405,-2.443,16,0
45548,0.033,1.043,0.007,-15.015,-5.504,2,16,0
45601,0.083,0.946,0.167,-1.015,6.351,-0.878,16,0
45655,-0.02,1.062,-0.094,19.122,4.244,-8.969,16,0
45709,-0.022,1.18,0.034,-13,17.389,8.672,16,0
45762,0.091,0.991,0.285,6.244,5.718,12.397,16,0
45815,0.035,0.878,0.052,34.023,-11.061,0.802,16,0
45872,0.054,1.118,-0.363,1.534,1.809,-4.634,17,0
45925,0.012,0.963,0.263,-19.489,-2.656,5.359,17,0
45978,0.15,1.033,-0.123,11.374,4.679,-5.084,17,0
46032,0.064,1.09,-0.392,-27.55,15.092,-8.29,17,0
46086,0.119,0.918,0.104,-67.389,30.794,-12.466,16,0
46139,-0.008,0.983,0.178,-28.595,25.252,-16.557,17,0
46192,-0.098,1.081,0.005,-43.183,20.13,-22.473,16,0
46246,-0.133,0.967,0.357,-57.305,-16.168,-20.053,26,0
46300,0.007,1.034,0.244,-40.076,-11.664,-12.824,27,180
46356,-0.06,1.013,0.264,-29.595,18.962,-11.748,26,179
46408,-0.087,1.11,0.16,-37.191,24.458,-3.542,27,179
46504,0.014,0.913,0.312,-53.832,-36.504,-34.046,26,178
46558,-0.053,0.87,0.45,-37.099,-8.336,-30.71,29,177
46611,-0.201,1.037,0.229,-31.191,27.328,-26.397,29,176
46663,-0.331,1.053,0.525,-66.916,29.954,-2.573,28,176
46716,-0.173,0.563,0.805,-55.023,-46.13,-11.351,28,176
46770,0.097,0.867,0.472,-14.046,-28.748,-31.878,28,176
46826,-0.218,0.961,0.489,-89.13,65.206,-1.885,30,175
46878,-0.377,0.457,0.772,-45.412,4.16,-18.305,29,175
46931,-0.219,0.952,0.754,-14.893,-31.435,-29.573,30,175
46985,-0.187,0.807,0.653,-64.87,15.954,-3.718,30,175
47038,-0.237,0.496,0.747,-16.16,13.748,-25.733,31,175
47090,-0.394,1.054,0.608,-29.885,8.534,-16.634,30,174
47143,-0.425,0.541,0.972,-55.824,-33.71,2.145,30,174
47198,-0.034,0.494,0.905,14.008,-18.931,-22.664,30,174
47250,-0.284,0.887,0.675,-38.023,19.153,-2.389,31,174
47306,-0.356,0.317,0.864,-27.191,-15.748,-0.466,31,174
47360,-0.125,0.749,0.768,3.924,13.023,-15.847,32,173
47413,-0.482,0.554,0.939,-46.71,22.13,8.336,35,173
47466,-0.218,0.45,0.854,1.618,-23.45,-8.924,33,173
47519,-0.158,0.763,0.631,-19.679,42.16,-3.29,33,173
47572,-0.555,0.415,1.018,-22.42,-9.542,5.252,33,174
47625,-0.114,0.65,0.761,-15.809,-8.534,-2.29,32,174
47678,-0.394,0.443,0.968,-14.634,17.702,11.542,31,174
47731,-0.127,0.625,0.832,-6.481,-0.023,-8.672,31,174
47793,-0.514,0.346,1.016,-11.145,7.107,9.611,31,174
47845,-0.03,0.732,0.751,0.214,-10.534,-11.015,32,174
47897,-0.552,0.293,0.914,-12.908,26.023,7.511,31,174
47949,-0.165,0.675,0.93,1.053,-22.107,3.901,31,174
48002,-0.344,0.224,0.897,-14.328,20.176,-1.321,32,174
48054,-0.307,0.597,1.03,1.992,-11.794,6.618,31,174
48107,-0.236,0.321,0.855,-16.16,5.038,-4.122,32,174
48159,-0.301,0.575,0.972,8.855,4.947,4.427,32,174
48211,-0.326,0.457,0.887,-11.137,-1.298,-4.618,32,174
48267,-0.134,0.586,0.861,3.641,-14.916,3.092,32,174
48319,-0.405,0.387,0.894,-7.885,15.076,0.13,32,174
48379,-0.083,0.552,0.888,12.351,-26.954,-2,32,174
48432,-0.356,0.409,0.846,-7.534,39.916,-5.252,33,174
48484,-0.482,0.433,1.082,-1.557,-39.221,9.939,32,174
48536,0.079,0.499,0.691,13.84,30.099,-15.046,32,174
48588,-0.806,0.523,1.21,-27.389,2.656,23.641,32,174
48641,0.237,0.268,0.712,28.26,-36.206,-15.771,32,174
48697,-0.56,0.795,0.931,6.542,88.511,7.916,38,173
48749,-0.377,0.326,0.931,-22.061,-91.84,2.802,33,174
48801,0.123,0.593,0.661,28.397,53.023,-4.832,37,173
48855,-0.743,0.465,1.138,-22.244,1.099,5.84,37,173
48907,-0.009,0.332,0.713,13.817,-17.794,-0.427,34,174
48959,-0.401,0.588,0.994,-1.809,46.313,3.595,37,174
49012,-0.302,0.328,0.958,0.366,-28.74,8.153,36,174
49064,-0.024,0.668,0.773,2.466,11.588,-9.153,36,174
49117,-0.668,0.291,1.06,-0.466,12.115,13.321,37,174
49216,-0.568,0.242,1.043,-15.061,37.229,13.45,37,173
49268,-0.063,0.573,0.851,21.229,-43.771,-10.321,39,174
49321,-0.435,0.407,0.853,-19.405,57.489,13.916,39,174
49375,-0.205,0.42,0.982,13.015,-62.595,-9.122,39,174
49427,-0.233,0.59,0.723,-5.374,73.305,3.885,42,173
49481,-0.508,0.386,1.156,-4.664,-68.076,4.168,61,174
49534,0.13,0.569,0.531,12.824,50.305,-7.725,40,173
49587,-0.842,0.456,1.24,-15.908,-13.832,14.71,36,174
49640,0.229,0.353,0.584,8.221,-9.183,-10.817,38,173
49699,-0.587,0.672,1.072,2.069,28.855,5.145,138,145
49753,-0.113,0.308,0.804,-11.16,-30.618,3.107,39,173
49807,-0.287,0.578,0.968,19.649,35.84,-0.168,62,173
49861,-0.424,0.322,0.927,-24.076,-2.099,5.427,62,173
49917,-0.022,0.609,0.889,25.924,-23.107,-5.725,132,151
49971,-0.589,0.367,0.886,-26.053,44.992,9.511,37,173
50025,-0.114,0.454,0.928,15.954,-62.634,-2.931,71,174
50078,-0.236,0.593,0.712,-7.168,70.748,-0.58,37,173
50132,-0.669,0.274,1.286,-5.489,-53.13,9.366,72,173
50193,0.203,0.666,0.532,13.176,59.901,-11.489,133,149
50245,-0.798,0.468,1.304,-16.496,-53.679,12.87,38,173
50298,0.273,0.318,0.536,10.962,36.611,-9.084,39,173
50354,-0.869,0.602,1.296,2.786,3.634,16.519,68,173
50408,0.207,0.387,0.497,-9.198,-2.557,-14,71,173
50462,-0.628,0.646,1.175,13.221,10.763,4.069,62,173
50516,-0.085,0.39,0.678,-13.74,1.908,-6.809,65,173
50571,-0.438,0.661,1.076,17.176,-0.344,6.817,63,173
50625,-0.205,0.276,0.637,-25.565,36.115,-8.832,65,173
50681,-0.35,0.599,1.131,22.527,-57.924,1.672,34,173
50734,-0.124,0.314,0.561,-32.191,74.084,-4.046,38,173
50787,-0.723,0.417,1.358,19.069,-72.969,3.58,36,173
50840,0.15,0.514,0.345,-16.16,73.962,-5.893,37,173
50894,-0.885,0.436,1.516,11.985,-53.321,7.405,65,173
50947,0.179,0.481,0.371,-14.771,60.214,-2.328,38,173
51002,-0.85,0.357,1.351,9.298,-33.092,12.771,69,173
51055,0.205,0.417,0.448,-10.191,38.763,-10.366,38,173
51110,-0.743,0.496,1.339,11.282,-46.656,7.87,38,173
51164,0.11,0.358,0.487,-14.511,46.71,-4.321,36,173
51217,-0.793,0.464,1.312,12.924,-28.412,12.573,33,174
51269,0.251,0.556,0.452,-11.344,13.954,-15.153,38,173
51322,-0.847,0.389,1.356,4.008,-8.023,17.42,33,173
51375,0.334,0.74,0.47,-4.634,-12.74,-24.023,32,173
51428,-0.886,0.249,1.23,-7.931,33.229,25.863,33,173
51480,0.366,0.77,0.472,4.687,-49.763,-25.977,32,173
51532,-0.894,0.183,1.279,-23.443,68.511,34,32,174
51589,0.442,0.572,0.565,25.588,-86.809,-32.031,35,173
51642,-0.927,0.492,1.072,-22.687,113.924,34.26,33,173
51694,0.024,0.376,0.84,4.244,-132.489,-14.183,33,174
51747,-0.312,0.528,0.73,14.351,141.519,12.198,33,173
51800,-0.661,0.485,1.127,-23.679,-108.252,3.206,32,173
51853,0.268,0.273,0.586,10.656,57.595,-2.611,38,174
51949,0.139,0.326,0.639,-29.756,-62,-1.305,37,174
52002,-0.429,0.535,1.025,27.328,74.763,3.786,37,174
52057,-0.286,0.614,0.817,-32.298,-54.641,0.275,66,174
52117,-0.183,0.441,0.973,25.695,23.099,6.748,137,146
52170,-0.391,0.513,0.74,-26.809,13.527,-3.832,39,174
52225,-0.362,0.348,1.107,13.053,-30.649,13.481,63,175
52280,-0.042,0.653,0.645,-17.992,53.718,-10.695,61,174
52334,-0.738,0.198,1.338,0.626,-40.748,21.527,73,175
52387,0.32,0.734,0.408,2.863,57.115,-15.107,35,175
52441,-1.135,0.268,1.462,-39.725,-15.802,26.244,33,175
52494,0.485,0.542,0.514,15.16,-22.779,-6.16,38,175
52551,-0.817,0.495,1.118,-30.748,63,20,136,147
52608,0.105,0.202,0.896,1.634,-59.351,4.573,40,176
52661,-0.281,0.602,0.808,-0.817,90.634,4.16,33,176
52714,-0.576,0.265,1.094,-50.947,-75.405,12.389,33,176
52767,0.293,0.444,0.663,16.718,31.962,-2.015,37,177
52819,-0.806,0.454,1.104,-38.046,13.901,11.252,33,177
52875,0.043,0.128,0.872,-26.031,-52.985,3.473,67,177
52928,-0.226,0.578,0.955,7.977,57.847,-5.878,37,178
52987,-0.493,0.28,1.087,-53.519,-46.481,11.733,127,178
53044,0.105,0.314,0.835,18.282,24.695,-9.863,37,179
53097,-0.577,0.486,1.021,-38.84,4.282,6.74,37,179
53150,-0.049,0.031,0.993,-9.183,-37.466,10.763,37,179
53204,-0.1,0.559,0.777,7.023,71,-8.198,38,179
53259,-0.646,0.034,1.216,-53.168,-51.985,17.427,64,180
53314,0.335,0.16,0.771,46.046,17.824,-8.687,63,179
53369,-0.846,0.555,1.044,-37.695,57.916,16.504,66,180
53425,0.144,-0.102,0.963,-18.069,-102.718,-4.58,62,181
53479,-0.2,0.521,0.798,24.069,141.802,-4.061,58,180
53536,-0.742,-0.022,1.292,-54.58,-122.527,9.435,40,181
53592,0.678,0.132,0.53,29.244,70.618,-14.885,58,181
53646,-1.341,0.296,1.481,-24.908,10.458,16.382,58,182
53701,0.586,0.05,0.561,-15.763,-76.412,-6.87,57,182
53756,-0.661,0.333,1.204,12.183,109.13,4.45,58,182
53812,-0.256,0.097,0.974,-29.977,-90.58,5.733,66,183
53866,0.183,0.124,0.777,11.809,78.122,-10.168,58,183
53921,-0.805,0.157,1.22,-21.382,-17.656,6.145,57,184
53977,0.296,0.023,0.844,2.74,-26,-13.939,60,183
54035,-0.727,0.245,1.214,-2.824,67.893,3.305,63,184
54090,-0.084,-0.025,1.003,-12.008,-77.916,-3.122,64,183
54146,-0.15,0.273,0.93,8.237,96.649,-12.649,64,183
54201,-0.651,0.088,1.193,-32.29,-61.718,4.908,57,183
54256,0.324,0.057,0.727,23.443,21.84,-15.137,58,183
54316,-0.812,0.35,1.175,-22.107,23.176,-0.084,129,183
54370,0.126,-0.108,0.895,5.878,-49.641,-7.115,57,183
54425,-0.438,0.455,1.017,7,82.977,-10.229,58,183
54480,-0.366,-0.219,1.094,-48.908,-97.29,3.237,57,183
54547,-0.184,0.199,0.874,23.611,94.557,-15.382,57,182
54602,-0.689,-0.023,1.125,-48.374,-62.374,-3.458,58,182
54656,0.354,0.068,0.73,25.321,16.229,-22.573,51,182
54754,-0.262,-0.222,1.042,-29.466,-80.084,-2.084,65,182
54808,0.103,0.169,0.835,26.458,78.687,-13.481,66,182
54862,-0.713,0.017,1.229,-41.099,-32.366,-3.672,53,182
54917,0.058,-0.145,1.041,18.992,-25.458,0.962,58,182
54971,-0.443,0.403,0.944,-2.901,74.786,-8.603,58,182
55028,-0.379,-0.298,1.167,-9.008,-75.702,11.87,59,182
55083,0.099,0.298,0.718,21.023,80.695,-13.901,51,181
55137,-0.917,-0.226,1.327,-28.603,-32.198,13.168,61,181
55191,0.42,0.072,0.584,27.42,0.008,-18.809,55,181
55246,-0.9,-0.018,1.22,-18.786,68.328,5.321,66,180
55300,-0.01,-0.102,0.875,4.038,-99.992,-7.618,54,181
55354,-0.174,0.163,0.839,13.252,132.359,-11.901,52,180
55408,-0.766,-0.143,1.287,-25.87,-74.817,-1.069,53,180
55462,0.405,0.078,0.665,11.336,24.397,-22.137,52,180
55520,-0.994,0.112,1.434,-4.069,23.023,6.405,71,180
55574,0.124,-0.142,0.705,-12.985,-52.359,-9.198,52,180
55628,-0.482,0.189,1.022,9.634,58.466,0.443,52,180
55682,-0.372,-0.109,1.097,-28.115,-64.641,-3.176,51,181
55736,-0.006,-0.118,0.77,11.855,67.947,-3.13,51,180
55790,-0.859,0.01,1.28,-8.763,-14.145,8.794,57,181
55844,0.135,-0.159,0.777,2.702,-14.153,-2.511,61,181
55900,-0.571,0.085,1.093,6.931,59.504,-4.061,62,182
55954,-0.267,-0.119,0.976,-26.046,-72.313,-2.786,61,182
56011,-0.093,0.085,0.994,19.191,47.382,-7.168,58,182
56066,-0.615,-0.116,1.135,-21.466,-13.252,-3.565,57,182
56121,-0.147,-0.102,0.958,18.466,-21.191,10.855,61,182
56175,-0.229,0.027,0.859,-15.176,64.237,-13.863,58,182
56233,-0.568,-0.262,1.179,3.977,-60.756,7.802,130,182
56288,0.13,0.189,0.726,-11.061,51.176,-21.496,57,182
56342,-1.043,-0.273,1.559,10.733,-54.176,18.985,53,182
56396,0.453,0.171,0.478,-11.611,39.55,-18.656,51,182
56454,-1.075,-0.36,1.569,11.359,-37.183,16.962,53,182
56508,0.555,0.317,0.398,-11.183,0.504,-22.695,51,182
56562,-1.238,-0.387,1.656,7.13,27.443,29.481,53,182
56616,0.566,0.285,0.386,-5.366,-27.695,-22.382,50,182
56671,-1.176,-0.363,1.668,2.214,18.115,21.427,52,182
56725,0.431,0.241,0.47,-2.305,-17.084,-20.542,50,182
56778,-1.073,-0.371,1.509,4.084,25.748,22.855,51,182
56833,0.466,0.204,0.501,-2.885,-39.374,-23.481,50,182
56887,-1.094,-0.302,1.49,0.473,44.71,15.863,51,182
56944,0.447,0.161,0.575,-4,-46.321,-20.702,51,182
56998,-1.058,-0.385,1.415,4.634,65.321,24.863,52,183
57053,0.329,0.247,0.573,-1.092,-73.244,-16.489,50,182
57107,-0.932,-0.338,1.403,-2.763,86.435,22.664,51,182
57161,0.204,0.227,0.595,-3.511,-69.573,-16.336,51,183
57216,-0.75,-0.272,1.343,-7.863,87.443,9.511,52,183
57270,-0.054,0.112,0.787,3.733,-69.214,-6.275,59,182
57325,-0.583,-0.236,1.243,-3.061,64.824,6.931,59,182
57379,-0.063,0.097,0.732,1.786,-41.023,-7.458,57,182
57437,-0.341,0.132,1.129,-3.702,9.74,-14.115,58,183
57535,0.23,0.123,0.672,-4.252,-28.427,-17.168,58,182
57590,-0.977,-0.269,1.35,2.878,34.802,20.84,65,183
57645,0.371,0.146,0.589,-4.389,-27.977,-20.16,58,183
57699,-1.006,-0.155,1.504,-2.771,31.053,14.267,51,183
57753,0.209,0.105,0.695,5.427,-32.786,-9.275,51,182
57807,-0.736,-0.28,1.211,16.74,25.74,10.45,51,182
57862,-0.313,-0.151,0.952,2.115,-28.885,18.748,50,183
57916,-0.205,0.049,0.917,10.855,-2.679,11.145,57,183
57974,-0.509,-0.188,1.119,2.771,-7.458,38.214,51,183
58029,0.097,0.138,0.759,-3.931,5.115,3.763,62,185
58084,-0.718,-0.144,1.282,-9.13,18.725,39.359,54,185
58138,0.241,0.096,0.767,17.664,-5.763,5.679,58,186
58193,-0.784,-0.278,1.233,-14.924,35.412,36.962,58,187
58248,0.277,0.063,0.774,27.809,-61.496,-2.321,50,187
58303,-0.646,-0.013,1.095,-14.802,78.489,23.649,55,188
58358,-0.255,-0.131,1.084,11.969,-92.786,14.985,60,188
58426,-0.567,0.156,1.199,-17.023,48.466,20.26,57,189
58483,-0.107,-0.115,1.035,12.649,-50.832,24.282,57,190
58541,-0.261,0.266,0.987,-8.397,50.344,3.198,56,190
58599,-0.324,-0.261,1.105,6.298,-62.817,28.282,58,191
58656,-0.019,0.417,0.829,9.328,82.496,-5.595,56,191
58714,-0.689,-0.303,1.233,-20.137,-73.527,27.87,55,192
58772,0.365,0.332,0.722,37.435,80.656,-2.153,55,192
58829,-0.88,-0.334,1.157,-44.031,-65.183,21.176,58,193
58888,0.516,0.2,0.709,35.13,29.366,-5.756,58,193
58952,-1.108,-0.133,1.36,-40.45,-14.344,23.748,119,194
59012,0.666,0.209,0.573,27.389,-9.328,-6.328,64,194
59073,-0.901,-0.032,1.423,-20.664,26.092,17.939,117,194
59130,0.469,0.11,0.635,13.817,-24.847,-3.565,50,195
59192,-0.864,0.152,1.343,-5.595,42.374,15.122,117,195
59250,0.307,-0.052,0.729,-5.55,-48.397,1.802,51,197
59308,-0.66,0.185,1.327,4.656,58.504,10.992,50,196
59366,0.049,-0.07,0.845,-17.382,-50.618,8.977,50,197
59424,-0.37,0.172,1.129,20.634,68.947,12.573,49,198
59485,-0.103,-0.046,0.883,-29.511,-52.924,9.626,49,198
59543,-0.167,0.142,1.044,21,54.496,7.359,45,198
59601,-0.34,-0.004,1.013,-34.069,-47.351,13.817,58,199
59660,0.048,0.001,0.948,30.748,39.267,-1.107,47,199
59717,-0.579,0.052,1.127,-32.496,-26.87,13.069,43,200
59774,0.227,-0.091,0.853,18.679,18.542,1.313,45,200
59833,-0.618,0.17,1.181,-20.107,3.924,7.076,43,200
59890,0.165,-0.154,0.884,3.26,-21.924,3.809,43,0
59948,-0.574,0.27,1.214,-0.351,42.588,6.527,46,0
60010,0.024,-0.129,0.854,-7.221,-20.756,10.038,59,0
60067,-0.385,0.269,1.07,1.038,41.038,5.122,41,0
60125,-0.115,-0.248,0.902,-29.718,-35.672,8.855,37,0
60182,-0.228,0.148,1.074,14.237,40.29,0.695,37,0
60239,-0.348,-0.164,1.036,-33.42,-25.344,11.473,39,0
60297,-0.048,-0.082,0.92,18.237,34.947,4.542,36,0
60355,-0.339,0.03,1.032,-33.115,-11.534,-5.45,39,0