Timestamp(ms),AccelX(g),AccelY(g),AccelZ(g),GyroX(deg/s),GyroY(deg/s),GyroZ(deg/s),DistanceLeft(cm),DistanceRight(cm)
41243,-0.147,-0.887,-0.090,-9.855,0.420,71.382,0.0,86.0
41299,-0.188,-0.985,-0.074,3.198,4.389,42.611,0.0,141.0
41357,-0.171,-1.172,-0.127,15.687,20.015,6.618,0.0,144.0
41412,-0.289,-1.264,0.009,14.397,38.031,-40.847,171.0,146.0
41465,-0.414,-1.575,0.059,10.893,20.725,-79.870,167.0,95.0
41516,-0.510,-1.775,0.089,19.321,-5.947,-117.130,133.0,93.0
41566,-0.404,-1.102,0.050,35.931,-32.908,-124.229,145.0,94.0
41624,-0.249,-0.382,0.296,22.435,-32.550,-75.779,143.0,164.0
41676,-0.197,-0.774,0.150,-5.122,-34.290,-11.061,143.0,115.0
41728,-0.006,-0.865,-0.067,22.130,8.443,26.634,143.0,96.0
41782,-0.066,-0.609,0.036,29.496,66.580,42.145,142.0,156.0
41833,-0.198,-0.587,0.095,6.496,84.260,29.313,142.0,98.0
41883,-0.308,-0.771,0.061,9.649,52.992,10.420,122.0,98.0
41933,-0.338,-0.880,0.105,10.107,22.382,-13.214,124.0,100.0
41990,-0.300,-0.964,0.065,3.374,3.969,-31.824,131.0,195.0
42041,-0.310,-1.038,0.099,-8.420,6.573,-33.779,137.0,102.0
42096,-0.311,-1.173,0.088,-17.794,11.511,-24.168,117.0,142.0
42146,-0.340,-1.366,0.079,-22.382,15.939,-12.389,119.0,109.0
42196,-0.347,-1.503,-0.053,-21.321,32.504,-22.427,106.0,116.0
42249,-0.458,-0.922,0.138,-11.282,13.260,-13.450,102.0,152.0
42302,-0.402,-0.847,0.147,-16.588,-67.847,39.008,104.0,167.0
42352,-0.264,-1.025,-0.125,-12.595,-83.092,49.389,103.0,123.0
42406,-0.151,-0.863,-0.141,-14.435,-64.099,64.267,94.0,185.0
42457,-0.193,-0.818,-0.151,-13.313,-43.847,63.924,94.0,135.0
42511,-0.233,-0.618,-0.063,-10.565,-56.725,69.130,103.0,143.0
42566,-0.133,-0.680,-0.186,-19.725,-64.450,74.229,93.0,0.0
42617,-0.179,-0.833,-0.133,-19.008,-44.817,57.122,87.0,152.0
42678,-0.173,-1.061,-0.141,-18.344,-39.626,41.038,0.0,0.0
42738,-0.302,-1.360,-0.101,-3.328,-19.168,-6.145,0.0,0.0
42791,-0.373,-1.415,-0.025,-9.023,-16.420,-50.305,82.0,0.0
42846,-0.460,-1.484,0.047,-9.023,-15.061,-72.573,82.0,0.0
42886,-0.492,-1.439,0.082,4.427,-35.252,-80.863,81.0,0.0
42935,-0.389,-0.853,0.091,21.160,-37.031,-81.740,81.0,72.0
42988,-0.276,-0.354,0.253,18.046,-33.252,-46.229,81.0,0.0
43035,-0.182,-0.730,0.149,2.450,-33.168,14.229,80.0,82.0
43082,-0.147,-0.970,-0.007,14.634,-7.901,29.427,84.0,83.0
43128,-0.289,-0.818,0.162,5.832,1.573,21.710,76.0,84.0
43175,-0.229,-0.832,0.047,0.092,-8.366,9.763,74.0,88.0
43219,-0.258,-0.687,0.090,8.786,-11.282,-3.046,72.0,49.0
43264,-0.308,-0.746,0.123,-0.389,-25.855,-9.374,69.0,48.0
43308,-0.260,-0.845,0.040,0.031,-34.015,-12.588,68.0,50.0
43355,-0.233,-0.843,0.037,3.618,-25.626,-6.313,67.0,51.0
43400,-0.285,-0.939,0.101,-10.427,-19.229,-6.344,65.0,55.0
43444,-0.353,-1.056,0.095,-14.427,-24.802,-5.023,62.0,57.0
43488,-0.330,-1.116,0.081,-12.565,-34.084,-4.718,61.0,59.0
43533,-0.272,-1.221,0.013,-14.122,-18.237,-4.229,57.0,61.0
43581,-0.414,-1.353,0.094,-26.359,-13.328,-13.771,126.0,66.0
43629,-0.502,-1.450,-0.031,-22.611,-42.939,-22.191,109.0,72.0
43677,-0.318,-0.750,0.019,-8.595,-73.748,-0.115,120.0,60.0
43732,-0.315,-0.846,0.026,-29.107,-92.901,46.489,110.0,193.0
43834,-0.194,-0.914,-0.172,-31.275,-105.611,77.863,120.0,0.0
43883,-0.128,-0.792,-0.186,-32.099,-69.313,80.359,117.0,75.0
43933,-0.104,-0.723,-0.200,-27.908,-40.824,87.153,134.0,80.0
43982,-0.220,-0.732,-0.073,-30.977,-32.275,75.321,129.0,76.0
44033,-0.222,-0.920,-0.115,-30.954,-46.153,55.573,126.0,90.0
44083,-0.211,-1.007,-0.118,-17.191,-40.847,21.916,122.0,93.0
44132,-0.247,-1.115,-0.078,-10.992,-28.802,-17.611,118.0,83.0
44182,-0.318,-1.140,0.012,-2.817,-14.534,-51.588,115.0,92.0
44234,-0.351,-1.319,0.012,4.817,-9.603,-71.023,113.0,95.0
44284,-0.408,-1.499,0.084,5.992,-6.321,-84.115,111.0,98.0
44333,-0.465,-1.658,0.112,5.916,-9.481,-93.427,89.0,99.0
44380,-0.388,-1.222,0.032,27.290,-17.855,-97.985,84.0,78.0
44427,-0.214,-0.401,0.189,42.649,-8.519,-60.679,83.0,89.0
44474,-0.057,-0.620,0.131,8.595,4.313,6.649,84.0,71.0
44520,-0.038,-0.916,-0.086,7.153,46.313,38.244,83.0,71.0
44568,-0.192,-0.776,0.113,5.870,66.656,42.313,110.0,76.0
44617,-0.236,-0.761,0.074,1.313,51.099,25.298,107.0,101.0
44670,-0.290,-0.675,0.116,12.015,28.076,1.328,107.0,100.0
44721,-0.328,-0.661,0.159,-1.656,-9.763,-7.542,107.0,110.0
44769,-0.279,-0.882,0.029,-0.290,-27.176,-9.557,106.0,84.0
44818,-0.276,-0.945,0.054,-6.756,-27.183,-12.244,104.0,80.0
44866,-0.305,-1.014,0.040,-10.695,-14.733,-17.198,102.0,83.0
44914,-0.360,-1.013,0.115,-10.977,-15.099,-16.824,101.0,84.0
44962,-0.326,-1.177,0.070,-14.832,-14.992,-13.015,90.0,92.0
45010,-0.341,-1.215,0.060,-16.397,-7.053,-6.466,87.0,91.0
45062,-0.314,-1.384,0.040,-16.771,13.130,3.107,84.0,93.0
45110,-0.437,-1.544,-0.014,-13.267,13.824,-5.969,81.0,98.0
45158,-0.328,-0.802,0.032,1.031,-0.565,0.489,84.0,102.0
45207,-0.378,-0.781,0.119,-17.038,-34.244,37.206,74.0,111.0
45254,-0.381,-1.039,-0.058,-19.298,-74.336,48.069,72.0,103.0
45306,-0.203,-0.786,-0.121,-16.176,-89.153,66.672,88.0,145.0
45356,-0.156,-0.688,-0.115,-30.344,-68.038,77.244,84.0,117.0
45409,-0.188,-0.758,-0.117,-24.153,-46.153,80.466,105.0,158.0
45462,-0.193,-0.782,-0.111,-23.969,-53.305,71.015,100.0,164.0
45516,-0.126,-0.941,-0.170,-12.870,-27.802,54.511,95.0,141.0
45570,-0.167,-1.058,-0.127,-8.565,-1.496,27.985,92.0,174.0
45623,-0.229,-1.185,-0.084,2.198,19.977,-1.450,89.0,173.0
45676,-0.382,-1.344,0.029,-2.000,8.359,-37.626,87.0,179.0
45728,-0.397,-1.553,0.014,8.221,-6.626,-70.496,87.0,146.0
45774,-0.404,-1.554,-0.025,15.389,-13.550,-99.863,88.0,57.0
45826,-0.269,-0.798,-0.016,36.939,7.534,-104.733,88.0,143.0
45877,-0.251,-0.606,0.229,21.122,21.893,-59.969,88.0,148.0
45932,-0.244,-0.959,-0.026,16.542,33.809,-23.611,88.0,148.0
45985,-0.180,-0.690,0.064,25.435,67.580,6.298,90.0,173.0
46036,-0.336,-0.647,0.157,7.092,59.397,15.046,91.0,142.0
46090,-0.268,-0.663,0.055,21.450,31.366,13.328,90.0,171.0
46141,-0.247,-0.743,0.056,16.527,22.489,-3.267,94.0,140.0
46192,-0.298,-1.022,-0.006,17.160,22.534,-23.244,92.0,139.0
46245,-0.360,-1.059,0.029,9.740,10.740,-42.298,90.0,173.0
46298,-0.351,-0.921,0.078,1.511,3.359,-42.924,86.0,145.0
46392,-0.386,-1.234,0.083,-13.924,-14.031,-29.137,84.0,149.0
46448,-0.433,-1.355,0.115,-20.939,-14.824,-15.710,79.0,181.0
46501,-0.482,-1.305,0.092,-21.740,-43.992,-2.763,76.0,184.0
46555,-0.234,-0.748,0.042,-8.580,-63.374,37.565,73.0,186.0
46607,-0.307,-1.009,-0.031,-19.550,-44.389,61.672,69.0,171.0
46659,-0.262,-0.995,-0.092,-3.168,-38.176,67.122,88.0,171.0
46708,-0.252,-0.873,-0.037,-12.565,-42.260,79.359,83.0,92.0
46756,-0.185,-0.863,-0.142,-11.863,-26.893,85.015,81.0,98.0
46807,-0.196,-0.740,-0.070,-9.611,-15.977,84.122,100.0,104.0
46864,-0.172,-0.805,-0.133,-17.336,-3.595,83.282,94.0,194.0
46919,-0.207,-0.773,-0.061,-14.069,6.687,72.130,91.0,0.0
46973,-0.167,-0.856,-0.104,-15.969,10.672,56.008,89.0,0.0
47029,-0.289,-1.066,-0.025,-12.527,19.611,15.672,86.0,0.0
47083,-0.376,-1.323,-0.019,-0.069,8.397,-39.802,84.0,0.0
47137,-0.490,-1.544,0.062,12.695,-13.931,-101.397,82.0,0.0
47192,-0.564,-1.835,-0.045,22.466,-32.374,-157.718,83.0,0.0
47247,-0.330,-0.765,-0.040,46.473,-25.710,-159.672,85.0,0.0
47301,-0.193,-0.663,0.185,18.168,-5.931,-80.595,85.0,0.0
47360,-0.225,-1.024,-0.042,6.580,28.939,-27.756,85.0,199.0
47414,-0.177,-0.731,0.010,22.397,66.382,5.092,87.0,0.0
47469,-0.301,-0.643,0.108,9.420,68.313,22.908,88.0,198.0
47523,-0.357,-0.736,0.068,17.183,37.405,17.214,86.0,0.0
47578,-0.264,-0.752,0.010,13.817,10.763,3.573,86.0,0.0
47633,-0.268,-0.909,0.007,4.107,13.588,-8.336,84.0,0.0
47687,-0.239,-0.954,-0.017,1.863,16.405,-2.672,82.0,0.0
47747,-0.345,-1.074,0.091,-17.832,3.099,-5.924,80.0,0.0
47800,-0.314,-1.182,0.026,-15.412,-4.802,-12.481,77.0,0.0
47855,-0.416,-1.433,0.094,-29.038,-16.374,-13.809,73.0,0.0
47908,-0.397,-1.270,-0.020,-17.931,-38.473,-27.656,71.0,0.0
47961,-0.271,-0.736,0.081,-8.542,-59.412,5.733,66.0,0.0
48014,-0.304,-1.022,-0.050,-21.748,-70.985,45.840,62.0,0.0
48067,-0.264,-0.976,-0.046,-16.573,-75.351,66.664,83.0,0.0
48120,-0.152,-1.044,-0.163,-19.504,-55.008,84.374,79.0,0.0
48181,-0.187,-0.850,-0.052,-7.427,-13.702,94.137,0.0,0.0
48241,-0.213,-0.802,-0.074,-7.916,-15.466,93.771,0.0,0.0
48303,-0.182,-0.744,-0.061,-12.099,-13.763,85.702,0.0,186.0
48363,-0.146,-0.801,-0.118,-1.679,7.168,63.809,0.0,188.0
48422,-0.223,-0.957,-0.074,2.901,18.427,23.649,0.0,187.0
48482,-0.341,-1.190,-0.020,12.237,18.916,-27.550,0.0,189.0
48541,-0.421,-1.443,-0.045,16.069,4.015,-85.061,0.0,187.0
48602,-0.480,-1.577,-0.001,23.038,-6.504,-129.718,0.0,0.0
48662,-0.372,-0.948,0.035,34.176,-1.656,-140.160,0.0,0.0
48722,-0.248,-0.824,0.150,14.687,3.588,-83.061,0.0,0.0
48775,-0.169,-1.028,-0.026,13.756,16.954,-33.191,64.0,0.0
48835,-0.125,-0.864,-0.034,24.511,73.008,-2.496,160.0,0.0
48893,-0.239,-0.632,0.041,16.771,93.450,4.878,161.0,0.0
48947,-0.245,-0.584,0.035,24.802,63.099,1.908,76.0,0.0
49000,-0.244,-0.695,0.036,18.198,49.466,-2.305,78.0,0.0
49053,-0.259,-1.060,-0.012,7.832,35.130,-11.885,75.0,0.0
49106,-0.284,-1.020,0.056,5.275,35.969,-22.733,76.0,0.0
49203,-0.378,-1.146,0.106,-10.634,-8.443,-35.298,74.0,0.0
49256,-0.328,-1.396,0.014,-18.519,-18.962,-19.733,68.0,0.0
49308,-0.394,-1.341,0.096,-38.069,-42.878,-11.756,69.0,0.0
49364,-0.222,-0.824,-0.074,-31.321,-56.557,4.542,65.0,0.0
49417,-0.238,-0.808,0.002,-33.718,-51.634,40.084,62.0,0.0
49469,-0.257,-1.087,-0.216,-12.435,-57.496,38.908,57.0,0.0
49521,-0.143,-0.868,-0.157,-2.053,-38.595,54.565,59.0,0.0
49571,-0.188,-0.942,-0.187,-10.336,-4.153,66.282,129.0,82.0
49620,-0.267,-0.859,-0.078,-7.985,-9.763,75.740,125.0,87.0
49677,-0.230,-0.833,-0.094,-8.336,-24.290,85.733,121.0,0.0
49737,-0.155,-0.827,-0.140,-16.038,-21.145,90.756,0.0,0.0
49801,-0.189,-0.897,-0.115,-8.786,12.695,84.031,198.0,0.0
49848,-0.289,-1.029,-0.071,-8.420,-3.084,45.412,195.0,0.0
49907,-0.303,-1.087,-0.075,6.000,-10.382,7.740,195.0,0.0
49953,-0.356,-1.266,-0.093,10.855,-18.924,-39.687,193.0,0.0
50014,-0.337,-1.294,-0.116,24.099,-5.718,-66.962,0.0,0.0
50061,-0.485,-1.574,-0.033,21.084,-8.023,-102.794,191.0,0.0
50115,-0.391,-1.189,-0.137,39.962,-11.053,-124.000,106.0,0.0
50170,-0.197,-0.665,0.039,28.580,-1.290,-86.931,105.0,0.0
50226,-0.312,-1.012,0.026,6.702,28.206,-52.237,106.0,0.0
50284,-0.216,-0.929,0.001,10.107,20.985,-21.405,107.0,0.0
50339,-0.292,-0.736,0.162,-3.008,23.618,-8.168,107.0,0.0
50395,-0.221,-0.755,0.017,10.649,12.626,1.809,107.0,0.0
50450,-0.207,-0.667,0.065,10.641,13.565,-3.191,106.0,0.0
50505,-0.250,-0.823,0.039,9.359,8.366,-9.160,105.0,0.0
50560,-0.181,-0.886,-0.017,7.687,2.298,-0.504,104.0,0.0
50615,-0.218,-0.991,0.019,2.267,26.695,0.870,102.0,0.0
50670,-0.280,-1.138,0.011,-7.008,18.336,-1.427,101.0,0.0
50724,-0.294,-1.067,0.085,-11.443,13.985,-6.626,99.0,0.0
50782,-0.282,-1.259,0.043,-17.366,5.672,0.313,97.0,0.0
50837,-0.399,-1.219,0.081,-17.473,-38.427,-10.084,93.0,0.0
50891,-0.200,-0.855,-0.032,-15.191,-69.908,-2.824,90.0,0.0
50946,-0.097,-0.962,-0.175,-13.977,-52.603,14.466,88.0,0.0
51000,-0.146,-0.974,-0.131,-0.137,-26.443,35.122,85.0,0.0
51053,-0.179,-1.001,-0.127,-13.206,-31.344,40.763,82.0,0.0
51107,-0.207,-1.045,-0.088,-14.069,-43.664,36.985,81.0,0.0
51168,-0.153,-0.958,-0.144,-9.298,-53.405,30.214,0.0,0.0
51229,-0.162,-0.857,-0.080,-17.763,-58.534,21.527,0.0,0.0
51293,-0.171,-0.861,-0.078,-7.489,-66.519,11.733,0.0,0.0
51340,-0.119,-0.866,-0.127,1.611,-70.977,11.252,0.0,0.0
51386,-0.161,-0.901,-0.042,4.901,-60.534,14.611,0.0,0.0
51433,-0.228,-1.048,-0.029,4.603,-65.061,10.641,0.0,0.0
51480,-0.274,-0.995,0.085,-5.702,-68.557,1.748,0.0,0.0
51526,-0.317,-0.990,0.165,-16.092,-80.580,-8.290,0.0,0.0
51565,-0.279,-0.932,0.192,-20.931,-104.405,-7.588,0.0,45.0
51614,-0.165,-1.026,0.027,-5.931,-108.443,-2.374,166.0,45.0
51667,-0.076,-0.963,0.052,-7.305,-71.420,-2.000,163.0,42.0
51717,-0.188,-0.911,0.181,-19.817,-43.603,4.443,162.0,43.0
51767,-0.209,-1.008,0.150,-15.847,-69.282,4.565,161.0,48.0
51816,-0.250,-0.927,0.227,-4.412,-72.916,-0.626,156.0,45.0
51908,-0.285,-1.067,0.242,-0.885,-104.000,1.366,153.0,45.0
51957,-0.062,-1.056,-0.013,15.794,-83.260,-3.405,152.0,45.0
52006,-0.037,-0.890,0.091,18.748,-34.962,12.321,152.0,45.0
52056,-0.349,-0.991,0.217,10.458,-31.389,19.137,152.0,45.0
52105,-0.292,-0.985,0.251,19.595,-87.305,16.985,152.0,45.0
52157,-0.102,-0.973,0.091,12.641,-74.962,19.748,152.0,45.0
52206,-0.176,-0.985,0.207,15.992,-49.374,15.397,156.0,46.0
52255,-0.193,-0.921,0.261,13.176,-40.038,12.130,156.0,46.0
52305,-0.279,-0.973,0.361,17.053,-48.443,10.817,155.0,46.0
52355,-0.243,-0.989,0.332,23.145,-66.870,19.076,155.0,47.0
52404,-0.111,-0.893,0.327,24.786,-59.046,21.733,155.0,48.0
52454,-0.098,-0.892,0.305,19.443,-32.298,20.008,156.0,49.0
52503,-0.102,-0.851,0.331,14.977,-14.603,14.771,155.0,49.0
52556,-0.129,-0.865,0.356,4.328,-2.481,7.443,155.0,49.0
52605,-0.260,-0.941,0.441,3.565,-9.153,-1.130,155.0,49.0
52655,-0.138,-0.855,0.396,1.420,-23.962,-8.458,154.0,49.0
52705,-0.106,-0.880,0.401,-0.969,-6.504,-2.061,153.0,50.0
52754,-0.173,-0.888,0.462,0.344,-2.969,3.183,154.0,50.0
52804,-0.184,-0.905,0.445,2.855,-7.519,2.641,156.0,50.0
52853,-0.142,-0.851,0.454,2.901,-12.000,2.901,156.0,50.0
52902,-0.149,-0.868,0.440,4.031,-9.626,3.382,153.0,50.0
52953,-0.127,-0.871,0.411,3.794,-5.206,3.107,153.0,50.0
53005,-0.170,-0.884,0.454,0.840,-9.359,-0.611,153.0,50.0
53055,-0.152,-0.883,0.423,-0.275,-7.252,-0.687,153.0,51.0
53098,-0.136,-0.864,0.431,-1.924,-7.122,1.191,45.0,50.0
53141,-0.170,-0.882,0.433,-3.618,-7.733,-1.817,44.0,50.0
53191,-0.109,-0.853,0.424,-0.344,-6.122,-1.595,152.0,50.0
53240,-0.165,-0.881,0.468,-2.969,-4.885,-1.282,153.0,50.0
53291,-0.119,-0.885,0.429,-2.344,-4.008,1.206,152.0,50.0
53340,-0.160,-0.892,0.470,-1.878,-5.763,0.443,152.0,50.0
53389,-0.127,-0.885,0.457,-0.450,-4.702,3.458,152.0,50.0
53442,-0.119,-0.870,0.454,-2.191,-7.046,3.656,153.0,51.0
53491,-0.155,-0.901,0.465,-3.649,-13.740,0.160,153.0,51.0
53535,-0.076,-0.875,0.404,-4.435,-13.580,0.053,44.0,51.0
53578,-0.108,-0.907,0.421,-7.282,-2.313,1.260,44.0,51.0
53622,-0.131,-0.909,0.447,-3.260,-8.420,1.053,44.0,51.0
53671,-0.104,-0.907,0.425,-2.084,-11.924,0.160,153.0,51.0
53722,-0.102,-0.908,0.414,-2.901,-2.664,0.901,155.0,51.0
53771,-0.121,-0.900,0.443,-2.237,-4.130,-0.053,153.0,51.0
53821,-0.103,-0.897,0.411,-1.840,-1.863,-0.267,153.0,51.0
53874,-0.117,-0.917,0.414,-1.176,-3.450,-0.176,154.0,51.0
53923,-0.116,-0.895,0.422,-1.649,-4.664,-1.008,153.0,51.0
53967,-0.113,-0.907,0.413,-0.511,-0.290,0.160,43.0,51.0
54010,-0.119,-0.904,0.420,-1.863,0.809,-1.443,43.0,51.0
54054,-0.118,-0.901,0.416,2.359,1.053,1.481,43.0,51.0
54104,-0.126,-0.905,0.421,0.695,-2.718,1.519,153.0,51.0
54154,-0.108,-0.905,0.414,0.374,-3.473,2.366,153.0,51.0
54203,-0.097,-0.896,0.404,0.282,-2.924,1.824,154.0,51.0
54253,-0.107,-0.907,0.413,-0.290,-0.977,-0.260,154.0,51.0
54306,-0.092,-0.904,0.404,1.099,-0.672,-0.519,154.0,51.0
54400,-0.107,-0.909,0.412,1.939,1.046,-0.962,153.0,51.0
54443,-0.129,-0.915,0.423,2.282,-1.519,-0.443,45.0,51.0
54492,-0.088,-0.892,0.407,2.237,-3.344,0.046,44.0,50.0
54535,-0.106,-0.914,0.408,1.198,1.809,0.038,43.0,51.0
54577,-0.129,-0.906,0.426,3.137,-2.695,0.351,43.0,51.0
54619,-0.093,-0.901,0.398,1.481,-3.771,-0.740,43.0,51.0
54662,-0.119,-0.904,0.419,0.527,1.412,-0.382,44.0,51.0
54704,-0.101,-0.891,0.422,1.809,-3.092,-0.046,44.0,51.0
54750,-0.111,-0.910,0.425,0.840,-3.527,-0.359,44.0,51.0
54792,-0.086,-0.894,0.408,0.504,-3.557,-0.947,44.0,51.0
54835,-0.095,-0.906,0.407,1.031,1.916,0.061,43.0,51.0
54877,-0.116,-0.903,0.419,-0.298,0.718,-1.176,43.0,51.0
54920,-0.111,-0.917,0.416,0.687,-2.214,0.038,43.0,51.0
54962,-0.094,-0.906,0.401,-0.664,-1.557,-0.229,43.0,51.0
55005,-0.110,-0.917,0.408,-0.145,2.771,0.519,45.0,51.0
55047,-0.119,-0.911,0.420,0.756,-1.901,0.382,45.0,51.0
55090,-0.092,-0.910,0.408,-0.802,-2.443,-0.763,45.0,51.0
55136,-0.087,-0.907,0.416,0.618,1.069,0.160,45.0,51.0
55178,-0.114,-0.907,0.438,0.847,-1.458,-0.275,44.0,50.0
55221,-0.097,-0.916,0.414,0.931,-2.832,-0.458,44.0,51.0
55263,-0.107,-0.910,0.421,2.420,1.832,0.641,44.0,51.0
55306,-0.110,-0.899,0.417,3.435,-2.115,0.458,44.0,51.0
55349,-0.083,-0.899,0.402,2.198,-1.000,0.053,44.0,51.0
55391,-0.096,-0.908,0.418,1.763,1.405,0.145,44.0,51.0
55434,-0.104,-0.905,0.408,1.237,-0.282,-0.618,44.0,51.0
55476,-0.105,-0.903,0.423,1.031,-3.557,0.221,44.0,51.0
55522,-0.081,-0.906,0.397,0.137,-1.916,-0.832,44.0,51.0
55565,-0.088,-0.899,0.408,0.244,2.069,-0.336,44.0,51.0
55607,-0.108,-0.916,0.426,1.618,-0.779,0.008,44.0,50.0
55650,-0.095,-0.898,0.414,0.748,-1.183,-0.198,44.0,51.0
55699,-0.093,-0.901,0.418,0.595,0.435,0.023,156.0,51.0
55747,-0.106,-0.909,0.417,1.687,-1.107,-0.664,153.0,51.0
55796,-0.084,-0.903,0.411,1.351,-1.695,1.145,153.0,51.0
55845,-0.092,-0.901,0.405,1.740,1.275,-0.672,157.0,51.0
55895,-0.093,-0.902,0.399,-0.160,1.763,-0.679,153.0,50.0
55948,-0.111,-0.915,0.419,0.321,-0.840,-0.595,167.0,51.0
55997,-0.077,-0.900,0.394,-0.511,-1.740,-1.046,167.0,50.0
56046,-0.090,-0.914,0.415,-1.061,3.176,-0.053,153.0,51.0
56095,-0.102,-0.896,0.427,0.641,-1.420,-0.298,153.0,50.0
56144,-0.088,-0.903,0.404,-0.550,-1.481,-0.298,153.0,51.0
56194,-0.086,-0.897,0.418,0.588,1.084,0.832,153.0,51.0
56243,-0.088,-0.904,0.420,-0.809,1.427,-1.084,153.0,51.0
56292,-0.104,-0.923,0.419,1.305,0.405,0.260,154.0,51.0
56341,-0.092,-0.909,0.409,0.183,-2.267,-0.008,154.0,51.0
56393,-0.101,-0.918,0.409,1.000,-0.221,-0.130,154.0,50.0
56441,-0.090,-0.902,0.397,0.565,0.519,0.115,154.0,51.0
56491,-0.105,-0.911,0.416,-0.031,-1.412,-0.573,153.0,51.0
56548,-0.090,-0.912,0.398,0.885,-0.649,0.588,154.0,51.0
56596,-0.109,-0.923,0.416,-0.420,-2.298,0.130,154.0,51.0
56645,-0.068,-0.907,0.374,0.000,-0.664,0.328,154.0,50.0
56737,-0.095,-0.910,0.415,-0.687,-4.145,-0.374,154.0,51.0
56786,-0.070,-0.913,0.383,-1.779,-1.443,-0.397,154.0,50.0
56835,-0.098,-0.929,0.414,0.137,1.053,-0.389,154.0,51.0
56887,-0.086,-0.916,0.412,0.084,-0.702,0.511,154.0,51.0
56935,-0.087,-0.919,0.399,1.244,-0.145,1.092,154.0,51.0
56984,-0.090,-0.909,0.384,-0.412,-0.183,-0.290,155.0,52.0
57033,-0.100,-0.920,0.401,1.489,-1.313,1.588,155.0,51.0
57081,-0.096,-0.919,0.395,0.595,-0.954,1.008,155.0,51.0
57131,-0.085,-0.917,0.396,1.176,-2.260,1.137,154.0,51.0
57180,-0.099,-0.920,0.404,0.573,-0.099,1.397,154.0,51.0
57229,-0.082,-0.907,0.393,0.649,-2.206,0.763,155.0,51.0
57277,-0.100,-0.909,0.417,-0.954,-0.969,-0.099,155.0,50.0
57329,-0.087,-0.930,0.397,0.947,-3.015,0.550,155.0,51.0
57378,-0.080,-0.912,0.386,1.725,0.267,0.313,156.0,51.0
57427,-0.096,-0.920,0.402,1.466,2.527,0.947,156.0,51.0
57476,-0.097,-0.908,0.393,2.206,-1.160,-0.626,156.0,51.0
57525,-0.087,-0.913,0.394,1.397,0.649,1.023,157.0,51.0
57574,-0.109,-0.917,0.395,0.969,-1.992,-0.221,158.0,51.0
57623,-0.077,-0.903,0.374,0.328,-0.679,0.229,157.0,51.0
57672,-0.113,-0.924,0.407,-0.145,0.939,0.893,157.0,51.0
57721,-0.086,-0.918,0.384,0.458,-2.580,1.511,157.0,51.0
57774,-0.094,-0.916,0.404,-0.733,-2.221,0.366,157.0,51.0
57823,-0.091,-0.921,0.400,0.603,-0.237,1.191,156.0,51.0
57872,-0.092,-0.903,0.398,0.878,-1.519,1.122,156.0,51.0
57921,-0.085,-0.917,0.402,-0.061,-1.122,0.122,157.0,51.0
57970,-0.088,-0.917,0.394,1.511,-1.977,0.580,156.0,51.0
58019,-0.088,-0.916,0.396,1.137,-1.756,1.305,156.0,52.0
58068,-0.084,-0.922,0.378,0.679,-0.733,-0.809,157.0,52.0
58118,-0.102,-0.914,0.394,1.214,0.412,0.053,156.0,51.0
58167,-0.092,-0.909,0.378,0.450,-2.382,-0.634,156.0,52.0
58219,-0.091,-0.920,0.390,-0.137,-0.702,-0.206,156.0,51.0
58268,-0.090,-0.925,0.398,-0.817,0.351,-0.382,156.0,51.0
58317,-0.091,-0.914,0.386,0.519,-3.198,-0.687,155.0,51.0
58366,-0.088,-0.922,0.381,0.389,2.328,0.115,154.0,52.0
58416,-0.094,-0.915,0.402,0.603,-0.336,-0.321,155.0,52.0
58465,-0.086,-0.915,0.395,1.183,-0.130,0.702,155.0,52.0
58514,-0.094,-0.917,0.408,2.023,-1.924,0.908,155.0,51.0
58563,-0.076,-0.912,0.381,2.115,-0.779,0.763,154.0,52.0
58606,-0.099,-0.922,0.387,1.450,0.832,0.344,45.0,51.0
58651,-0.094,-0.915,0.389,1.794,-2.237,0.641,45.0,51.0
58694,-0.083,-0.912,0.391,1.519,-2.504,0.214,45.0,52.0
58743,-0.085,-0.918,0.378,0.885,-0.092,0.321,155.0,52.0
58792,-0.087,-0.922,0.377,1.046,-0.740,0.740,155.0,52.0
58842,-0.105,-0.920,0.399,0.435,-1.046,0.176,154.0,52.0
58891,-0.076,-0.915,0.373,0.733,-2.405,0.863,155.0,52.0
58940,-0.088,-0.917,0.391,0.260,-0.924,-0.947,154.0,51.0
58989,-0.090,-0.922,0.394,0.458,1.198,0.718,154.0,52.0
59038,-0.095,-0.909,0.397,1.084,-1.649,-0.237,154.0,51.0
59091,-0.084,-0.920,0.385,1.611,-0.672,0.084,154.0,52.0
59141,-0.094,-0.911,0.401,1.710,0.420,0.748,154.0,51.0
59233,-0.086,-0.913,0.390,1.718,1.046,0.359,154.0,52.0
59282,-0.092,-0.916,0.382,1.504,-1.893,-0.099,154.0,51.0
59331,-0.083,-0.920,0.386,0.954,-1.542,0.687,154.0,51.0
59380,-0.083,-0.918,0.394,1.603,-2.122,0.046,154.0,51.0
59429,-0.085,-0.921,0.392,1.160,-0.679,-0.145,154.0,51.0
59479,-0.091,-0.917,0.396,1.412,-2.290,-0.038,154.0,51.0
59528,-0.079,-0.922,0.399,1.580,-1.069,-0.153,154.0,51.0
59581,-0.092,-0.917,0.391,1.260,-2.618,-0.092,154.0,51.0
59630,-0.084,-0.922,0.397,1.435,-1.122,0.321,154.0,51.0
59679,-0.098,-0.912,0.406,1.840,-3.977,0.802,154.0,51.0
59728,-0.085,-0.923,0.399,2.305,-2.038,1.817,154.0,52.0
59778,-0.074,-0.903,0.398,1.260,-3.542,-0.221,154.0,51.0
59828,-0.086,-0.917,0.397,1.015,-0.214,0.282,154.0,52.0
59877,-0.087,-0.904,0.395,0.473,-0.702,-0.748,154.0,51.0
59926,-0.090,-0.922,0.395,-1.672,-1.122,-1.573,154.0,51.0
59978,-0.091,-0.927,0.408,0.000,-4.496,1.389,154.0,52.0
60027,-0.064,-0.926,0.387,-0.405,-5.145,0.489,154.0,51.0
60078,-0.067,-0.916,0.377,-1.641,2.313,-0.519,154.0,51.0
60127,-0.093,-0.917,0.418,-0.221,-1.969,-0.076,153.0,51.0
60177,-0.067,-0.930,0.403,0.076,-3.153,-1.130,164.0,51.0
60227,-0.070,-0.909,0.400,1.130,3.595,0.481,164.0,51.0
60277,-0.079,-0.916,0.412,2.466,-1.115,0.145,165.0,52.0
60326,-0.063,-0.910,0.384,1.649,-1.702,-0.832,154.0,51.0
60376,-0.081,-0.921,0.391,3.038,4.122,0.977,154.0,52.0
60429,-0.087,-0.909,0.391,2.573,-2.107,-0.756,154.0,51.0
60478,-0.076,-0.918,0.383,1.641,1.885,0.954,154.0,52.0
60528,-0.069,-0.925,0.383,1.504,0.893,-0.290,165.0,51.0
60577,-0.073,-0.913,0.386,0.557,0.885,-1.206,154.0,51.0
60627,-0.075,-0.913,0.384,0.092,3.107,-0.244,165.0,51.0
60678,-0.094,-0.921,0.406,0.809,-0.412,-0.359,165.0,51.0
60728,-0.075,-0.911,0.395,-0.206,-2.267,-0.634,154.0,51.0
60778,-0.069,-0.916,0.384,0.321,1.885,0.496,164.0,51.0
60827,-0.081,-0.917,0.395,0.130,0.702,-1.557,153.0,51.0
60879,-0.079,-0.920,0.391,0.344,3.405,-0.527,154.0,51.0
60930,-0.074,-0.913,0.381,0.008,0.710,-0.511,153.0,51.0
60979,-0.099,-0.932,0.404,0.542,1.069,-0.412,163.0,51.0
61029,-0.071,-0.919,0.395,1.580,-0.954,0.954,163.0,52.0
61079,-0.079,-0.919,0.392,1.290,-0.313,-0.107,163.0,51.0
61129,-0.080,-0.928,0.389,1.252,0.366,0.771,158.0,51.0
61179,-0.056,-0.912,0.386,0.137,2.336,-0.504,158.0,51.0
61229,-0.082,-0.921,0.390,0.076,1.931,-1.244,152.0,51.0
61279,-0.084,-0.923,0.396,-0.038,-1.252,-1.366,153.0,51.0
61331,-0.059,-0.915,0.372,-0.130,0.710,-0.053,153.0,51.0
61381,-0.094,-0.929,0.399,0.832,-0.397,-0.427,157.0,50.0
61430,-0.069,-0.918,0.384,0.214,-0.733,0.031,157.0,51.0
61480,-0.069,-0.916,0.372,0.672,0.061,0.153,157.0,50.0
61530,-0.084,-0.923,0.390,0.130,1.435,-0.412,153.0,51.0
61580,-0.081,-0.932,0.400,0.985,-0.740,1.260,157.0,50.0
61629,-0.055,-0.913,0.376,1.061,-2.649,0.290,152.0,50.0
61678,-0.076,-0.926,0.387,0.824,2.573,0.611,156.0,50.0
61771,-0.075,-0.927,0.381,0.405,-0.885,-0.618,153.0,50.0
61825,-0.082,-0.925,0.394,2.107,0.366,0.435,154.0,50.0
61874,-0.084,-0.919,0.390,1.557,-1.298,0.641,153.0,51.0
61923,-0.069,-0.916,0.383,1.031,0.206,0.679,153.0,51.0
61973,-0.083,-0.921,0.377,0.809,-1.924,0.015,156.0,50.0
62022,-0.071,-0.930,0.377,0.427,-0.351,0.359,156.0,51.0
62072,-0.086,-0.920,0.388,0.603,-0.527,0.099,156.0,50.0
62123,-0.066,-0.929,0.369,0.427,1.443,0.466,156.0,50.0
62172,-0.092,-0.916,0.384,0.092,2.595,1.260,156.0,50.0
62222,-0.086,-0.923,0.379,1.084,-0.710,0.824,156.0,51.0
62275,-0.078,-0.930,0.376,0.641,-0.840,0.634,155.0,50.0
62324,-0.070,-0.913,0.382,0.321,0.519,0.863,153.0,50.0
62374,-0.080,-0.930,0.396,1.710,-1.740,1.718,155.0,50.0
62424,-0.059,-0.923,0.377,0.634,-3.176,-1.542,155.0,50.0
62474,-0.068,-0.929,0.375,1.260,5.038,-0.084,155.0,50.0
62523,-0.101,-0.925,0.392,1.260,-2.466,-1.374,155.0,50.0
62573,-0.064,-0.927,0.364,0.763,-2.351,-0.779,156.0,51.0
62623,-0.086,-0.923,0.388,0.962,0.725,0.122,155.0,50.0
62672,-0.065,-0.922,0.365,0.573,-1.191,-0.336,155.0,50.0
62726,-0.072,-0.929,0.365,-0.420,4.321,-0.832,156.0,50.0
62776,-0.104,-0.931,0.402,0.336,1.397,0.008,155.0,50.0
62825,-0.076,-0.923,0.388,1.305,-4.084,-0.107,153.0,51.0
62875,-0.069,-0.926,0.369,1.252,-1.618,-0.229,154.0,50.0
62925,-0.077,-0.927,0.383,1.908,0.443,1.122,153.0,50.0
62980,-0.071,-0.921,0.377,1.382,0.366,0.847,153.0,50.0
63029,-0.065,-0.923,0.370,1.336,1.053,0.084,153.0,50.0
63077,-0.092,-0.925,0.387,1.573,-0.473,0.405,153.0,50.0
63126,-0.063,-0.925,0.372,1.443,-3.565,-0.015,154.0,50.0
63177,-0.085,-0.928,0.399,1.565,0.656,0.427,154.0,50.0
63226,-0.074,-0.915,0.393,2.160,-3.191,0.183,154.0,50.0
63275,-0.068,-0.927,0.377,2.023,-0.588,0.076,154.0,50.0
63324,-0.067,-0.924,0.391,1.359,0.198,-0.015,154.0,51.0
63373,-0.083,-0.917,0.391,1.947,-1.405,-0.863,154.0,50.0
63421,-0.082,-0.927,0.392,2.313,-1.313,0.840,154.0,51.0
63470,-0.076,-0.923,0.385,3.038,-0.863,0.550,153.0,50.0
63518,-0.068,-0.908,0.387,2.130,-1.405,0.160,154.0,50.0
63567,-0.069,-0.924,0.388,1.656,-0.244,0.206,154.0,50.0
63620,-0.079,-0.926,0.380,1.298,-0.267,-0.588,155.0,51.0
63668,-0.080,-0.913,0.391,1.534,-3.214,-0.275,155.0,50.0
63717,-0.068,-0.920,0.376,0.817,0.847,-0.588,155.0,50.0
63766,-0.077,-0.921,0.394,1.313,-0.092,0.290,155.0,51.0
63814,-0.073,-0.916,0.391,1.198,-3.214,0.183,153.0,50.0
63863,-0.066,-0.916,0.386,0.733,-0.634,-0.954,155.0,50.0
63912,-0.070,-0.918,0.388,1.359,0.481,-0.122,153.0,50.0
63962,-0.090,-0.932,0.393,1.153,-1.412,-0.565,156.0,50.0
64011,-0.065,-0.921,0.380,1.534,0.519,0.679,156.0,50.0
64062,-0.092,-0.919,0.399,1.481,-0.053,0.053,157.0,50.0
64111,-0.068,-0.921,0.385,2.084,-2.374,0.779,153.0,50.0
64160,-0.063,-0.916,0.395,0.695,0.832,0.313,157.0,50.0
64209,-0.082,-0.927,0.398,1.130,-1.160,1.107,153.0,50.0
64302,-0.069,-0.918,0.388,0.740,0.954,0.450,157.0,50.0
64351,-0.067,-0.915,0.386,0.557,-0.359,-0.473,157.0,50.0
64400,-0.082,-0.927,0.393,0.534,-0.878,-0.244,157.0,50.0
64449,-0.050,-0.914,0.378,0.779,-1.573,-0.527,157.0,50.0
64497,-0.069,-0.922,0.394,0.397,1.260,0.214,153.0,50.0
64549,-0.069,-0.915,0.406,1.061,-2.534,-0.618,154.0,50.0
64599,-0.051,-0.910,0.373,0.504,1.969,-0.023,153.0,51.0
64648,-0.102,-0.920,0.406,1.000,-0.809,-0.008,154.0,51.0
64696,-0.050,-0.913,0.383,1.435,-3.031,0.183,153.0,50.0
64745,-0.068,-0.932,0.385,0.473,2.931,1.122,157.0,51.0
64794,-0.075,-0.917,0.413,2.115,-3.649,1.038,154.0,50.0
64843,-0.045,-0.921,0.367,0.176,-2.481,-0.198,153.0,50.0
64892,-0.059,-0.924,0.390,0.534,5.107,0.763,156.0,50.0
64942,-0.093,-0.928,0.402,1.069,-3.626,-0.443,157.0,50.0
64994,-0.048,-0.918,0.370,-0.573,-3.344,-0.603,153.0,51.0
65043,-0.068,-0.924,0.400,0.443,2.595,0.908,154.0,50.0
65092,-0.078,-0.917,0.399,0.908,-1.901,-0.366,157.0,50.0
65141,-0.049,-0.915,0.381,0.435,0.046,-1.473,154.0,50.0
65190,-0.104,-0.926,0.421,1.885,1.863,0.733,157.0,50.0
65240,-0.065,-0.915,0.382,2.496,-5.153,-0.779,158.0,50.0
65289,-0.045,-0.914,0.362,1.176,3.038,0.198,154.0,51.0
65338,-0.093,-0.919,0.400,1.504,0.260,-0.176,154.0,51.0
65387,-0.061,-0.915,0.384,1.115,-3.931,0.496,154.0,50.0
65439,-0.057,-0.924,0.382,0.076,-0.282,0.229,154.0,50.0
65488,-0.078,-0.922,0.400,0.313,-0.504,-0.328,154.0,50.0
65538,-0.053,-0.922,0.368,1.756,-1.786,1.954,164.0,51.0
65588,-0.070,-0.933,0.388,-1.130,-0.076,0.099,164.0,50.0
65637,-0.075,-0.918,0.387,1.710,-0.863,0.954,163.0,50.0
65687,-0.060,-0.915,0.380,0.313,-1.916,0.214,154.0,50.0
65736,-0.061,-0.925,0.378,0.099,2.359,0.664,154.0,50.0
65785,-0.074,-0.917,0.406,0.031,-1.183,-0.489,154.0,50.0
65835,-0.054,-0.925,0.379,0.794,-2.466,1.099,164.0,50.0
65888,-0.063,-0.916,0.379,1.038,0.611,0.496,164.0,50.0
65938,-0.074,-0.926,0.383,0.084,0.595,-1.084,164.0,50.0
65987,-0.055,-0.923,0.375,0.748,-0.595,0.702,154.0,51.0
66036,-0.075,-0.927,0.388,-0.023,-0.504,-0.397,154.0,51.0
66086,-0.061,-0.919,0.385,1.290,-1.954,0.855,165.0,50.0
66136,-0.054,-0.934,0.376,0.611,0.290,-0.061,154.0,52.0
66185,-0.071,-0.927,0.383,1.115,-0.450,0.229,155.0,51.0
66234,-0.065,-0.916,0.380,0.069,-1.679,-0.489,154.0,50.0
66283,-0.067,-0.931,0.381,0.504,0.351,-0.519,154.0,50.0
66335,-0.072,-0.922,0.386,0.504,0.985,1.000,154.0,50.0
66385,-0.076,-0.923,0.381,0.198,-0.985,1.008,155.0,51.0
66435,-0.046,-0.912,0.371,-0.115,-3.351,0.000,154.0,51.0
66484,-0.050,-0.922,0.367,-1.053,2.443,1.069,154.0,51.0
66533,-0.070,-0.935,0.386,-0.397,0.344,-0.450,154.0,51.0
66582,-0.067,-0.923,0.383,-0.466,-1.985,0.397,154.0,51.0
66632,-0.040,-0.930,0.364,-0.435,0.237,0.458,155.0,51.0
66681,-0.081,-0.934,0.401,-0.244,0.748,-0.298,155.0,52.0
66731,-0.051,-0.925,0.370,1.405,-3.137,1.275,154.0,51.0
66827,-0.067,-0.920,0.371,1.176,0.672,-0.305,155.0,51.0
66876,-0.070,-0.922,0.372,-0.198,-1.076,-0.321,155.0,51.0
66925,-0.051,-0.935,0.366,0.779,-0.366,-0.046,154.0,50.0
66975,-0.073,-0.932,0.373,0.534,0.382,0.290,154.0,51.0
67024,-0.062,-0.929,0.374,0.382,-1.618,-0.206,154.0,50.0
67074,-0.069,-0.929,0.368,-0.366,0.595,-0.718,154.0,51.0
67123,-0.078,-0.934,0.377,0.794,0.313,0.626,155.0,51.0
67173,-0.072,-0.932,0.380,1.038,-0.733,1.771,155.0,51.0
67222,-0.051,-0.929,0.365,1.420,-2.313,0.290,155.0,50.0
67274,-0.053,-0.919,0.363,0.794,1.710,0.214,155.0,51.0
67324,-0.073,-0.933,0.378,0.435,-0.771,0.290,155.0,51.0
67374,-0.071,-0.927,0.375,1.687,-3.107,0.458,155.0,50.0
67423,-0.058,-0.929,0.360,0.885,-0.069,0.107,155.0,51.0
67473,-0.076,-0.940,0.377,0.527,0.847,-0.702,155.0,50.0
67522,-0.059,-0.932,0.368,1.527,-0.786,0.878,155.0,50.0
67571,-0.054,-0.924,0.368,0.718,-0.924,-0.710,155.0,50.0
67621,-0.051,-0.928,0.370,0.664,1.099,-0.435,156.0,51.0
67671,-0.078,-0.932,0.385,0.099,-0.687,-0.611,156.0,50.0
67724,-0.062,-0.927,0.372,1.847,-1.710,-0.076,157.0,50.0
67774,-0.058,-0.932,0.376,1.786,0.809,0.870,157.0,51.0
67823,-0.062,-0.921,0.365,1.015,0.679,-0.198,157.0,51.0
67873,-0.071,-0.932,0.387,1.725,-1.901,0.672,158.0,51.0
67923,-0.046,-0.935,0.368,1.031,-2.565,0.221,159.0,51.0
67974,-0.059,-0.934,0.364,0.718,0.069,0.069,169.0,51.0
68024,-0.056,-0.928,0.369,1.969,-3.069,0.282,169.0,51.0
68074,-0.052,-0.938,0.363,1.580,-0.450,0.679,155.0,50.0
68123,-0.057,-0.926,0.371,1.389,-1.580,-0.252,154.0,50.0
68176,-0.057,-0.918,0.372,0.702,-2.954,-0.779,154.0,50.0
68227,-0.063,-0.933,0.384,1.046,-2.427,-0.901,155.0,51.0
68276,-0.055,-0.927,0.363,2.420,0.427,0.664,156.0,51.0
68326,-0.073,-0.922,0.378,2.733,-0.626,-0.412,157.0,51.0
68375,-0.044,-0.917,0.351,1.313,0.977,-0.252,157.0,51.0
68425,-0.076,-0.938,0.374,0.603,3.481,1.237,157.0,51.0
68475,-0.059,-0.929,0.367,0.847,-2.763,0.321,157.0,51.0
68525,-0.054,-0.932,0.349,-0.679,-1.298,1.076,157.0,51.0
68575,-0.047,-0.926,0.376,0.267,1.092,1.870,157.0,51.0
68628,-0.058,-0.936,0.376,-0.382,-1.847,0.176,157.0,51.0
68678,-0.042,-0.929,0.371,-0.504,-0.893,0.153,157.0,51.0
68727,-0.066,-0.938,0.379,-0.420,1.496,-0.176,157.0,51.0
68777,-0.068,-0.933,0.383,1.565,-3.893,0.046,158.0,51.0
68828,-0.040,-0.920,0.351,0.160,0.458,0.618,157.0,51.0
68878,-0.082,-0.943,0.386,0.244,2.221,-1.191,157.0,51.0
68928,-0.069,-0.925,0.366,1.298,-3.214,0.626,159.0,51.0
68978,-0.047,-0.939,0.353,-0.366,-0.008,-0.321,158.0,52.0
69028,-0.067,-0.936,0.369,0.389,1.634,1.061,159.0,51.0
69082,-0.059,-0.925,0.362,-0.588,-3.458,0.725,158.0,51.0
69132,-0.041,-0.932,0.360,-0.473,-0.237,0.191,157.0,51.0
69183,-0.065,-0.942,0.370,-0.160,2.511,0.664,157.0,51.0
69233,-0.058,-0.936,0.363,0.229,-1.725,0.779,157.0,51.0
69282,-0.048,-0.940,0.358,0.466,-0.595,-0.115,157.0,51.0
69376,-0.052,-0.933,0.359,2.153,-2.481,0.901,157.0,51.0
69432,-0.056,-0.934,0.366,1.641,0.824,-0.130,157.0,51.0
69480,-0.062,-0.933,0.370,1.733,-1.076,-0.023,157.0,51.0
69529,-0.071,-0.934,0.359,1.687,-0.519,0.817,157.0,51.0
69576,-0.061,-0.927,0.360,1.351,-2.008,-0.328,157.0,51.0
69624,-0.064,-0.928,0.361,0.038,0.191,-0.443,157.0,51.0
69673,-0.061,-0.940,0.377,1.519,-2.076,1.130,157.0,52.0
69723,-0.049,-0.935,0.359,1.351,-1.321,0.733,157.0,51.0
69772,-0.054,-0.925,0.356,1.092,-0.115,1.076,157.0,51.0
69821,-0.060,-0.931,0.366,0.290,-0.176,-0.076,157.0,51.0
69870,-0.056,-0.941,0.366,1.664,-1.107,1.137,157.0,51.0
69919,-0.061,-0.936,0.379,1.954,-1.290,1.985,157.0,52.0
69981,-0.061,-0.929,0.373,0.573,-1.939,-0.557,157.0,52.0
70032,-0.054,-0.934,0.355,0.924,1.725,0.740,157.0,51.0
70084,-0.082,-0.938,0.384,1.641,-2.031,0.534,157.0,51.0
70135,-0.041,-0.926,0.348,1.382,-0.664,0.550,157.0,52.0
70188,-0.075,-0.941,0.369,1.137,1.863,0.695,157.0,52.0
70239,-0.052,-0.926,0.364,1.794,-2.489,1.130,157.0,51.0
70290,-0.048,-0.928,0.354,0.008,0.115,-0.641,157.0,51.0
70342,-0.065,-0.937,0.362,-0.023,1.267,0.252,157.0,51.0
70393,-0.077,-0.931,0.377,-0.809,-2.802,-0.947,156.0,51.0
70448,-0.061,-0.926,0.356,1.260,-1.137,0.901,156.0,52.0
70500,-0.059,-0.934,0.375,0.779,-0.908,-0.176,156.0,51.0
70551,-0.060,-0.933,0.366,0.901,-0.084,0.794,156.0,51.0
70602,-0.057,-0.935,0.362,0.855,-2.786,-0.718,157.0,51.0
70654,-0.056,-0.941,0.355,0.947,-0.305,0.252,157.0,51.0
70706,-0.068,-0.937,0.364,1.061,-0.053,0.053,156.0,51.0
70757,-0.059,-0.929,0.364,2.115,-1.733,0.870,157.0,51.0
70809,-0.054,-0.940,0.364,2.260,-0.641,0.076,157.0,51.0
70860,-0.062,-0.926,0.354,1.290,3.122,0.313,157.0,52.0
70916,-0.075,-0.931,0.370,0.809,-1.771,-0.107,156.0,52.0
70967,-0.055,-0.925,0.360,0.237,0.031,0.458,157.0,52.0
71019,-0.070,-0.925,0.376,1.160,-2.519,1.198,157.0,51.0
71070,-0.039,-0.926,0.356,0.313,-0.038,-0.153,157.0,51.0
71122,-0.080,-0.932,0.388,2.076,0.985,1.168,157.0,51.0
71174,-0.052,-0.931,0.364,1.511,-4.519,-0.534,157.0,52.0
71226,-0.048,-0.923,0.371,2.099,0.389,1.267,157.0,51.0
71278,-0.068,-0.934,0.378,2.076,-1.969,-0.641,156.0,51.0
71329,-0.062,-0.935,0.376,2.221,0.397,1.115,156.0,51.0
71384,-0.062,-0.935,0.371,3.496,-0.176,0.366,157.0,51.0
71436,-0.067,-0.924,0.378,2.824,0.061,1.420,156.0,52.0
71488,-0.061,-0.925,0.371,1.702,-2.023,-0.206,157.0,51.0
71540,-0.052,-0.931,0.373,1.756,-2.366,0.191,156.0,51.0
71591,-0.058,-0.928,0.375,2.481,-1.351,1.084,157.0,51.0
71644,-0.058,-0.926,0.376,2.908,-1.015,-0.008,157.0,51.0
71695,-0.057,-0.929,0.376,2.702,-1.626,0.443,157.0,52.0
71747,-0.052,-0.930,0.381,3.107,-3.710,0.687,157.0,52.0
71799,-0.043,-0.931,0.362,2.260,-1.450,-0.710,157.0,53.0
71855,-0.055,-0.928,0.368,2.290,0.565,-0.260,157.0,51.0
71906,-0.054,-0.923,0.372,2.855,-1.237,-0.557,157.0,52.0
