Timestamp(ms),AccelX(g),AccelY(g),AccelZ(g),GyroX(deg/s),GyroY(deg/s),GyroZ(deg/s),DistanceLeft(cm),DistanceRight(cm)
29718,0.139,-0.819,-0.010,30.725,64.260,22.893,94.0,77.0
29765,-0.003,-0.801,0.044,20.809,77.206,14.748,92.0,76.0
29812,-0.076,-0.622,0.073,16.206,61.641,1.573,92.0,80.0
29859,-0.057,-0.670,0.021,16.565,39.687,-5.947,91.0,83.0
29906,-0.110,-0.882,0.033,6.405,35.748,-20.817,94.0,82.0
29954,-0.137,-1.010,0.059,-2.374,42.374,-19.672,91.0,80.0
30001,-0.299,-1.237,0.106,-2.099,43.916,-23.687,95.0,81.0
30052,-0.398,-1.360,0.104,-2.237,38.641,-25.031,92.0,84.0
30101,-0.408,-1.353,0.087,-12.069,18.916,-13.405,131.0,88.0
30149,-0.404,-1.115,0.025,-11.046,7.282,-2.031,93.0,87.0
30198,-0.343,-0.896,0.074,-4.221,-12.160,18.817,122.0,92.0
30248,-0.309,-0.922,-0.059,1.481,-25.122,29.878,120.0,94.0
30299,-0.190,-0.734,-0.083,0.649,-32.519,45.908,117.0,113.0
30350,-0.161,-0.658,-0.058,-6.534,-21.481,52.542,136.0,105.0
30401,-0.050,-0.658,-0.101,-7.382,-31.290,44.969,132.0,107.0
30452,-0.029,-0.770,-0.105,-1.366,-19.664,28.443,128.0,113.0
30511,-0.110,-1.065,-0.101,-2.145,-12.756,2.023,126.0,179.0
30562,-0.228,-1.487,-0.014,-5.580,-20.855,-21.351,122.0,118.0
30613,-0.257,-1.619,-0.059,1.962,-25.420,-35.969,120.0,119.0
30664,-0.221,-1.512,0.012,9.817,-18.740,-40.336,120.0,121.0
30710,-0.220,-1.074,0.083,17.351,-9.229,-46.137,118.0,37.0
30764,-0.046,-0.557,0.055,34.725,7.725,-26.496,117.0,150.0
30810,-0.153,-0.822,0.073,14.931,25.779,-7.878,116.0,40.0
30864,-0.160,-0.799,-0.008,15.847,33.359,-4.954,114.0,179.0
30921,-0.245,-0.698,0.105,5.542,18.954,0.702,112.0,194.0
30973,-0.216,-0.776,0.026,3.382,-3.008,-0.321,110.0,135.0
31025,-0.183,-0.761,0.031,0.183,-12.580,-6.076,104.0,138.0
31078,-0.162,-0.983,0.006,-7.481,-9.687,-8.504,106.0,168.0
31132,-0.300,-1.124,0.102,-13.435,2.191,-18.740,99.0,0.0
31178,-0.384,-1.188,0.107,-18.618,-28.519,-10.809,96.0,51.0
31224,-0.355,-1.187,0.095,-23.641,-45.855,-7.389,98.0,55.0
31277,-0.299,-1.226,-0.020,-27.023,-44.420,1.275,95.0,169.0
31331,-0.293,-0.986,0.008,-19.672,-47.847,6.885,85.0,0.0
31387,-0.327,-0.982,-0.016,-9.595,-71.084,25.641,86.0,185.0
31443,-0.167,-0.992,-0.203,-0.176,-79.504,29.595,138.0,0.0
31498,-0.175,-0.830,-0.125,-3.855,-55.641,38.634,77.0,0.0
31551,-0.133,-0.761,-0.172,-6.336,-49.901,46.802,73.0,0.0
31599,-0.162,-0.726,-0.096,-9.954,-50.130,52.137,142.0,51.0
31648,-0.122,-0.805,-0.170,-13.504,-56.420,46.947,141.0,57.0
31697,-0.123,-0.901,-0.161,-12.527,-41.824,29.603,136.0,60.0
31746,-0.197,-1.057,-0.115,-14.779,-33.855,11.214,134.0,63.0
31798,-0.276,-1.212,0.008,-15.916,-35.374,-11.763,128.0,68.0
31847,-0.292,-1.453,-0.019,-9.847,-43.000,-29.908,125.0,71.0
31894,-0.323,-1.631,-0.030,4.450,-43.779,-53.160,123.0,55.0
31942,-0.252,-0.942,0.055,4.420,-42.237,-65.947,117.0,56.0
31989,-0.074,-0.619,0.108,5.244,-35.069,-30.466,113.0,57.0
32036,-0.202,-1.006,0.032,3.405,-26.870,-15.145,111.0,58.0
32083,-0.205,-1.049,-0.008,8.542,-11.198,-21.298,108.0,61.0
32131,-0.261,-0.950,0.043,3.985,-11.168,-7.947,108.0,63.0
32179,-0.243,-0.835,0.022,-1.695,-29.206,-5.305,106.0,65.0
32271,-0.154,-0.750,-0.028,-8.305,-40.588,0.916,101.0,68.0
32319,-0.164,-0.826,-0.050,-4.282,-33.908,-0.893,105.0,71.0
32367,-0.161,-0.782,-0.001,-14.618,-27.397,5.504,114.0,69.0
32414,-0.216,-0.932,0.042,-22.489,-35.313,8.084,88.0,78.0
32461,-0.220,-1.116,0.010,-20.015,-38.115,4.313,91.0,81.0
32509,-0.268,-1.352,-0.052,-18.855,-24.229,-3.504,89.0,86.0
32557,-0.303,-1.344,-0.008,-24.374,-25.855,1.046,76.0,89.0
32605,-0.326,-1.382,-0.005,-21.748,-43.351,0.695,91.0,86.0
32655,-0.080,-0.864,-0.052,-11.672,-48.565,21.573,84.0,92.0
32703,-0.155,-1.125,-0.093,-20.595,-49.992,34.901,80.0,99.0
32750,-0.134,-1.113,-0.122,-14.489,-53.000,39.656,77.0,82.0
32798,-0.109,-1.008,-0.088,-14.206,-57.427,31.977,96.0,82.0
32845,-0.054,-0.831,-0.123,-8.939,-46.084,28.557,93.0,87.0
32893,-0.054,-0.719,-0.087,-7.168,-46.053,29.595,90.0,90.0
32944,0.001,-0.709,-0.134,-3.382,-28.176,24.641,89.0,117.0
32993,-0.038,-0.721,-0.099,-4.603,-18.389,11.863,108.0,97.0
33044,-0.058,-0.973,-0.120,-1.351,-9.168,-1.336,105.0,134.0
33097,-0.100,-1.144,-0.108,1.321,2.076,-15.687,103.0,103.0
33145,-0.253,-1.444,-0.007,-1.275,2.336,-32.573,82.0,106.0
33196,-0.312,-1.574,-0.033,6.084,-18.634,-44.046,72.0,136.0
33244,-0.246,-1.234,-0.012,15.450,-30.191,-53.527,71.0,109.0
33292,-0.055,-0.508,0.068,14.229,-9.656,-32.008,71.0,111.0
33340,-0.109,-1.055,-0.045,-0.008,19.092,-6.901,69.0,116.0
33390,-0.107,-1.022,-0.048,11.305,42.771,3.656,69.0,142.0
33438,-0.199,-0.869,0.067,-0.824,45.397,9.756,92.0,103.0
33491,-0.259,-0.765,0.132,-2.794,1.244,8.374,91.0,108.0
33541,-0.144,-0.777,0.015,2.802,-18.817,-3.168,89.0,118.0
33590,-0.088,-0.797,-0.054,7.863,-3.786,-8.969,88.0,121.0
33640,-0.137,-0.823,-0.011,7.130,16.382,-6.962,86.0,127.0
33691,-0.220,-1.025,0.016,-1.015,8.275,-8.832,84.0,134.0
33741,-0.274,-1.057,0.032,-2.466,-1.664,-15.756,82.0,129.0
33793,-0.269,-1.163,-0.056,-10.191,-4.298,-10.527,80.0,155.0
33844,-0.384,-1.220,0.047,-16.855,-16.191,-6.382,77.0,154.0
33893,-0.289,-1.221,-0.031,-16.931,-36.977,-1.779,74.0,132.0
33947,-0.204,-0.920,-0.042,-12.664,-38.504,14.847,71.0,141.0
33997,-0.253,-1.027,-0.064,-16.153,-32.527,29.252,69.0,144.0
34049,-0.221,-0.968,-0.061,-16.481,-42.031,47.710,67.0,168.0
34102,-0.242,-0.988,0.005,-22.656,-52.061,55.534,86.0,177.0
34155,-0.143,-0.950,-0.111,-8.550,-50.374,47.901,83.0,181.0
34203,-0.142,-0.778,-0.035,-5.870,-33.679,43.687,105.0,67.0
34257,-0.132,-0.827,-0.071,-3.359,-29.084,36.832,105.0,174.0
34311,-0.147,-0.879,-0.062,6.160,-22.458,20.977,99.0,177.0
34369,-0.161,-0.937,-0.095,6.847,-23.870,0.137,96.0,197.0
34417,-0.104,-1.046,-0.153,7.939,-4.305,-13.824,93.0,82.0
34471,-0.195,-1.205,-0.084,4.336,17.214,-29.763,92.0,199.0
34525,-0.294,-1.304,-0.014,-0.053,19.733,-42.565,92.0,174.0
34578,-0.363,-1.550,0.065,-7.206,-1.870,-39.832,93.0,169.0
34631,-0.228,-1.195,-0.004,4.237,-15.855,-37.534,91.0,170.0
34684,-0.054,-0.558,0.029,18.443,19.702,-32.763,93.0,167.0
34738,-0.129,-0.776,-0.061,18.847,66.534,-22.855,93.0,168.0
34835,-0.389,-0.921,0.081,30.336,50.992,-33.458,92.0,191.0
34891,-0.251,-0.782,0.016,8.313,15.595,-12.344,91.0,167.0
34945,-0.227,-0.677,0.073,5.641,14.519,-1.397,90.0,168.0
34998,-0.157,-0.819,-0.051,4.519,17.595,-5.221,89.0,174.0
35051,-0.281,-0.880,0.105,0.885,18.687,-14.275,87.0,174.0
35104,-0.278,-1.110,0.039,3.679,8.389,-13.756,85.0,176.0
35158,-0.339,-1.103,0.160,-10.046,-16.153,-12.786,82.0,183.0
35211,-0.280,-1.252,0.075,-21.145,-24.260,1.924,79.0,187.0
35265,-0.261,-1.432,0.001,-17.557,-23.771,18.916,75.0,0.0
35321,-0.276,-1.234,-0.006,-8.550,-15.221,11.969,72.0,199.0
35375,-0.200,-0.733,0.013,-14.718,-22.916,30.221,69.0,193.0
35430,-0.287,-0.975,-0.039,-9.565,-26.435,43.321,89.0,198.0
35484,-0.157,-0.967,-0.112,-9.069,-52.992,51.527,85.0,0.0
35538,-0.083,-0.804,-0.109,-7.489,-14.298,51.580,82.0,0.0
35593,-0.133,-0.838,-0.101,-7.649,-8.779,51.046,78.0,0.0
35648,-0.148,-0.766,-0.010,-1.573,-16.115,41.924,100.0,0.0
35703,-0.048,-0.771,-0.145,-5.069,-16.557,34.260,97.0,0.0
35759,-0.092,-0.914,-0.062,-9.466,2.809,17.038,94.0,0.0
35817,-0.160,-1.132,-0.062,-2.214,1.000,-14.420,92.0,0.0
35872,-0.230,-1.375,-0.068,1.878,-8.893,-48.229,91.0,0.0
35927,-0.345,-1.573,-0.028,14.069,-9.366,-77.504,91.0,0.0
35982,-0.369,-1.517,-0.048,21.718,-11.954,-88.931,91.0,0.0
36036,-0.184,-0.571,0.010,25.962,2.198,-68.649,76.0,0.0
36089,-0.248,-0.626,0.174,-7.695,26.160,-14.733,68.0,0.0
36151,-0.123,-1.040,-0.060,8.672,22.313,12.000,92.0,0.0
36205,-0.158,-0.912,0.039,13.191,50.832,-2.382,93.0,0.0
36258,-0.265,-0.755,0.072,6.817,32.092,-10.611,92.0,0.0
36316,-0.153,-0.667,0.019,12.603,2.527,-5.626,92.0,0.0
36370,-0.139,-0.731,-0.029,7.878,24.588,-8.916,92.0,0.0
36423,-0.166,-1.038,-0.054,0.840,30.756,-6.740,90.0,0.0
36477,-0.335,-1.048,0.148,-1.847,23.901,-18.160,88.0,0.0
36531,-0.350,-1.188,0.104,-7.313,-17.565,-22.076,86.0,0.0
36584,-0.232,-1.368,-0.055,-3.718,-7.305,-15.504,83.0,0.0
36637,-0.267,-1.351,0.000,-7.122,18.794,11.290,81.0,0.0
36690,-0.310,-1.144,0.065,-20.870,-19.000,18.168,78.0,0.0
36744,-0.217,-0.653,-0.016,-15.458,-29.275,23.756,75.0,0.0
36795,-0.332,-0.825,0.047,-13.344,-51.962,41.214,73.0,0.0
36839,-0.177,-0.931,-0.120,-5.863,-65.725,55.198,82.0,47.0
36897,-0.124,-0.884,-0.169,-9.099,-39.649,56.511,160.0,0.0
36955,-0.220,-0.875,-0.090,-1.145,-10.511,57.412,156.0,0.0
37013,-0.204,-0.813,-0.100,-6.473,-40.817,52.206,153.0,0.0
37059,-0.130,-0.819,-0.151,-14.840,-37.389,47.519,0.0,0.0
37120,-0.140,-0.945,-0.153,-18.489,-34.198,33.412,0.0,0.0
37166,-0.127,-0.942,-0.146,-9.672,-8.466,8.565,0.0,0.0
37229,-0.257,-1.175,-0.045,-12.053,-5.435,-18.641,0.0,0.0
37282,-0.332,-1.244,0.015,-0.168,-9.099,-57.817,0.0,74.0
37336,-0.331,-1.475,-0.025,13.550,-11.733,-76.489,0.0,76.0
37396,-0.407,-1.621,-0.006,21.160,-9.870,-98.153,0.0,0.0
37456,-0.127,-0.500,0.068,35.763,10.458,-64.786,0.0,0.0
37517,-0.192,-0.904,0.089,-6.076,28.947,-2.214,0.0,0.0
37616,-0.180,-0.774,0.139,9.267,52.557,13.611,140.0,0.0
37672,-0.221,-0.724,0.164,6.260,32.053,10.145,139.0,0.0
37730,-0.129,-0.694,0.085,17.740,11.145,2.954,137.0,0.0
37789,-0.108,-0.836,0.018,15.771,13.832,-16.756,136.0,0.0
37846,-0.174,-0.984,0.026,10.389,29.733,-24.824,135.0,0.0
37903,-0.223,-1.042,0.058,0.420,20.023,-33.733,133.0,0.0
37955,-0.282,-1.140,0.132,-4.832,11.351,-36.725,57.0,0.0
38011,-0.268,-1.187,0.067,-2.260,14.550,-33.420,131.0,0.0
38068,-0.337,-1.385,0.075,-12.107,21.031,-20.809,128.0,0.0
38124,-0.378,-1.180,0.120,-8.550,-25.595,0.099,125.0,0.0
38179,-0.156,-0.727,0.052,-12.008,-42.817,18.153,122.0,0.0
38236,-0.186,-1.033,-0.084,-7.107,-55.427,32.336,117.0,0.0
38294,-0.085,-0.872,-0.078,-5.282,-51.863,51.382,113.0,0.0
38349,-0.128,-0.936,-0.098,-13.969,-25.290,53.595,109.0,0.0
38405,-0.201,-0.865,-0.057,-10.038,-33.000,55.481,108.0,0.0
38464,-0.197,-0.751,-0.029,-6.305,-33.611,56.168,186.0,0.0
38524,-0.204,-0.870,-0.045,-3.809,-27.901,55.176,0.0,0.0
38572,-0.181,-0.936,-0.086,5.695,-8.992,50.832,0.0,0.0
38619,-0.238,-1.050,-0.037,1.779,-3.031,37.771,0.0,0.0
38665,-0.250,-1.084,-0.025,1.435,-5.374,22.740,0.0,0.0
38731,-0.302,-1.235,0.017,-0.206,-10.779,-3.206,0.0,0.0
38778,-0.297,-1.184,0.033,3.687,-15.160,-30.740,0.0,0.0
38824,-0.364,-1.357,0.073,5.420,-12.145,-55.824,0.0,0.0
38872,-0.344,-1.374,-0.027,24.176,-4.779,-75.336,0.0,0.0
38919,-0.246,-0.800,0.071,25.176,-0.740,-57.305,0.0,0.0
38979,-0.246,-0.742,0.164,-4.450,5.832,-19.481,0.0,0.0
39040,-0.262,-1.003,0.081,-0.779,-16.183,0.817,0.0,0.0
39100,-0.131,-0.835,0.063,-0.664,-6.947,9.229,0.0,0.0
39160,-0.197,-0.806,0.083,0.275,19.733,6.397,0.0,0.0
39221,-0.182,-0.722,0.122,8.160,6.656,5.740,0.0,0.0
39284,-0.163,-0.789,0.112,5.405,7.099,-10.069,0.0,0.0
39345,-0.132,-0.963,-0.001,14.809,23.702,-11.389,0.0,0.0
39405,-0.219,-0.938,0.121,2.046,31.550,-15.069,0.0,0.0
39465,-0.276,-0.894,0.187,-4.809,13.588,-17.504,0.0,0.0
39526,-0.237,-0.960,0.115,-7.359,-13.229,-11.504,0.0,0.0
39586,-0.239,-1.047,0.086,-5.168,-6.206,0.641,0.0,0.0
39648,-0.162,-0.982,0.016,-3.656,7.282,6.168,0.0,0.0
39708,-0.187,-0.964,0.042,-2.137,14.000,4.435,0.0,0.0
39769,-0.253,-1.034,0.069,0.168,15.137,-2.962,0.0,0.0
39832,-0.239,-1.014,0.022,1.908,-4.153,-5.145,0.0,0.0
39892,-0.215,-0.984,0.031,-2.000,-9.504,-5.397,0.0,0.0
39947,-0.215,-1.003,0.010,1.718,-1.053,-4.099,81.0,0.0
40000,-0.208,-0.964,0.014,1.137,-1.023,-2.382,80.0,0.0
40054,-0.255,-0.991,0.044,-1.672,-5.832,0.053,80.0,0.0
40115,-0.192,-0.971,0.000,-0.130,-4.542,4.267,0.0,0.0
40175,-0.207,-1.003,0.022,-2.695,-3.771,4.618,0.0,0.0
40236,-0.208,-0.974,0.028,-2.076,-3.809,5.168,0.0,0.0
40296,-0.201,-0.993,0.022,-3.130,-5.908,3.557,0.0,0.0
40360,-0.174,-1.000,0.018,-2.137,-5.893,3.458,0.0,0.0
40421,-0.217,-0.979,0.052,-1.076,2.405,2.496,0.0,0.0
40524,-0.229,-0.991,0.050,0.779,-4.382,1.092,0.0,0.0
40585,-0.211,-0.977,0.016,4.176,7.321,1.840,0.0,0.0
40645,-0.280,-0.980,0.062,-0.267,-4.435,0.756,0.0,0.0
40707,-0.231,-0.973,0.025,0.786,-11.267,-2.252,0.0,0.0
40767,-0.227,-0.964,0.025,-0.771,-8.855,-0.916,0.0,0.0
40827,-0.250,-0.982,0.056,-0.527,-8.573,-0.359,0.0,0.0
40889,-0.234,-0.976,0.035,-0.786,-2.885,0.344,0.0,0.0
40952,-0.253,-0.988,0.062,-0.786,-9.389,-0.962,0.0,0.0
41013,-0.242,-0.960,0.053,-0.679,-8.084,0.466,0.0,0.0
41074,-0.208,-1.012,-0.002,0.832,-2.908,0.679,0.0,0.0
41135,-0.248,-0.963,0.058,0.084,-3.191,0.725,0.0,0.0
41195,-0.241,-0.973,0.061,0.221,-4.718,1.221,0.0,0.0
41256,-0.204,-0.984,0.022,0.962,-9.282,0.565,0.0,0.0
41317,-0.228,-0.967,0.057,0.985,4.687,1.969,0.0,0.0
41377,-0.242,-0.988,0.044,1.908,-4.366,-1.244,0.0,0.0
41438,-0.226,-0.954,0.038,0.038,-3.290,-1.763,0.0,0.0
41499,-0.226,-0.984,0.032,1.534,-0.634,-1.878,0.0,0.0
41563,-0.228,-0.968,0.037,-0.611,-2.511,-0.313,0.0,0.0
41624,-0.240,-0.999,0.047,-0.206,-0.229,0.214,0.0,0.0
41684,-0.243,-0.969,0.051,1.053,-0.634,-1.420,0.0,0.0
41746,-0.229,-0.971,0.036,0.038,-4.000,-0.153,0.0,0.0
41806,-0.226,-0.982,0.035,0.069,-1.168,0.534,0.0,0.0
41867,-0.227,-0.970,0.048,0.641,-0.015,0.565,0.0,0.0
41928,-0.241,-0.984,0.045,-0.115,-4.198,-1.069,0.0,0.0
41989,-0.238,-0.973,0.047,0.137,-4.145,-0.542,0.0,0.0
42050,-0.231,-0.984,0.031,0.580,-2.534,-0.389,0.0,0.0
42114,-0.230,-0.975,0.048,0.023,-2.305,0.298,0.0,0.0
42175,-0.244,-0.977,0.066,0.374,-0.382,0.092,0.0,0.0
42235,-0.231,-0.982,0.027,1.817,-4.351,-1.282,0.0,0.0
42297,-0.248,-0.973,0.058,-0.687,-4.481,0.038,0.0,0.0
42357,-0.240,-0.973,0.035,1.580,-0.840,0.275,0.0,0.0
42419,-0.239,-0.968,0.058,-0.214,-2.511,1.534,0.0,0.0
42479,-0.230,-0.974,0.049,0.092,-3.954,0.519,0.0,0.0
42541,-0.230,-0.968,0.034,-0.298,-0.336,0.611,0.0,0.0
42601,-0.251,-0.978,0.066,-0.763,-4.832,0.053,0.0,0.0
42665,-0.229,-0.975,0.052,0.489,1.290,-0.450,0.0,0.0
42726,-0.261,-0.987,0.057,0.626,-4.260,-0.137,0.0,0.0
42787,-0.239,-0.983,0.045,1.389,-3.595,-0.206,0.0,0.0
42849,-0.240,-0.967,0.041,1.252,1.069,0.511,0.0,0.0
42909,-0.239,-0.984,0.047,0.313,-4.634,2.015,0.0,0.0
42971,-0.236,-0.964,0.060,-0.099,0.878,1.435,0.0,0.0
43031,-0.241,-0.974,0.055,1.527,-2.573,-1.527,0.0,0.0
43092,-0.229,-0.974,0.031,0.733,-2.443,-1.214,0.0,0.0
43153,-0.263,-0.971,0.071,0.550,1.282,-1.191,0.0,0.0
43214,-0.242,-0.978,0.041,0.771,-5.649,-1.855,0.0,0.0
43279,-0.232,-0.979,0.053,-0.695,-3.366,-0.542,0.0,0.0
43339,-0.247,-0.982,0.064,1.634,0.832,-1.069,0.0,0.0
43401,-0.246,-0.969,0.050,0.679,-2.763,-0.328,0.0,0.0
43462,-0.244,-0.986,0.043,0.351,-3.656,-0.588,0.0,0.0
43523,-0.247,-0.958,0.064,0.237,-0.450,-0.046,0.0,0.0
43627,-0.254,-0.966,0.066,-0.160,-3.863,-0.832,0.0,0.0
43694,-0.241,-0.974,0.048,0.290,-2.954,-0.992,0.0,0.0
43754,-0.238,-0.981,0.055,-0.580,-2.511,-0.122,0.0,0.0
43813,-0.249,-0.974,0.060,-0.053,-4.183,-0.145,0.0,0.0
43877,-0.202,-0.991,0.023,0.878,-2.153,0.160,0.0,0.0
43936,-0.262,-0.965,0.079,0.573,0.183,-0.710,0.0,0.0
43997,-0.224,-0.977,0.038,1.267,-5.344,-1.542,0.0,0.0
44057,-0.239,-0.972,0.054,-0.130,-2.038,-0.275,0.0,0.0
44116,-0.250,-0.971,0.067,0.863,-1.427,-1.275,0.0,0.0
44177,-0.216,-0.977,0.031,1.038,-2.985,-0.588,0.0,0.0
44237,-0.245,-0.973,0.069,0.290,1.244,-0.244,0.0,0.0
44297,-0.233,-0.981,0.045,0.786,-4.168,-0.840,0.0,0.0
44357,-0.236,-0.984,0.048,-0.634,-3.214,-0.267,0.0,0.0
44420,-0.232,-0.976,0.054,0.298,-2.626,-0.695,0.0,0.0
44480,-0.223,-0.982,0.038,0.450,-4.595,-1.443,0.0,0.0
44540,-0.231,-0.968,0.057,-0.084,-0.878,-0.603,0.0,0.0
44601,-0.237,-0.975,0.048,0.466,-2.450,-0.863,0.0,0.0
44660,-0.235,-0.970,0.050,0.282,0.229,-1.092,0.0,0.0
44721,-0.246,-0.976,0.051,-0.023,-4.031,-0.824,0.0,0.0
44767,-0.230,-0.981,0.045,-0.656,-5.565,-1.366,0.0,0.0
44814,-0.220,-0.969,0.037,0.107,-0.725,-0.473,0.0,0.0
44873,-0.251,-0.977,0.068,-1.015,-2.634,0.321,0.0,0.0
44934,-0.217,-0.977,0.047,0.305,-2.740,0.435,0.0,0.0
44997,-0.236,-1.000,0.056,0.298,-2.916,-0.313,0.0,0.0
45057,-0.223,-0.972,0.050,0.771,-3.458,-1.145,0.0,0.0
45117,-0.221,-0.984,0.042,0.153,-2.725,-0.046,0.0,0.0
45177,-0.236,-0.974,0.056,-0.206,-2.038,0.229,0.0,0.0
45238,-0.225,-0.982,0.058,0.092,-2.359,-0.412,0.0,0.0
45298,-0.217,-0.976,0.038,0.489,-2.290,-0.725,0.0,0.0
45359,-0.235,-0.984,0.060,-0.176,-3.893,-0.588,0.0,0.0
45418,-0.228,-0.976,0.053,0.168,-2.527,0.046,0.0,0.0
45478,-0.232,-0.988,0.060,-0.305,-2.802,-0.588,0.0,0.0
45542,-0.218,-0.987,0.042,0.519,-2.542,-0.359,0.0,0.0
45602,-0.244,-0.966,0.067,1.237,-0.802,-1.206,0.0,0.0
45663,-0.223,-0.979,0.052,0.397,-4.405,-1.023,0.0,0.0
45723,-0.227,-0.968,0.044,0.214,-1.382,0.641,0.0,0.0
45783,-0.243,-0.979,0.059,-0.336,-2.824,0.145,0.0,0.0
45843,-0.217,-0.969,0.048,-0.351,-6.069,0.336,0.0,0.0
45903,-0.218,-0.987,0.040,-0.099,-1.664,-0.053,0.0,0.0
45950,-0.238,-0.973,0.056,-0.229,-4.382,0.443,0.0,0.0
45997,-0.230,-0.978,0.057,-0.359,-4.328,0.206,0.0,0.0
46060,-0.218,-0.982,0.059,0.534,-0.824,0.336,0.0,0.0
46106,-0.236,-0.985,0.061,-0.084,-5.542,-0.122,0.0,0.0
46153,-0.232,-0.969,0.056,1.046,-5.374,-1.092,0.0,0.0
46214,-0.232,-0.969,0.063,0.573,-4.901,-0.885,0.0,0.0
46260,-0.218,-0.984,0.044,0.641,-3.985,-0.794,0.0,0.0
46307,-0.235,-0.972,0.044,-0.183,-3.153,0.137,0.0,0.0
46366,-0.231,-0.978,0.060,-0.573,-1.702,0.275,0.0,0.0
46413,-0.246,-0.979,0.057,-0.137,-3.733,1.008,0.0,0.0
46460,-0.229,-0.979,0.053,-0.443,-4.481,1.763,0.0,0.0
46563,-0.231,-0.982,0.069,0.580,-1.641,1.863,0.0,0.0
46626,-0.219,-0.977,0.044,0.824,-2.931,1.740,0.0,0.0
46673,-0.237,-0.980,0.060,1.603,-1.221,0.214,0.0,0.0
46721,-0.231,-0.968,0.060,1.267,-3.115,0.443,0.0,0.0
46780,-0.239,-0.979,0.055,1.069,-3.656,0.771,0.0,0.0
46840,-0.225,-0.966,0.037,1.710,0.221,0.595,0.0,0.0
46901,-0.252,-0.979,0.059,1.115,-2.336,0.710,0.0,0.0
46961,-0.248,-0.970,0.058,0.344,-3.511,0.084,0.0,0.0
47022,-0.239,-0.969,0.040,1.290,-1.802,0.626,0.0,0.0
47083,-0.253,-0.967,0.074,-0.672,-4.191,1.153,0.0,0.0
47147,-0.233,-0.963,0.063,0.947,-0.992,1.969,0.0,0.0
47207,-0.246,-0.993,0.062,0.351,-3.031,0.626,0.0,0.0
47267,-0.253,-0.964,0.072,0.588,-2.397,-0.351,0.0,0.0
47328,-0.244,-0.975,0.063,0.351,-5.229,-0.366,0.0,0.0
47388,-0.237,-0.979,0.051,-0.046,-1.252,-1.015,0.0,0.0
47449,-0.266,-0.972,0.068,0.023,-3.275,-0.374,0.0,0.0
47509,-0.243,-0.965,0.040,0.221,-3.450,-0.458,0.0,0.0
47570,-0.256,-0.980,0.061,-0.160,-3.092,0.046,0.0,0.0
47631,-0.259,-0.967,0.070,0.298,-3.374,0.496,0.0,0.0
47694,-0.245,-0.968,0.066,0.908,-2.824,0.344,0.0,0.0
47755,-0.251,-0.977,0.063,0.969,-2.015,-0.344,0.0,0.0
47815,-0.246,-0.965,0.062,0.519,-3.611,-1.069,0.0,0.0
47876,-0.240,-0.975,0.048,0.275,-4.397,-1.198,0.0,0.0
47937,-0.255,-0.968,0.069,0.069,-0.924,-1.084,0.0,0.0
47983,-0.256,-0.970,0.057,-0.542,-4.916,-0.863,0.0,0.0
48030,-0.241,-0.971,0.056,-0.389,-2.748,-0.550,0.0,0.0
48077,-0.248,-0.970,0.052,-0.260,-2.863,-0.779,0.0,0.0
48124,-0.248,-0.975,0.062,-0.305,-0.847,-0.740,0.0,0.0
48185,-0.253,-0.976,0.068,0.046,-3.260,0.160,0.0,0.0
48248,-0.238,-0.994,0.063,0.282,-3.725,-0.008,0.0,0.0
48309,-0.229,-0.970,0.053,1.267,-2.122,-1.427,0.0,0.0
48369,-0.238,-0.963,0.058,0.046,-2.725,-1.870,0.0,0.0
48416,-0.243,-0.967,0.062,-1.153,-4.198,-3.550,0.0,0.0
48463,-0.221,-0.976,0.041,-0.649,-2.939,-2.954,0.0,0.0
48524,-0.247,-0.975,0.069,-1.221,0.122,-2.649,0.0,0.0
48585,-0.235,-0.976,0.053,-0.267,-3.725,-1.351,0.0,0.0
48646,-0.239,-0.990,0.061,-1.435,-3.527,-0.382,0.0,0.0
48706,-0.242,-0.980,0.065,1.405,-1.511,0.710,0.0,0.0
48771,-0.215,-0.978,0.054,0.534,-2.519,1.885,0.0,0.0
48831,-0.215,-0.982,0.047,1.099,-4.489,-2.183,0.0,0.0
48891,-0.232,-0.957,0.048,-0.099,-5.260,-4.160,0.0,0.0
48953,-0.234,-0.973,0.034,-0.763,0.237,-0.885,0.0,0.0
49013,-0.239,-0.977,0.065,-2.382,-2.817,0.496,0.0,0.0
49075,-0.222,-0.980,0.055,-1.389,-1.786,0.038,0.0,0.0
49135,-0.223,-0.985,0.046,-0.885,-0.023,-0.466,0.0,0.0
49196,-0.230,-0.991,0.054,-0.466,-3.466,-1.008,0.0,0.0
49257,-0.225,-0.976,0.064,-0.252,-0.176,-0.534,0.0,0.0
49320,-0.223,-0.992,0.054,2.137,1.084,-0.466,0.0,0.0
49382,-0.219,-0.974,0.040,1.084,-2.183,-1.229,0.0,0.0
49442,-0.223,-0.979,0.052,-0.374,-1.695,-0.603,0.0,0.0
49547,-0.235,-0.983,0.054,0.550,-1.053,-0.870,0.0,0.0
49607,-0.223,-0.967,0.044,1.885,-1.214,-1.244,0.0,0.0
49669,-0.216,-0.987,0.045,1.115,1.130,-0.015,0.0,0.0
49729,-0.237,-0.976,0.053,0.099,-2.954,-1.519,0.0,0.0
49790,-0.211,-0.985,0.032,0.672,-1.389,-2.282,0.0,0.0
49851,-0.237,-0.978,0.064,0.466,-2.176,-1.168,0.0,0.0
49912,-0.218,-0.967,0.058,1.084,-4.481,-1.939,0.0,0.0
49976,-0.221,-0.990,0.035,0.183,-4.000,0.321,0.0,0.0
50037,-0.226,-0.973,0.054,0.893,-1.977,1.855,0.0,0.0
50098,-0.219,-0.983,0.057,0.924,-2.412,0.870,0.0,0.0
50159,-0.214,-0.982,0.046,0.939,-3.351,0.870,0.0,0.0
50220,-0.232,-0.972,0.062,-0.130,-3.252,0.290,0.0,0.0
50281,-0.215,-0.981,0.049,0.282,-5.519,0.779,0.0,0.0
50341,-0.215,-1.002,0.052,0.374,-3.603,1.061,0.0,0.0
50403,-0.226,-0.962,0.079,1.870,-0.779,-0.053,0.0,0.0
50463,-0.215,-0.976,0.040,1.763,-2.771,0.435,0.0,0.0
50528,-0.212,-0.976,0.047,1.198,-1.252,0.321,0.0,0.0
50589,-0.245,-0.974,0.073,1.290,5.061,0.053,0.0,0.0
50650,-0.240,-0.983,0.060,0.649,-8.504,-0.252,0.0,0.0
50711,-0.223,-0.978,0.055,0.954,-2.954,0.802,0.0,0.0
50771,-0.249,-0.966,0.079,1.321,0.183,2.053,0.0,0.0
50833,-0.232,-0.982,0.071,1.664,-5.534,1.427,0.0,0.0
50893,-0.221,-0.983,0.044,1.702,-1.924,0.962,0.0,0.0
50955,-0.231,-0.961,0.067,1.328,-1.015,1.092,0.0,0.0
51015,-0.235,-0.986,0.049,1.511,-1.710,0.038,0.0,0.0
51080,-0.246,-0.983,0.072,0.069,-2.939,-0.046,0.0,0.0
51141,-0.242,-0.974,0.082,1.336,-0.672,-0.115,0.0,0.0
51203,-0.246,-0.980,0.074,1.550,-3.000,0.771,0.0,0.0
51269,-0.250,-0.975,0.073,1.580,-3.069,0.374,0.0,0.0
51329,-0.251,-0.958,0.072,1.626,-1.847,0.557,0.0,0.0
51389,-0.214,-0.992,0.052,1.939,-1.947,1.366,0.0,0.0
51448,-0.269,-0.951,0.109,1.840,5.336,-0.275,0.0,0.0
51509,-0.259,-0.968,0.074,0.115,-11.916,-0.489,0.0,0.0
51569,-0.218,-0.973,0.055,-0.863,-4.542,0.084,0.0,0.0
51629,-0.259,-0.967,0.099,0.794,3.740,0.221,0.0,0.0
51692,-0.256,-0.971,0.088,-0.344,-9.145,-0.458,0.0,0.0
51751,-0.236,-0.967,0.076,0.244,-6.038,-0.412,0.0,0.0
51812,-0.222,-0.969,0.052,-0.191,-2.489,1.305,0.0,0.0
51872,-0.261,-0.965,0.103,-0.618,-1.595,1.351,0.0,0.0
51932,-0.224,-0.977,0.064,1.282,2.351,0.092,0.0,0.0
51992,-0.265,-0.980,0.105,0.008,-5.695,-0.695,0.0,0.0
52052,-0.223,-0.970,0.075,1.664,-5.321,-0.496,0.0,0.0
52112,-0.245,-0.976,0.070,1.763,2.053,0.061,0.0,0.0
52172,-0.285,-0.971,0.102,0.885,-4.237,-0.824,0.0,0.0
52236,-0.243,-0.957,0.076,2.313,-0.260,2.519,0.0,0.0
52295,-0.264,-0.972,0.074,1.153,-2.870,4.489,0.0,0.0
52356,-0.244,-0.947,0.080,0.740,-2.504,2.977,0.0,0.0
52416,-0.247,-0.979,0.067,0.489,-0.740,2.687,0.0,0.0
52475,-0.270,-0.967,0.094,-1.443,-3.412,4.000,0.0,0.0
52536,-0.244,-0.978,0.088,-0.878,-1.695,3.786,0.0,0.0
52639,-0.254,-0.965,0.092,3.321,0.466,-1.710,0.0,0.0
52700,-0.262,-0.962,0.072,2.252,-2.557,-1.779,0.0,0.0
52760,-0.258,-0.961,0.072,1.427,0.534,-1.053,0.0,0.0
52819,-0.266,-0.954,0.079,-0.366,-0.328,-0.183,0.0,0.0
52883,-0.266,-0.970,0.077,-0.183,-1.313,-0.328,0.0,0.0
52943,-0.272,-0.968,0.082,-0.168,0.122,-0.160,0.0,0.0
53004,-0.260,-0.978,0.081,0.397,-0.947,-0.473,0.0,0.0
53064,-0.273,-0.971,0.109,-0.679,-3.985,-0.137,0.0,0.0
53125,-0.278,-0.961,0.101,1.298,-0.496,-0.267,0.0,0.0
53184,-0.271,-0.965,0.073,0.534,-7.992,-1.847,0.0,0.0
53244,-0.257,-0.970,0.063,0.130,-4.015,0.130,0.0,0.0
53305,-0.292,-0.979,0.101,-0.565,-7.672,-1.221,0.0,0.0
53365,-0.265,-0.958,0.097,-0.237,-15.954,-1.099,0.0,0.0
53429,-0.274,-0.990,0.098,0.084,-13.397,1.168,0.0,0.0
53489,-0.278,-0.972,0.097,1.275,-20.031,1.382,0.0,0.0
53550,-0.276,-0.963,0.116,2.962,-16.313,2.084,0.0,0.0
53610,-0.291,-0.965,0.126,3.427,-18.496,2.718,0.0,0.0
53656,-0.287,-0.948,0.122,3.206,-19.397,4.924,0.0,0.0
53703,-0.313,-0.971,0.119,5.305,-19.412,9.542,0.0,0.0
53749,-0.310,-0.945,0.146,7.634,-11.901,17.557,0.0,0.0
53796,-0.371,-0.978,0.214,8.802,-13.092,21.076,0.0,0.0
53842,-0.389,-0.909,0.246,15.519,-13.718,28.420,0.0,0.0
53909,-0.474,-0.948,0.304,27.221,-8.756,49.504,0.0,0.0
53956,-0.577,-0.954,0.441,35.267,-39.710,55.076,0.0,0.0
54003,-0.650,-0.972,0.432,48.916,-67.290,61.290,0.0,0.0
54049,-0.546,-0.911,0.430,53.595,-97.160,58.214,0.0,0.0
54086,-0.481,-0.897,0.413,65.198,-93.145,57.237,0.0,31.0
54137,-0.606,-0.880,0.556,67.794,-94.672,57.015,0.0,35.0
54192,-0.557,-0.819,0.582,79.275,-140.275,47.099,0.0,32.0
54241,-0.450,-0.798,0.552,84.779,-141.511,38.924,174.0,31.0
54290,-0.397,-0.712,0.614,93.374,-140.008,39.275,168.0,32.0
54342,-0.211,-0.619,0.614,86.573,-123.687,33.344,167.0,32.0
54391,-0.125,-0.478,0.696,85.603,-95.229,29.885,165.0,33.0
54440,-0.034,-0.420,0.697,78.992,-71.481,37.901,164.0,33.0
54490,-0.000,-0.266,0.781,67.252,-49.374,33.794,163.0,34.0
54538,0.004,-0.233,0.778,57.557,-32.817,28.580,162.0,35.0
54587,0.037,-0.208,0.820,42.328,-30.847,22.611,162.0,36.0
54636,0.046,-0.126,0.896,37.824,-25.954,16.595,161.0,37.0
54685,0.116,-0.114,0.860,28.282,-15.374,15.702,160.0,37.0
54734,0.039,-0.093,0.937,21.282,-10.901,14.832,160.0,38.0
54786,0.057,-0.064,0.962,16.870,-19.137,9.382,159.0,38.0
54835,0.125,-0.058,0.916,14.878,-8.191,5.573,159.0,39.0
54884,0.073,-0.073,0.957,11.565,-0.679,5.534,159.0,38.0
54933,0.062,-0.049,0.996,10.443,-8.214,5.412,159.0,39.0
54982,0.097,-0.040,0.955,7.519,-5.878,3.840,159.0,39.0
55030,0.054,-0.062,1.011,8.023,-12.206,4.389,159.0,39.0
55079,0.131,-0.016,0.969,7.511,-10.382,1.710,158.0,39.0
55129,0.099,-0.019,0.983,6.985,-3.786,2.336,159.0,39.0
55181,0.091,-0.010,0.981,5.328,-4.015,0.221,158.0,39.0
55230,0.095,0.002,0.982,2.710,-4.405,-1.786,159.0,39.0
55321,0.085,-0.017,0.984,1.145,-7.756,-1.855,159.0,39.0
55370,0.082,-0.006,0.974,-0.511,-0.412,-0.771,159.0,39.0
55420,0.054,-0.010,1.003,0.229,-6.122,-0.901,162.0,39.0
55470,0.104,-0.018,0.970,-0.748,-5.351,-0.153,165.0,39.0
55519,0.095,-0.009,0.986,-1.244,1.053,0.954,165.0,39.0
55568,0.082,-0.002,1.006,-1.160,-1.458,-0.092,165.0,39.0
55617,0.104,-0.024,0.990,-1.740,-5.344,-1.191,165.0,39.0
55670,0.096,-0.016,0.998,-0.504,3.939,0.153,165.0,39.0
55719,0.065,-0.029,1.013,0.542,-2.672,-0.908,164.0,39.0
55769,0.097,-0.023,0.983,-0.313,-4.313,0.145,159.0,39.0
55818,0.095,-0.023,1.005,-0.649,-1.489,0.038,159.0,39.0
55867,0.086,-0.023,1.003,0.466,-1.107,0.229,159.0,39.0
55916,0.097,-0.015,1.001,0.244,-2.977,0.130,160.0,39.0
55965,0.088,-0.032,0.999,-0.237,-1.214,-1.183,160.0,39.0
56014,0.083,-0.026,0.985,0.405,-1.908,-0.328,164.0,39.0
56064,0.085,-0.018,0.992,0.496,-0.969,-0.145,164.0,39.0
56116,0.066,-0.025,1.017,0.725,-1.389,-0.183,165.0,39.0
56166,0.090,-0.024,0.992,0.282,-3.595,0.084,162.0,39.0
56215,0.094,-0.017,0.987,0.061,-3.076,0.061,159.0,39.0
56264,0.081,-0.012,0.990,0.321,-2.122,0.046,159.0,39.0
56312,0.087,-0.030,0.990,-0.176,-3.321,0.107,159.0,40.0
56363,0.091,-0.026,1.008,1.092,-2.214,0.580,159.0,40.0
56411,0.100,-0.023,0.995,1.489,-3.122,0.198,159.0,39.0
56461,0.101,-0.015,0.996,0.817,-2.641,-0.198,159.0,40.0
56510,0.092,-0.014,0.993,-0.519,-3.687,0.160,163.0,40.0
56559,0.115,-0.011,0.986,-1.183,-5.924,-0.641,163.0,40.0
56612,0.113,-0.021,0.981,-0.084,-3.267,-1.092,163.0,40.0
56662,0.092,-0.034,1.002,1.870,-0.939,-0.985,160.0,40.0
56711,0.099,-0.018,1.004,2.168,-5.405,-1.214,159.0,40.0
56760,0.127,-0.013,0.981,3.504,-0.351,-1.969,159.0,40.0
56809,0.091,-0.008,1.005,2.809,0.847,-2.183,159.0,40.0
56858,0.098,-0.001,0.994,3.237,-1.481,-0.626,159.0,39.0
56907,0.095,-0.006,0.989,1.947,-1.649,-0.069,159.0,39.0
56956,0.086,-0.025,0.995,1.511,-4.840,1.015,159.0,39.0
57006,0.100,-0.009,0.984,0.557,-2.817,0.702,159.0,39.0
57059,0.089,-0.001,0.993,-0.282,-2.191,1.084,159.0,39.0
57108,0.087,-0.010,0.995,-0.969,-3.878,1.840,159.0,39.0
57157,0.107,-0.010,0.986,-1.046,-6.573,1.565,160.0,39.0
57206,0.099,-0.015,0.993,0.115,-1.015,0.679,160.0,39.0
57256,0.102,-0.009,0.991,0.595,-2.687,0.649,164.0,39.0
57306,0.092,0.006,0.992,0.977,-2.489,0.115,164.0,39.0
57355,0.100,-0.006,1.001,1.550,-0.015,0.290,164.0,39.0
57405,0.075,-0.016,1.005,0.679,-4.366,1.099,164.0,39.0
57454,0.105,-0.005,0.987,0.198,-4.847,1.565,164.0,39.0
57507,0.109,-0.006,0.978,0.374,-0.779,0.221,160.0,39.0
57556,0.092,-0.025,0.991,-0.985,-2.855,0.389,160.0,40.0
57606,0.109,0.000,0.989,-1.069,-3.069,0.443,160.0,39.0
57655,0.104,-0.021,0.985,-0.710,-1.580,0.282,160.0,39.0
57705,0.111,-0.022,1.007,-0.176,-1.878,0.237,159.0,39.0
57754,0.108,0.001,0.999,-0.924,-0.565,-0.550,160.0,39.0
57846,0.094,-0.014,1.001,-0.824,-2.947,-0.771,159.0,39.0
57896,0.113,-0.006,0.991,-0.359,-2.168,-0.420,159.0,39.0
57946,0.099,-0.017,0.991,0.038,-1.267,-0.130,159.0,40.0
57999,0.095,-0.012,1.006,-0.794,-3.992,0.099,159.0,40.0
58048,0.121,-0.023,0.982,-0.206,-2.191,-0.893,158.0,40.0
58103,0.082,-0.014,1.020,-0.885,-0.229,0.931,158.0,40.0
58151,0.102,-0.013,0.982,-1.008,-4.863,0.611,159.0,40.0
58200,0.119,-0.029,0.982,-0.473,-1.687,0.962,159.0,40.0
58248,0.097,-0.022,1.002,-0.137,-2.763,1.481,159.0,40.0
58297,0.115,-0.025,0.984,-0.565,-2.824,0.511,162.0,40.0
58345,0.108,-0.031,0.997,-0.313,-2.183,1.550,162.0,40.0
58394,0.119,-0.025,0.990,-0.008,-3.870,0.031,162.0,40.0
58445,0.112,-0.031,0.984,0.481,-1.008,0.023,163.0,40.0
58494,0.105,-0.022,0.989,0.908,-2.313,-0.382,162.0,40.0
58543,0.111,-0.028,0.979,0.198,-0.634,-0.916,162.0,40.0
58592,0.100,-0.024,0.994,-0.672,-1.786,-0.573,163.0,40.0
58640,0.098,-0.022,0.993,-1.504,-2.252,-0.916,163.0,40.0
58689,0.110,-0.032,0.987,-1.779,-1.244,-0.672,159.0,40.0
58737,0.104,-0.028,1.010,-1.359,0.214,-1.206,158.0,40.0
58785,0.092,-0.031,1.006,-1.084,-3.527,-1.305,158.0,40.0
58834,0.112,-0.028,0.990,-0.328,-4.863,0.099,158.0,40.0
58886,0.109,-0.026,0.990,-0.550,-2.756,-1.466,158.0,40.0
58934,0.097,-0.027,0.988,0.351,-0.931,-0.756,159.0,40.0
58983,0.097,-0.028,0.997,0.305,-2.481,0.076,159.0,40.0
59031,0.111,-0.020,0.987,-0.725,-2.198,-0.160,161.0,40.0
59080,0.101,-0.040,0.998,-0.542,-1.252,-0.641,165.0,40.0
59129,0.113,-0.047,1.000,0.115,-1.977,-0.359,164.0,39.0
59179,0.110,-0.032,0.995,-0.267,-1.130,-0.901,164.0,40.0
59227,0.100,-0.031,0.998,0.008,-2.427,-0.336,163.0,40.0
59279,0.106,-0.038,0.995,-1.031,-2.137,-0.672,159.0,40.0
59327,0.100,-0.049,0.996,1.183,-0.130,0.756,159.0,40.0
59376,0.106,-0.017,0.995,0.267,-1.481,0.939,159.0,40.0
59424,0.107,-0.037,0.993,-2.573,-3.282,-0.214,159.0,40.0
59472,0.117,-0.036,0.998,-2.985,-4.107,-0.878,159.0,40.0
59522,0.118,-0.055,1.000,-1.763,-1.427,-1.221,159.0,40.0
59571,0.090,-0.050,1.007,0.802,0.611,-0.137,159.0,39.0
59619,0.083,-0.039,1.010,2.061,-2.618,1.649,160.0,39.0
59668,0.106,-0.034,0.989,1.992,-5.107,1.519,162.0,39.0
59719,0.103,-0.033,0.986,1.168,-2.221,0.908,163.0,39.0
59768,0.110,-0.040,0.979,0.481,-3.137,-0.137,164.0,39.0
59817,0.105,-0.047,0.982,-0.450,-2.740,-0.695,165.0,39.0
59867,0.096,-0.039,0.987,-0.901,-1.237,-0.702,165.0,39.0
59916,0.101,-0.043,0.992,-1.076,-3.313,0.443,165.0,39.0
59964,0.097,-0.050,1.005,-0.908,-2.588,1.412,159.0,39.0
60013,0.109,-0.048,0.993,0.527,-2.931,1.435,159.0,39.0
60061,0.111,-0.056,1.000,-0.519,-2.183,1.756,158.0,39.0
60110,0.102,-0.032,1.019,0.153,-3.565,1.198,159.0,39.0
60162,0.125,-0.059,0.991,2.519,-3.588,0.008,159.0,39.0
60211,0.117,-0.051,0.967,3.282,0.740,-0.847,158.0,39.0
60259,0.090,-0.029,0.991,2.168,0.481,-0.298,159.0,39.0
60351,0.111,-0.043,0.984,-1.603,-5.382,0.977,159.0,39.0
60400,0.111,-0.047,0.995,-1.275,-2.282,-0.053,159.0,39.0
60449,0.099,-0.049,0.994,0.603,0.779,-0.061,159.0,39.0
60497,0.098,-0.047,0.995,0.290,-2.351,0.450,159.0,39.0
60547,0.107,-0.040,0.990,0.229,-0.221,0.672,165.0,39.0
60596,0.120,-0.038,1.000,-0.534,-3.000,0.267,165.0,39.0
60645,0.121,-0.034,0.995,-1.389,-1.985,0.626,165.0,39.0
60697,0.115,-0.061,0.992,-0.519,-3.053,-1.008,164.0,39.0
60746,0.103,-0.045,0.990,0.656,-0.160,-0.771,163.0,39.0
60795,0.092,-0.034,1.001,-0.183,-1.649,-0.756,162.0,39.0
60844,0.108,-0.055,0.997,0.443,-2.779,-0.366,160.0,39.0
60893,0.103,-0.036,1.003,0.725,-0.969,0.374,160.0,39.0
60942,0.097,-0.043,1.001,0.885,-2.115,-0.084,159.0,39.0
60991,0.112,-0.045,0.982,1.092,-2.107,0.519,159.0,39.0
61039,0.107,-0.039,1.003,0.748,-2.145,0.214,159.0,39.0
61088,0.113,-0.050,0.985,1.252,-3.046,-0.649,160.0,39.0
61140,0.108,-0.026,0.991,0.618,0.107,-0.466,159.0,39.0
61190,0.091,-0.050,1.012,0.145,-2.473,-0.763,164.0,39.0
61239,0.106,-0.032,0.989,1.489,-2.603,-0.282,165.0,39.0
61288,0.092,-0.042,0.992,1.351,-0.687,0.198,165.0,39.0
61337,0.103,-0.035,0.994,0.427,-3.855,0.183,165.0,39.0
61386,0.108,-0.031,0.995,-0.053,-2.397,0.412,166.0,38.0
61435,0.095,-0.035,0.997,0.733,-3.122,-0.260,166.0,39.0
61485,0.108,-0.042,0.989,0.298,-2.908,0.374,166.0,38.0
61534,0.108,-0.037,1.003,0.847,-1.076,-0.244,166.0,38.0
61595,0.098,-0.047,0.994,0.969,-2.817,0.145,166.0,39.0
61647,0.113,-0.035,0.987,-0.153,-1.695,-0.176,166.0,39.0
61699,0.107,-0.050,1.002,0.267,-2.137,-0.740,166.0,38.0
61751,0.108,-0.041,0.987,0.863,-1.832,-0.756,166.0,39.0
61802,0.105,-0.029,0.996,0.557,-0.634,-0.313,166.0,38.0
61854,0.094,-0.035,0.999,0.076,-3.053,-0.244,166.0,38.0
61906,0.114,-0.044,0.984,0.260,-2.916,-1.176,166.0,38.0
61958,0.107,-0.042,0.992,-0.084,-1.115,-0.573,166.0,38.0
62010,0.097,-0.036,0.987,0.000,-3.702,-0.962,163.0,39.0
62064,0.110,-0.040,0.979,-0.366,-0.229,-0.687,163.0,39.0
62115,0.102,-0.037,0.996,-0.351,-1.725,-1.771,161.0,38.0
62168,0.106,-0.044,0.999,0.038,-1.160,-0.626,160.0,38.0
62219,0.097,-0.040,0.990,-0.145,-1.206,-1.122,160.0,38.0
62270,0.093,-0.041,0.998,0.824,-1.756,-0.389,161.0,38.0
62321,0.104,-0.041,0.986,-0.183,-1.344,-0.336,160.0,38.0
62373,0.091,-0.042,0.992,-0.611,-1.840,-0.695,160.0,38.0
62425,0.102,-0.034,0.991,-1.237,-0.924,0.008,160.0,38.0
62479,0.100,-0.046,0.999,-2.137,-2.206,-0.916,159.0,38.0
62531,0.109,-0.057,0.998,-1.069,-1.466,-0.534,160.0,38.0
62582,0.094,-0.052,0.995,-0.634,-0.733,-0.641,160.0,38.0
62633,0.103,-0.054,0.998,-0.198,-2.328,-0.504,160.0,38.0
62686,0.101,-0.048,1.008,-0.160,-1.924,-1.191,160.0,38.0
62737,0.097,-0.043,0.998,1.115,-0.656,-0.618,160.0,38.0
62788,0.084,-0.051,1.002,0.771,-1.740,-1.061,160.0,38.0
62840,0.100,-0.048,0.995,0.328,-2.534,0.076,160.0,38.0
