Timestamp(ms),AccelX(g),AccelY(g),AccelZ(g),GyroX(deg/s),GyroY(deg/s),GyroZ(deg/s),DistanceLeft(cm),DistanceRight(cm)
221848,-0.315,0.139,0.930,1.618,7.863,0.359,0.0,0.0
221941,-0.325,0.157,0.928,0.779,11.244,2.687,0.0,0.0
222033,-0.334,0.163,0.926,-2.336,11.374,2.458,0.0,0.0
222127,-0.413,0.127,0.926,8.519,14.328,3.611,0.0,0.0
222220,-0.312,0.105,0.811,10.863,23.679,12.817,0.0,0.0
222313,-0.517,0.225,0.686,61.328,39.366,4.840,0.0,0.0
222406,-0.671,0.199,0.619,67.550,66.580,-20.580,0.0,0.0
222499,-0.702,0.017,0.496,192.954,96.985,-38.672,0.0,0.0
222596,-1.052,0.552,0.124,221.107,71.489,-75.947,0.0,0.0
222684,-0.959,0.639,0.038,59.321,34.885,-88.893,0.0,97.0
222774,-0.894,0.362,0.095,-7.725,43.290,-90.565,0.0,152.0
222865,-0.994,0.186,0.076,6.168,39.160,-62.321,0.0,151.0
222956,-0.966,0.160,0.082,38.206,25.275,-41.336,0.0,152.0
223046,-1.239,0.239,0.056,63.443,3.084,-35.298,0.0,152.0
223138,-1.018,0.238,0.044,34.374,39.252,6.137,0.0,157.0
223229,-0.123,0.291,0.038,-75.038,94.221,-18.466,0.0,164.0
223325,-0.383,-0.139,0.147,-140.336,-24.473,-16.305,0.0,176.0
223418,-2.000,-0.382,-0.938,250.130,-74.405,34.679,0.0,183.0
223505,-1.567,0.455,-0.704,-107.779,75.687,64.328,0.0,84.0
223592,-1.186,-0.616,-0.037,12.069,-78.855,38.931,0.0,91.0
223680,-0.952,0.341,-0.328,82.176,-34.351,38.511,0.0,97.0
223768,-0.938,0.099,-0.111,-25.397,-0.351,17.710,0.0,103.0
223857,-1.084,-0.086,0.150,56.458,-48.565,49.885,0.0,109.0
223946,-0.604,0.340,-0.044,127.450,-27.870,55.206,0.0,111.0
224035,-0.823,0.266,0.113,7.015,-1.450,15.641,0.0,115.0
224128,-0.876,0.632,-0.089,58.687,-10.992,59.916,0.0,118.0
224221,-0.858,0.574,-0.047,28.748,0.595,60.137,0.0,0.0
224315,-0.375,0.682,-0.122,101.626,10.137,41.847,0.0,0.0
224408,-1.017,0.179,0.164,-3.115,2.015,29.473,0.0,0.0
224502,-0.554,0.846,-0.324,-139.542,52.366,-21.618,0.0,0.0
224596,-0.756,0.709,-0.373,83.214,-35.786,36.305,0.0,0.0
224690,-1.030,0.286,-0.125,-21.908,19.221,16.351,0.0,0.0
224784,-0.594,0.878,-0.368,-57.634,23.809,-7.305,0.0,0.0
224878,-0.542,0.878,-0.303,49.359,-20.176,19.992,0.0,0.0
224975,-0.866,0.344,0.020,30.191,-19.153,19.649,0.0,0.0
225069,-0.781,0.617,-0.196,-86.366,20.344,-11.885,0.0,0.0
225163,-0.442,1.058,-0.296,4.977,-4.649,7.466,0.0,0.0
225257,-0.797,0.567,-0.102,69.153,-36.733,29.374,0.0,0.0
225350,-0.831,0.480,-0.154,-51.412,15.229,-10.160,0.0,0.0
225443,-0.480,1.109,-0.343,-68.756,30.473,-15.466,186.0,0.0
225538,-0.665,0.627,-0.072,86.947,-36.313,31.679,0.0,0.0
225631,-0.953,0.170,0.122,-41.977,7.847,-5.924,179.0,0.0
225724,-0.605,1.020,-0.270,-106.076,24.702,-26.313,197.0,0.0
225821,-0.509,1.129,-0.241,5.634,-8.252,14.450,0.0,0.0
225913,-0.786,0.629,-0.003,51.756,-27.504,21.702,168.0,0.0
226006,-0.867,0.361,0.098,-62.710,22.733,-10.069,165.0,0.0
226100,-0.539,0.968,-0.134,-18.015,-1.275,2.664,197.0,0.0
226193,-0.785,0.665,0.066,26.305,-21.084,18.985,0.0,0.0
226286,-0.804,0.432,0.117,-43.198,12.382,-10.031,172.0,0.0
226378,-0.531,0.942,-0.097,-10.420,-4.130,3.115,173.0,0.0
226470,-0.856,0.554,0.113,37.985,-22.817,19.710,173.0,0.0
226569,-0.743,0.674,0.024,-91.321,30.947,-21.008,0.0,0.0
226661,-0.549,1.090,-0.053,21.641,-30.527,17.015,171.0,0.0
226753,-0.817,0.591,0.184,5.641,-11.443,11.145,174.0,0.0
226846,-0.719,0.460,0.191,-92.763,28.595,-15.550,0.0,174.0
226939,-0.455,1.015,-0.038,59.244,-37.282,23.412,194.0,0.0
227032,-0.920,0.233,0.468,9.519,-6.954,9.351,0.0,155.0
227123,-0.676,0.845,0.052,-111.115,31.626,-28.427,0.0,148.0
227214,-0.622,0.798,0.148,68.908,-39.618,24.153,0.0,148.0
227305,-0.910,0.235,0.389,-21.015,4.695,0.290,0.0,147.0
227399,-0.475,1.030,-0.053,-24.595,21.015,-1.924,0.0,147.0
227490,-0.638,0.644,0.245,89.015,-17.496,33.885,0.0,148.0
227581,-0.771,0.543,0.209,-71.221,44.206,-14.489,0.0,149.0
227674,-0.635,0.701,0.061,25.191,19.313,5.550,173.0,0.0
227768,-0.862,0.246,0.421,34.076,-8.443,11.000,0.0,0.0
227862,-0.644,0.898,-0.051,-114.481,55.298,-35.290,188.0,0.0
227955,-0.644,0.856,0.101,82.809,-28.053,31.443,181.0,0.0
228045,-0.974,0.269,0.362,-58.435,26.427,-14.939,192.0,150.0
228141,-0.290,1.219,-0.143,-16.244,8.328,-7.916,0.0,0.0
228235,-0.826,0.371,0.291,115.443,-59.290,16.466,0.0,150.0
228329,-0.996,0.177,0.245,-135.855,34.824,-30.046,0.0,0.0
228423,-0.488,1.052,-0.056,-9.603,-3.153,8.924,0.0,0.0
228517,-0.775,0.367,0.356,96.550,-44.061,31.817,0.0,0.0
228612,-0.898,0.522,0.127,-118.489,32.718,-22.458,0.0,0.0
228703,-0.587,0.999,-0.053,17.290,-4.427,10.046,0.0,152.0
228797,-0.879,0.371,0.259,66.473,-25.008,21.855,193.0,0.0
228888,-0.742,0.741,0.052,-101.916,34.702,-22.977,0.0,151.0
228985,-0.624,0.906,0.060,58.122,-19.870,4.015,188.0,0.0
229080,-0.869,0.310,0.317,22.374,-7.893,-6.351,0.0,0.0
229174,-0.531,0.896,0.027,-0.519,-17.183,-3.794,0.0,0.0
229268,-0.784,0.465,0.345,52.931,-33.359,18.069,0.0,0.0
229360,-0.622,0.914,0.048,-118.740,43.145,-16.321,0.0,162.0
229454,-0.557,0.749,0.206,96.870,-35.397,31.145,0.0,0.0
229549,-0.735,0.361,0.288,-67.901,32.221,-12.756,0.0,0.0
229643,-0.514,0.917,0.017,31.786,4.145,9.748,0.0,0.0
229737,-0.771,0.485,0.238,-9.511,28.802,9.374,0.0,0.0
229834,-0.479,1.121,-0.048,-9.817,44.916,6.779,0.0,0.0
229936,-0.803,0.350,0.271,52.481,10.076,26.496,0.0,0.0
230027,-0.736,0.854,-0.154,-126.527,73.099,-13.466,0.0,162.0
230118,-0.989,0.489,0.018,72.656,-17.962,32.748,0.0,164.0
230208,-0.752,0.571,-0.104,-112.733,58.779,-13.992,190.0,165.0
230300,-0.692,0.684,-0.069,114.382,-34.840,28.168,0.0,166.0
230391,-0.898,0.347,0.033,-81.855,39.542,-25.664,0.0,165.0
230482,-0.579,0.881,-0.248,16.344,31.427,-20.496,0.0,165.0
230574,-0.946,0.208,0.185,42.832,-32.191,11.656,0.0,165.0
230668,-0.482,1.240,-0.444,-101.397,36.084,-22.817,0.0,164.0
230759,-0.866,0.468,0.031,86.496,-29.298,15.092,0.0,164.0
230850,-0.498,1.136,-0.315,-54.023,14.641,-19.229,0.0,164.0
230942,-0.876,0.394,0.053,24.130,-9.840,-6.076,0.0,165.0
231033,-0.665,1.061,-0.299,10.321,-9.397,-5.221,0.0,166.0
231124,-0.903,0.337,0.042,-33.313,8.191,-14.000,0.0,167.0
231219,-0.811,0.603,-0.088,127.023,-77.886,31.466,0.0,0.0
231310,-0.699,0.618,-0.192,-164.710,47.351,-50.916,0.0,172.0
231405,-0.879,0.371,0.054,57.000,-43.901,-16.748,0.0,174.0
231499,-0.645,1.020,-0.332,17.008,-26.191,-32.748,0.0,0.0
231591,-1.094,0.233,0.079,-68.962,22.649,-54.405,0.0,180.0
231686,-0.490,0.265,0.146,119.634,-102.664,54.878,193.0,0.0
231778,-0.843,-0.020,-0.010,-191.702,98.916,-90.137,0.0,188.0
231871,-0.983,0.459,0.075,158.886,-90.443,33.710,184.0,0.0
231963,-1.160,-0.154,0.073,-155.168,140.527,-86.206,160.0,0.0
232054,-0.935,0.096,0.126,112.634,-37.580,49.573,154.0,0.0
232144,-0.527,0.292,-0.149,-115.870,100.664,-9.489,149.0,0.0
232239,-1.191,0.215,0.030,71.313,-29.191,91.053,143.0,0.0
232330,-0.747,0.930,-0.606,-60.771,85.679,30.504,166.0,0.0
232421,-1.500,-0.168,0.244,18.176,-2.664,38.176,160.0,0.0
232513,-0.535,0.896,-0.364,83.328,-45.275,27.221,159.0,0.0
232604,-1.377,0.089,0.075,-96.878,50.779,-28.733,156.0,0.0
232695,-0.714,0.805,-0.515,166.237,-109.672,54.244,156.0,0.0
232784,-1.129,0.193,-0.069,-61.481,37.069,-22.458,125.0,0.0
232876,-0.877,0.340,-0.118,169.099,-104.878,66.282,155.0,0.0
232970,-0.849,0.251,0.004,-96.359,40.855,-9.771,153.0,0.0
233064,-0.785,0.572,-0.121,202.305,-96.550,78.160,0.0,0.0
233158,-0.689,0.167,0.042,-97.656,31.069,-25.366,0.0,0.0
233251,-0.649,0.511,-0.084,122.214,-67.023,23.008,0.0,0.0
233346,-0.949,0.522,-0.219,-45.939,32.176,-24.450,0.0,0.0
233439,-0.927,0.524,-0.254,135.977,-50.221,57.756,0.0,0.0
233533,-0.900,0.263,-0.138,-61.389,19.206,4.061,0.0,0.0
233627,-0.890,0.581,-0.365,136.679,-83.115,61.107,0.0,0.0
233720,-0.803,0.427,-0.250,-26.313,-10.870,-3.802,0.0,0.0
233818,-0.849,0.429,-0.211,129.550,-108.527,49.489,0.0,0.0
233912,-0.732,0.756,-0.358,20.695,-73.053,10.824,0.0,0.0
234005,-1.050,0.481,-0.229,121.824,-130.595,30.695,0.0,0.0
234099,-0.575,0.716,-0.253,49.489,-91.779,11.885,0.0,0.0
234193,-0.853,0.492,-0.016,77.870,-98.305,7.282,0.0,0.0
234287,-0.450,0.964,-0.200,40.412,-60.191,-16.305,0.0,0.0
234381,-0.807,0.512,0.086,39.885,-55.710,-16.977,0.0,0.0
234475,-0.470,0.992,-0.099,53.435,-30.992,-1.366,0.0,0.0
234569,-0.847,0.422,0.180,49.832,-29.412,8.702,0.0,0.0
234662,-0.445,1.079,-0.199,115.344,-37.214,13.603,0.0,147.0
234754,-0.955,0.282,0.188,3.664,-6.687,-3.466,0.0,145.0
234845,-0.520,1.276,-0.351,90.153,-21.588,8.962,0.0,143.0
234935,-0.965,0.313,0.092,-2.992,5.924,-3.107,0.0,142.0
235025,-0.626,1.041,-0.256,78.084,-33.588,10.191,0.0,141.0
235116,-0.920,0.448,-0.030,-12.656,-1.038,-5.519,0.0,138.0
235206,-0.729,0.696,-0.155,84.931,-38.550,16.580,0.0,138.0
235297,-0.766,0.650,-0.127,-10.321,-12.817,-5.038,0.0,141.0
235392,-0.813,0.656,-0.047,54.687,-38.679,14.420,0.0,144.0
235482,-0.768,0.836,-0.078,-22.359,-19.985,5.634,0.0,145.0
235573,-0.892,0.600,0.027,39.962,-42.641,-0.718,0.0,143.0
235665,-0.683,0.776,-0.053,30.313,-39.977,-4.221,0.0,166.0
235757,-0.700,0.401,0.092,-43.420,-5.679,8.031,0.0,168.0
235848,-0.707,0.618,0.033,39.634,-21.275,19.672,0.0,154.0
235941,-0.680,0.587,0.040,-68.840,23.473,-17.527,0.0,174.0
236033,-0.709,0.481,0.136,51.374,-11.725,-0.321,0.0,159.0
236126,-0.631,0.814,-0.038,-50.450,31.687,-22.130,0.0,177.0
236222,-0.787,0.462,0.175,13.496,12.779,3.160,0.0,180.0
236315,-0.761,0.820,-0.035,12.481,10.687,10.634,0.0,183.0
236408,-0.763,0.613,0.048,-23.412,26.954,2.153,0.0,191.0
236503,-0.730,0.761,-0.084,5.611,31.504,-15.565,0.0,193.0
236597,-0.831,0.568,-0.080,-100.443,56.939,-4.466,0.0,0.0
236691,-1.056,0.577,-0.101,59.313,-0.947,58.939,0.0,0.0
236785,-0.844,0.521,-0.208,-60.611,38.198,57.420,0.0,0.0
236879,-0.736,0.365,-0.176,-24.397,31.656,-1.115,198.0,0.0
236974,-0.749,0.619,-0.171,1.397,11.168,-45.580,0.0,0.0
237071,-0.867,0.594,-0.045,31.053,-21.779,-10.130,0.0,0.0
237165,-0.726,1.087,-0.279,-5.840,-9.519,-5.878,0.0,0.0
237259,-1.144,0.225,0.089,2.275,-32.748,-4.786,0.0,0.0
237353,-0.565,0.894,-0.208,30.015,-27.603,9.710,0.0,0.0
237448,-0.903,0.325,0.012,-88.794,26.092,-13.595,0.0,0.0
237542,-0.696,0.427,0.050,66.496,-24.771,18.496,0.0,0.0
237636,-0.677,0.614,-0.057,-40.427,10.145,-30.786,0.0,0.0
237730,-0.750,0.446,0.112,3.595,4.328,-13.252,0.0,0.0
237825,-0.779,0.720,0.017,13.008,-4.420,-5.748,0.0,0.0
237922,-0.956,0.647,-0.020,-0.366,14.008,-12.015,0.0,0.0
238016,-1.009,0.495,-0.052,-49.397,22.046,31.244,0.0,0.0
238110,-0.949,0.401,-0.071,-43.832,30.191,46.802,0.0,0.0
238204,-0.860,0.302,0.033,-45.679,10.649,42.718,0.0,0.0
238299,-0.757,0.516,-0.026,38.824,-16.840,16.412,0.0,0.0
238392,-0.809,0.552,-0.033,-18.084,-29.122,-18.405,182.0,0.0
238486,-0.826,0.656,-0.009,15.710,-34.748,-32.969,0.0,0.0
238580,-1.002,0.591,0.165,13.496,-21.527,-68.359,0.0,0.0
238672,-0.814,0.279,0.263,-48.771,-13.344,-18.443,167.0,0.0
238768,-0.800,0.288,0.258,35.260,-29.092,20.779,154.0,0.0
238860,-0.685,0.383,0.209,-1.244,-2.084,3.977,153.0,0.0
238951,-0.639,0.542,0.318,-1.252,18.847,-15.595,144.0,0.0
239042,-0.419,0.675,0.455,-16.046,38.038,-22.656,139.0,0.0
239132,-0.242,0.522,0.388,-41.305,47.840,-40.687,127.0,0.0
239221,-0.208,0.025,0.029,18.420,30.321,-5.969,113.0,0.0
239310,-1.627,-0.234,-0.819,-156.641,46.527,-31.015,101.0,0.0
239398,-1.086,0.740,-0.877,120.542,63.290,52.969,87.0,0.0
239490,-1.603,0.057,-0.306,-91.382,77.137,-19.573,88.0,0.0
239578,-1.389,0.584,-0.390,134.779,-36.099,-35.344,78.0,0.0
239665,-1.292,0.493,-0.442,-91.290,10.282,-75.382,73.0,0.0
239752,-1.084,-0.002,0.125,35.748,-54.908,6.832,68.0,0.0
239838,-0.377,0.042,0.057,35.809,-82.275,97.802,61.0,0.0
239924,-1.775,0.424,-0.147,-26.824,-13.893,26.565,52.0,0.0
240010,-0.327,0.705,-0.451,20.481,14.076,44.542,51.0,0.0
240096,-1.030,-0.229,0.226,-23.137,36.305,59.458,46.0,0.0
240181,-0.891,0.877,-0.641,143.779,45.191,40.611,43.0,0.0
240270,-1.699,-0.750,-0.014,-103.305,35.824,15.206,36.0,0.0
240355,-0.695,0.455,-0.377,203.886,-55.405,79.855,39.0,0.0
240441,-1.147,-0.398,0.188,-36.084,-28.000,-7.603,42.0,0.0
240527,-0.988,0.325,-0.197,216.763,-162.305,31.580,50.0,0.0
240614,-0.531,0.809,-0.313,-19.863,-50.183,-31.405,61.0,0.0
240701,-0.869,0.052,-0.013,156.947,-111.328,14.397,69.0,0.0
240789,-0.422,1.029,-0.431,79.229,-66.069,14.298,0.0,83.0
240883,-0.785,0.137,0.039,41.191,-21.397,-2.710,198.0,0.0
240974,-0.537,0.762,-0.251,170.580,-58.160,31.565,0.0,73.0
241061,-0.984,0.547,-0.122,51.939,-11.115,-27.435,0.0,70.0
241148,-0.930,0.688,-0.187,90.634,-25.000,11.725,0.0,74.0
241244,-0.807,0.412,-0.113,70.649,-23.061,12.435,0.0,0.0
241331,-0.821,0.601,-0.289,85.298,-54.069,22.641,0.0,69.0
241418,-0.820,0.458,-0.237,28.000,-8.267,-3.725,0.0,68.0
241505,-0.933,0.467,-0.282,87.344,-44.817,-0.328,0.0,65.0
241602,-0.842,0.572,-0.314,71.115,-38.214,5.237,0.0,138.0
241690,-0.890,0.523,-0.247,45.931,-32.641,-0.153,0.0,118.0
241782,-0.935,0.558,-0.176,27.557,-33.641,4.550,0.0,126.0
241869,-0.870,0.618,-0.089,3.969,-26.313,-3.779,0.0,70.0
241954,-0.866,0.318,0.310,14.664,-44.252,0.298,0.0,65.0
242040,-0.567,1.199,-0.042,-16.298,-0.015,1.260,0.0,62.0
242126,-0.934,-0.067,0.488,-121.992,9.962,-10.580,0.0,64.0
242211,-0.448,0.908,-0.010,150.641,-39.191,47.427,0.0,62.0
242298,-0.927,0.214,0.181,-217.366,71.496,-20.260,0.0,72.0
242384,-0.874,0.241,0.091,218.206,-46.107,55.412,0.0,70.0
242475,-1.021,0.627,-0.169,-190.420,66.351,-4.206,0.0,138.0
242568,-0.846,0.131,0.086,164.817,-36.420,59.809,0.0,144.0
242657,-0.632,0.813,-0.251,-96.290,22.252,-3.107,0.0,118.0
242746,-0.955,0.237,0.074,108.176,-40.137,7.725,0.0,129.0
242833,-0.657,1.100,-0.286,36.809,-15.992,-7.305,0.0,79.0
242920,-1.034,0.271,0.146,-16.489,-12.580,-14.618,0.0,81.0
243008,-0.778,1.007,-0.229,140.626,-72.565,11.137,0.0,107.0
243095,-1.020,0.436,0.056,-121.443,-2.473,-43.885,0.0,84.0
243183,-0.897,0.457,0.048,122.916,-71.366,-5.710,0.0,86.0
243273,-0.673,0.556,0.006,-10.489,-26.412,6.832,0.0,88.0
243360,-0.731,0.363,0.096,20.992,-14.099,-3.389,0.0,91.0
243448,-0.607,0.654,0.023,-14.733,12.435,-27.290,0.0,93.0
243535,-0.878,0.424,0.198,-26.092,19.794,-34.763,0.0,96.0
243623,-0.805,0.611,0.160,103.069,-15.305,-2.634,0.0,102.0
243713,-0.937,0.832,0.019,-15.084,18.656,-5.275,0.0,108.0
243802,-0.914,0.449,0.124,-33.092,27.916,3.565,0.0,119.0
243891,-0.891,0.450,-0.017,-35.740,30.687,4.672,0.0,129.0
243982,-0.920,0.349,-0.080,-73.740,29.260,9.038,0.0,140.0
244075,-0.897,0.200,-0.072,-3.382,6.687,-2.405,0.0,153.0
244163,-0.829,0.316,-0.214,3.420,20.992,-36.893,0.0,98.0
244255,-1.007,0.160,-0.222,0.672,11.771,-84.198,0.0,166.0
244347,-1.088,0.150,-0.143,36.229,-20.740,-106.489,0.0,171.0
244440,-0.383,0.011,0.205,-12.534,-13.244,-60.641,0.0,178.0
244533,-1.250,-0.255,0.223,-36.687,11.748,-93.382,0.0,187.0
244627,-0.550,0.020,-0.006,27.084,71.916,-6.855,0.0,196.0
244720,-1.467,-1.326,0.226,-198.733,-121.893,-0.260,0.0,0.0
244817,-0.349,2.000,-1.021,77.443,96.092,83.931,0.0,0.0
244907,-1.314,-1.427,0.658,44.786,-55.229,84.527,0.0,121.0
245001,-0.979,2.000,-1.422,-156.305,146.511,29.366,0.0,0.0
245092,-1.491,-1.422,0.227,192.290,-110.611,75.206,0.0,145.0
245183,-0.937,0.430,-0.592,-211.588,88.092,-49.008,0.0,154.0
245275,-0.869,-0.016,-0.096,162.290,-97.557,34.130,0.0,160.0
245368,-0.415,0.950,-0.504,-127.351,97.412,-11.313,0.0,189.0
245463,-1.198,-0.253,0.124,203.618,-104.031,88.779,0.0,0.0
245556,-1.461,-0.712,0.088,-250.137,90.718,-27.954,0.0,0.0
245653,-0.628,0.904,-0.419,67.382,-31.573,52.771,0.0,0.0
245747,-0.995,-0.104,0.168,-23.130,9.053,38.550,0.0,0.0
245841,-0.881,1.292,-0.727,-142.344,87.313,28.489,0.0,0.0
245936,-1.036,-0.298,0.123,104.145,-76.229,70.038,0.0,0.0
246029,-0.353,1.298,-0.731,-140.229,68.931,-6.153,0.0,0.0
246123,-1.049,-0.089,0.217,37.573,-52.939,8.656,0.0,0.0
246217,-0.479,1.131,-0.373,46.740,-45.344,35.885,0.0,0.0
246311,-1.186,0.110,0.177,-4.489,-50.702,14.580,0.0,0.0
246405,-0.277,1.184,-0.176,78.198,-44.595,50.931,0.0,0.0
246502,-0.942,0.116,0.316,-50.802,-1.221,-3.092,0.0,0.0
246595,-0.226,1.014,-0.102,148.336,-47.756,26.046,174.0,0.0
246688,-0.891,0.069,0.336,-146.817,28.298,-22.809,195.0,0.0
246782,-0.028,1.248,-0.187,185.855,-25.328,36.359,0.0,0.0
246876,-1.040,-0.086,0.427,-151.947,48.885,-16.214,194.0,0.0
246970,-0.311,1.204,-0.224,222.542,-54.771,55.672,198.0,0.0
247064,-0.727,0.156,0.225,-145.634,87.023,-33.641,194.0,0.0
247157,-0.426,0.934,-0.065,129.023,-5.939,-3.160,192.0,0.0
247255,-1.339,0.021,0.104,-250.137,81.924,-38.985,189.0,0.0
247348,-0.536,1.067,-0.315,195.176,-55.870,62.389,184.0,0.0
247441,-0.936,0.057,0.125,-166.962,48.878,-14.985,181.0,0.0
247533,-0.759,0.610,-0.193,222.962,-106.779,38.267,178.0,0.0
247626,-0.940,0.362,-0.021,-175.733,30.511,-45.038,175.0,0.0
247718,-0.881,0.694,-0.074,229.954,-107.137,-3.122,174.0,0.0
247812,-0.805,0.526,0.049,-160.389,23.305,-44.038,172.0,0.0
247904,-0.686,0.426,0.100,226.076,-89.878,11.214,171.0,0.0
247997,-0.463,0.920,-0.069,-94.641,6.786,-31.573,171.0,0.0
248092,-0.778,0.431,0.204,152.832,-53.718,-1.824,171.0,0.0
248185,-0.825,0.960,-0.130,58.198,-22.160,-17.008,173.0,0.0
248271,-1.120,0.182,0.145,52.527,-62.847,28.901,66.0,0.0
248358,-0.923,1.000,-0.296,113.412,-39.008,45.725,65.0,0.0
248444,-0.885,-0.046,0.092,-88.229,-23.511,16.519,63.0,0.0
248537,-0.884,0.256,-0.354,250.130,-183.061,54.580,0.0,154.0
248627,-0.789,0.745,-0.380,-142.908,-83.786,-24.282,182.0,149.0
248714,-1.198,0.086,-0.183,250.130,-242.954,13.939,179.0,95.0
248804,-0.289,1.390,-0.358,-145.206,-12.802,-70.359,176.0,96.0
248893,-0.776,0.055,0.565,167.855,-120.733,-41.779,195.0,105.0
248979,-0.066,1.939,-0.416,54.863,-60.336,-24.656,170.0,91.0
249066,-0.546,0.174,0.276,-18.664,6.328,-45.969,0.0,62.0
249152,-0.538,0.510,0.070,93.870,-18.351,-35.794,0.0,57.0
249238,-0.464,1.385,-0.212,22.924,49.389,-59.756,0.0,51.0
249317,-0.963,0.125,0.392,-242.038,81.115,-59.702,91.0,48.0
249397,-1.037,-0.041,0.371,250.130,-48.282,-4.221,96.0,43.0
249485,-0.764,1.405,-0.269,-37.656,28.397,-3.641,0.0,44.0
249571,-0.922,-0.250,0.462,85.618,-29.321,18.053,0.0,40.0
249656,-0.645,1.739,-0.517,-10.382,38.122,11.802,0.0,50.0
249741,-0.992,-0.306,0.412,21.756,-20.046,14.473,0.0,39.0
249828,-0.512,1.641,-0.536,27.534,19.092,8.282,0.0,57.0
249913,-1.039,-0.110,0.269,-30.969,-6.534,-16.252,0.0,39.0
249999,-0.677,1.390,-0.397,25.725,3.008,3.618,0.0,47.0
250084,-1.096,-0.164,0.297,5.107,-16.863,1.061,0.0,42.0
250170,-0.790,0.981,-0.267,72.008,-9.580,-9.466,0.0,61.0
250259,-1.044,-0.031,0.052,-32.366,11.702,-34.053,0.0,45.0
250345,-0.894,0.247,-0.078,130.489,-38.260,-11.374,0.0,57.0
250432,-0.887,0.333,-0.080,133.588,-40.481,-8.168,0.0,66.0
250519,-0.724,0.408,0.007,30.076,-11.344,-29.679,0.0,69.0
250606,-0.869,0.297,0.125,17.534,-8.977,-38.489,0.0,71.0
250693,-1.044,0.487,0.074,44.115,-16.092,-47.473,0.0,73.0
250780,-0.883,0.378,0.048,49.023,-15.214,-30.298,0.0,79.0
250868,-1.171,0.512,-0.179,13.519,3.969,-18.496,0.0,86.0
250957,-1.173,0.210,-0.097,-66.351,32.221,77.008,0.0,103.0
251049,-0.884,0.089,-0.024,-57.504,29.985,102.863,0.0,110.0
251140,-0.818,0.204,-0.064,-21.519,5.901,48.756,0.0,117.0
251230,-1.073,0.319,-0.112,7.229,-10.092,-5.977,0.0,125.0
251320,-1.368,0.291,-0.184,7.786,-2.969,-77.092,0.0,132.0
251412,-0.878,0.052,-0.121,62.351,-25.168,-140.588,0.0,153.0
251504,0.521,1.026,0.274,-115.855,-30.573,-199.366,0.0,162.0
251599,-0.719,0.003,0.218,176.405,-43.908,46.489,0.0,0.0
251693,-0.889,-1.301,0.284,-105.160,21.008,39.435,0.0,184.0
251790,-1.188,-0.096,-0.570,-187.763,116.221,1.099,0.0,194.0
251883,-1.174,-0.032,-0.207,96.527,-24.779,108.336,0.0,172.0
251977,-0.210,1.086,-0.579,-116.687,55.519,97.397,0.0,183.0
252071,-1.749,-0.902,0.345,96.183,-74.817,100.359,0.0,197.0
252166,-1.106,0.148,-0.663,-250.137,108.122,-14.252,0.0,187.0
252260,-1.222,-0.254,-0.096,250.130,-122.672,70.794,0.0,194.0
252354,-0.926,0.010,-0.190,-173.542,82.695,-54.046,0.0,200.0
252449,-0.813,0.013,-0.068,191.992,-141.275,62.206,0.0,0.0
252544,-1.432,-0.427,-0.163,-250.137,174.053,-70.947,0.0,0.0
252642,-0.586,0.589,-0.534,227.473,-116.290,115.725,0.0,0.0
252737,-1.494,-0.336,0.285,-106.496,66.756,3.908,0.0,0.0
252831,-0.051,0.979,-0.294,70.565,-29.336,65.916,0.0,0.0
252925,-1.272,0.071,0.150,-39.626,25.824,31.718,0.0,0.0
253021,-0.438,1.513,-0.886,-64.420,57.061,9.046,0.0,0.0
253121,-1.159,0.098,-0.084,157.969,-75.588,56.168,0.0,0.0
253215,-0.806,0.802,-0.664,-112.427,80.534,-50.634,0.0,0.0
253308,-0.700,0.498,-0.305,190.740,-92.489,68.702,0.0,0.0
253405,-1.341,-0.313,0.235,-71.618,41.061,-11.214,0.0,0.0
253498,-0.393,1.254,-0.501,-95.802,13.786,-12.557,0.0,0.0
253592,-0.951,0.364,-0.013,53.466,-49.824,16.076,0.0,0.0
253685,-0.841,0.592,-0.381,-76.298,29.573,-17.817,0.0,0.0
253779,-0.857,0.423,-0.041,93.931,-46.595,30.321,0.0,0.0
253873,-0.903,0.575,-0.060,-77.092,30.466,-14.969,0.0,0.0
253966,-0.701,0.552,0.065,108.420,-57.679,22.947,0.0,0.0
254060,-1.044,0.171,0.120,-183.198,41.420,-52.191,0.0,0.0
254153,-0.450,1.150,-0.160,86.786,-52.321,46.168,0.0,0.0
254249,-1.003,0.000,0.268,-24.092,11.733,-6.496,0.0,0.0
254344,-0.617,0.894,-0.295,-106.603,39.878,-17.695,0.0,0.0
254437,-0.818,0.445,-0.020,103.908,-42.588,44.336,0.0,0.0
254529,-1.055,0.122,0.080,-61.924,46.534,2.947,0.0,169.0
254622,-0.463,0.866,-0.162,111.229,-10.771,30.305,0.0,0.0
254714,-1.121,-0.010,0.286,14.748,-13.237,-8.977,0.0,170.0
254807,-0.838,0.554,-0.109,-200.137,36.359,-40.046,0.0,168.0
254898,-0.885,0.838,0.011,-9.763,-74.588,-6.275,0.0,168.0
254989,-1.107,-0.054,0.459,-84.206,-26.229,-12.458,0.0,141.0
255082,-0.717,0.965,0.010,-69.115,-21.176,-11.580,0.0,140.0
255172,-0.875,0.084,0.439,120.817,-84.779,-3.000,0.0,141.0
255262,-0.791,0.413,0.301,-54.969,-7.832,3.672,0.0,142.0
255353,-0.588,0.762,0.348,-10.580,-59.336,-3.847,0.0,144.0
255443,-0.789,0.109,0.594,-79.733,2.649,-9.244,0.0,144.0
255534,-0.644,0.390,0.432,-75.214,19.542,2.145,0.0,145.0
255625,-0.819,-0.448,0.865,69.427,-32.588,-18.046,0.0,144.0
255715,-0.738,0.808,0.216,-207.107,60.794,5.023,0.0,144.0
255809,-0.802,0.307,0.489,132.382,-19.641,5.733,0.0,143.0
255899,-0.938,-0.143,0.562,-176.870,83.061,28.252,0.0,143.0
255989,-0.814,0.534,0.424,63.115,-25.298,5.458,0.0,142.0
256080,-0.950,-0.209,0.670,-127.237,28.420,18.939,0.0,142.0
256171,-0.867,0.454,0.440,33.962,-36.771,-2.817,0.0,141.0
256261,-0.814,0.030,0.614,-36.298,-8.550,14.252,0.0,142.0
256352,-0.644,0.806,0.297,-14.473,-1.687,7.046,0.0,141.0
256442,-0.880,-0.311,0.804,50.710,-18.870,-10.336,0.0,141.0
256532,-0.708,0.816,0.331,-135.008,22.427,1.702,0.0,141.0
256625,-0.712,0.360,0.590,71.809,-51.237,-3.252,0.0,140.0
256715,-0.832,-0.112,0.724,-8.084,-15.267,7.908,0.0,141.0
256806,-0.745,0.361,0.626,-91.290,-16.504,16.282,0.0,141.0
256888,-0.779,-0.071,0.847,-99.244,-41.130,21.107,45.0,141.0
256970,-0.696,0.042,0.799,-75.542,-55.298,-2.481,56.0,141.0
257051,-0.538,-0.189,0.760,-96.908,-36.931,17.527,31.0,142.0
257133,-0.561,0.056,0.669,-25.687,-47.931,-13.634,51.0,142.0
257215,-0.411,-0.119,0.597,-70.420,3.328,33.595,47.0,143.0
257299,-0.432,-0.364,0.791,35.374,-20.794,-6.802,29.0,144.0
257380,-0.523,-0.286,0.869,-1.389,3.481,-7.366,30.0,143.0
257462,-0.445,-0.319,0.939,18.794,-34.176,-28.137,36.0,143.0
257544,-0.281,-0.155,0.787,-39.137,20.748,15.344,43.0,143.0
257626,-0.454,-0.299,0.969,38.992,-21.992,-29.450,52.0,142.0
257708,-0.303,0.001,0.764,-15.282,11.168,15.817,38.0,142.0
257788,-0.467,-0.475,0.941,-7.771,-3.626,7.282,45.0,142.0
257871,-0.375,-0.156,0.817,-10.435,5.443,7.847,53.0,142.0
257953,-0.508,-0.340,0.955,4.962,-2.008,2.939,54.0,143.0
258038,-0.346,-0.120,0.838,5.824,0.893,2.740,53.0,143.0
258121,-0.464,-0.340,0.936,-14.130,7.145,15.580,53.0,143.0
258202,-0.421,-0.249,0.889,4.015,-8.695,0.985,30.0,142.0
258284,-0.399,-0.247,0.876,-12.336,-0.847,8.863,54.0,143.0
258366,-0.420,-0.252,0.872,-3.099,-2.916,1.695,36.0,143.0
258448,-0.384,-0.219,0.860,0.489,-0.573,1.481,54.0,143.0
258531,-0.382,-0.225,0.885,2.366,4.565,3.954,56.0,143.0
258613,-0.385,-0.245,0.838,17.313,5.481,1.641,54.0,143.0
258696,-0.441,-0.115,0.645,108.916,-13.588,-28.366,56.0,141.0
258781,-0.375,0.096,0.517,189.511,18.221,-47.076,59.0,138.0
258864,-0.497,0.111,0.719,-48.763,163.870,3.450,57.0,138.0
258954,-0.837,-0.126,0.960,250.130,18.359,-78.374,0.0,137.0
259045,-0.788,0.662,0.609,-124.412,117.534,-21.496,0.0,137.0
259135,-0.913,0.065,0.721,250.130,-35.313,-44.603,0.0,137.0
259226,-0.917,0.115,0.600,-239.565,69.466,-12.672,0.0,138.0
259316,-0.772,0.505,0.434,170.023,-40.939,-1.313,0.0,138.0
259406,-0.918,-0.107,0.666,-118.435,17.786,5.282,0.0,137.0
259501,-0.697,0.656,0.347,67.863,-33.198,4.588,0.0,137.0
259591,-0.878,-0.216,0.746,-16.931,-15.870,-4.183,0.0,137.0
259682,-0.585,1.124,0.190,-44.985,30.603,25.000,0.0,137.0
259772,-0.774,-0.187,0.777,121.023,-21.496,-0.809,0.0,138.0
259862,-0.798,0.529,0.393,-107.427,38.550,-2.481,0.0,137.0
259953,-0.764,0.472,0.261,132.847,-7.099,5.160,0.0,139.0
260044,-0.819,0.037,0.485,6.038,50.053,-5.603,0.0,140.0
260137,-0.615,0.391,0.336,219.489,18.107,-2.573,0.0,0.0
260232,-0.840,0.746,0.231,-159.382,66.145,-49.908,0.0,0.0
260330,-0.800,0.608,0.209,150.542,-9.908,27.771,0.0,0.0
260423,-1.011,-0.260,0.551,-58.305,28.527,6.634,0.0,0.0
260517,-0.625,0.927,-0.100,108.473,7.740,16.611,0.0,0.0
260612,-1.102,-0.034,0.312,4.725,3.695,-7.000,0.0,0.0
260706,-0.890,0.904,-0.159,-138.038,41.122,-0.389,0.0,0.0
260800,-0.867,0.319,0.093,234.542,-29.832,37.496,0.0,0.0
260894,-0.876,0.792,-0.086,-174.420,26.137,-30.260,0.0,0.0
260998,-0.775,0.928,-0.116,66.160,-12.389,18.145,0.0,0.0
261091,-1.083,-0.338,0.396,8.244,-1.305,6.893,0.0,0.0
261187,-0.758,1.322,-0.391,-64.550,24.519,-7.481,190.0,0.0
261280,-0.952,-0.080,0.258,125.084,-24.626,1.901,190.0,0.0
261372,-0.932,0.444,-0.042,-102.748,18.847,-25.740,191.0,0.0
261467,-0.803,0.613,-0.089,147.870,-26.878,14.137,193.0,0.0
261560,-1.033,-0.202,0.282,-59.214,7.359,-12.000,194.0,0.0
261653,-0.705,1.211,-0.333,19.176,-8.550,4.290,195.0,0.0
261746,-0.974,0.020,0.203,108.191,-34.565,15.916,193.0,0.0
261839,-0.822,1.371,-0.478,-118.160,18.466,-4.450,0.0,0.0
261936,-1.029,-0.027,0.182,182.817,-68.496,16.771,195.0,0.0
262029,-0.909,0.755,-0.197,-155.702,-0.267,-15.840,0.0,0.0
262123,-0.985,0.154,0.101,203.763,-71.695,4.519,0.0,0.0
262216,-0.988,0.377,0.051,-181.985,16.153,-57.214,193.0,0.0
262309,-0.842,0.415,-0.036,250.130,-67.855,19.939,196.0,0.0
262403,-0.866,-0.177,0.423,-147.206,14.397,-31.359,197.0,0.0
262497,-0.660,0.461,0.155,239.618,-45.183,6.328,0.0,0.0
262589,-0.828,0.514,0.232,-67.076,20.496,-23.527,174.0,0.0
262680,-0.798,0.559,0.127,182.542,-24.695,24.954,169.0,0.0
262774,-1.186,0.260,0.150,-178.282,50.000,-18.817,163.0,0.0
262866,-0.990,0.438,-0.037,221.122,-28.611,52.969,157.0,0.0
262957,-1.028,0.484,-0.100,-176.267,30.504,4.473,153.0,0.0
263048,-1.073,-0.055,0.118,222.443,-62.267,43.374,149.0,0.0
263139,-0.750,0.647,-0.150,-165.718,-11.695,-29.748,148.0,0.0
263230,-1.040,-0.021,0.158,194.947,-70.595,-8.611,147.0,0.0
263318,-0.925,0.999,-0.347,-119.763,-27.015,-51.298,102.0,0.0
263406,-1.335,-0.001,-0.081,250.130,-119.702,-0.031,101.0,0.0
263497,-0.734,0.201,0.119,-155.832,8.664,-51.107,100.0,0.0
263583,-0.822,0.306,-0.012,250.130,-80.351,10.160,101.0,172.0
263670,-0.751,0.302,0.166,-145.137,20.389,-32.031,101.0,173.0
263757,-0.602,0.727,0.027,250.130,-60.649,23.885,102.0,172.0
263843,-1.015,0.202,0.337,-102.740,22.237,-27.359,99.0,175.0
263931,-0.912,0.552,0.091,195.099,-27.229,32.504,99.0,199.0
264019,-0.963,0.390,0.088,-137.542,25.130,-5.244,96.0,0.0
264107,-1.089,0.140,0.083,223.519,-57.267,44.611,95.0,187.0
264198,-0.883,0.437,-0.119,-223.046,27.855,-17.847,95.0,0.0
264292,-0.838,0.156,0.057,243.450,-63.290,19.130,0.0,0.0
264380,-0.972,0.202,0.097,-169.702,5.412,-73.076,95.0,0.0
264467,-1.030,0.597,-0.086,-84.840,-8.870,-65.794,94.0,0.0
264561,-1.071,-0.151,0.226,163.863,-32.252,-28.863,0.0,0.0
264655,-0.806,0.669,0.060,-32.893,-14.504,-19.878,0.0,0.0
264749,-0.741,-0.049,0.310,250.130,-66.886,2.656,0.0,0.0
264843,-0.678,0.358,0.209,-185.466,41.466,-51.992,0.0,0.0
264936,-0.790,0.755,0.101,230.893,-31.557,5.664,0.0,0.0
265033,-1.112,-0.211,0.608,17.725,0.206,-10.336,0.0,0.0
265126,-0.963,0.913,0.017,40.710,0.718,7.046,0.0,0.0
265221,-0.939,-0.038,0.354,94.038,-32.389,51.603,0.0,0.0
265314,-0.833,0.961,-0.219,-154.611,19.443,12.458,0.0,0.0
265408,-0.848,-0.148,0.442,156.008,-54.405,21.954,0.0,0.0
265502,-0.854,0.632,-0.054,-192.939,25.275,-39.870,0.0,0.0
265595,-1.128,0.166,0.164,204.733,-54.863,-2.092,0.0,0.0
265690,-0.957,1.207,-0.335,79.855,1.687,-1.061,0.0,0.0
265784,-0.955,-0.338,0.641,14.832,-7.565,-6.870,0.0,0.0
265880,-0.553,1.547,-0.341,53.084,-19.985,17.389,0.0,0.0
265974,-0.798,-0.799,0.773,-44.092,6.405,-11.122,0.0,0.0
266068,-0.372,1.751,-0.453,194.611,-41.099,47.672,0.0,0.0
266163,-1.199,-0.493,0.599,-102.458,45.267,-10.527,0.0,0.0
266257,-0.971,1.214,-0.359,170.267,-22.855,31.328,0.0,0.0
266350,-1.229,-0.395,0.342,-110.779,23.435,4.519,0.0,0.0
266444,-0.542,1.042,-0.358,228.321,-60.458,78.580,0.0,0.0
266539,-1.017,-0.391,0.313,-107.893,19.924,-23.336,0.0,0.0
266633,-0.894,0.979,-0.431,212.153,-81.351,23.611,195.0,0.0
266729,-0.999,-0.624,0.558,-56.855,20.450,-44.840,190.0,0.0
266822,-0.515,1.689,-0.366,72.107,-27.687,12.038,184.0,0.0
266915,-0.836,-0.118,0.409,140.214,-37.893,2.779,180.0,0.0
267008,-0.370,0.478,-0.060,226.237,-57.855,36.237,177.0,0.0
267101,-1.056,0.037,-0.087,-230.824,65.710,-59.939,172.0,0.0
267195,-1.502,0.261,-0.504,250.130,-108.863,43.748,0.0,0.0
267289,-1.132,-0.463,0.012,-185.702,82.664,-103.962,0.0,0.0
267382,-1.228,-0.023,-0.227,250.130,-214.855,-11.389,0.0,180.0
267469,-0.423,0.328,-0.220,-218.244,14.733,-129.153,50.0,176.0
267563,-1.417,0.124,0.236,65.710,-43.107,-61.496,0.0,170.0
267655,-0.499,0.939,-0.245,64.061,-73.214,-2.076,0.0,164.0
267747,-1.127,-0.199,0.357,-120.557,-34.275,-39.015,0.0,162.0
267838,-0.719,0.087,-0.065,204.252,-189.145,44.931,0.0,153.0
267930,-0.990,-0.268,-0.063,-171.962,3.756,-11.473,0.0,162.0
268013,-1.019,-0.436,0.400,188.481,-250.137,67.061,46.0,153.0
268103,0.378,1.699,1.202,-136.336,-149.153,61.061,0.0,131.0
268200,0.727,-0.173,2.000,-12.145,23.695,0.687,0.0,0.0
268295,0.817,1.431,-0.062,92.573,13.046,36.321,0.0,0.0
268378,-0.331,-1.301,0.924,-3.321,-0.969,18.366,62.0,137.0
268468,1.219,1.239,0.019,117.137,-43.802,27.771,0.0,131.0
268558,-0.560,-0.193,1.323,-64.458,76.305,-12.740,0.0,130.0
268648,0.132,0.844,0.744,185.107,-50.427,27.031,0.0,122.0
268737,-0.608,0.410,0.760,-52.000,141.710,23.832,0.0,120.0
268827,-0.081,0.739,0.629,196.595,-15.489,81.450,0.0,117.0
268907,-0.831,-0.710,1.530,-137.397,72.855,-0.366,36.0,117.0
268990,0.026,1.467,0.498,117.550,-36.748,40.893,35.0,113.0
269074,-0.703,-0.060,1.218,-99.992,46.092,9.511,51.0,160.0
269166,-0.192,0.575,0.984,-14.786,-44.519,16.763,0.0,162.0
269249,-0.303,-0.273,1.231,14.252,-76.710,-8.282,38.0,164.0
269332,-0.196,0.761,0.492,-203.573,53.832,-6.198,37.0,165.0
269415,-0.138,-0.489,1.092,160.649,-72.206,-2.496,38.0,166.0
269498,-0.279,0.391,0.677,-206.641,73.626,-38.435,44.0,166.0
269582,-0.287,0.344,0.797,158.000,-42.489,38.466,37.0,166.0
269668,-0.300,0.231,0.663,-95.053,107.473,28.160,30.0,167.0
269750,-0.594,-0.403,1.545,28.168,-71.466,-22.099,23.0,168.0
269834,0.075,1.424,0.299,-68.130,35.740,-15.153,38.0,167.0
269918,-0.498,-0.390,1.379,1.473,-21.275,-25.198,25.0,0.0
270003,0.133,0.799,0.706,-28.061,-6.244,6.038,29.0,0.0
270087,-0.474,-0.417,1.145,-58.611,-12.901,-21.382,20.0,0.0
270179,0.054,1.239,0.408,156.374,8.160,47.229,0.0,168.0
270273,-0.281,0.020,1.129,-102.405,43.588,29.237,0.0,0.0
270357,-0.142,-0.205,1.140,115.122,-81.573,11.962,18.0,0.0
270445,-0.230,0.361,0.508,-89.084,55.931,5.122,21.0,0.0
270529,-0.435,0.146,1.355,42.985,18.137,-13.076,19.0,0.0
270613,-0.412,0.753,0.811,101.458,13.160,95.229,19.0,0.0
270697,0.313,-0.011,0.786,-112.588,44.427,10.634,16.0,0.0
270781,-0.737,0.941,1.046,141.412,-19.015,100.710,17.0,0.0
270865,0.222,-0.417,0.640,-96.191,-10.534,0.458,17.0,0.0
270949,-0.278,1.114,0.749,-5.420,25.649,50.718,16.0,0.0
271043,-0.154,-0.490,1.298,7.389,2.389,-49.863,0.0,0.0
271127,0.035,0.385,0.705,-66.450,-25.679,29.649,16.0,0.0
271214,-0.259,0.496,0.902,11.679,11.176,15.595,13.0,0.0
271298,-0.165,0.081,1.112,-16.573,-20.229,-13.954,12.0,0.0
271392,-0.143,0.605,0.639,-109.740,26.603,-10.252,0.0,0.0
271476,-0.339,-0.418,1.375,110.321,-40.336,-11.282,13.0,0.0
271560,0.049,0.506,0.552,-85.756,-4.122,-19.595,16.0,0.0
271644,-0.168,0.318,1.146,-41.824,-9.710,60.740,13.0,0.0
271728,-0.008,-0.699,0.967,19.076,-11.313,-41.802,16.0,0.0
271812,-0.166,0.554,0.963,-26.229,-19.718,-5.275,17.0,0.0
271906,0.144,-0.360,1.031,-32.420,-2.443,-31.076,0.0,0.0
272004,-0.236,0.398,0.848,17.931,8.580,23.672,16.0,0.0
272100,-0.035,-0.347,1.309,-18.015,0.260,-12.557,0.0,0.0
272187,0.034,0.880,0.463,134.824,-33.855,28.985,27.0,0.0
272280,-0.084,-0.536,1.328,-11.366,33.939,-8.695,30.0,0.0
272366,-0.025,1.000,0.708,75.832,-2.870,5.130,26.0,0.0
272452,-0.185,-0.289,1.206,-6.458,-10.198,-20.397,27.0,0.0
272538,0.070,0.856,0.752,-107.061,-7.573,-20.748,28.0,0.0
272623,0.001,-0.657,1.187,-250.137,10.115,-95.107,16.0,0.0
272712,-0.078,0.307,0.594,250.130,-43.168,22.679,29.0,0.0
272798,0.165,-0.335,0.739,-250.137,19.458,-100.336,27.0,0.0
272887,0.038,-0.267,0.857,250.130,-10.053,30.137,67.0,0.0
272971,-0.050,0.167,0.820,-71.443,-22.924,-27.863,70.0,122.0
273053,0.230,-0.134,0.826,-219.084,18.817,-19.901,35.0,121.0
273137,-0.053,-0.728,1.038,-114.046,-15.115,-44.855,67.0,128.0
273222,0.150,0.218,0.631,-19.901,15.779,-10.397,68.0,127.0
273304,-0.133,-1.177,1.272,70.748,-19.382,-27.870,40.0,124.0
273387,0.253,0.938,0.364,50.328,26.397,31.916,71.0,92.0
273474,-0.083,-1.395,1.471,0.748,-10.908,-7.733,72.0,125.0
273556,0.359,0.819,0.511,32.473,3.863,28.473,71.0,93.0
273640,0.007,-1.192,1.341,-42.771,5.328,-4.817,68.0,124.0
273730,0.283,0.700,0.569,107.710,2.550,17.748,0.0,92.0
273810,-0.143,-1.478,1.497,-57.733,19.038,-3.870,37.0,94.0
273901,0.245,0.764,0.470,216.824,-42.626,29.756,0.0,117.0
273984,-0.113,-1.459,1.529,-68.916,8.298,0.145,72.0,93.0
274075,0.344,0.853,0.602,114.832,-65.466,4.092,0.0,121.0
274165,-0.022,-0.869,1.269,-83.588,17.290,8.191,0.0,92.0
274250,0.326,0.730,0.618,77.008,-24.000,19.855,72.0,92.0
274333,0.043,-0.889,1.279,-59.069,0.550,-2.115,71.0,91.0
274415,0.266,0.557,0.689,99.366,-39.443,-2.275,73.0,90.0
274498,0.078,-0.412,1.045,-196.435,17.573,6.893,71.0,91.0
274582,0.269,-0.198,0.967,-84.191,-11.763,20.290,69.0,123.0
274666,0.155,-0.550,0.899,-16.595,-33.611,4.939,68.0,126.0
274755,0.267,-0.333,0.785,-32.763,-23.931,6.809,71.0,198.0
274843,0.301,-0.536,0.844,-18.305,-7.412,10.710,69.0,198.0
274935,0.295,-0.459,0.817,1.641,-3.939,-1.870,70.0,198.0
275019,0.312,-0.475,0.844,2.336,2.313,0.985,70.0,134.0
275104,0.287,-0.419,0.843,-8.885,8.603,-2.794,68.0,133.0
275187,0.290,-0.418,0.861,-1.023,7.794,-0.565,37.0,127.0
275269,0.279,-0.417,0.860,-4.924,5.191,-0.435,35.0,126.0
275356,0.295,-0.426,0.868,1.534,3.710,0.031,36.0,199.0
275439,0.309,-0.432,0.861,0.977,4.122,2.443,37.0,132.0
275522,0.288,-0.451,0.882,3.168,4.084,1.611,37.0,132.0
275606,0.287,-0.414,0.844,-3.008,7.565,-1.107,70.0,131.0
275690,0.278,-0.414,0.854,3.382,13.046,-7.275,36.0,92.0
275770,0.286,-0.356,0.846,3.000,10.137,-4.893,36.0,91.0
275852,0.293,-0.359,0.933,-16.298,-1.015,2.168,61.0,91.0
275935,0.319,-0.409,0.905,-13.908,-8.626,3.221,71.0,91.0
276016,0.312,-0.390,0.868,-0.573,-12.802,0.305,37.0,91.0
276098,0.304,-0.401,0.863,2.656,-14.015,-1.878,72.0,91.0
276180,0.320,-0.405,0.836,-4.275,-7.863,-1.634,70.0,90.0
