Timestamp(ms),AccelX(g),AccelY(g),AccelZ(g),GyroX(deg/s),GyroY(deg/s),GyroZ(deg/s),DistanceLeft(cm),DistanceRight(cm)
44624,0.781,0.623,-0.470,250.130,-22.115,194.450,134.0,0.0
44713,-1.660,2.000,-1.034,-250.137,60.847,29.084,131.0,0.0
44796,1.371,-1.006,0.594,66.542,-120.969,62.595,36.0,0.0
44880,-2.000,2.000,-1.386,233.695,74.817,-45.290,129.0,112.0
44963,1.016,-0.463,-0.052,-111.672,8.519,66.221,37.0,0.0
45051,-1.074,1.763,-0.333,250.130,90.305,-15.450,126.0,0.0
45135,1.050,0.234,-0.139,-165.992,-96.908,12.031,124.0,112.0
45221,-0.505,2.000,-1.581,136.031,2.656,-20.046,128.0,110.0
45299,0.585,-0.531,0.796,-182.450,-55.817,37.534,30.0,118.0
45383,0.308,0.407,-0.336,250.130,-17.573,-11.031,128.0,108.0
45467,-1.407,0.081,-0.873,-250.137,-69.130,42.427,45.0,0.0
45546,1.246,-0.478,0.400,187.817,-57.634,-4.542,41.0,118.0
45625,-1.862,2.000,-1.816,-250.137,-40.763,-89.389,38.0,116.0
45709,2.000,-1.135,0.981,250.130,-37.290,64.718,38.0,0.0
45788,-1.583,2.000,-1.343,-249.321,-27.664,-132.496,41.0,118.0
45875,0.904,-2.000,1.493,158.908,-7.351,61.786,35.0,0.0
45954,-0.990,2.000,-0.966,-134.069,13.595,-61.565,34.0,120.0
46038,-0.639,-2.000,1.151,24.305,-217.076,-86.214,34.0,0.0
46120,0.095,2.000,-1.829,13.580,197.450,-35.473,123.0,114.0
46199,-1.218,-1.318,1.165,78.237,-241.290,10.733,33.0,117.0
46288,1.620,2.000,-0.721,145.099,216.015,-37.359,126.0,0.0
46367,-1.389,-1.052,0.973,-69.252,-244.534,7.282,35.0,112.0
46456,1.656,2.000,-0.943,224.954,185.397,14.137,128.0,0.0
46540,-1.376,-0.508,0.356,-101.481,-205.740,20.733,40.0,0.0
46632,0.684,2.000,-1.053,53.802,206.000,-42.321,130.0,0.0
46716,-0.637,-0.546,0.292,64.481,-250.137,71.527,41.0,0.0
46806,0.678,2.000,-1.476,20.878,180.168,-96.664,129.0,0.0
46889,-1.753,-0.403,-0.128,-21.427,-250.137,97.298,34.0,0.0
46979,1.730,2.000,-0.723,99.435,157.313,46.740,130.0,0.0
47062,-1.272,-0.332,0.565,-137.260,-159.260,-1.412,37.0,0.0
47152,1.562,2.000,-0.983,160.427,104.160,28.267,130.0,0.0
47230,-1.467,-0.588,0.596,-206.763,-168.710,-22.458,33.0,113.0
47323,1.615,2.000,-1.370,248.137,-11.817,18.573,129.0,0.0
47407,-1.259,-1.468,0.659,-250.137,-77.382,-228.130,37.0,0.0
47496,1.525,2.000,-1.815,250.130,-103.427,108.916,130.0,0.0
47580,-1.264,-1.027,0.119,-250.137,-6.489,-243.565,40.0,0.0
47670,-0.404,0.902,-1.695,250.130,-155.916,127.916,139.0,0.0
47754,-0.534,0.175,-0.545,-250.137,99.466,-226.832,58.0,177.0
47846,-0.608,-0.279,-0.314,250.130,-141.405,46.084,0.0,189.0
47938,-0.286,1.159,-0.860,-250.137,221.176,-163.557,0.0,177.0
48030,-0.721,-1.102,0.032,250.130,-142.389,75.969,0.0,188.0
48125,-0.763,1.252,-1.456,-250.137,210.260,-158.542,0.0,177.0
48219,-0.823,-1.326,0.519,250.130,-72.328,41.031,0.0,181.0
48311,-0.626,2.000,-0.650,-101.305,140.344,-64.450,0.0,195.0
48404,-1.157,-1.379,0.762,68.061,-85.977,-20.313,0.0,183.0
48497,-0.365,1.960,-1.061,129.328,33.649,30.237,0.0,0.0
48589,-1.098,-0.296,-0.296,-213.214,-2.374,-137.977,0.0,185.0
48683,-1.056,-0.117,-0.800,250.130,-127.947,59.328,0.0,0.0
48776,-0.604,1.053,-0.868,-250.137,113.221,-172.756,0.0,0.0
48873,-1.929,-1.775,0.577,88.534,-46.718,-166.221,0.0,0.0
48966,-1.251,-0.621,-2.000,250.130,-118.992,170.031,0.0,0.0
49059,0.509,-0.381,-1.458,-250.137,59.634,-250.137,0.0,0.0
49153,-1.095,-1.451,-2.000,250.130,-215.634,250.130,0.0,0.0
49236,-1.176,-2.000,-2.000,-250.137,245.695,-250.137,37.0,0.0
49331,-0.665,-1.736,-2.000,250.130,-21.985,248.336,0.0,0.0
49424,-0.883,1.073,-2.000,-250.137,222.847,-122.588,0.0,0.0
49517,-0.761,-2.000,0.249,250.130,-88.260,250.130,0.0,0.0
49609,-1.411,0.963,-0.996,-250.137,153.412,-42.405,165.0,0.0
49705,-0.883,-2.000,0.911,172.527,7.305,-16.069,199.0,0.0
49794,-0.139,0.556,-0.484,250.130,-203.901,141.557,113.0,0.0
49882,-0.011,0.015,0.219,-250.137,21.290,-91.313,101.0,0.0
49970,-1.548,-0.571,-0.026,250.130,17.107,99.702,93.0,0.0
50056,0.299,1.752,-0.217,-250.137,125.763,-94.580,83.0,0.0
50142,-2.000,-2.000,0.854,33.916,-91.794,18.802,63.0,0.0
50227,-0.032,2.000,-1.176,-177.031,187.939,135.305,62.0,0.0
50318,-2.000,-2.000,-0.826,-250.137,-60.115,-147.084,159.0,0.0
50407,-0.871,-0.955,-1.881,250.130,-152.802,187.450,50.0,0.0
50497,-0.444,1.536,-1.159,-250.137,162.145,-130.672,149.0,0.0
50582,-1.310,-2.000,0.920,250.130,-202.809,13.137,45.0,0.0
50669,-0.708,2.000,-0.851,-97.366,110.198,14.450,92.0,0.0
50757,-1.146,-2.000,0.917,181.947,-161.427,-74.809,98.0,0.0
50844,-1.124,2.000,-1.114,-111.977,101.359,28.061,86.0,0.0
50932,-1.095,-2.000,0.988,187.000,-170.557,-68.046,102.0,0.0
51020,-1.308,2.000,-0.890,-206.504,85.351,35.985,95.0,0.0
51108,-1.325,-2.000,0.975,250.130,-188.122,-14.977,110.0,0.0
51200,-0.911,2.000,-0.581,-250.137,105.756,53.863,103.0,0.0
51288,-1.169,-2.000,1.079,250.130,-179.649,26.511,108.0,0.0
51377,-0.999,2.000,-0.229,-250.137,79.183,116.061,119.0,0.0
51469,-0.924,-1.201,1.104,192.183,-173.137,34.466,172.0,0.0
51554,-0.344,1.722,-0.595,223.046,-72.137,186.420,137.0,102.0
51636,-0.223,0.819,0.036,164.511,-60.504,153.366,132.0,73.0
51719,0.236,1.123,-0.428,240.351,-19.504,152.985,128.0,77.0
51802,0.136,0.815,-0.263,-236.565,29.397,39.908,124.0,81.0
51887,0.004,0.595,-0.229,13.389,-55.092,40.489,121.0,83.0
51970,0.140,1.152,-0.396,-23.756,-63.611,37.130,121.0,83.0
52052,0.470,0.589,-0.112,0.244,-37.710,-1.817,120.0,84.0
52134,0.357,1.030,-0.198,-26.382,-39.031,-29.351,120.0,85.0
52217,0.245,0.948,-0.270,33.939,-13.069,15.122,121.0,84.0
52299,0.282,0.986,-0.101,-42.885,-7.099,-11.229,121.0,83.0
52382,0.165,0.952,-0.112,47.351,-13.237,9.282,121.0,85.0
52465,0.172,0.831,-0.136,55.870,-12.321,5.191,121.0,84.0
52547,0.210,1.086,-0.260,-3.405,-6.588,-2.809,122.0,83.0
52633,0.162,1.000,-0.169,-31.725,-7.305,9.595,121.0,86.0
52716,0.165,0.965,-0.242,24.809,-10.504,9.107,122.0,85.0
52800,0.222,0.974,-0.239,4.282,-1.794,-0.664,123.0,114.0
52885,0.134,0.886,-0.394,50.527,-4.069,9.252,124.0,113.0
52968,0.105,1.129,-0.358,-63.511,14.458,-8.878,124.0,82.0
53052,0.082,0.720,-0.170,68.595,6.725,8.267,124.0,112.0
53135,0.156,1.061,-0.479,-23.779,-1.206,6.504,124.0,83.0
53219,0.128,0.814,-0.386,16.473,4.878,10.618,124.0,112.0
53307,0.105,0.988,-0.361,20.023,-10.908,14.969,125.0,112.0
53392,0.185,0.624,-0.349,32.756,-12.321,10.305,125.0,111.0
53477,0.436,-0.414,-0.796,6.298,-10.466,55.206,125.0,112.0
53561,0.512,0.320,-0.772,-178.359,-12.809,-18.183,125.0,111.0
53645,0.876,0.892,-0.358,-83.595,2.947,12.687,108.0,97.0
53728,0.123,0.759,-0.139,-53.771,-18.397,-18.718,124.0,81.0
53811,0.241,1.689,0.306,-77.924,-34.046,-26.084,124.0,80.0
53894,0.104,1.013,-0.030,23.748,-6.305,25.756,123.0,82.0
53974,0.112,0.887,0.021,-8.947,-16.527,18.450,38.0,113.0
54060,0.187,0.836,-0.002,69.618,-13.321,23.023,122.0,83.0
54142,0.172,0.984,-0.239,92.771,-10.992,26.496,123.0,83.0
54225,0.133,0.876,-0.206,95.527,2.198,6.489,125.0,80.0
54310,0.179,0.992,-0.345,28.435,-6.802,-5.344,125.0,111.0
54395,0.161,0.842,-0.380,17.466,5.038,0.763,125.0,110.0
54479,0.167,0.937,-0.413,26.740,2.740,1.618,127.0,111.0
54564,0.097,0.958,-0.398,41.244,-1.458,4.145,127.0,110.0
54649,0.099,0.701,-0.430,27.405,-4.115,15.092,127.0,110.0
54734,0.138,0.805,-0.466,2.328,6.290,-15.626,127.0,110.0
54822,0.097,0.988,-0.693,-18.985,9.824,-12.458,128.0,110.0
54907,0.107,0.758,-0.449,24.374,-4.626,-0.733,129.0,110.0
54992,0.126,0.959,-0.625,-71.664,-0.649,-13.954,129.0,109.0
55077,-0.008,1.067,-0.462,-68.137,9.580,-15.855,129.0,108.0
55166,-0.033,0.941,-0.192,-75.206,-4.374,-21.634,128.0,77.0
55248,-0.172,0.802,-0.125,-55.931,6.023,-51.359,128.0,77.0
55332,-0.400,1.033,-0.150,9.427,-16.924,-67.901,130.0,106.0
55416,-0.297,0.694,0.058,-250.137,-29.656,-168.069,132.0,105.0
55505,-0.681,0.586,0.210,-34.359,6.038,-207.886,171.0,104.0
55593,-0.891,0.537,0.191,-133.176,64.725,-190.634,0.0,108.0
55681,-1.172,-0.064,0.410,187.168,-38.786,-110.260,0.0,96.0
55768,-0.292,2.000,-0.677,-132.435,87.023,-88.947,0.0,89.0
55855,-1.363,-1.278,0.820,-143.099,-6.496,-39.458,0.0,88.0
55941,-0.051,0.532,-0.787,250.130,-7.748,131.550,0.0,82.0
56028,-1.062,-0.421,-0.370,-250.137,70.115,-102.053,0.0,82.0
56114,-0.746,-0.598,-0.251,250.130,-41.718,91.863,0.0,77.0
56200,-1.132,0.779,-1.150,-250.137,129.847,-73.702,0.0,77.0
56289,-1.160,-1.118,-0.517,250.130,-114.092,27.718,0.0,71.0
56375,-1.100,1.565,-0.973,-250.137,80.985,-85.550,0.0,68.0
56460,-1.068,-1.091,-0.076,250.130,-119.229,25.405,0.0,64.0
56545,-1.134,2.000,-1.045,-250.137,82.023,-66.038,0.0,62.0
56631,-0.892,-1.127,0.339,250.130,-79.886,23.542,0.0,61.0
56716,-1.066,2.000,-0.891,-250.137,65.122,-36.954,0.0,61.0
56801,-0.912,-1.080,0.608,250.130,-42.183,35.313,0.0,61.0
56887,-0.844,2.000,-0.961,-236.275,82.053,-7.893,0.0,63.0
56975,-1.047,-1.417,0.940,21.191,-27.710,-4.160,0.0,66.0
57061,-0.554,1.926,-0.879,227.351,2.397,77.015,0.0,72.0
57147,-1.250,-0.605,-0.163,-250.137,36.511,-51.489,0.0,75.0
57234,-0.928,0.118,-0.604,250.130,-78.122,103.954,0.0,80.0
57321,-0.828,0.533,-0.717,-250.137,78.939,-66.137,0.0,87.0
57408,-0.974,-0.565,0.424,236.863,-12.565,-8.198,0.0,90.0
57495,-0.721,1.241,-0.281,-27.038,6.595,-23.351,0.0,94.0
57582,-1.069,-0.303,0.390,-128.656,24.695,-64.466,0.0,96.0
57670,-0.875,0.275,0.094,250.130,-30.893,8.389,0.0,100.0
57761,-0.729,0.617,-0.045,-233.458,21.198,-62.840,0.0,103.0
57849,-0.910,-0.094,0.261,115.756,17.618,3.794,0.0,109.0
57937,-0.918,1.000,-0.343,50.901,-1.176,12.634,0.0,116.0
58027,-1.124,0.121,-0.146,-220.427,49.481,30.748,0.0,127.0
58117,-1.250,-0.297,0.100,10.359,9.206,69.427,0.0,142.0
58208,-0.923,0.346,-0.189,183.939,-34.947,22.901,0.0,149.0
58299,-1.360,0.490,-0.679,-250.137,146.847,-197.359,0.0,155.0
58390,-1.226,-1.260,0.513,250.130,-250.137,-151.824,0.0,163.0
58485,-0.333,1.608,-1.761,-250.137,236.985,-250.137,0.0,176.0
58578,-1.207,-1.946,-0.308,250.130,-185.176,61.985,0.0,190.0
58672,-0.577,0.075,-1.044,-250.137,247.649,-180.267,0.0,0.0
58765,-0.715,-1.240,-0.693,250.130,-100.718,159.176,0.0,0.0
58859,-2.000,-0.125,-2.000,-250.137,136.290,20.260,0.0,0.0
58949,-1.791,-0.916,-2.000,250.130,-131.137,250.130,0.0,139.0
59042,-2.000,-0.951,-2.000,-250.137,250.130,-49.634,196.0,0.0
59134,-0.654,-0.188,-2.000,250.130,-115.802,238.947,0.0,179.0
59228,-1.808,-2.000,0.078,-250.137,135.336,-163.534,182.0,0.0
59324,1.685,2.000,-1.995,250.130,-49.779,114.908,0.0,0.0
59416,-2.000,-2.000,2.000,-38.122,-71.824,-74.527,181.0,0.0
59510,-0.804,2.000,-2.000,-250.137,205.855,-65.886,0.0,0.0
59602,-1.062,-1.587,-0.584,250.130,-179.275,143.405,178.0,0.0
59694,-1.833,-0.451,-2.000,-250.137,224.931,-127.550,168.0,0.0
59788,0.747,2.000,-2.000,250.130,-29.405,230.886,0.0,0.0
59879,-1.679,-2.000,1.820,-12.702,-82.435,7.809,155.0,0.0
59972,-0.434,2.000,-1.713,-250.137,108.290,-42.145,0.0,0.0
60066,-1.319,-1.191,-0.365,250.130,-202.771,81.763,153.0,0.0
60157,-0.740,-0.013,-1.034,-250.137,59.153,-128.092,152.0,0.0
60250,-1.040,0.157,-0.997,250.130,-169.817,91.206,183.0,0.0
60341,-1.258,-1.616,-0.124,-250.137,50.802,-149.023,151.0,0.0
60434,1.563,2.000,-1.875,250.130,13.847,126.748,178.0,0.0
60524,-2.000,-2.000,2.000,-222.489,-84.870,-79.939,150.0,0.0
60616,0.073,2.000,-2.000,-219.695,149.443,-59.954,175.0,0.0
60710,-0.894,-1.841,0.403,250.130,-128.275,64.069,0.0,0.0
60808,-1.208,0.140,-0.779,-250.137,48.664,-88.092,0.0,0.0
60899,0.021,1.639,-0.847,250.130,77.130,84.137,170.0,0.0
60990,-1.656,-2.000,1.109,-26.412,-134.328,-80.176,150.0,0.0
61084,-1.400,2.000,-0.953,-234.756,20.267,-35.809,0.0,0.0
61177,-0.158,0.310,-0.199,250.130,-99.893,45.305,0.0,0.0
61264,-1.162,-1.819,0.850,-250.137,-113.969,-159.084,71.0,0.0
61350,-0.146,2.000,-1.414,78.252,37.069,0.817,58.0,0.0
61435,-1.298,-2.000,1.530,250.130,-150.000,-53.183,61.0,0.0
61521,-0.620,2.000,-1.009,-210.550,92.275,-52.908,67.0,0.0
61612,-1.110,-1.873,1.060,250.130,-140.809,-29.817,69.0,0.0
61704,-0.712,2.000,-0.977,-186.969,113.168,-19.244,174.0,0.0
61791,-0.912,-1.738,1.033,250.130,-128.878,-16.008,80.0,0.0
61885,-1.048,2.000,-0.934,-250.137,100.794,-51.771,0.0,0.0
61973,-0.891,-1.429,0.518,250.130,-140.786,-5.824,96.0,0.0
62066,-1.082,2.000,-1.060,-250.137,81.405,-82.389,0.0,0.0
62156,-1.037,-0.873,0.220,250.130,-96.473,13.313,124.0,0.0
62247,-0.806,1.987,-0.745,-250.137,47.023,-62.511,0.0,152.0
62337,-0.988,-1.123,0.528,250.130,-121.397,-0.794,0.0,119.0
62429,-0.443,2.000,-0.867,-22.916,5.588,-3.641,0.0,113.0
62518,-1.581,-2.000,1.215,75.252,-108.183,-47.718,0.0,110.0
62608,0.478,2.000,-1.586,250.130,-14.580,54.420,0.0,139.0
62697,-1.525,-2.000,1.175,-207.603,-51.176,-128.679,0.0,105.0
62789,-0.027,2.000,-1.488,250.130,-12.252,49.008,0.0,164.0
62877,-1.777,-1.492,0.396,-250.137,3.305,-117.496,0.0,103.0
62969,-0.645,0.801,-1.286,250.130,-100.099,106.122,0.0,165.0
63057,-0.883,-0.258,-0.330,-250.137,48.519,-157.053,0.0,102.0
63154,-0.698,0.296,-0.541,250.130,-62.977,54.947,0.0,164.0
63245,-1.103,-0.142,-0.391,-250.137,29.092,-113.145,0.0,165.0
63338,-0.382,0.441,-0.733,250.130,-61.977,97.389,0.0,176.0
63430,-1.219,-0.579,-0.189,-250.137,22.565,-95.679,0.0,166.0
63521,-0.231,1.435,-1.171,250.130,13.321,111.618,0.0,161.0
63614,-1.652,-1.415,0.174,-250.137,9.672,-63.481,0.0,176.0
63708,-0.098,2.000,-1.076,215.588,44.962,83.053,0.0,191.0
63802,-1.391,-1.974,0.887,-61.511,-50.595,5.412,0.0,191.0
63899,-0.075,2.000,-1.031,-35.344,81.450,-29.763,0.0,200.0
63992,-1.375,-2.000,1.297,84.023,-84.237,-24.954,0.0,200.0
64087,-0.642,2.000,-1.424,-250.137,87.901,-62.321,0.0,0.0
64181,-1.088,-1.367,0.722,250.130,-103.229,25.756,0.0,0.0
64275,-0.766,2.000,-0.946,-250.137,76.359,-71.779,0.0,0.0
64369,-0.898,-1.347,0.882,250.130,-92.198,23.763,0.0,0.0
64463,-0.674,2.000,-0.690,-237.939,49.237,-28.053,0.0,0.0
64558,-0.866,-1.210,0.965,175.748,-62.664,24.588,0.0,0.0
64652,0.077,2.000,-0.808,-128.351,68.031,-34.290,0.0,0.0
64749,-1.647,-1.345,0.778,-11.908,-0.878,7.756,0.0,0.0
64843,-0.477,2.000,-1.322,-107.756,102.244,26.939,0.0,0.0
64937,-1.396,-1.925,0.901,-46.511,-42.466,46.626,0.0,0.0
65032,0.177,2.000,-0.968,-2.412,63.038,28.267,0.0,0.0
65122,-1.521,-1.342,0.385,-250.137,-28.863,-71.267,0.0,128.0
65216,-0.443,1.933,-1.076,250.130,16.504,56.954,0.0,0.0
65306,-1.241,-1.726,0.509,-250.137,22.771,-82.947,0.0,139.0
65400,-0.438,1.231,-0.778,250.130,11.000,110.573,0.0,0.0
65492,-1.323,-1.277,-0.187,-250.137,59.924,-65.084,0.0,154.0
65590,-0.266,1.143,-0.914,250.130,-23.733,150.954,0.0,0.0
65683,-0.886,-0.687,-0.093,-250.137,110.863,-48.885,0.0,172.0
65777,-0.679,0.459,-0.652,250.130,-2.725,93.878,0.0,0.0
65870,-1.508,-0.529,-0.827,-250.137,126.733,-73.656,0.0,192.0
65966,-0.896,0.189,-0.621,250.130,-32.893,98.351,0.0,0.0
66060,-0.923,-0.181,-0.516,-250.137,82.443,-101.565,0.0,0.0
66154,-1.002,-0.208,-0.532,250.130,-106.252,43.267,0.0,0.0
66248,-0.917,0.703,-0.839,-250.137,69.420,-108.962,0.0,0.0
66345,-1.020,-0.476,-0.394,250.130,-130.550,47.779,0.0,0.0
66440,-0.784,1.323,-0.914,-250.137,134.748,-129.145,0.0,0.0
66535,-0.948,-0.719,0.440,250.130,-71.008,51.649,0.0,0.0
66629,-0.603,1.768,-0.386,-108.466,32.748,-15.122,0.0,0.0
66729,-1.120,-0.914,0.772,-64.893,-52.458,-33.206,0.0,0.0
66823,-0.481,0.769,-0.523,250.130,-10.893,71.748,0.0,0.0
66915,-1.047,0.285,-0.722,-250.137,94.496,-100.756,0.0,0.0
67008,-0.846,-0.123,-0.378,250.130,-30.748,103.221,0.0,0.0
67102,-1.103,0.358,-0.484,-250.137,91.802,-77.649,0.0,0.0
67197,-0.919,-0.112,-0.026,250.130,-33.252,75.420,0.0,0.0
67291,-0.816,0.486,-0.305,-250.137,103.786,-73.832,0.0,0.0
67384,-1.052,-0.323,0.090,250.130,-118.962,14.397,0.0,0.0
67477,-0.584,1.334,-0.710,-153.061,66.321,-94.878,0.0,0.0
67570,-1.079,-0.910,0.360,144.611,-47.710,-57.389,0.0,0.0
67663,-1.783,0.403,-1.340,-79.328,56.328,-170.618,198.0,0.0
67757,-2.000,-2.000,0.983,250.130,-231.763,-250.137,0.0,0.0
67847,0.624,2.000,-1.543,-250.137,-185.740,-206.947,148.0,0.0
67931,-0.307,-1.695,0.204,250.130,-176.878,-13.427,114.0,105.0
68023,0.151,1.490,-0.567,-250.137,-32.992,-51.969,134.0,0.0
68112,-1.126,-2.000,-0.748,250.130,-250.137,221.740,124.0,0.0
68201,-0.176,0.236,-1.902,-250.137,250.130,-117.260,117.0,0.0
68287,-1.041,-1.738,0.594,250.130,-232.473,114.061,70.0,0.0
68376,2.000,2.000,0.703,145.824,-39.527,241.046,123.0,0.0
68459,0.031,-2.000,1.729,-250.137,-20.580,-22.328,36.0,0.0
68544,1.667,-1.724,0.632,250.130,-159.771,174.397,38.0,0.0
68630,1.534,-0.343,0.825,-250.137,154.534,-66.878,69.0,0.0
68716,-0.350,-0.815,1.255,63.405,-18.298,-32.351,36.0,0.0
68800,0.622,-0.193,-0.371,250.130,-172.427,136.122,36.0,0.0
68884,0.589,0.239,0.564,-250.137,230.809,-46.328,26.0,0.0
68968,-0.134,-1.482,1.728,105.389,-220.473,-23.870,32.0,0.0
69054,1.529,0.164,0.388,149.763,10.908,-14.130,69.0,0.0
69138,0.347,-0.605,0.946,-246.405,-120.878,-92.389,36.0,0.0
69224,1.956,0.469,0.490,250.130,189.832,-11.313,73.0,0.0
69308,-0.265,-0.069,0.497,-250.137,-180.740,-99.985,37.0,0.0
69395,2.000,-0.212,0.607,250.130,30.412,67.038,36.0,0.0
69479,-1.070,1.367,-0.418,-141.702,122.580,57.542,37.0,0.0
69563,0.660,-0.869,1.330,65.252,-56.832,86.252,32.0,0.0
69649,-0.940,1.491,-0.267,-30.359,106.626,65.511,71.0,0.0
69738,0.995,-2.000,0.640,-141.366,-52.336,70.817,131.0,0.0
69824,-0.429,0.738,0.862,-111.466,64.511,-52.740,61.0,0.0
69909,1.174,-2.000,0.451,94.397,-168.153,48.290,60.0,0.0
69995,0.645,-0.008,0.246,-11.557,236.641,-6.023,58.0,0.0
70078,0.716,-2.000,1.657,-42.580,4.824,-140.481,17.0,0.0
70167,0.985,1.040,-0.384,73.168,90.275,183.794,75.0,0.0
70251,0.054,-1.604,0.960,-106.893,52.115,-171.313,25.0,0.0
70344,0.575,-0.399,0.813,-5.916,20.794,58.405,37.0,0.0
70427,-0.435,1.156,0.605,2.824,5.069,118.053,36.0,0.0
70517,0.333,-0.872,0.937,-26.557,32.458,-132.405,136.0,0.0
70600,0.753,-1.189,1.256,-29.809,30.786,30.802,30.0,0.0
70687,-0.063,0.670,0.774,-54.817,-9.473,64.198,85.0,0.0
70771,-0.003,-0.765,0.825,83.099,46.038,-69.656,36.0,0.0
70854,-0.128,0.053,1.034,50.000,-81.427,-9.725,30.0,0.0
70941,0.734,0.724,0.682,16.595,119.565,-34.702,43.0,0.0
71025,-0.695,-0.123,1.267,-216.992,-157.489,35.611,37.0,0.0
71109,1.550,-0.098,0.335,155.595,23.137,133.962,37.0,0.0
71195,-1.055,-0.218,1.374,-184.023,15.832,17.687,72.0,0.0
71280,1.259,-1.332,0.648,250.130,-50.817,89.000,61.0,0.0
71365,-0.033,1.398,-0.002,-250.137,94.763,-74.069,62.0,0.0
71459,0.219,-1.997,1.803,147.603,-115.275,-18.084,0.0,0.0
71544,0.766,1.455,0.872,7.412,194.176,-73.679,60.0,0.0
71630,0.540,-2.000,1.384,-44.183,-205.000,-79.626,70.0,0.0
71718,0.667,0.969,0.052,207.183,163.076,9.168,59.0,0.0
71801,0.925,-1.373,1.678,-250.137,-162.420,-57.084,26.0,0.0
71886,1.129,0.163,0.438,237.008,72.947,221.557,60.0,0.0
71972,-1.108,-0.046,0.366,-250.137,137.611,-139.733,62.0,0.0
72058,-0.024,-1.293,0.644,250.130,-64.275,94.534,67.0,0.0
72143,-0.981,0.884,0.110,-250.137,167.412,-168.130,68.0,0.0
72227,-0.081,-2.000,0.707,250.130,-195.580,-62.580,27.0,0.0
72313,0.414,2.000,-0.107,-88.260,129.763,-94.282,74.0,0.0
72400,-0.137,-2.000,2.000,117.466,-250.137,-24.099,28.0,0.0
72485,1.842,1.529,-0.921,-61.214,233.053,-168.580,70.0,0.0
72569,-1.033,-2.000,2.000,-80.061,-85.985,-8.893,30.0,0.0
72655,1.627,0.447,0.015,245.092,9.504,126.695,74.0,0.0
72739,-1.786,-0.386,0.964,-250.137,89.947,-47.725,28.0,0.0
72825,1.218,-1.189,-0.458,250.130,-250.137,102.046,72.0,0.0
72909,0.221,0.157,0.338,-250.137,244.366,-196.794,31.0,0.0
72993,0.095,-1.816,1.685,250.130,-229.924,44.206,30.0,0.0
73079,0.902,1.346,0.156,5.313,113.176,19.550,73.0,0.0
73165,-0.973,-1.540,1.344,-250.137,-9.962,7.931,27.0,0.0
73250,1.368,-0.694,-0.296,250.130,-25.397,139.779,60.0,0.0
73334,-0.409,-0.089,0.183,-250.137,87.580,-139.069,27.0,0.0
73420,0.495,-1.497,0.631,250.130,-138.153,60.809,62.0,0.0
73504,0.250,0.939,0.216,-201.664,152.618,-122.191,29.0,0.0
73590,-0.091,-1.652,1.552,-22.076,-118.504,-2.878,71.0,0.0
73676,1.200,0.566,0.348,212.290,70.481,47.336,69.0,0.0
73762,-0.499,-0.530,1.226,-250.137,52.237,-38.611,73.0,0.0
73848,0.444,-0.758,0.354,250.130,-100.221,88.573,68.0,0.0
73937,0.145,0.635,0.473,-250.137,165.405,-100.214,68.0,0.0
74020,-0.326,-1.292,1.695,119.153,-167.275,0.458,28.0,0.0
74106,1.301,0.657,0.423,95.740,50.008,33.939,67.0,0.0
74190,-0.682,-0.462,0.993,-250.137,80.336,-81.366,26.0,0.0
74276,0.420,-0.829,0.435,250.130,-164.809,59.191,66.0,0.0
74362,-0.123,0.956,0.071,-248.985,165.198,-117.344,68.0,0.0
74445,-0.155,-1.476,1.851,68.298,-132.733,-30.969,29.0,0.0
74532,0.888,-0.009,0.018,250.130,-9.779,92.038,80.0,0.0
74622,0.061,0.653,0.622,-250.137,102.611,-134.389,82.0,0.0
74708,0.218,-0.804,1.212,203.092,-136.458,69.260,75.0,0.0
74795,0.901,1.163,-0.010,-250.137,70.458,-27.847,66.0,0.0
74889,-0.561,-2.000,1.825,-142.855,7.504,32.550,0.0,0.0
74974,0.759,-0.259,0.201,250.130,-73.412,62.756,63.0,0.0
75068,0.285,-0.061,0.028,-250.137,170.519,-151.763,0.0,0.0
75151,-0.027,-1.912,1.329,250.130,-91.229,-11.634,23.0,0.0
75237,0.759,0.146,0.158,250.130,-54.008,108.802,64.0,0.0
75324,0.582,0.166,0.048,-250.137,98.939,-104.061,75.0,0.0
75420,0.161,-1.619,1.181,250.130,-2.168,55.244,0.0,0.0
75506,0.615,1.279,0.191,-119.374,-29.672,9.321,66.0,0.0
75590,-0.141,-1.244,1.400,7.298,-50.847,55.534,30.0,0.0
75675,1.302,-0.220,0.405,221.740,-28.229,110.992,61.0,0.0
75762,0.135,-0.203,0.778,-250.137,154.580,-75.344,66.0,0.0
75855,-0.116,-1.169,1.416,174.977,-181.916,54.443,0.0,0.0
75941,1.191,0.717,0.242,10.893,160.344,-10.573,59.0,0.0
76026,-0.889,-1.315,1.361,-250.137,-43.702,-47.702,61.0,0.0
76112,1.238,-0.859,-0.017,250.130,-50.084,121.206,59.0,0.0
76201,-0.565,0.524,0.497,-250.137,119.405,-136.588,60.0,0.0
76288,0.552,-1.629,1.373,157.214,-100.038,-36.733,59.0,0.0
76374,0.674,0.519,0.409,63.290,45.656,29.718,62.0,0.0
76460,0.382,-0.323,1.040,-86.580,71.931,-115.748,61.0,0.0
76542,0.369,-0.751,0.833,-92.817,-33.855,131.740,29.0,0.0
76628,0.055,-0.044,0.734,59.802,-6.908,-143.229,60.0,0.0
76712,0.508,-0.667,0.938,-112.389,14.962,51.405,27.0,0.0
76796,-0.465,0.075,0.738,105.443,-30.908,-4.679,30.0,0.0
76882,1.108,-0.907,1.037,44.534,25.901,9.649,61.0,0.0
76969,-0.479,0.392,1.239,-158.160,40.786,-20.412,28.0,0.0
77056,0.530,-1.466,0.823,171.450,-152.626,13.321,63.0,0.0
77143,0.390,0.673,0.368,-45.313,221.351,-113.328,77.0,0.0
77227,0.124,-1.754,1.935,-142.458,-152.603,7.351,27.0,0.0
77314,0.847,0.634,-0.152,250.130,-18.122,43.687,75.0,0.0
77400,0.016,-1.059,0.708,-250.137,92.176,32.763,62.0,0.0
77486,-0.008,-0.300,0.984,221.626,-52.435,-67.481,64.0,0.0
77572,0.509,0.215,0.198,-18.458,-33.366,48.779,66.0,0.0
77661,-0.397,-0.056,0.717,-201.626,180.069,-69.855,65.0,0.0
77755,-0.128,-1.066,1.023,142.031,-209.305,22.641,0.0,0.0
77841,0.930,0.651,0.360,-12.229,139.260,-16.137,62.0,0.0
77934,-0.484,-1.764,1.495,-250.137,-49.794,-41.321,0.0,0.0
78020,1.071,0.418,-0.221,250.130,24.023,66.496,63.0,0.0
78106,-0.387,-0.436,0.386,-250.137,78.145,-62.542,63.0,0.0
78193,0.444,-1.134,0.191,250.130,-145.397,88.519,75.0,0.0
78279,0.297,0.813,0.319,-250.137,133.191,-105.779,62.0,0.0
78373,0.027,-1.752,1.656,182.145,-85.115,0.718,0.0,0.0
78462,0.697,0.963,0.387,26.565,63.237,-5.664,64.0,0.0
78547,-0.498,-1.611,1.770,-250.137,-70.099,-56.137,37.0,0.0
78633,1.479,0.397,-0.696,250.130,-13.931,141.015,62.0,0.0
78728,-0.212,-1.748,0.071,-250.137,166.229,-201.153,0.0,0.0
78814,0.846,-0.034,-0.586,250.130,-141.130,156.672,65.0,0.0
78899,-0.209,-1.302,0.191,-250.137,149.969,-182.336,38.0,0.0
78986,0.759,-0.644,-0.203,250.130,-119.466,149.107,77.0,0.0
79080,-0.520,-1.515,-0.172,-250.137,148.977,-153.336,0.0,0.0
79167,1.498,1.511,-1.407,250.130,-73.656,206.832,77.0,0.0
79254,-1.273,-2.000,2.000,-92.626,27.496,-20.282,19.0,0.0
79341,1.935,2.000,-0.903,-219.901,88.282,-56.107,78.0,0.0
79426,-0.679,-2.000,1.003,250.130,-150.954,46.763,30.0,0.0
79510,0.454,-0.400,-0.125,-250.137,182.901,-131.672,32.0,0.0
79595,0.322,-0.259,0.375,250.130,-182.183,93.763,37.0,0.0
79679,-0.489,-1.830,1.317,-250.137,137.076,-42.275,29.0,0.0
79767,1.164,0.613,0.038,246.115,-104.664,105.679,86.0,0.0
79851,-0.758,-2.000,2.000,-48.550,35.191,18.183,18.0,0.0
79948,0.916,1.520,0.321,-32.206,-26.832,-25.489,0.0,0.0
80032,0.301,-1.356,1.332,52.389,-0.069,-27.481,36.0,0.0
80117,0.194,0.511,0.419,-250.137,165.603,-23.565,34.0,0.0
80202,-0.414,-0.994,1.243,228.916,-209.031,23.107,29.0,0.0
80296,0.964,1.070,-0.578,-250.137,179.908,-71.206,0.0,0.0
80380,-0.317,-1.045,1.137,250.130,-211.740,86.382,25.0,0.0
80467,0.792,0.575,-0.450,-250.137,197.038,-119.916,79.0,0.0
80552,-0.519,-0.909,1.150,250.130,-220.992,64.672,32.0,0.0
80636,0.629,0.276,-0.484,-250.137,237.542,-165.977,30.0,0.0
80724,-0.195,-0.496,0.632,250.130,-250.137,75.389,26.0,0.0
80809,-0.017,-0.653,0.170,-250.137,230.557,-137.321,30.0,0.0
80893,-0.009,-0.297,0.346,250.130,-250.137,55.931,29.0,0.0
80978,0.069,-0.704,0.598,-250.137,181.397,-104.664,32.0,0.0
81063,0.460,-0.372,0.857,250.130,-250.137,69.695,44.0,0.0
81148,0.244,0.239,-0.136,-250.137,250.130,-101.786,37.0,0.0
81233,-0.276,-1.558,1.581,250.130,-250.137,26.191,44.0,0.0
81327,0.920,1.678,-0.844,-250.137,250.130,-165.702,67.0,0.0
81422,-0.311,-2.000,0.491,-250.137,95.908,-93.107,0.0,0.0
81506,0.542,-0.543,-0.564,250.130,-180.061,138.229,37.0,0.0
81590,1.181,0.451,-0.694,-250.137,94.107,-134.046,32.0,0.0
81673,0.255,-2.000,1.478,250.130,18.038,95.702,28.0,0.0
81757,1.183,1.486,0.000,-29.046,-17.237,23.183,38.0,0.0
81840,-0.186,-1.718,1.338,-143.756,-29.511,-61.130,30.0,0.0
81930,1.036,-0.585,0.459,250.130,-102.527,96.282,145.0,0.0
82017,0.727,0.497,0.138,-250.137,99.771,-113.939,78.0,0.0
82101,0.123,-2.000,1.609,250.130,-45.076,28.450,36.0,0.0
82190,1.238,2.000,-0.455,-219.115,13.969,0.145,90.0,0.0
82274,0.158,-2.000,1.894,141.763,39.443,28.557,33.0,0.0
82358,1.047,1.387,0.009,156.076,17.672,51.053,36.0,0.0
82441,-0.096,-1.298,1.283,-153.931,84.550,-72.450,32.0,0.0
82525,0.844,0.162,0.227,250.130,-63.824,75.748,38.0,0.0
82609,0.464,-0.385,0.306,-250.137,85.916,-139.886,33.0,0.0
82693,0.559,-0.612,0.412,250.130,-103.748,104.053,36.0,0.0
82777,1.051,1.321,-0.171,-250.137,67.893,-103.786,39.0,0.0
82862,-0.137,-2.000,2.000,26.374,21.893,-5.580,58.0,0.0
82949,0.981,2.000,-0.246,82.916,-22.641,82.656,38.0,0.0
83033,0.029,-2.000,1.420,-250.137,35.534,-60.588,33.0,0.0
83117,0.618,-0.118,0.327,250.130,-122.878,90.298,35.0,0.0
83201,0.714,0.349,-0.065,-250.137,107.244,-98.344,33.0,0.0
83283,0.252,-1.393,0.818,250.130,-88.214,92.099,33.0,0.0
83368,0.978,2.000,-0.678,-250.137,80.771,-72.412,38.0,0.0
83451,-0.434,-2.000,2.000,73.519,4.832,-26.366,33.0,0.0
83538,1.322,2.000,-1.076,250.130,-78.947,131.748,86.0,0.0
83622,-0.022,-2.000,1.696,-250.137,70.618,-109.397,35.0,0.0
83715,1.004,1.494,-0.214,250.130,-47.145,93.855,126.0,0.0
83799,-0.020,-1.733,1.527,-111.550,37.611,-47.718,36.0,0.0
83883,0.833,0.682,0.630,139.046,-49.962,-5.595,37.0,0.0
83966,0.101,-0.643,1.208,-241.053,-16.626,-128.618,42.0,0.0
84057,0.602,0.433,0.526,250.130,-125.824,24.756,136.0,0.0
84146,1.093,0.341,-0.739,-250.137,41.595,-186.565,135.0,0.0
84236,0.384,-1.029,0.775,250.130,-43.229,34.595,138.0,0.0
84318,1.244,1.631,-0.207,-250.137,-33.939,-65.489,141.0,57.0
84404,0.600,-1.086,1.105,112.595,-44.756,9.893,140.0,73.0
84486,1.315,1.691,-0.289,-109.550,-5.878,-5.183,140.0,57.0
84563,0.535,-0.968,0.767,-193.519,-11.420,-13.931,51.0,73.0
84654,0.595,-0.750,0.540,250.130,-84.443,71.924,138.0,0.0
84744,1.628,1.442,-0.560,103.779,0.847,35.137,139.0,0.0
84822,0.719,-1.150,0.688,-250.137,110.473,-60.481,54.0,74.0
84903,0.741,-0.866,0.010,250.130,-83.137,8.718,141.0,54.0
84994,2.000,2.000,-1.018,3.252,71.000,-60.832,148.0,0.0
85084,0.431,-1.611,1.108,-250.137,180.832,-56.214,143.0,0.0
85177,0.604,0.099,0.490,250.130,-0.130,39.580,150.0,0.0
85260,0.669,1.446,0.202,-144.565,59.679,-84.061,0.0,17.0
85345,0.083,0.191,1.068,-70.252,92.122,-95.374,35.0,0.0
85428,-0.130,0.525,0.558,250.130,-49.115,-41.863,0.0,16.0
85512,0.601,1.917,-0.283,-45.435,-3.435,-96.557,167.0,74.0
85596,-0.577,-0.348,0.833,-74.435,-66.725,-126.794,169.0,69.0
85681,0.525,1.292,-0.773,250.130,-134.550,-5.573,174.0,60.0
85765,0.072,1.358,-0.678,-250.137,77.733,-224.580,180.0,58.0
85854,-0.723,0.203,0.749,-65.763,76.412,-129.084,0.0,62.0
85939,-0.734,0.516,0.302,231.977,-120.489,-121.046,0.0,59.0
86033,0.129,2.000,-0.830,0.641,46.550,-213.366,0.0,0.0
86120,-2.000,-1.513,1.334,5.534,-43.695,-174.656,0.0,91.0
86204,0.064,2.000,-1.582,158.878,29.328,-56.412,0.0,34.0
86292,-1.837,-1.748,0.829,-250.137,74.038,-99.489,0.0,107.0
86376,0.678,2.000,-1.740,250.130,27.313,57.939,0.0,30.0
86460,-2.000,-2.000,-0.467,-250.137,91.115,-119.527,0.0,33.0
86550,-0.667,-0.205,-1.533,250.130,-155.901,146.695,0.0,128.0
86642,-0.785,-1.041,-0.603,-250.137,88.198,-134.550,0.0,126.0
86733,-0.064,-0.454,-1.097,250.130,-104.931,135.328,0.0,139.0
86822,-1.230,-0.995,-0.745,-250.137,50.359,-126.275,0.0,131.0
86917,-0.044,0.240,-0.824,250.130,-21.786,147.962,0.0,0.0
87007,-1.283,-1.379,-0.034,-250.137,27.000,-82.580,0.0,135.0
87098,0.078,0.874,-0.636,250.130,-26.634,129.817,0.0,152.0
87183,-1.324,-0.944,0.189,-250.137,48.771,-78.130,0.0,57.0
87275,-0.835,0.339,-0.676,250.130,-42.496,75.397,0.0,164.0
87366,-1.464,-0.908,-0.388,-250.137,70.344,-39.580,0.0,93.0
87454,-0.616,-0.005,-0.626,250.130,-83.756,127.924,0.0,107.0
87546,-1.266,0.081,-0.951,-250.137,60.588,-99.099,0.0,174.0
87639,-1.056,-0.284,-0.964,250.130,-151.214,128.290,0.0,156.0
87730,-1.027,0.056,-0.648,-250.137,31.901,-91.099,0.0,164.0
87822,-1.019,-0.164,-0.584,250.130,-155.542,77.557,0.0,162.0
87914,-0.967,0.254,-0.136,-250.137,-9.489,-101.840,0.0,165.0
88006,-0.490,0.625,-0.252,250.130,-58.168,29.084,0.0,164.0
88094,-1.049,-0.667,0.448,-211.504,-22.481,-97.115,0.0,113.0
88186,-0.476,0.936,-0.307,250.130,-85.496,4.786,0.0,111.0
88275,-0.568,1.321,-0.195,-166.664,26.359,-75.886,0.0,113.0
88370,-1.068,0.247,0.359,-43.244,50.626,-45.099,0.0,0.0
88463,-0.791,-0.177,0.068,250.130,-89.496,64.939,0.0,0.0
88557,-1.104,1.554,-1.465,-250.137,194.824,-47.573,0.0,193.0
88651,-1.084,-1.412,0.734,250.130,-98.962,111.252,0.0,0.0
88737,-1.087,1.857,-1.602,-250.137,175.893,-24.969,0.0,61.0
88823,-1.101,-1.133,0.316,250.130,-134.954,86.229,0.0,68.0
88921,-1.108,1.555,-1.297,-250.137,130.588,-63.740,0.0,0.0
89015,-1.204,-0.414,-0.045,250.130,-154.176,77.084,0.0,0.0
89101,-0.663,1.253,-1.168,-250.137,223.656,-94.557,0.0,61.0
89187,-0.774,-0.659,0.495,250.130,-60.336,73.061,0.0,62.0
89273,-0.582,1.629,-1.208,-250.137,207.130,-85.168,0.0,57.0
89359,-0.766,-0.492,0.658,-28.931,47.000,53.710,0.0,57.0
89445,-0.310,0.490,-0.264,250.130,33.733,70.015,0.0,57.0
89531,-1.091,0.084,-1.963,-250.137,250.130,-2.718,0.0,64.0
89616,-0.512,-0.782,0.386,250.130,-18.588,137.321,0.0,40.0
89704,-0.838,1.840,-1.027,-168.626,5.328,70.328,0.0,40.0
89793,-0.972,0.183,0.094,-62.985,35.496,136.656,0.0,107.0
89879,-0.671,1.389,-0.199,36.282,91.840,176.260,0.0,71.0
89964,-0.674,0.904,0.053,-199.137,56.405,157.985,171.0,67.0
90041,-0.070,0.669,0.228,-109.504,-24.733,106.282,27.0,70.0
90129,-0.335,2.000,0.214,-83.389,144.008,78.634,189.0,112.0
90212,-0.323,0.296,1.720,-250.137,-118.588,21.366,32.0,164.0
90305,0.881,-1.209,0.716,250.130,-239.084,39.489,184.0,0.0
90393,-0.012,0.464,-1.720,-250.137,250.130,-99.328,39.0,0.0
90487,0.032,-1.932,1.022,250.130,-121.321,1.244,0.0,0.0
90582,0.163,2.000,-0.986,-250.137,230.008,-117.038,0.0,0.0
90668,-0.847,-1.244,1.155,250.130,-213.794,6.443,61.0,0.0
90753,0.550,2.000,-0.999,-250.137,212.565,-117.672,45.0,0.0
90840,-1.216,-2.000,2.000,250.130,-92.427,-37.229,63.0,0.0
90921,1.233,2.000,-1.051,-80.901,118.550,-38.267,58.0,129.0
91016,-1.379,-2.000,2.000,-231.504,19.061,-55.870,0.0,0.0
91098,1.543,2.000,-0.770,54.977,76.855,24.298,53.0,129.0
91187,-1.244,-2.000,2.000,-196.618,-24.550,-76.206,57.0,0.0
91280,0.865,2.000,-0.332,-42.107,102.107,17.634,0.0,174.0
91370,-0.842,-2.000,1.984,250.130,-133.374,-40.687,0.0,144.0
91460,0.140,2.000,-0.851,-75.618,95.443,35.664,0.0,127.0
91550,-0.780,-2.000,2.000,152.695,-125.435,-2.084,0.0,130.0
91641,-0.073,2.000,-0.842,-250.137,172.595,-94.527,0.0,130.0
91731,-0.672,-2.000,1.611,250.130,-194.267,16.908,0.0,138.0
91823,-0.139,1.800,-0.978,-250.137,196.359,-90.794,0.0,143.0
91917,-0.500,-0.391,0.044,250.130,-131.450,51.748,0.0,128.0
92011,-0.690,0.712,-0.273,-250.137,220.947,-59.290,0.0,0.0
92103,-0.177,-0.632,-0.026,250.130,-171.366,108.084,0.0,170.0
92188,-0.519,-0.060,0.510,-250.137,99.901,-118.183,47.0,175.0
92280,0.312,-0.201,0.120,250.130,-50.664,131.771,0.0,171.0
92364,-0.737,0.426,0.149,-250.137,96.206,-53.885,46.0,176.0
92455,0.086,-0.527,0.845,250.130,-140.977,128.359,51.0,179.0
92539,-0.214,2.000,-0.361,-250.137,132.603,-7.840,42.0,0.0
92623,-0.399,-2.000,1.906,250.130,-139.595,5.580,39.0,0.0
92720,0.819,2.000,-0.363,-55.397,31.084,14.489,49.0,0.0
92815,-0.519,-1.990,2.000,-198.496,51.588,11.000,0.0,0.0
92909,1.136,1.789,-0.305,250.130,-110.588,135.237,185.0,0.0
92996,-0.692,-1.860,0.748,-250.137,150.313,-123.542,37.0,0.0
93082,1.191,0.604,-0.637,250.130,-35.443,155.198,37.0,0.0
93168,-0.739,-0.888,0.444,-250.137,71.710,-141.267,37.0,0.0
93255,0.594,0.235,0.053,250.130,-19.298,103.282,50.0,0.0
93342,-0.095,-0.720,0.317,-250.137,67.794,-150.344,40.0,0.0
93431,-0.018,0.575,0.118,250.130,-44.748,65.863,41.0,0.0
93517,0.102,-0.077,0.408,-250.137,82.061,-110.458,41.0,0.0
93604,0.013,-0.272,0.963,224.313,-22.588,-14.840,44.0,0.0
93700,0.067,-0.090,0.953,-146.855,3.603,-83.145,0.0,0.0
93796,-0.180,0.195,0.956,72.206,-5.832,-2.450,0.0,0.0
93882,-0.071,0.205,0.950,0.656,6.221,28.344,43.0,0.0
93969,-0.136,0.253,0.907,4.725,6.611,37.534,43.0,0.0
94055,-0.165,0.036,0.982,-0.282,15.855,36.313,44.0,0.0
94143,-0.190,0.068,1.000,-1.496,15.214,22.542,58.0,0.0
94232,-0.191,0.099,1.032,9.298,13.794,11.847,37.0,0.0
94319,-0.254,0.170,1.042,8.763,12.710,2.870,57.0,0.0
94405,-0.199,0.185,0.990,-3.321,8.130,1.870,36.0,0.0
94492,-0.185,0.191,0.943,0.206,4.985,1.122,37.0,0.0
94578,-0.173,0.170,0.951,-5.008,6.954,2.412,36.0,0.0
94664,-0.188,0.153,0.958,-6.802,12.832,4.847,37.0,0.0
94750,-0.170,0.094,0.945,9.107,12.878,0.779,34.0,0.0
94845,-0.233,0.073,1.001,22.252,19.137,-9.359,0.0,0.0
94932,-0.278,0.042,1.060,60.832,-0.168,-30.473,40.0,0.0
95028,-0.229,0.690,0.779,77.046,-18.038,-46.321,0.0,0.0
95123,-0.286,0.415,0.954,-18.924,18.573,-17.458,0.0,132.0
95218,-0.313,0.237,1.033,-9.435,6.832,-5.534,0.0,0.0
95313,-0.281,0.375,0.868,-5.084,3.191,-22.427,0.0,0.0
95406,-0.257,0.386,0.852,9.282,4.420,-27.099,0.0,129.0
95497,-0.468,0.420,0.842,10.863,12.336,-13.298,0.0,128.0
95589,-0.282,0.577,0.802,66.878,-5.420,9.229,0.0,127.0
95680,-0.354,0.348,0.838,-7.366,14.550,-10.015,0.0,127.0
95772,-0.428,0.633,0.762,-16.206,-1.008,1.015,0.0,127.0
95863,-0.368,0.448,0.828,0.977,0.855,-2.298,0.0,127.0
95958,-0.321,0.579,0.734,-55.092,2.466,-16.779,0.0,127.0
96050,-0.351,0.320,0.902,46.771,-9.679,-23.053,0.0,126.0
96140,-0.514,0.513,0.775,-0.084,-4.252,-36.260,0.0,107.0
96230,-0.448,0.344,0.838,4.832,7.046,-39.527,0.0,105.0
96320,-0.365,0.313,0.748,-35.458,9.504,-62.229,0.0,102.0
96411,-0.691,0.473,0.685,69.191,-1.695,-47.702,0.0,100.0
96500,-0.567,0.133,0.852,6.115,-7.145,-22.099,0.0,97.0
96590,-0.483,0.208,0.767,37.878,-13.924,-23.794,0.0,95.0
96680,-0.574,0.141,0.805,95.336,-9.817,-29.099,0.0,94.0
96774,-0.657,0.518,0.584,-14.817,0.626,-11.000,0.0,92.0
96863,-0.582,0.671,0.630,-75.802,-5.160,49.336,0.0,92.0
96953,-0.576,0.467,0.732,-155.939,-25.855,52.687,0.0,93.0
97041,-0.369,0.179,0.952,-108.237,-36.992,51.679,167.0,95.0
97122,-0.369,-0.124,1.051,-54.855,-23.779,45.557,40.0,100.0
97205,-0.329,0.014,0.892,-81.763,-19.466,34.588,40.0,127.0
97289,-0.162,-0.072,0.865,-50.275,5.153,16.840,37.0,142.0
97372,-0.426,-0.301,0.974,-53.779,18.000,2.550,37.0,145.0
97459,-0.388,-0.127,0.913,-21.641,10.214,6.473,35.0,145.0
