Timestamp(ms),AccelX(g),AccelY(g),AccelZ(g),GyroX(deg/s),GyroY(deg/s),GyroZ(deg/s),DistanceLeft(cm),DistanceRight(cm)
29707,-0.311,-0.370,0.855,-0.550,-0.130,0.099,30.0,72.0
29750,-0.319,-0.378,0.857,-0.183,0.290,-0.130,30.0,71.0
29793,-0.317,-0.366,0.854,-0.519,0.092,-0.244,30.0,71.0
29836,-0.323,-0.373,0.855,-0.282,-0.450,-0.137,30.0,71.0
29879,-0.312,-0.378,0.853,0.115,0.542,-0.153,30.0,71.0
29922,-0.324,-0.373,0.854,0.580,0.977,-0.122,30.0,71.0
29965,-0.318,-0.371,0.865,0.023,-0.191,-0.588,30.0,71.0
30010,-0.309,-0.368,0.846,-0.176,0.603,-0.458,30.0,72.0
30053,-0.322,-0.375,0.860,0.122,0.405,-0.206,30.0,71.0
30096,-0.321,-0.367,0.857,-0.122,-0.313,-0.565,30.0,71.0
30139,-0.312,-0.370,0.855,0.412,0.847,-0.405,30.0,71.0
30182,-0.318,-0.365,0.862,0.313,0.832,-0.298,30.0,71.0
30225,-0.320,-0.371,0.854,-0.084,0.076,-0.366,30.0,71.0
30268,-0.316,-0.366,0.862,0.031,0.672,-0.344,30.0,71.0
30310,-0.319,-0.369,0.858,0.176,0.695,-0.389,30.0,72.0
30353,-0.325,-0.371,0.862,0.061,0.504,0.053,30.0,71.0
30396,-0.322,-0.366,0.848,0.191,0.244,-0.267,30.0,71.0
30437,-0.330,-0.368,0.860,-0.031,1.031,-0.237,30.0,71.0
30480,-0.321,-0.367,0.858,0.115,0.244,-0.176,30.0,71.0
30523,-0.323,-0.373,0.858,0.183,0.427,-0.145,30.0,71.0
30566,-0.327,-0.371,0.862,0.443,0.626,-0.015,30.0,71.0
30608,-0.326,-0.360,0.863,-0.176,-0.542,-0.191,30.0,71.0
30651,-0.315,-0.369,0.842,-0.519,-0.504,-0.565,29.0,71.0
30694,-0.321,-0.367,0.850,0.053,0.634,-0.252,29.0,71.0
30737,-0.329,-0.364,0.855,-0.427,0.061,-0.305,29.0,71.0
30780,-0.320,-0.365,0.849,-0.076,-0.290,-0.305,29.0,71.0
30826,-0.323,-0.367,0.860,0.069,0.435,-0.618,29.0,71.0
30869,-0.324,-0.361,0.861,-0.053,0.214,-0.489,29.0,71.0
30912,-0.326,-0.369,0.856,-0.160,-0.282,-0.550,29.0,71.0
30955,-0.318,-0.360,0.854,-0.076,0.221,-0.282,29.0,71.0
30998,-0.317,-0.364,0.848,-0.496,0.366,-0.336,29.0,71.0
31041,-0.329,-0.370,0.862,-0.290,-0.565,-0.397,29.0,71.0
31084,-0.315,-0.368,0.862,-0.267,0.267,-0.191,29.0,71.0
31127,-0.327,-0.366,0.862,-0.160,0.511,-0.344,29.0,71.0
31173,-0.328,-0.367,0.855,-0.550,-0.687,-0.557,29.0,71.0
31216,-0.319,-0.371,0.863,-0.260,-0.153,-0.473,29.0,71.0
31259,-0.315,-0.366,0.861,-0.061,0.122,-0.359,29.0,71.0
31302,-0.326,-0.368,0.853,-0.099,0.290,-0.427,29.0,71.0
31345,-0.327,-0.362,0.862,-0.221,-0.038,-0.351,29.0,71.0
31388,-0.321,-0.366,0.854,-0.137,0.527,-0.435,29.0,71.0
31431,-0.320,-0.364,0.868,-0.351,0.214,-0.435,29.0,71.0
31475,-0.323,-0.369,0.859,-0.252,0.053,-0.328,29.0,71.0
31518,-0.317,-0.369,0.860,-0.023,0.603,-0.305,29.0,71.0
31564,-0.332,-0.370,0.861,0.061,0.206,-0.412,29.0,70.0
31607,-0.325,-0.363,0.858,-0.389,-0.130,-0.435,29.0,71.0
31650,-0.323,-0.364,0.860,-0.015,0.351,-0.397,29.0,71.0
31693,-0.329,-0.367,0.856,-0.298,0.053,-0.466,29.0,71.0
31736,-0.326,-0.370,0.863,-0.389,-0.038,-0.305,29.0,71.0
31779,-0.325,-0.368,0.857,-0.305,-0.008,-0.450,29.0,71.0
31822,-0.319,-0.364,0.849,0.176,0.687,-0.260,29.0,71.0
31908,-0.327,-0.366,0.871,-0.313,0.198,-0.344,29.0,71.0
31952,-0.321,-0.367,0.864,-0.359,0.038,-0.466,29.0,71.0
31998,-0.320,-0.365,0.859,-0.397,0.496,-0.504,29.0,71.0
32041,-0.325,-0.368,0.865,0.031,0.115,-0.321,29.0,71.0
32084,-0.328,-0.366,0.859,-0.237,0.328,-0.137,29.0,71.0
32128,-0.321,-0.360,0.863,-0.267,-0.313,-0.305,30.0,71.0
32172,-0.326,-0.370,0.856,-0.076,0.649,-0.496,30.0,71.0
32215,-0.323,-0.364,0.860,-0.290,-0.229,-0.137,30.0,71.0
32258,-0.320,-0.374,0.849,-0.481,0.237,-0.519,30.0,71.0
32302,-0.329,-0.366,0.861,0.031,0.748,-0.214,30.0,71.0
32345,-0.323,-0.361,0.858,-0.389,-0.489,-0.290,30.0,71.0
32391,-0.315,-0.367,0.856,-0.290,-0.076,-0.489,30.0,71.0
32435,-0.326,-0.368,0.864,-0.107,0.802,-0.031,30.0,71.0
32478,-0.329,-0.362,0.854,-0.740,-0.702,-0.382,30.0,71.0
32521,-0.320,-0.367,0.853,-0.435,0.198,-0.313,29.0,71.0
32565,-0.336,-0.369,0.866,-0.321,-0.221,-0.290,30.0,71.0
32608,-0.326,-0.364,0.854,-0.481,-0.321,-0.588,30.0,71.0
32652,-0.325,-0.366,0.863,-0.092,-0.046,-0.214,30.0,72.0
32695,-0.325,-0.360,0.857,-0.366,0.511,-0.557,29.0,71.0
32738,-0.330,-0.363,0.859,-0.870,-0.145,-0.557,29.0,71.0
32785,-0.315,-0.365,0.854,-0.985,-0.221,-0.542,29.0,71.0
32828,-0.322,-0.364,0.859,-0.496,0.122,-0.244,30.0,71.0
32872,-0.329,-0.364,0.858,-0.443,-0.153,-0.191,29.0,71.0
32915,-0.324,-0.365,0.859,-0.611,-0.588,-0.374,29.0,71.0
32958,-0.325,-0.365,0.857,-0.321,0.336,-0.229,30.0,71.0
33002,-0.325,-0.360,0.857,-0.412,-0.031,-0.595,29.0,72.0
33045,-0.330,-0.367,0.855,-0.244,-0.107,-0.275,29.0,71.0
33089,-0.316,-0.366,0.851,-0.412,0.198,-0.160,29.0,71.0
33132,-0.327,-0.367,0.860,-0.168,0.298,-0.397,29.0,71.0
33179,-0.324,-0.366,0.857,-0.611,-0.336,-0.519,29.0,71.0
33222,-0.321,-0.370,0.851,-0.344,0.107,-0.435,29.0,71.0
33266,-0.327,-0.365,0.855,-0.374,0.237,-0.298,29.0,71.0
33309,-0.318,-0.367,0.850,-0.710,-0.282,-0.580,29.0,71.0
33352,-0.323,-0.368,0.863,-0.206,0.282,-0.267,29.0,71.0
33396,-0.321,-0.365,0.857,-0.664,-0.198,-0.206,29.0,71.0
33439,-0.322,-0.370,0.854,-0.206,-0.183,-0.389,29.0,71.0
33483,-0.322,-0.367,0.855,0.069,0.901,-0.275,29.0,71.0
33526,-0.330,-0.368,0.861,-0.466,-0.084,-0.656,29.0,72.0
33573,-0.329,-0.371,0.860,-0.328,-0.214,-0.191,30.0,71.0
33617,-0.329,-0.368,0.854,0.305,0.420,-0.252,29.0,71.0
33660,-0.323,-0.365,0.849,0.252,0.679,-0.321,29.0,71.0
33704,-0.328,-0.363,0.858,-0.069,-0.336,-0.282,30.0,72.0
33747,-0.323,-0.368,0.857,-0.557,-0.099,-0.244,29.0,71.0
33792,-0.319,-0.368,0.854,0.015,0.450,-0.252,30.0,71.0
33835,-0.332,-0.362,0.853,0.198,0.244,-0.443,29.0,71.0
33879,-0.321,-0.365,0.849,0.031,0.534,-0.427,29.0,70.0
33922,-0.331,-0.366,0.859,0.336,0.901,-0.252,29.0,70.0
33969,-0.325,-0.364,0.861,-0.061,-0.046,-0.466,29.0,71.0
34013,-0.320,-0.368,0.859,0.099,0.450,-0.328,30.0,70.0
34056,-0.331,-0.362,0.845,-0.237,0.405,-0.351,29.0,71.0
34143,-0.325,-0.369,0.854,-0.084,0.405,-0.267,29.0,70.0
34187,-0.330,-0.368,0.855,0.137,0.511,-0.237,29.0,71.0
34230,-0.326,-0.364,0.845,0.359,0.351,0.046,29.0,70.0
34274,-0.331,-0.364,0.857,-0.053,0.756,-0.229,29.0,71.0
34317,-0.327,-0.362,0.856,-0.336,-0.069,-0.649,29.0,71.0
34361,-0.324,-0.368,0.872,-0.313,-0.366,-0.435,29.0,71.0
34408,-0.328,-0.370,0.846,0.115,0.626,-0.328,29.0,71.0
34451,-0.336,-0.357,0.860,0.183,0.359,-0.099,29.0,71.0
34495,-0.325,-0.362,0.869,-0.244,-0.511,-0.565,29.0,71.0
34539,-0.332,-0.364,0.863,-0.168,0.206,-0.519,29.0,71.0
34582,-0.330,-0.365,0.854,-0.595,0.053,-0.405,29.0,71.0
34626,-0.326,-0.366,0.850,-0.328,-0.412,-0.519,29.0,71.0
34670,-0.329,-0.360,0.861,0.160,0.130,-0.473,29.0,71.0
34713,-0.334,-0.360,0.865,-0.145,0.176,-0.420,29.0,71.0
34757,-0.336,-0.360,0.859,-0.137,-0.076,-0.397,29.0,71.0
34804,-0.321,-0.365,0.857,-0.496,-0.145,-0.542,29.0,71.0
34848,-0.332,-0.363,0.859,-0.252,0.504,-0.351,29.0,71.0
34891,-0.327,-0.360,0.851,-0.527,-0.214,-0.588,29.0,71.0
34935,-0.322,-0.370,0.849,-0.679,-0.260,-0.397,29.0,70.0
34979,-0.328,-0.363,0.857,-0.313,-0.191,0.015,29.0,71.0
35022,-0.320,-0.359,0.859,-0.176,0.260,-0.115,29.0,70.0
35066,-0.339,-0.365,0.862,0.137,0.588,-0.298,29.0,71.0
35110,-0.332,-0.364,0.855,-0.450,-0.053,-0.527,30.0,71.0
35154,-0.327,-0.366,0.852,-0.344,-0.221,-0.374,30.0,71.0
35202,-0.320,-0.369,0.853,-0.229,0.359,-0.313,29.0,71.0
35251,-0.328,-0.365,0.862,0.069,0.366,-0.229,30.0,70.0
35294,-0.324,-0.365,0.867,-0.183,-0.176,-0.458,30.0,70.0
35337,-0.323,-0.364,0.851,-0.328,-0.183,-0.519,30.0,71.0
35380,-0.331,-0.370,0.858,-0.145,0.405,-0.450,30.0,70.0
35423,-0.330,-0.363,0.858,-0.290,-0.107,-0.229,30.0,70.0
35465,-0.327,-0.365,0.861,0.061,0.595,-0.176,30.0,70.0
35508,-0.333,-0.359,0.852,-0.183,0.275,-0.405,30.0,70.0
35551,-0.329,-0.364,0.850,-0.267,-0.412,-0.282,30.0,70.0
35597,-0.326,-0.362,0.851,-0.092,0.344,-0.282,30.0,70.0
35639,-0.327,-0.356,0.851,0.115,0.626,-0.305,30.0,70.0
35682,-0.335,-0.369,0.861,-0.183,0.099,-0.389,30.0,70.0
35725,-0.329,-0.364,0.857,-0.260,0.412,-0.351,30.0,70.0
35768,-0.329,-0.359,0.858,-0.282,0.107,-0.214,30.0,70.0
35811,-0.322,-0.365,0.865,0.115,0.626,0.000,30.0,70.0
35854,-0.339,-0.355,0.873,-0.046,0.336,-0.191,30.0,70.0
35896,-0.328,-0.360,0.856,-0.405,0.466,-0.618,30.0,70.0
35939,-0.326,-0.362,0.864,-0.198,0.420,-0.275,30.0,70.0
35985,-0.332,-0.362,0.854,-0.076,0.046,0.000,30.0,71.0
36028,-0.335,-0.362,0.850,-0.344,0.008,-0.115,30.0,70.0
36071,-0.329,-0.364,0.860,-0.550,-0.069,-0.115,30.0,71.0
36114,-0.328,-0.362,0.863,-0.542,-0.023,-0.229,30.0,71.0
36157,-0.327,-0.362,0.849,-0.641,-0.023,-0.015,30.0,71.0
36200,-0.334,-0.359,0.859,-0.466,-0.092,-0.298,30.0,70.0
36243,-0.336,-0.364,0.860,-0.389,0.473,-0.328,30.0,71.0
36286,-0.332,-0.360,0.857,-0.183,0.298,-0.298,30.0,71.0
36372,-0.330,-0.361,0.858,-0.496,0.427,-0.237,30.0,71.0
36418,-0.338,-0.357,0.857,-0.580,-0.023,-0.336,30.0,71.0
36461,-0.330,-0.359,0.844,-0.634,-0.069,-0.351,30.0,71.0
36504,-0.339,-0.364,0.871,-0.649,-0.122,-0.366,30.0,71.0
36547,-0.331,-0.367,0.855,-0.710,-0.260,-0.443,30.0,71.0
36590,-0.328,-0.366,0.859,-0.260,0.534,-0.412,30.0,71.0
36633,-0.340,-0.361,0.854,-0.458,0.641,-0.550,30.0,71.0
36676,-0.328,-0.360,0.868,-0.809,-0.817,-0.511,30.0,71.0
36719,-0.324,-0.372,0.859,-0.733,0.000,-0.168,30.0,71.0
36762,-0.335,-0.360,0.848,-0.321,0.046,-0.244,30.0,71.0
36808,-0.334,-0.357,0.851,-0.679,-0.328,-0.466,30.0,71.0
36851,-0.328,-0.364,0.848,-0.725,-0.374,-0.405,30.0,71.0
36894,-0.334,-0.368,0.860,-0.763,0.191,-0.336,30.0,72.0
36938,-0.321,-0.367,0.854,-0.359,0.023,-0.260,30.0,71.0
36981,-0.330,-0.365,0.858,-0.244,0.168,-0.389,30.0,72.0
37024,-0.328,-0.361,0.851,-0.015,0.305,-0.496,30.0,72.0
37067,-0.333,-0.362,0.859,-0.336,-0.321,-0.664,30.0,71.0
37110,-0.325,-0.364,0.857,-0.023,0.275,-0.328,30.0,72.0
37153,-0.332,-0.363,0.850,-0.168,0.237,-0.374,30.0,71.0
37199,-0.331,-0.364,0.857,-0.221,0.183,-0.641,30.0,72.0
37243,-0.335,-0.364,0.854,0.298,0.557,-0.412,30.0,71.0
37286,-0.322,-0.365,0.859,0.198,0.855,-0.198,30.0,71.0
37329,-0.334,-0.361,0.857,0.084,1.000,-0.397,30.0,71.0
37372,-0.341,-0.364,0.869,-0.099,0.069,-0.298,30.0,71.0
37415,-0.324,-0.362,0.855,-0.412,-0.206,-0.344,30.0,71.0
37458,-0.337,-0.364,0.855,0.000,-0.206,-0.244,30.0,71.0
37502,-0.329,-0.368,0.849,-0.092,0.626,-0.305,30.0,71.0
37545,-0.333,-0.364,0.859,0.053,0.031,-0.344,30.0,71.0
37592,-0.327,-0.365,0.865,-0.099,0.443,-0.206,30.0,71.0
37635,-0.335,-0.362,0.848,0.130,0.664,-0.382,30.0,71.0
37678,-0.341,-0.362,0.863,0.252,0.794,-0.351,30.0,71.0
37722,-0.338,-0.363,0.847,0.260,0.626,-0.374,29.0,71.0
37765,-0.335,-0.355,0.862,-0.130,0.290,-0.466,29.0,71.0
37808,-0.339,-0.367,0.851,0.015,0.664,-0.221,29.0,71.0
37851,-0.329,-0.353,0.856,-0.191,-0.191,-0.321,29.0,71.0
37894,-0.332,-0.362,0.854,-0.328,0.336,-0.611,29.0,71.0
37938,-0.329,-0.357,0.856,-0.252,0.473,-0.565,29.0,71.0
37984,-0.330,-0.358,0.865,-0.267,-0.397,-0.527,29.0,71.0
38027,-0.331,-0.358,0.854,-0.092,0.420,-0.237,29.0,71.0
38071,-0.344,-0.352,0.855,-0.206,0.397,-0.298,29.0,71.0
38114,-0.339,-0.358,0.863,-0.473,-0.267,-0.382,29.0,71.0
38157,-0.326,-0.360,0.862,-0.611,-0.550,-0.641,29.0,71.0
38201,-0.331,-0.361,0.856,-0.107,0.137,-0.298,29.0,71.0
38244,-0.333,-0.360,0.862,-0.252,0.145,-0.336,29.0,72.0
38287,-0.329,-0.358,0.851,-0.160,-0.420,-0.534,29.0,71.0
38331,-0.336,-0.361,0.851,-0.420,-0.038,-0.412,29.0,71.0
38377,-0.335,-0.364,0.859,-0.466,-0.183,-0.389,29.0,71.0
38420,-0.328,-0.370,0.847,-0.107,-0.099,-0.374,29.0,71.0
38464,-0.342,-0.361,0.855,0.160,0.573,-0.450,29.0,71.0
38507,-0.332,-0.359,0.860,-0.092,-0.176,-0.664,29.0,71.0
38594,-0.330,-0.360,0.847,-0.244,0.534,-0.160,29.0,71.0
38637,-0.336,-0.358,0.858,0.000,0.695,-0.275,29.0,71.0
38680,-0.336,-0.359,0.860,-0.504,-0.504,-0.748,29.0,71.0
38724,-0.328,-0.360,0.853,-0.122,0.527,-0.351,29.0,71.0
38767,-0.338,-0.353,0.861,-0.176,0.176,-0.237,29.0,71.0
38814,-0.343,-0.357,0.854,-0.588,-0.191,-0.511,28.0,71.0
38857,-0.333,-0.360,0.855,-0.382,0.099,-0.344,28.0,71.0
38900,-0.334,-0.361,0.862,-0.122,-0.275,-0.489,29.0,71.0
38944,-0.331,-0.360,0.854,0.244,0.695,-0.046,29.0,71.0
38987,-0.340,-0.361,0.862,-0.038,0.260,-0.359,29.0,71.0
39031,-0.338,-0.355,0.855,-0.412,-0.244,-0.527,29.0,71.0
39074,-0.337,-0.353,0.857,-0.412,0.412,-0.130,29.0,71.0
39118,-0.338,-0.360,0.868,-0.237,0.061,-0.328,29.0,71.0
39161,-0.336,-0.360,0.854,-0.092,0.298,-0.237,29.0,71.0
39208,-0.333,-0.361,0.853,-0.137,0.527,-0.145,29.0,71.0
39251,-0.337,-0.369,0.855,-0.053,0.229,-0.244,29.0,71.0
39296,-0.333,-0.361,0.854,-0.115,0.260,-0.435,29.0,71.0
39339,-0.339,-0.364,0.856,-0.084,0.313,-0.168,29.0,71.0
39383,-0.333,-0.362,0.857,-0.542,-0.008,-0.504,29.0,70.0
39426,-0.326,-0.362,0.856,-0.420,0.382,-0.214,29.0,70.0
39470,-0.330,-0.356,0.864,-0.244,0.344,-0.160,29.0,70.0
39513,-0.336,-0.356,0.865,-0.450,0.397,-0.397,29.0,71.0
39557,-0.346,-0.361,0.857,-0.756,-0.069,-0.481,29.0,71.0
39604,-0.333,-0.359,0.852,-0.733,-0.374,-0.176,29.0,71.0
39647,-0.337,-0.366,0.850,-0.588,-0.008,0.038,29.0,71.0
39691,-0.337,-0.358,0.854,-0.534,0.122,-0.542,29.0,71.0
39734,-0.339,-0.365,0.859,-0.634,-0.366,-0.260,29.0,71.0
39778,-0.336,-0.358,0.867,-0.748,-0.298,-0.733,29.0,71.0
39822,-0.337,-0.363,0.856,-0.366,0.840,-0.542,29.0,71.0
39865,-0.340,-0.358,0.856,-0.359,0.153,-0.382,29.0,71.0
39909,-0.331,-0.356,0.854,-0.313,0.351,-0.435,29.0,72.0
39956,-0.335,-0.360,0.852,-0.092,0.427,-0.794,29.0,71.0
39999,-0.343,-0.357,0.851,-0.344,0.244,-0.908,29.0,71.0
40043,-0.328,-0.353,0.858,-0.618,-0.473,-0.382,29.0,71.0
40087,-0.331,-0.363,0.847,-0.626,0.153,-0.313,29.0,71.0
40130,-0.334,-0.360,0.857,-0.832,-0.153,-0.550,29.0,71.0
40174,-0.332,-0.362,0.851,-0.809,-0.511,-0.550,29.0,71.0
40218,-0.331,-0.360,0.843,-0.160,0.664,-0.206,29.0,71.0
40262,-0.341,-0.360,0.854,-0.305,0.305,-0.527,29.0,71.0
40305,-0.332,-0.363,0.863,-0.748,-0.702,-0.710,29.0,71.0
40352,-0.328,-0.364,0.857,-0.672,-0.275,-0.420,29.0,71.0
40396,-0.335,-0.362,0.861,-0.305,0.084,-0.153,29.0,71.0
40440,-0.333,-0.361,0.853,-0.481,-0.458,-0.427,29.0,71.0
40483,-0.340,-0.365,0.848,-0.405,0.122,-0.504,29.0,71.0
40527,-0.331,-0.368,0.855,-0.305,0.382,-0.382,29.0,71.0
40571,-0.337,-0.363,0.845,0.038,0.466,-0.359,29.0,71.0
40615,-0.345,-0.364,0.855,0.107,0.435,-0.420,29.0,72.0
40658,-0.340,-0.363,0.853,0.221,0.458,-0.260,29.0,71.0
40702,-0.335,-0.363,0.857,0.046,0.176,-0.298,29.0,71.0
40750,-0.337,-0.363,0.862,-0.046,0.176,-0.321,29.0,71.0
40837,-0.338,-0.360,0.846,-0.206,0.137,-0.427,29.0,72.0
40881,-0.327,-0.365,0.858,-0.031,0.183,-0.244,29.0,71.0
40930,-0.341,-0.353,0.864,-0.015,0.580,-0.137,29.0,71.0
40973,-0.336,-0.360,0.858,-0.458,-0.023,-0.718,29.0,71.0
41016,-0.338,-0.365,0.863,-0.191,0.260,-0.351,29.0,71.0
41059,-0.342,-0.363,0.847,-0.122,0.137,-0.260,29.0,71.0
41101,-0.340,-0.364,0.846,0.092,0.160,-0.382,29.0,70.0
41144,-0.341,-0.357,0.848,0.046,0.359,-0.183,29.0,70.0
41190,-0.340,-0.365,0.859,-0.389,-0.206,-0.321,29.0,70.0
41232,-0.330,-0.362,0.855,-0.107,0.550,-0.198,29.0,71.0
41275,-0.337,-0.360,0.865,-0.069,0.321,-0.198,29.0,71.0
41318,-0.335,-0.359,0.849,-0.023,0.267,-0.580,29.0,71.0
41361,-0.337,-0.355,0.852,0.237,0.740,-0.328,29.0,71.0
41404,-0.345,-0.357,0.859,-0.046,-0.008,-0.527,29.0,71.0
41446,-0.329,-0.361,0.846,-0.214,-0.084,-0.313,29.0,71.0
41489,-0.341,-0.359,0.865,0.092,0.466,-0.176,29.0,71.0
41532,-0.342,-0.359,0.854,-0.351,-0.168,-0.626,29.0,71.0
41578,-0.335,-0.362,0.856,-0.244,-0.282,-0.527,29.0,70.0
41621,-0.333,-0.358,0.851,-0.214,0.427,-0.244,29.0,71.0
41664,-0.344,-0.356,0.852,-0.069,0.221,-0.534,29.0,71.0
41707,-0.335,-0.356,0.863,-0.542,-0.718,-0.534,29.0,71.0
41749,-0.338,-0.365,0.853,-0.206,-0.221,-0.473,29.0,70.0
41792,-0.335,-0.358,0.855,0.023,0.519,-0.191,29.0,71.0
41835,-0.341,-0.360,0.870,-0.038,-0.061,-0.344,29.0,71.0
41878,-0.333,-0.353,0.860,-0.397,-0.260,-0.603,29.0,70.0
41921,-0.334,-0.361,0.856,0.053,0.382,-0.450,29.0,70.0
41967,-0.336,-0.361,0.853,-0.450,0.298,-0.374,29.0,71.0
42010,-0.338,-0.362,0.854,-0.099,-0.206,-0.511,29.0,71.0
42053,-0.342,-0.355,0.856,-0.298,0.473,-0.191,29.0,70.0
42096,-0.345,-0.354,0.866,0.061,-0.237,-0.214,29.0,70.0
42139,-0.330,-0.359,0.849,-0.344,-0.405,-0.450,29.0,70.0
42182,-0.334,-0.355,0.860,-0.382,0.053,-0.229,29.0,70.0
42224,-0.341,-0.365,0.852,-0.122,-0.084,-0.435,29.0,71.0
42268,-0.342,-0.362,0.849,-0.183,0.359,-0.298,29.0,70.0
42310,-0.333,-0.360,0.855,0.084,0.321,-0.176,29.0,70.0
42356,-0.342,-0.357,0.851,-0.061,0.695,-0.382,29.0,71.0
42399,-0.344,-0.357,0.865,-0.550,-0.023,-0.427,29.0,70.0
42442,-0.336,-0.357,0.863,-0.443,-0.336,-0.435,29.0,70.0
42485,-0.332,-0.362,0.854,-0.099,0.366,-0.450,29.0,70.0
42528,-0.334,-0.359,0.851,0.015,0.359,-0.267,29.0,70.0
42571,-0.338,-0.354,0.858,-0.191,-0.145,-0.481,29.0,70.0
42614,-0.337,-0.363,0.864,-0.221,0.221,-0.534,29.0,71.0
42657,-0.342,-0.359,0.857,-0.214,0.458,-0.237,29.0,71.0
42701,-0.337,-0.361,0.876,-0.244,0.176,-0.328,29.0,71.0
42747,-0.334,-0.356,0.852,0.046,0.763,-0.412,29.0,71.0
42790,-0.335,-0.356,0.851,-0.084,0.527,-0.344,29.0,71.0
42833,-0.341,-0.358,0.851,-0.145,-0.153,-0.275,29.0,71.0
42876,-0.340,-0.363,0.858,-0.137,0.221,-0.221,29.0,71.0
42919,-0.341,-0.357,0.849,-0.305,0.229,-0.237,29.0,71.0
42962,-0.339,-0.358,0.852,-0.351,0.107,-0.420,29.0,71.0
43048,-0.339,-0.354,0.857,-0.298,0.435,-0.053,29.0,71.0
43092,-0.341,-0.358,0.856,-0.282,0.695,-0.328,29.0,71.0
43136,-0.346,-0.357,0.859,-0.466,0.099,-0.405,29.0,71.0
43182,-0.341,-0.358,0.856,-0.893,-0.573,-0.344,29.0,71.0
43225,-0.336,-0.363,0.845,-0.435,-0.023,-0.153,29.0,71.0
43268,-0.344,-0.354,0.857,-0.443,0.107,-0.321,29.0,70.0
43311,-0.346,-0.355,0.861,-0.840,-0.718,-0.473,29.0,70.0
43355,-0.333,-0.355,0.858,-0.603,-0.168,-0.550,29.0,70.0
43398,-0.334,-0.362,0.856,-0.084,0.534,-0.214,29.0,70.0
43441,-0.341,-0.359,0.856,-0.489,-0.519,-0.511,29.0,70.0
43484,-0.336,-0.363,0.857,-0.145,0.252,-0.557,29.0,71.0
43527,-0.345,-0.357,0.857,-0.412,-0.458,-0.397,29.0,70.0
43574,-0.337,-0.364,0.854,-0.893,-0.702,-0.565,29.0,70.0
43617,-0.337,-0.363,0.854,-0.634,-0.107,-0.504,29.0,71.0
43660,-0.345,-0.357,0.854,-0.855,-0.198,-0.557,29.0,71.0
43703,-0.340,-0.363,0.851,-0.664,-0.313,-0.603,29.0,70.0
43747,-0.333,-0.362,0.855,-0.634,-0.374,-0.282,29.0,71.0
43790,-0.336,-0.365,0.857,-0.412,0.412,-0.366,29.0,71.0
43833,-0.341,-0.358,0.854,-0.672,0.099,-0.588,29.0,71.0
43877,-0.338,-0.361,0.863,-0.855,-0.664,-0.504,29.0,71.0
43920,-0.340,-0.365,0.844,-0.626,-0.053,-0.412,29.0,71.0
43966,-0.339,-0.365,0.861,-0.443,0.069,-0.237,29.0,71.0
44010,-0.335,-0.364,0.859,-0.504,-0.405,-0.336,29.0,71.0
44053,-0.333,-0.366,0.853,-0.183,0.534,-0.336,29.0,71.0
44096,-0.342,-0.362,0.856,-0.046,0.595,-0.305,29.0,71.0
44140,-0.336,-0.366,0.847,0.015,0.038,-0.481,29.0,71.0
44183,-0.336,-0.364,0.852,0.298,0.573,-0.351,29.0,70.0
44226,-0.336,-0.365,0.852,0.290,0.405,-0.344,29.0,71.0
44270,-0.339,-0.358,0.852,-0.206,-0.053,-0.351,29.0,71.0
44313,-0.336,-0.358,0.861,0.031,0.290,-0.412,29.0,70.0
44359,-0.341,-0.358,0.854,-0.107,0.305,-0.458,29.0,71.0
44403,-0.344,-0.357,0.846,-0.336,0.099,-0.435,29.0,71.0
44446,-0.338,-0.365,0.855,-0.282,-0.053,-0.252,29.0,71.0
44490,-0.342,-0.360,0.855,0.450,1.115,-0.092,29.0,71.0
44533,-0.344,-0.358,0.855,-0.244,0.076,-0.489,29.0,71.0
44576,-0.335,-0.363,0.856,-0.305,0.168,-0.382,29.0,71.0
44620,-0.332,-0.362,0.853,-0.344,0.069,-0.344,29.0,71.0
44663,-0.339,-0.359,0.858,-0.008,0.366,-0.214,29.0,71.0
44707,-0.338,-0.359,0.857,-0.115,0.130,-0.427,29.0,71.0
44753,-0.338,-0.362,0.854,-0.008,0.344,-0.160,29.0,71.0
44797,-0.338,-0.358,0.851,-0.015,0.603,-0.275,29.0,71.0
44840,-0.331,-0.355,0.855,-0.389,0.053,-0.351,29.0,71.0
44884,-0.344,-0.360,0.846,-0.008,0.183,-0.275,29.0,71.0
44928,-0.343,-0.358,0.856,-0.008,0.450,-0.244,29.0,71.0
44972,-0.340,-0.356,0.853,-0.145,0.000,-0.412,29.0,71.0
45015,-0.341,-0.363,0.853,-0.244,0.076,-0.473,30.0,71.0
45059,-0.344,-0.354,0.853,-0.237,-0.061,-0.374,30.0,71.0
45102,-0.339,-0.365,0.856,-0.321,-0.122,-0.435,29.0,71.0
45149,-0.347,-0.359,0.856,-0.023,0.206,-0.366,29.0,71.0
45193,-0.338,-0.354,0.864,-0.084,0.198,-0.389,30.0,71.0
45279,-0.338,-0.354,0.853,-0.496,-0.107,-0.542,30.0,71.0
45323,-0.340,-0.359,0.852,-0.382,-0.122,-0.321,30.0,71.0
45367,-0.344,-0.360,0.861,-0.244,0.282,-0.290,30.0,71.0
45410,-0.340,-0.356,0.852,-0.092,-0.221,-0.405,30.0,71.0
45454,-0.343,-0.356,0.859,-0.221,0.046,-0.397,30.0,71.0
45498,-0.342,-0.358,0.855,-0.374,-0.107,-0.565,29.0,71.0
45541,-0.334,-0.356,0.856,-0.252,0.061,-0.458,29.0,71.0
45588,-0.339,-0.362,0.857,0.084,0.298,-0.305,29.0,71.0
45632,-0.346,-0.350,0.854,-0.107,0.702,-0.389,29.0,71.0
45675,-0.341,-0.352,0.843,0.183,0.046,-0.435,30.0,71.0
45719,-0.340,-0.357,0.857,-0.420,-0.298,-0.550,29.0,71.0
45763,-0.338,-0.354,0.853,-0.252,-0.046,-0.344,29.0,71.0
45806,-0.345,-0.355,0.852,-0.359,0.053,-0.397,29.0,71.0
45850,-0.342,-0.356,0.854,-0.198,-0.038,-0.313,29.0,71.0
45894,-0.330,-0.356,0.869,-0.313,-0.008,-0.481,29.0,71.0
45937,-0.333,-0.351,0.850,-0.031,0.420,-0.107,29.0,71.0
45984,-0.344,-0.356,0.849,-0.550,0.000,-0.588,29.0,71.0
46028,-0.332,-0.358,0.848,-0.389,-0.351,-0.534,30.0,71.0
46072,-0.340,-0.361,0.847,-0.130,0.198,-0.344,30.0,71.0
46115,-0.339,-0.361,0.846,0.107,0.580,-0.244,30.0,71.0
46159,-0.347,-0.356,0.865,-0.153,0.038,-0.237,30.0,71.0
46203,-0.337,-0.354,0.863,-0.473,-0.153,-0.534,30.0,70.0
46247,-0.335,-0.359,0.864,-0.305,0.466,-0.046,30.0,70.0
46290,-0.338,-0.353,0.853,-0.351,0.015,-0.252,30.0,71.0
46334,-0.334,-0.355,0.858,0.107,0.740,-0.107,30.0,71.0
46382,-0.340,-0.355,0.861,-0.076,0.191,-0.351,30.0,71.0
46426,-0.335,-0.359,0.855,-0.252,0.290,-0.275,30.0,71.0
46470,-0.340,-0.351,0.854,-0.405,0.191,-0.344,30.0,71.0
46514,-0.340,-0.359,0.849,-0.221,0.687,-0.206,30.0,71.0
46563,-0.343,-0.355,0.844,-0.687,0.191,-0.336,30.0,71.0
46606,-0.338,-0.352,0.853,-0.382,0.122,-0.260,30.0,71.0
46649,-0.340,-0.357,0.851,-0.290,-0.191,-0.130,30.0,71.0
46691,-0.343,-0.356,0.847,-0.496,0.038,-0.252,30.0,71.0
46734,-0.343,-0.356,0.858,-0.634,0.023,-0.656,30.0,71.0
46780,-0.339,-0.354,0.867,-0.954,-0.710,-0.328,30.0,71.0
46823,-0.337,-0.356,0.854,-0.618,-0.252,-0.420,30.0,71.0
46865,-0.343,-0.363,0.850,-0.557,0.458,-0.252,30.0,71.0
46908,-0.344,-0.356,0.855,-0.397,-0.504,-0.305,30.0,71.0
46951,-0.339,-0.349,0.856,-0.679,-0.473,-0.573,30.0,71.0
46994,-0.339,-0.358,0.849,-0.382,0.290,-0.267,30.0,71.0
47037,-0.341,-0.361,0.860,-0.344,-0.183,-0.244,30.0,71.0
47080,-0.335,-0.358,0.855,-0.565,-0.107,-0.229,30.0,71.0
47125,-0.343,-0.353,0.864,-0.443,-0.183,-0.595,29.0,71.0
47168,-0.341,-0.357,0.848,-0.710,-0.412,-0.435,29.0,71.0
47211,-0.340,-0.357,0.865,-0.603,-0.260,-0.191,29.0,71.0
47254,-0.339,-0.365,0.848,-0.374,-0.076,-0.191,29.0,72.0
47297,-0.341,-0.362,0.859,-0.519,0.069,-0.305,29.0,72.0
47340,-0.338,-0.353,0.869,-0.649,-0.573,-0.275,29.0,72.0
47383,-0.337,-0.361,0.867,-0.298,0.504,-0.321,29.0,72.0
47426,-0.338,-0.354,0.853,-0.397,0.305,-0.466,29.0,72.0
47512,-0.335,-0.362,0.851,-0.595,-0.061,-0.130,29.0,71.0
47558,-0.337,-0.362,0.848,-0.084,0.214,-0.267,29.0,72.0
47601,-0.337,-0.365,0.858,-0.176,0.313,-0.290,29.0,72.0
47644,-0.341,-0.363,0.862,-0.160,0.046,-0.191,29.0,71.0
47687,-0.338,-0.360,0.848,-0.008,0.603,-0.389,29.0,72.0
47730,-0.341,-0.365,0.861,0.298,0.634,-0.244,30.0,71.0
47773,-0.345,-0.353,0.860,0.084,0.679,-0.489,30.0,71.0
47816,-0.340,-0.353,0.867,0.153,0.443,-0.427,30.0,71.0
47859,-0.345,-0.358,0.855,-0.023,0.229,-0.679,30.0,71.0
47902,-0.339,-0.362,0.855,-0.168,-0.153,-0.282,30.0,72.0
47948,-0.345,-0.361,0.851,0.015,-0.115,-0.336,29.0,71.0
47991,-0.336,-0.359,0.847,-0.359,0.084,-0.496,29.0,71.0
48034,-0.341,-0.354,0.854,-0.122,0.458,-0.489,30.0,71.0
48077,-0.341,-0.358,0.852,-0.076,0.038,-0.435,30.0,71.0
48120,-0.342,-0.357,0.861,0.000,0.611,-0.191,30.0,71.0
48163,-0.343,-0.357,0.860,-0.328,0.122,-0.641,30.0,71.0
48206,-0.335,-0.354,0.852,-0.405,-0.305,-0.344,30.0,71.0
48249,-0.339,-0.354,0.854,-0.115,-0.237,-0.313,30.0,71.0
48292,-0.337,-0.357,0.851,-0.031,0.321,-0.267,30.0,71.0
48338,-0.339,-0.356,0.859,-0.221,-0.420,-0.336,30.0,71.0
48381,-0.333,-0.359,0.851,-0.298,0.031,-0.534,30.0,71.0
48424,-0.335,-0.353,0.856,-0.198,0.473,-0.298,30.0,71.0
48467,-0.344,-0.356,0.848,-0.305,-0.099,-0.481,30.0,71.0
48512,-0.347,-0.353,0.854,-0.099,0.244,-0.198,30.0,71.0
48555,-0.342,-0.358,0.847,0.214,0.420,-0.481,30.0,71.0
48598,-0.340,-0.364,0.865,-0.282,-0.061,-0.489,30.0,71.0
48641,-0.344,-0.354,0.866,-0.244,0.084,-0.519,30.0,71.0
48684,-0.334,-0.362,0.843,-0.344,-0.237,-0.290,30.0,71.0
48730,-0.342,-0.357,0.845,-0.221,0.450,-0.397,30.0,71.0
48773,-0.340,-0.354,0.849,-0.382,-0.412,-0.359,30.0,71.0
48817,-0.339,-0.350,0.849,0.107,0.763,-0.305,30.0,71.0
48860,-0.355,-0.350,0.856,-0.130,0.420,-0.519,30.0,71.0
48903,-0.334,-0.353,0.852,-0.405,-0.443,-0.649,30.0,71.0
48946,-0.338,-0.362,0.849,-0.351,-0.298,-0.634,30.0,71.0
48989,-0.332,-0.357,0.855,0.038,0.382,-0.198,30.0,71.0
49033,-0.340,-0.357,0.857,-0.038,0.260,-0.389,30.0,71.0
49076,-0.344,-0.359,0.861,-0.084,-0.191,-0.382,30.0,71.0
49122,-0.344,-0.361,0.849,-0.405,0.168,-0.504,30.0,71.0
49165,-0.339,-0.352,0.857,-0.191,0.298,-0.229,30.0,71.0
49209,-0.341,-0.355,0.856,-0.023,0.458,-0.458,30.0,71.0
49252,-0.342,-0.359,0.852,-0.122,0.244,-0.473,30.0,71.0
49295,-0.337,-0.357,0.859,-0.237,-0.130,-0.427,30.0,71.0
49338,-0.338,-0.354,0.853,-0.107,0.260,-0.435,30.0,71.0
49382,-0.343,-0.352,0.851,-0.260,0.237,-0.443,30.0,71.0
49425,-0.339,-0.352,0.854,-0.405,-0.115,-0.435,30.0,71.0
49468,-0.342,-0.355,0.850,-0.359,0.061,-0.565,30.0,71.0
49515,-0.337,-0.355,0.845,0.038,0.542,-0.214,30.0,71.0
49558,-0.344,-0.354,0.860,-0.359,0.374,-0.328,30.0,71.0
49601,-0.347,-0.358,0.852,-0.550,-0.344,-0.527,30.0,71.0
49645,-0.339,-0.356,0.856,-0.198,0.328,-0.382,30.0,71.0
49731,-0.336,-0.361,0.849,-0.298,-0.099,-0.305,30.0,71.0
49775,-0.341,-0.352,0.858,-0.282,0.076,-0.359,30.0,71.0
49818,-0.340,-0.353,0.860,-0.504,-0.328,-0.603,30.0,71.0
49861,-0.342,-0.360,0.869,-0.595,-0.038,-0.321,30.0,71.0
49905,-0.344,-0.360,0.859,-0.527,0.084,-0.260,30.0,71.0
49951,-0.342,-0.355,0.850,-0.435,-0.031,-0.298,30.0,71.0
49995,-0.346,-0.354,0.854,-0.771,-0.550,-0.687,30.0,71.0
50038,-0.340,-0.358,0.852,-0.450,0.099,-0.420,30.0,71.0
50082,-0.344,-0.360,0.867,-0.542,-0.145,-0.427,30.0,71.0
50125,-0.345,-0.365,0.847,-0.435,-0.206,-0.206,29.0,71.0
50168,-0.336,-0.358,0.857,-0.618,-0.237,-0.328,29.0,72.0
50212,-0.333,-0.363,0.855,-0.473,-0.115,-0.298,29.0,72.0
50255,-0.339,-0.358,0.858,-0.267,0.702,-0.214,30.0,71.0
50299,-0.348,-0.353,0.856,-0.863,-0.504,-0.679,30.0,71.0
50347,-0.331,-0.354,0.851,-0.847,-0.397,-0.305,30.0,71.0
50390,-0.337,-0.357,0.855,-0.641,-0.046,-0.382,30.0,72.0
50434,-0.339,-0.362,0.856,-0.435,0.153,-0.221,30.0,72.0
50477,-0.341,-0.356,0.846,-0.779,-0.649,-0.244,30.0,72.0
50521,-0.338,-0.356,0.858,-0.756,-0.237,-0.282,29.0,71.0
50564,-0.335,-0.357,0.854,-0.412,0.237,-0.244,29.0,71.0
50608,-0.343,-0.357,0.850,-0.580,-0.168,-0.435,29.0,72.0
50651,-0.340,-0.363,0.853,-0.328,-0.115,-0.313,30.0,71.0
50695,-0.341,-0.358,0.857,-0.412,0.115,-0.473,29.0,71.0
50742,-0.340,-0.361,0.850,-0.695,-0.260,-0.534,29.0,71.0
50785,-0.344,-0.360,0.862,-0.542,-0.046,-0.389,29.0,71.0
50829,-0.342,-0.362,0.853,-0.580,-0.237,-0.504,29.0,71.0
50872,-0.335,-0.365,0.856,-0.206,0.053,-0.344,29.0,71.0
50916,-0.333,-0.362,0.846,-0.344,0.046,-0.405,29.0,71.0
50959,-0.337,-0.358,0.863,0.076,0.527,-0.366,29.0,71.0
51003,-0.344,-0.360,0.854,-0.557,0.160,-0.634,30.0,71.0
51047,-0.345,-0.360,0.858,-0.359,0.061,-0.344,29.0,71.0
51090,-0.333,-0.360,0.850,-0.031,0.443,-0.420,29.0,71.0
51137,-0.338,-0.359,0.852,0.061,0.260,-0.237,30.0,71.0
51181,-0.338,-0.359,0.849,-0.145,-0.336,-0.550,30.0,71.0
51224,-0.342,-0.361,0.850,-0.092,0.198,-0.496,30.0,71.0
51268,-0.342,-0.356,0.849,-0.137,0.191,-0.260,30.0,71.0
51312,-0.346,-0.356,0.852,-0.153,-0.237,-0.298,30.0,71.0
51355,-0.341,-0.364,0.854,-0.198,0.023,-0.466,29.0,71.0
51399,-0.349,-0.358,0.844,0.115,0.084,-0.450,29.0,71.0
51443,-0.338,-0.362,0.864,-0.336,-0.595,-0.481,29.0,71.0
51486,-0.341,-0.361,0.857,-0.069,0.046,-0.443,29.0,71.0
51533,-0.342,-0.358,0.854,-0.099,0.496,-0.443,29.0,71.0
51577,-0.341,-0.356,0.870,-0.160,-0.405,-0.489,30.0,71.0
51621,-0.334,-0.358,0.852,-0.282,0.198,-0.260,30.0,71.0
51664,-0.347,-0.360,0.863,0.183,0.565,-0.298,30.0,71.0
51708,-0.342,-0.356,0.843,-0.359,-0.107,-0.603,30.0,71.0
51752,-0.336,-0.361,0.856,-0.191,-0.122,-0.374,30.0,71.0
51796,-0.337,-0.363,0.851,0.031,0.389,-0.275,30.0,71.0
51841,-0.341,-0.353,0.853,0.023,0.427,-0.366,30.0,71.0
51884,-0.336,-0.354,0.855,-0.206,-0.359,-0.405,30.0,72.0
51974,-0.339,-0.362,0.865,-0.351,0.580,-0.191,30.0,72.0
52018,-0.338,-0.360,0.859,0.008,-0.137,-0.458,30.0,72.0
52062,-0.334,-0.362,0.863,-0.053,0.389,-0.450,30.0,72.0
52106,-0.344,-0.351,0.862,0.015,0.328,-0.489,30.0,72.0
52150,-0.345,-0.353,0.863,-0.336,-0.252,-0.618,30.0,71.0
52194,-0.331,-0.358,0.852,-0.176,0.229,-0.458,30.0,71.0
52244,-0.343,-0.351,0.853,-0.053,0.313,-0.397,30.0,71.0
52286,-0.344,-0.356,0.859,-0.420,-0.481,-0.405,30.0,71.0
52329,-0.342,-0.352,0.858,-0.061,0.511,-0.084,30.0,72.0
52375,-0.346,-0.362,0.866,-0.519,-0.290,-0.595,30.0,72.0
52418,-0.342,-0.360,0.853,-0.435,-0.198,-0.542,30.0,71.0
52461,-0.334,-0.361,0.852,-0.267,-0.084,-0.344,30.0,71.0
52503,-0.340,-0.359,0.852,-0.031,0.206,-0.221,30.0,71.0
52546,-0.342,-0.356,0.853,-0.244,-0.008,-0.176,30.0,71.0
52589,-0.343,-0.350,0.847,-0.481,-0.580,-0.519,30.0,71.0
52632,-0.339,-0.360,0.861,-0.145,0.565,-0.412,30.0,71.0
52675,-0.342,-0.353,0.853,-0.198,0.183,-0.244,30.0,71.0
52718,-0.331,-0.360,0.860,-0.214,0.076,-0.443,30.0,71.0
52764,-0.334,-0.352,0.848,-0.053,0.702,-0.359,30.0,72.0
52806,-0.340,-0.353,0.857,-0.321,-0.359,-0.511,30.0,71.0
52849,-0.333,-0.360,0.853,-0.290,-0.244,-0.443,30.0,71.0
52892,-0.337,-0.355,0.864,-0.084,0.557,-0.267,30.0,71.0
52935,-0.337,-0.355,0.852,-0.122,0.244,-0.527,30.0,72.0
52978,-0.335,-0.360,0.862,-0.191,-0.443,-0.366,30.0,71.0
53021,-0.348,-0.352,0.861,-0.229,0.992,-0.214,30.0,72.0
53064,-0.350,-0.353,0.856,-0.511,-0.244,-0.473,30.0,72.0
53110,-0.335,-0.361,0.856,-0.664,-0.137,-0.412,30.0,71.0
53153,-0.336,-0.360,0.855,0.122,0.244,-0.321,30.0,71.0
53196,-0.340,-0.351,0.857,-0.130,0.420,-0.122,30.0,72.0
53239,-0.337,-0.358,0.849,-0.023,0.206,-0.275,30.0,71.0
53282,-0.341,-0.356,0.858,-0.718,-0.153,-0.405,30.0,72.0
53325,-0.343,-0.357,0.861,-0.412,0.145,-0.244,30.0,71.0
53368,-0.342,-0.359,0.855,-0.389,0.412,-0.130,30.0,72.0
53411,-0.347,-0.358,0.851,-0.366,0.336,0.000,30.0,72.0
53454,-0.342,-0.350,0.853,-0.412,-0.092,-0.244,30.0,72.0
53500,-0.341,-0.358,0.857,-0.595,-0.366,-0.603,30.0,72.0
53543,-0.335,-0.355,0.858,-0.458,-0.099,-0.176,30.0,72.0
53586,-0.337,-0.359,0.853,-0.496,-0.229,-0.534,30.0,71.0
53630,-0.340,-0.358,0.842,-0.550,0.183,-0.504,30.0,72.0
53673,-0.344,-0.363,0.856,-0.160,0.046,-0.366,30.0,72.0
53716,-0.338,-0.355,0.848,-0.130,0.145,-0.305,30.0,72.0
53760,-0.343,-0.351,0.854,-0.893,-0.603,-0.641,30.0,72.0
53803,-0.327,-0.359,0.854,-0.595,-0.321,-0.382,30.0,71.0
53846,-0.341,-0.362,0.849,-0.496,-0.397,-0.366,30.0,71.0
53892,-0.341,-0.356,0.847,-0.344,0.084,-0.359,30.0,71.0
53935,-0.337,-0.358,0.854,-0.649,-0.290,-0.282,30.0,71.0
53978,-0.338,-0.356,0.855,-0.580,-0.344,-0.450,30.0,71.0
54022,-0.347,-0.360,0.859,-0.397,0.450,-0.313,30.0,71.0
54065,-0.343,-0.355,0.849,-0.618,-0.351,-0.282,30.0,71.0
54108,-0.337,-0.356,0.857,-0.542,-0.214,-0.374,30.0,71.0
54194,-0.341,-0.357,0.855,-0.687,-0.626,-0.481,30.0,71.0
54238,-0.335,-0.359,0.858,-0.527,0.153,-0.466,30.0,71.0
54281,-0.344,-0.366,0.859,-0.198,0.214,-0.481,30.0,71.0
54327,-0.344,-0.357,0.851,-0.481,-0.168,-0.550,30.0,71.0
54370,-0.331,-0.362,0.847,-0.092,0.061,-0.374,30.0,71.0
54413,-0.345,-0.356,0.862,0.183,0.740,-0.214,30.0,71.0
54456,-0.344,-0.355,0.848,-0.160,-0.061,-0.618,30.0,71.0
54500,-0.334,-0.356,0.849,-0.267,-0.130,-0.366,30.0,71.0
54543,-0.343,-0.368,0.847,0.137,0.550,-0.107,30.0,71.0
54586,-0.349,-0.362,0.853,-0.305,0.031,-0.321,30.0,71.0
54629,-0.334,-0.356,0.863,-0.374,-0.489,-0.282,30.0,71.0
54673,-0.334,-0.362,0.850,0.023,0.351,-0.344,30.0,71.0
54719,-0.347,-0.358,0.864,-0.046,0.504,-0.443,30.0,72.0
54762,-0.351,-0.359,0.854,0.038,-0.191,-0.435,30.0,72.0
54805,-0.336,-0.364,0.846,0.076,0.672,-0.359,30.0,71.0
54849,-0.347,-0.354,0.854,0.198,0.252,-0.458,30.0,71.0
54892,-0.341,-0.357,0.851,-0.427,-0.489,-0.481,30.0,71.0
54935,-0.333,-0.358,0.859,-0.198,0.221,-0.305,30.0,71.0
54979,-0.338,-0.356,0.864,-0.176,0.382,-0.450,30.0,71.0
55022,-0.338,-0.360,0.856,-0.466,-0.031,-0.420,30.0,71.0
55065,-0.336,-0.358,0.852,-0.061,0.168,-0.260,30.0,71.0
55120,-0.341,-0.353,0.854,0.076,0.969,-0.466,30.0,71.0
55166,-0.343,-0.354,0.863,-0.359,-0.382,-0.557,30.0,71.0
55213,-0.340,-0.359,0.849,-0.160,0.160,-0.336,30.0,72.0
55259,-0.342,-0.350,0.859,0.176,0.527,-0.176,30.0,72.0
55304,-0.346,-0.349,0.863,-0.252,-0.298,-0.298,30.0,71.0
55350,-0.333,-0.359,0.857,-0.275,0.099,-0.542,30.0,71.0
55396,-0.345,-0.359,0.857,0.099,0.519,-0.267,30.0,71.0
55441,-0.343,-0.351,0.860,-0.275,-0.023,-0.489,30.0,72.0
55487,-0.340,-0.350,0.851,0.000,0.191,-0.359,30.0,71.0
55536,-0.339,-0.355,0.855,-0.115,0.191,-0.496,30.0,71.0
55582,-0.334,-0.354,0.855,-0.183,-0.344,-0.542,30.0,72.0
55628,-0.341,-0.355,0.854,-0.260,0.145,-0.389,30.0,72.0
55673,-0.335,-0.349,0.847,-0.244,0.061,-0.466,30.0,72.0
55719,-0.342,-0.359,0.850,-0.160,0.206,-0.359,30.0,72.0
55766,-0.335,-0.357,0.851,0.084,0.107,-0.382,30.0,71.0
55812,-0.334,-0.355,0.862,-0.321,0.466,-0.412,30.0,72.0
55857,-0.350,-0.355,0.856,-0.496,-0.168,-0.573,30.0,71.0
55903,-0.343,-0.356,0.861,-0.389,-0.130,-0.435,30.0,71.0
55952,-0.336,-0.354,0.858,-0.046,0.206,-0.290,30.0,71.0
55998,-0.341,-0.358,0.859,-0.053,0.443,-0.420,30.0,71.0
56044,-0.348,-0.354,0.855,-0.252,-0.260,-0.366,30.0,72.0
56090,-0.340,-0.353,0.855,-0.305,0.389,-0.260,30.0,71.0
56136,-0.341,-0.354,0.862,-0.435,0.015,-0.328,30.0,72.0
56182,-0.338,-0.359,0.850,0.076,0.244,-0.450,30.0,72.0
56227,-0.341,-0.347,0.860,0.069,0.427,-0.580,30.0,72.0
56273,-0.343,-0.354,0.857,-0.336,-0.389,-0.412,30.0,71.0
56320,-0.337,-0.362,0.859,-0.244,0.053,-0.237,30.0,72.0
56369,-0.349,-0.350,0.848,-0.107,0.122,-0.336,30.0,72.0
56415,-0.342,-0.352,0.854,-0.412,0.168,-0.496,30.0,72.0
