Timestamp(ms),AccelX(g),AccelY(g),AccelZ(g),GyroX(deg/s),GyroY(deg/s),GyroZ(deg/s),DistanceLeft(cm),DistanceRight(cm)
25598,-0.320,-0.320,0.879,0.626,0.168,0.344,37.0,46.0
25639,-0.312,-0.327,0.878,0.466,0.695,0.511,37.0,46.0
25681,-0.320,-0.321,0.871,0.237,-0.061,0.687,37.0,45.0
25723,-0.314,-0.325,0.869,0.420,0.611,0.321,37.0,46.0
25765,-0.320,-0.327,0.876,0.481,1.191,0.550,37.0,46.0
25807,-0.323,-0.323,0.874,0.641,0.679,0.710,37.0,46.0
25848,-0.320,-0.325,0.886,0.779,0.076,0.359,37.0,46.0
25890,-0.314,-0.323,0.875,0.870,0.847,0.504,37.0,46.0
25935,-0.329,-0.322,0.881,0.397,0.794,0.427,37.0,46.0
25977,-0.329,-0.327,0.877,0.122,-0.420,0.290,37.0,45.0
26018,-0.315,-0.322,0.874,0.573,-0.427,0.397,37.0,45.0
26060,-0.317,-0.325,0.883,0.359,0.359,0.641,37.0,45.0
26102,-0.320,-0.321,0.879,0.756,0.718,0.504,37.0,45.0
26144,-0.327,-0.321,0.881,0.473,0.634,0.290,37.0,45.0
26185,-0.323,-0.324,0.886,0.275,-0.359,0.405,37.0,45.0
26227,-0.320,-0.323,0.865,0.374,-0.145,0.214,37.0,45.0
26269,-0.323,-0.318,0.874,0.313,0.565,0.336,37.0,45.0
26314,-0.323,-0.323,0.874,0.145,-0.031,0.282,37.0,44.0
26356,-0.319,-0.315,0.866,0.237,-0.817,0.359,37.0,45.0
26397,-0.320,-0.323,0.871,0.153,0.122,0.435,37.0,45.0
26439,-0.322,-0.323,0.880,0.130,0.695,0.634,37.0,44.0
26481,-0.334,-0.325,0.876,0.031,-0.382,0.435,37.0,44.0
26523,-0.312,-0.321,0.870,0.290,-0.176,0.374,37.0,44.0
26565,-0.322,-0.319,0.880,0.084,0.489,0.336,37.0,44.0
26607,-0.323,-0.321,0.883,0.023,-0.153,0.496,37.0,44.0
26649,-0.324,-0.320,0.876,-0.122,-0.771,0.519,37.0,44.0
26694,-0.325,-0.326,0.877,-0.153,-0.725,0.412,37.0,45.0
26736,-0.320,-0.321,0.875,-0.168,-0.290,0.374,37.0,44.0
26778,-0.322,-0.320,0.877,-0.206,-0.183,0.634,37.0,45.0
26820,-0.317,-0.322,0.879,-0.229,-1.641,0.489,37.0,44.0
26862,-0.309,-0.326,0.870,0.084,-0.305,0.351,37.0,44.0
26903,-0.325,-0.329,0.873,0.183,0.641,0.290,37.0,45.0
26945,-0.333,-0.320,0.886,-0.382,-1.130,0.473,38.0,44.0
26987,-0.314,-0.325,0.872,-0.382,-1.221,0.351,38.0,44.0
27030,-0.316,-0.323,0.871,-0.099,-0.160,0.534,38.0,45.0
27075,-0.324,-0.325,0.873,0.023,-0.061,0.573,37.0,44.0
27117,-0.319,-0.330,0.877,-0.244,-0.435,0.382,37.0,45.0
27159,-0.326,-0.329,0.869,0.122,-0.107,0.466,37.0,45.0
27201,-0.318,-0.323,0.876,-0.183,-1.107,0.435,37.0,45.0
27243,-0.312,-0.332,0.872,-0.092,-0.954,0.282,37.0,45.0
27285,-0.317,-0.322,0.881,0.115,0.015,0.321,38.0,45.0
27327,-0.321,-0.330,0.871,0.122,0.023,0.137,37.0,45.0
27369,-0.322,-0.321,0.875,-0.023,-0.595,0.412,38.0,46.0
27411,-0.320,-0.325,0.875,-0.038,-0.229,0.206,38.0,46.0
27457,-0.321,-0.321,0.884,0.031,-0.160,0.519,38.0,46.0
27499,-0.314,-0.323,0.881,0.084,-0.618,0.557,37.0,46.0
27541,-0.317,-0.323,0.874,0.061,-0.427,0.405,37.0,46.0
27583,-0.320,-0.326,0.885,0.183,-0.275,0.359,38.0,46.0
27625,-0.314,-0.327,0.869,0.069,-0.336,0.275,37.0,46.0
27668,-0.315,-0.332,0.872,0.382,0.550,0.511,38.0,46.0
27753,-0.312,-0.327,0.878,0.405,-0.542,0.183,38.0,46.0
27795,-0.317,-0.327,0.869,0.687,1.160,0.282,38.0,46.0
27837,-0.321,-0.327,0.880,0.977,0.931,0.244,38.0,46.0
27882,-0.320,-0.327,0.870,0.771,0.672,0.542,38.0,46.0
27925,-0.325,-0.324,0.878,0.527,-0.336,0.573,38.0,46.0
27967,-0.317,-0.330,0.884,0.397,0.275,0.412,38.0,46.0
28009,-0.322,-0.331,0.893,0.450,0.527,0.496,38.0,46.0
28051,-0.320,-0.327,0.876,0.649,-0.206,0.359,38.0,46.0
28094,-0.318,-0.324,0.871,0.695,0.397,0.351,38.0,46.0
28136,-0.322,-0.328,0.883,0.573,1.061,0.466,38.0,46.0
28178,-0.329,-0.326,0.872,0.534,-0.015,0.405,38.0,45.0
28220,-0.317,-0.325,0.869,0.534,-0.038,0.305,38.0,46.0
28263,-0.320,-0.327,0.874,0.908,0.817,0.534,38.0,45.0
28308,-0.323,-0.325,0.871,0.427,0.450,0.496,38.0,46.0
28350,-0.322,-0.324,0.880,0.366,-0.405,0.481,38.0,45.0
28401,-0.317,-0.323,0.873,0.611,0.802,0.511,38.0,45.0
28443,-0.327,-0.326,0.867,0.756,1.267,0.489,38.0,45.0
28484,-0.329,-0.324,0.879,0.412,0.260,0.389,38.0,45.0
28526,-0.320,-0.323,0.873,0.336,0.076,0.443,38.0,45.0
28568,-0.326,-0.328,0.872,0.191,0.573,0.489,38.0,46.0
28610,-0.323,-0.322,0.868,0.565,0.275,0.450,38.0,46.0
28652,-0.330,-0.323,0.871,0.679,0.595,0.511,39.0,45.0
28696,-0.331,-0.321,0.879,0.649,0.557,0.557,39.0,44.0
28738,-0.334,-0.319,0.873,0.229,-0.176,0.565,39.0,44.0
28780,-0.327,-0.320,0.873,0.160,-0.031,0.443,39.0,44.0
28822,-0.333,-0.326,0.885,0.435,0.069,0.504,38.0,44.0
28863,-0.323,-0.318,0.867,0.565,-0.168,0.473,38.0,44.0
28905,-0.328,-0.325,0.868,0.519,0.710,0.511,38.0,44.0
28947,-0.328,-0.322,0.881,0.282,-0.038,0.336,38.0,44.0
28989,-0.333,-0.321,0.875,0.099,-0.588,0.282,38.0,44.0
29030,-0.329,-0.315,0.877,0.061,-0.076,0.557,38.0,44.0
29075,-0.335,-0.322,0.883,0.092,-0.435,0.511,38.0,44.0
29117,-0.322,-0.319,0.879,0.168,-0.282,0.595,38.0,44.0
29159,-0.325,-0.322,0.869,0.229,0.069,0.321,38.0,44.0
29200,-0.329,-0.319,0.874,0.244,0.481,0.557,36.0,43.0
29242,-0.331,-0.325,0.875,0.092,-1.115,0.496,38.0,44.0
29284,-0.320,-0.317,0.866,0.267,0.069,0.496,38.0,44.0
29326,-0.333,-0.326,0.879,0.130,0.237,0.534,38.0,43.0
29368,-0.334,-0.326,0.881,0.153,-0.725,0.290,38.0,44.0
29410,-0.325,-0.322,0.875,0.122,-0.924,0.023,38.0,44.0
29454,-0.322,-0.320,0.859,0.595,0.282,0.374,38.0,44.0
29496,-0.333,-0.325,0.872,0.611,1.489,0.527,37.0,43.0
29538,-0.333,-0.319,0.885,0.527,0.206,0.374,36.0,43.0
29580,-0.331,-0.329,0.881,0.405,0.427,0.672,36.0,43.0
29621,-0.329,-0.324,0.871,0.359,0.809,0.595,38.0,43.0
29663,-0.329,-0.321,0.865,0.382,0.389,0.611,38.0,43.0
29705,-0.331,-0.322,0.875,0.450,0.321,0.427,39.0,43.0
29747,-0.327,-0.316,0.870,0.107,0.282,0.168,39.0,43.0
29789,-0.332,-0.323,0.870,0.084,0.061,0.496,38.0,43.0
29831,-0.330,-0.323,0.872,-0.076,-0.084,0.405,39.0,43.0
29919,-0.329,-0.322,0.871,-0.198,-0.695,0.389,39.0,43.0
29961,-0.335,-0.322,0.878,-0.260,-0.664,0.397,39.0,43.0
30003,-0.329,-0.323,0.877,-0.069,-0.069,0.405,39.0,43.0
30045,-0.330,-0.322,0.875,-0.153,-0.420,0.527,39.0,43.0
30087,-0.334,-0.321,0.873,-0.031,-1.053,0.313,39.0,43.0
30129,-0.328,-0.322,0.877,-0.084,-0.107,0.366,39.0,43.0
30171,-0.330,-0.322,0.871,-0.031,-0.359,0.351,39.0,43.0
30213,-0.331,-0.323,0.875,-0.267,-1.420,0.359,37.0,43.0
30255,-0.322,-0.322,0.873,0.015,-0.267,0.305,37.0,43.0
30300,-0.337,-0.325,0.882,0.023,-0.122,0.420,37.0,44.0
30342,-0.332,-0.324,0.873,-0.298,-1.382,0.382,37.0,44.0
30384,-0.325,-0.324,0.863,-0.290,-1.557,0.458,37.0,45.0
30426,-0.325,-0.326,0.872,-0.214,0.229,0.496,37.0,45.0
30468,-0.335,-0.323,0.878,-0.275,-0.832,0.557,37.0,45.0
30511,-0.319,-0.322,0.867,-0.130,-1.427,0.466,39.0,45.0
30553,-0.316,-0.327,0.865,0.397,0.046,0.344,39.0,45.0
30595,-0.326,-0.327,0.875,0.191,0.351,0.420,37.0,45.0
30637,-0.328,-0.326,0.874,0.092,-0.832,0.191,37.0,45.0
30682,-0.326,-0.325,0.868,0.183,0.031,0.405,37.0,45.0
30724,-0.330,-0.331,0.867,0.260,0.092,0.511,37.0,46.0
30766,-0.322,-0.325,0.871,0.351,-0.374,0.282,37.0,45.0
30809,-0.322,-0.326,0.881,0.420,-0.221,0.466,37.0,45.0
30851,-0.321,-0.318,0.878,0.695,0.260,0.351,37.0,45.0
30893,-0.321,-0.326,0.878,0.733,0.420,0.137,37.0,45.0
30935,-0.330,-0.332,0.880,0.702,-0.122,0.130,37.0,45.0
30977,-0.321,-0.324,0.875,0.580,0.298,-0.046,37.0,45.0
31019,-0.336,-0.330,0.872,0.107,-0.198,0.435,37.0,45.0
31065,-0.328,-0.326,0.873,-0.221,-2.733,0.206,36.0,45.0
31107,-0.319,-0.324,0.881,-0.542,-2.718,0.214,38.0,45.0
31149,-0.317,-0.322,0.878,-0.672,-3.382,-0.435,38.0,46.0
31192,-0.311,-0.318,0.880,-1.557,-0.595,-0.748,38.0,46.0
31234,-0.333,-0.325,0.877,-1.725,-2.351,-0.176,39.0,46.0
31277,-0.303,-0.342,0.857,0.611,-2.939,0.221,39.0,46.0
31319,-0.294,-0.347,0.842,2.962,4.000,1.244,39.0,46.0
31362,-0.323,-0.353,0.874,4.878,7.634,1.153,39.0,46.0
31404,-0.339,-0.322,0.883,4.366,6.901,0.649,39.0,45.0
31449,-0.358,-0.312,0.891,1.221,0.725,0.924,38.0,44.0
31492,-0.317,-0.297,0.882,0.336,-3.939,0.718,37.0,45.0
31534,-0.295,-0.294,0.879,0.901,0.786,0.344,37.0,44.0
31576,-0.317,-0.306,0.886,1.275,4.145,0.313,38.0,45.0
31618,-0.339,-0.310,0.883,0.168,1.863,0.527,38.0,44.0
31661,-0.343,-0.326,0.873,-0.740,-0.733,0.534,39.0,45.0
31703,-0.330,-0.338,0.844,-0.374,-0.595,0.321,39.0,45.0
31746,-0.328,-0.325,0.866,0.588,1.771,0.618,39.0,44.0
31788,-0.341,-0.316,0.872,0.473,2.176,1.061,37.0,44.0
31833,-0.341,-0.319,0.882,0.015,1.031,1.076,37.0,44.0
31876,-0.339,-0.318,0.870,-0.061,-0.687,0.863,37.0,43.0
31918,-0.325,-0.321,0.864,0.137,0.603,0.550,36.0,43.0
31960,-0.333,-0.324,0.868,0.328,1.473,0.221,37.0,44.0
32002,-0.345,-0.320,0.862,0.084,0.557,0.519,37.0,43.0
32088,-0.341,-0.321,0.875,-0.237,-1.153,0.450,37.0,43.0
32130,-0.344,-0.324,0.870,-0.183,-0.794,0.435,36.0,43.0
32172,-0.335,-0.329,0.873,-0.053,-0.649,0.725,36.0,44.0
32215,-0.317,-0.314,0.882,0.397,-0.290,0.260,36.0,44.0
32260,-0.341,-0.318,0.869,0.160,0.237,0.198,36.0,43.0
32303,-0.336,-0.323,0.875,-0.046,-0.603,0.252,36.0,44.0
32345,-0.336,-0.323,0.864,0.328,-0.046,0.313,36.0,43.0
32387,-0.335,-0.317,0.874,0.450,0.832,0.252,37.0,43.0
32430,-0.340,-0.319,0.868,0.435,0.008,0.198,37.0,43.0
32472,-0.331,-0.317,0.869,0.313,-0.534,0.198,37.0,44.0
32514,-0.335,-0.324,0.876,0.351,0.573,0.321,37.0,43.0
32557,-0.340,-0.319,0.877,0.687,1.038,0.534,37.0,43.0
32599,-0.341,-0.315,0.878,0.489,0.427,0.534,37.0,43.0
32641,-0.337,-0.318,0.871,0.191,-0.336,0.618,37.0,43.0
32687,-0.333,-0.329,0.870,0.053,-0.137,0.359,37.0,43.0
32729,-0.332,-0.320,0.870,0.237,0.168,0.427,37.0,42.0
32772,-0.337,-0.326,0.865,0.336,0.351,0.519,37.0,42.0
32814,-0.338,-0.315,0.875,0.267,0.176,0.603,37.0,42.0
32856,-0.344,-0.325,0.865,0.405,-0.176,0.466,37.0,42.0
32899,-0.335,-0.317,0.870,0.489,0.260,0.649,37.0,42.0
32941,-0.339,-0.315,0.864,0.542,0.931,0.611,37.0,42.0
32983,-0.337,-0.317,0.871,0.519,0.267,0.336,37.0,42.0
33026,-0.328,-0.318,0.857,0.580,0.649,0.641,37.0,43.0
33071,-0.336,-0.326,0.875,0.351,1.023,0.519,37.0,43.0
33114,-0.344,-0.320,0.875,0.206,-0.382,0.351,37.0,43.0
33156,-0.337,-0.321,0.868,0.328,0.107,0.366,37.0,43.0
33199,-0.342,-0.323,0.873,0.427,1.137,0.527,39.0,43.0
33242,-0.347,-0.319,0.879,0.313,-0.084,0.634,40.0,43.0
33284,-0.338,-0.321,0.864,0.405,-0.115,0.756,39.0,43.0
33327,-0.341,-0.317,0.872,0.328,0.580,0.611,37.0,43.0
33369,-0.347,-0.317,0.868,0.107,-0.618,0.557,37.0,43.0
33412,-0.341,-0.316,0.868,0.000,-0.603,0.458,39.0,42.0
33458,-0.340,-0.317,0.876,0.221,-0.015,0.443,39.0,42.0
33500,-0.347,-0.316,0.875,0.405,0.382,0.473,39.0,42.0
33543,-0.339,-0.323,0.878,0.389,-0.038,0.527,40.0,42.0
33586,-0.335,-0.322,0.875,0.168,0.069,0.412,40.0,42.0
33628,-0.348,-0.320,0.876,0.160,-0.534,0.351,37.0,42.0
33671,-0.339,-0.324,0.864,0.061,-0.267,0.626,39.0,42.0
33713,-0.338,-0.319,0.866,0.252,0.679,0.473,37.0,42.0
33756,-0.347,-0.320,0.867,0.145,-0.038,0.573,37.0,43.0
33799,-0.347,-0.321,0.871,0.214,-0.557,0.427,39.0,42.0
33844,-0.333,-0.315,0.870,0.557,0.992,0.496,36.0,43.0
33893,-0.345,-0.320,0.866,0.344,-0.519,0.473,39.0,43.0
33934,-0.333,-0.318,0.871,0.527,0.260,0.458,39.0,42.0
33976,-0.351,-0.316,0.878,0.374,0.412,0.832,39.0,43.0
34018,-0.341,-0.319,0.865,0.443,-1.023,0.489,39.0,42.0
34059,-0.337,-0.316,0.867,0.298,-0.290,0.382,37.0,43.0
34101,-0.346,-0.323,0.871,0.023,-0.176,0.427,37.0,42.0
34142,-0.347,-0.321,0.861,0.115,-0.458,0.374,37.0,42.0
34184,-0.341,-0.320,0.862,0.443,0.466,0.595,37.0,42.0
34271,-0.339,-0.310,0.863,0.565,-0.061,0.641,37.0,42.0
34313,-0.346,-0.319,0.880,0.382,0.435,0.405,37.0,42.0
34355,-0.344,-0.315,0.858,0.420,0.214,0.374,37.0,42.0
34396,-0.350,-0.316,0.878,0.435,0.076,0.305,37.0,42.0
34438,-0.344,-0.314,0.872,0.382,0.496,0.221,37.0,42.0
34479,-0.347,-0.314,0.870,0.198,-0.267,0.176,37.0,42.0
34521,-0.348,-0.321,0.870,0.145,-0.221,0.351,37.0,42.0
34563,-0.347,-0.318,0.867,0.336,0.374,0.305,37.0,42.0
34604,-0.353,-0.314,0.867,0.153,-0.779,0.496,37.0,42.0
34646,-0.331,-0.318,0.864,0.389,-0.160,0.366,37.0,42.0
34690,-0.347,-0.310,0.871,0.389,1.473,0.496,37.0,42.0
34732,-0.357,-0.313,0.879,0.115,-1.008,0.298,37.0,42.0
34774,-0.333,-0.322,0.863,0.435,-0.588,0.206,37.0,42.0
34814,-0.341,-0.319,0.871,0.290,0.641,0.550,37.0,42.0
34856,-0.353,-0.321,0.864,0.198,-0.351,0.427,37.0,42.0
34898,-0.339,-0.318,0.861,-0.008,-0.595,0.282,37.0,42.0
34939,-0.340,-0.317,0.861,0.031,-0.130,0.298,37.0,42.0
34981,-0.349,-0.323,0.861,-0.214,-0.023,0.321,37.0,42.0
35023,-0.346,-0.313,0.865,-0.298,-0.412,0.397,37.0,42.0
35068,-0.351,-0.325,0.863,0.069,-0.214,0.344,37.0,42.0
35109,-0.348,-0.318,0.869,-0.122,-1.366,0.466,37.0,42.0
35151,-0.343,-0.322,0.865,-0.168,-0.397,0.496,37.0,42.0
35193,-0.354,-0.321,0.879,-0.145,-0.221,0.550,37.0,42.0
35235,-0.344,-0.319,0.871,-0.244,-1.160,0.405,37.0,42.0
35277,-0.342,-0.321,0.868,-0.160,-0.412,0.336,37.0,42.0
35319,-0.348,-0.316,0.867,-0.328,0.237,0.565,38.0,42.0
35360,-0.351,-0.317,0.871,-0.420,-1.282,0.427,37.0,43.0
35402,-0.342,-0.319,0.862,-0.344,-1.305,0.519,38.0,43.0
35447,-0.344,-0.318,0.870,-0.282,-0.550,0.588,37.0,43.0
35489,-0.339,-0.324,0.875,-0.015,-0.344,0.275,37.0,43.0
35531,-0.350,-0.320,0.871,-0.069,-0.817,0.542,37.0,43.0
35573,-0.336,-0.322,0.861,0.115,-0.435,0.313,37.0,43.0
35615,-0.347,-0.324,0.861,0.603,0.718,0.405,37.0,43.0
35657,-0.348,-0.325,0.881,0.527,-0.237,0.282,37.0,43.0
35699,-0.329,-0.321,0.861,0.794,0.412,0.176,37.0,43.0
35741,-0.342,-0.323,0.871,1.061,1.542,0.328,38.0,42.0
35783,-0.346,-0.321,0.872,1.000,0.435,0.107,38.0,42.0
35828,-0.343,-0.317,0.871,0.519,0.160,0.076,38.0,42.0
35870,-0.341,-0.318,0.862,0.366,-0.405,0.511,38.0,42.0
35912,-0.343,-0.322,0.870,0.702,0.588,0.511,38.0,42.0
35953,-0.343,-0.323,0.880,0.496,0.527,0.473,38.0,42.0
35995,-0.354,-0.316,0.869,0.420,-0.214,0.611,38.0,42.0
36037,-0.341,-0.323,0.864,0.344,-0.359,0.359,38.0,42.0
36080,-0.336,-0.320,0.865,0.718,0.809,0.573,38.0,42.0
36122,-0.349,-0.326,0.865,0.702,1.275,0.603,38.0,42.0
36164,-0.346,-0.317,0.866,0.511,-0.015,0.374,38.0,42.0
36209,-0.343,-0.321,0.861,0.603,0.260,0.450,38.0,42.0
36251,-0.341,-0.324,0.873,0.534,1.282,0.611,38.0,42.0
36293,-0.349,-0.314,0.873,0.794,0.611,0.382,39.0,42.0
36335,-0.346,-0.314,0.868,0.656,0.176,0.435,38.0,43.0
36420,-0.355,-0.317,0.867,0.489,0.595,0.298,39.0,42.0
36462,-0.354,-0.317,0.868,0.359,0.588,0.427,39.0,42.0
36504,-0.346,-0.310,0.861,0.374,-0.099,0.687,39.0,42.0
36546,-0.348,-0.322,0.855,0.275,-0.229,0.634,39.0,42.0
36589,-0.347,-0.321,0.872,0.496,0.679,0.618,39.0,42.0
36631,-0.361,-0.325,0.865,0.221,0.084,0.389,39.0,42.0
36671,-0.346,-0.315,0.868,0.206,-1.000,0.191,39.0,42.0
36713,-0.348,-0.318,0.874,0.412,-0.282,0.374,39.0,42.0
36755,-0.353,-0.319,0.872,0.397,0.702,0.481,39.0,42.0
36797,-0.362,-0.319,0.866,0.221,-0.626,0.389,39.0,42.0
36839,-0.350,-0.324,0.862,0.198,-1.053,0.351,39.0,42.0
36882,-0.351,-0.319,0.874,0.198,0.328,0.534,39.0,43.0
36924,-0.342,-0.318,0.874,0.366,-0.588,0.427,39.0,43.0
36966,-0.346,-0.313,0.869,0.351,-0.130,0.435,39.0,43.0
37017,-0.349,-0.317,0.864,0.221,-0.168,0.336,0.0,43.0
37072,-0.354,-0.321,0.877,0.206,-0.748,0.191,0.0,43.0
37128,-0.342,-0.315,0.860,0.260,-0.046,0.290,0.0,43.0
37179,-0.353,-0.318,0.864,0.244,-0.298,0.282,0.0,43.0
37234,-0.341,-0.318,0.866,0.328,0.191,0.542,0.0,42.0
37285,-0.345,-0.317,0.866,0.756,0.435,0.527,0.0,43.0
37341,-0.358,-0.320,0.871,0.153,-0.145,0.611,0.0,42.0
37393,-0.339,-0.321,0.857,0.290,-0.534,0.328,0.0,42.0
37447,-0.356,-0.319,0.869,0.550,0.573,0.374,0.0,42.0
37499,-0.350,-0.315,0.868,0.504,0.130,0.496,0.0,42.0
37544,-0.343,-0.317,0.865,0.626,0.374,0.450,40.0,42.0
37587,-0.350,-0.314,0.862,0.481,1.328,0.557,40.0,42.0
37629,-0.353,-0.315,0.872,0.053,-0.267,0.557,39.0,42.0
37671,-0.343,-0.322,0.868,0.000,-0.252,0.557,39.0,42.0
37714,-0.351,-0.315,0.859,0.221,0.328,0.496,39.0,42.0
37756,-0.348,-0.317,0.874,0.252,-0.145,0.527,39.0,42.0
37798,-0.351,-0.317,0.864,0.099,-0.298,0.519,39.0,42.0
37841,-0.349,-0.319,0.867,0.023,0.252,0.336,37.0,42.0
37883,-0.348,-0.319,0.869,-0.038,-0.519,0.412,39.0,42.0
37929,-0.350,-0.319,0.865,-0.023,-0.031,0.466,40.0,42.0
37971,-0.358,-0.320,0.867,0.008,-0.084,0.412,40.0,42.0
38013,-0.352,-0.320,0.876,0.122,-0.573,0.527,37.0,42.0
38056,-0.352,-0.315,0.871,0.252,-0.328,0.405,39.0,42.0
38098,-0.349,-0.315,0.864,-0.061,0.328,0.282,37.0,42.0
38140,-0.362,-0.310,0.867,-0.191,-0.473,0.450,37.0,42.0
38183,-0.350,-0.318,0.862,-0.481,-1.634,0.328,37.0,42.0
38225,-0.338,-0.324,0.865,0.206,-0.145,0.412,37.0,42.0
38267,-0.359,-0.320,0.868,0.115,0.542,0.641,37.0,42.0
38313,-0.354,-0.314,0.870,-0.260,-1.496,0.336,37.0,42.0
38355,-0.343,-0.324,0.860,-0.099,-0.786,0.351,37.0,42.0
38398,-0.349,-0.322,0.869,0.076,0.092,0.565,37.0,42.0
38440,-0.354,-0.327,0.869,0.061,-0.947,0.405,37.0,42.0
38483,-0.344,-0.316,0.861,0.145,-0.473,0.351,37.0,42.0
38525,-0.345,-0.323,0.873,0.160,0.351,0.145,37.0,42.0
38567,-0.346,-0.318,0.868,0.145,-0.305,0.290,37.0,42.0
38610,-0.352,-0.318,0.868,-0.031,-0.893,0.344,37.0,42.0
38695,-0.347,-0.323,0.866,0.252,0.137,0.473,37.0,43.0
38738,-0.346,-0.313,0.867,0.160,-0.458,0.382,37.0,43.0
38785,-0.337,-0.324,0.859,0.336,-0.359,0.466,37.0,43.0
38827,-0.345,-0.316,0.871,0.916,1.359,0.496,37.0,42.0
38868,-0.357,-0.317,0.874,0.412,0.641,0.603,37.0,42.0
38912,-0.345,-0.312,0.863,0.519,-0.527,0.389,37.0,42.0
38953,-0.341,-0.322,0.871,0.466,0.290,0.382,37.0,42.0
38996,-0.354,-0.324,0.856,0.618,0.794,0.504,37.0,42.0
39038,-0.344,-0.323,0.862,0.496,-0.313,0.450,37.0,42.0
39081,-0.349,-0.316,0.857,0.504,0.519,0.435,37.0,42.0
39123,-0.358,-0.320,0.865,0.527,0.756,0.450,37.0,42.0
39170,-0.357,-0.319,0.869,0.504,-0.595,0.595,37.0,42.0
39212,-0.344,-0.319,0.871,0.809,0.099,0.389,37.0,42.0
39255,-0.352,-0.315,0.862,0.756,1.023,0.328,40.0,42.0
39298,-0.358,-0.317,0.865,0.557,0.809,0.244,38.0,42.0
39346,-0.364,-0.318,0.862,0.420,-0.191,0.550,140.0,42.0
39389,-0.354,-0.319,0.874,0.641,0.031,0.603,40.0,42.0
39431,-0.344,-0.317,0.859,0.481,0.107,0.511,40.0,42.0
39474,-0.354,-0.313,0.867,0.351,0.748,0.405,40.0,42.0
39522,-0.348,-0.315,0.870,0.412,0.015,0.237,37.0,42.0
39567,-0.349,-0.313,0.873,0.511,-0.015,0.565,37.0,42.0
39608,-0.351,-0.310,0.870,0.389,0.580,0.550,40.0,42.0
39650,-0.362,-0.312,0.871,0.183,-0.298,0.504,40.0,42.0
39692,-0.351,-0.319,0.865,0.191,-0.679,0.252,40.0,42.0
39733,-0.344,-0.312,0.859,0.618,0.298,0.336,40.0,42.0
39775,-0.351,-0.317,0.867,0.519,0.664,0.351,40.0,42.0
39826,-0.366,-0.314,0.873,0.267,-0.160,0.489,0.0,42.0
39880,-0.355,-0.311,0.871,0.214,-0.328,0.565,0.0,42.0
39931,-0.355,-0.317,0.871,0.237,-0.015,0.588,0.0,42.0
39986,-0.350,-0.309,0.862,0.328,-0.168,0.366,0.0,42.0
40040,-0.351,-0.313,0.863,0.550,0.450,0.359,0.0,43.0
40091,-0.357,-0.316,0.870,0.267,-0.153,0.298,0.0,42.0
40145,-0.355,-0.314,0.863,0.198,-0.740,0.519,0.0,43.0
40197,-0.349,-0.309,0.864,0.305,-0.450,0.198,0.0,42.0
40251,-0.355,-0.314,0.860,0.244,0.084,0.496,0.0,43.0
40302,-0.353,-0.311,0.864,0.397,-0.252,0.504,0.0,42.0
40353,-0.343,-0.313,0.862,0.244,-0.412,0.489,0.0,43.0
40409,-0.357,-0.311,0.860,0.321,0.573,0.527,0.0,43.0
40460,-0.359,-0.313,0.867,0.130,-0.832,0.382,0.0,42.0
40513,-0.343,-0.311,0.856,0.450,0.168,0.519,0.0,43.0
40568,-0.356,-0.309,0.878,0.466,0.229,0.489,0.0,42.0
40620,-0.354,-0.315,0.868,0.489,-0.214,0.359,0.0,43.0
40670,-0.356,-0.312,0.873,0.275,0.183,0.611,0.0,42.0
40721,-0.351,-0.318,0.871,0.130,0.130,0.489,0.0,43.0
40776,-0.353,-0.310,0.878,0.466,0.015,0.557,0.0,43.0
40827,-0.353,-0.314,0.883,0.321,-0.107,0.344,0.0,43.0
40882,-0.359,-0.315,0.875,0.183,0.290,0.405,0.0,42.0
40924,-0.358,-0.308,0.850,0.023,-0.176,0.359,37.0,42.0
40969,-0.356,-0.312,0.861,0.145,-0.366,0.527,37.0,42.0
41011,-0.355,-0.312,0.870,-0.122,-0.183,0.504,37.0,42.0
41095,-0.354,-0.312,0.875,0.031,-0.099,0.275,37.0,42.0
41137,-0.356,-0.324,0.870,0.107,-0.603,0.420,37.0,42.0
41179,-0.358,-0.318,0.873,-0.008,0.000,0.435,37.0,42.0
41221,-0.358,-0.316,0.865,0.244,-0.206,0.412,37.0,42.0
41263,-0.365,-0.323,0.861,-0.183,-0.443,0.489,37.0,42.0
41305,-0.350,-0.312,0.865,-0.053,-0.779,0.298,37.0,43.0
41347,-0.359,-0.315,0.863,0.061,-0.176,0.191,37.0,43.0
41391,-0.350,-0.316,0.875,-0.046,-0.466,0.473,37.0,42.0
41433,-0.357,-0.314,0.871,-0.069,-0.321,0.611,37.0,42.0
41475,-0.354,-0.316,0.855,-0.145,-0.855,0.420,37.0,42.0
41517,-0.357,-0.321,0.869,-0.122,-0.511,0.458,37.0,42.0
41559,-0.349,-0.316,0.865,-0.031,-0.824,0.366,37.0,42.0
41601,-0.351,-0.318,0.866,0.168,0.122,0.305,37.0,42.0
41643,-0.353,-0.319,0.868,0.145,0.046,0.176,37.0,42.0
41684,-0.349,-0.319,0.871,-0.160,-0.260,0.504,37.0,42.0
41726,-0.349,-0.314,0.870,-0.053,-0.748,0.489,37.0,42.0
41771,-0.351,-0.316,0.865,-0.023,-0.397,0.519,37.0,42.0
41812,-0.348,-0.318,0.862,0.000,-0.748,0.527,37.0,42.0
41854,-0.343,-0.317,0.856,0.099,-0.420,0.412,37.0,42.0
41896,-0.353,-0.315,0.867,0.000,0.420,0.389,37.0,42.0
41938,-0.353,-0.320,0.859,0.221,-0.382,0.336,37.0,42.0
41980,-0.345,-0.320,0.851,0.389,-0.176,0.542,37.0,42.0
42022,-0.351,-0.316,0.871,0.542,0.435,0.542,37.0,42.0
42064,-0.357,-0.323,0.870,0.336,-0.069,0.229,37.0,42.0
42106,-0.353,-0.317,0.865,0.466,-0.145,0.214,37.0,42.0
42151,-0.348,-0.316,0.855,0.618,0.321,0.275,37.0,42.0
42193,-0.355,-0.315,0.866,0.321,0.443,0.588,37.0,42.0
42235,-0.351,-0.320,0.867,0.099,-0.672,0.511,38.0,42.0
42277,-0.352,-0.316,0.867,0.237,-0.412,0.466,37.0,42.0
42319,-0.354,-0.318,0.861,0.466,0.718,0.420,37.0,42.0
42361,-0.357,-0.314,0.871,0.374,0.229,0.443,37.0,42.0
42403,-0.353,-0.319,0.873,0.282,-0.550,0.466,37.0,42.0
42445,-0.347,-0.315,0.868,0.542,0.557,0.519,37.0,42.0
42487,-0.357,-0.316,0.864,0.634,0.824,0.450,37.0,42.0
42529,-0.361,-0.312,0.863,0.237,-0.130,0.328,37.0,43.0
42575,-0.354,-0.313,0.861,0.542,-0.191,0.489,37.0,43.0
42617,-0.355,-0.320,0.855,0.374,0.916,0.664,37.0,42.0
42659,-0.361,-0.317,0.876,-0.031,-0.611,0.649,37.0,43.0
42701,-0.353,-0.318,0.864,0.237,-0.580,0.550,37.0,42.0
42743,-0.359,-0.315,0.874,0.550,0.382,0.473,37.0,42.0
42785,-0.362,-0.314,0.864,0.641,1.153,0.344,38.0,43.0
42827,-0.362,-0.314,0.870,0.244,0.435,0.534,38.0,42.0
42869,-0.363,-0.318,0.849,0.145,-0.947,0.481,38.0,42.0
42921,-0.351,-0.316,0.865,0.313,0.092,0.679,0.0,42.0
42976,-0.361,-0.315,0.862,0.382,0.260,0.336,0.0,42.0
43031,-0.360,-0.311,0.868,0.267,-0.313,0.443,0.0,42.0
43082,-0.363,-0.315,0.862,0.191,-0.084,0.420,0.0,42.0
43138,-0.355,-0.316,0.865,0.550,0.076,0.504,0.0,42.0
43190,-0.357,-0.316,0.868,0.466,-0.374,0.351,0.0,43.0
43244,-0.354,-0.316,0.857,0.656,0.656,0.061,0.0,43.0
43330,-0.359,-0.315,0.862,0.252,-0.695,0.412,38.0,42.0
43372,-0.354,-0.315,0.869,0.290,-0.237,0.473,38.0,42.0
43420,-0.349,-0.313,0.857,0.435,0.267,0.481,134.0,42.0
43471,-0.359,-0.317,0.872,0.237,-0.176,0.321,133.0,43.0
43518,-0.353,-0.306,0.864,0.458,-0.282,0.359,133.0,42.0
43571,-0.354,-0.309,0.868,0.672,0.962,0.504,0.0,42.0
43625,-0.367,-0.315,0.875,0.366,-0.076,0.557,0.0,42.0
43677,-0.350,-0.310,0.851,0.084,-0.634,0.252,0.0,42.0
43728,-0.356,-0.318,0.866,0.580,0.504,0.405,0.0,42.0
43784,-0.366,-0.316,0.872,0.489,0.351,0.374,0.0,42.0
43836,-0.358,-0.310,0.859,0.107,-0.710,0.557,0.0,42.0
43887,-0.356,-0.315,0.867,0.618,0.290,0.588,0.0,42.0
43942,-0.359,-0.314,0.876,0.214,-0.260,0.328,0.0,42.0
43998,-0.355,-0.313,0.870,0.473,0.366,0.214,0.0,42.0
44049,-0.360,-0.314,0.861,0.489,0.580,0.351,0.0,42.0
44101,-0.357,-0.311,0.867,0.145,-0.924,0.580,0.0,42.0
44156,-0.347,-0.313,0.865,0.427,-0.015,0.366,0.0,42.0
44208,-0.354,-0.313,0.870,0.305,0.779,0.397,0.0,42.0
44263,-0.354,-0.308,0.869,0.290,-0.092,0.328,0.0,42.0
44315,-0.349,-0.314,0.857,0.252,0.038,0.672,0.0,42.0
44370,-0.357,-0.315,0.856,0.015,0.443,0.679,0.0,42.0
44422,-0.357,-0.314,0.870,0.053,-0.748,0.260,0.0,42.0
44477,-0.358,-0.318,0.872,0.084,0.092,0.450,0.0,42.0
44532,-0.364,-0.310,0.873,0.145,0.122,0.573,0.0,42.0
44580,-0.354,-0.312,0.867,-0.008,-0.695,0.374,139.0,42.0
44633,-0.357,-0.316,0.866,-0.046,-0.053,0.489,0.0,42.0
44688,-0.360,-0.313,0.864,-0.130,-0.321,0.405,0.0,42.0
44731,-0.362,-0.312,0.865,0.122,-0.443,0.344,38.0,42.0
44773,-0.358,-0.316,0.863,-0.023,-0.198,0.481,38.0,42.0
44816,-0.355,-0.314,0.859,0.000,-0.237,0.305,38.0,42.0
44858,-0.355,-0.319,0.862,0.053,-0.870,0.221,38.0,42.0
44904,-0.352,-0.312,0.861,0.038,-0.450,0.237,38.0,42.0
44946,-0.354,-0.320,0.858,0.260,-0.099,0.405,38.0,42.0
44989,-0.362,-0.317,0.859,-0.076,-0.382,0.588,38.0,42.0
45031,-0.356,-0.313,0.863,0.000,-0.939,0.435,38.0,42.0
45074,-0.354,-0.317,0.858,0.145,0.038,0.275,38.0,42.0
45116,-0.365,-0.309,0.862,-0.046,-0.092,0.344,38.0,42.0
45159,-0.353,-0.319,0.860,-0.031,-1.221,0.496,38.0,42.0
45201,-0.349,-0.317,0.864,0.076,-0.145,0.382,38.0,43.0
45244,-0.360,-0.313,0.869,0.198,0.107,0.519,38.0,42.0
45290,-0.349,-0.322,0.861,-0.092,-0.786,0.519,38.0,43.0
45332,-0.354,-0.312,0.871,0.183,-0.412,0.427,38.0,43.0
45375,-0.352,-0.315,0.866,0.092,0.252,0.298,38.0,43.0
45418,-0.360,-0.314,0.861,0.084,-0.664,0.565,38.0,42.0
45460,-0.351,-0.318,0.868,0.389,-0.214,0.618,38.0,42.0
45503,-0.357,-0.315,0.864,0.328,-0.275,0.321,38.0,43.0
45551,-0.352,-0.319,0.866,0.489,0.305,0.252,38.0,42.0
45592,-0.362,-0.323,0.874,0.542,0.198,0.214,38.0,43.0
45634,-0.361,-0.315,0.869,0.511,0.145,0.443,38.0,43.0
45678,-0.353,-0.319,0.864,0.641,0.069,0.573,38.0,43.0
45763,-0.355,-0.317,0.866,0.527,0.137,0.519,38.0,43.0
45805,-0.349,-0.321,0.863,0.550,0.176,0.298,38.0,42.0
45846,-0.361,-0.313,0.876,0.313,0.504,0.511,38.0,42.0
45888,-0.360,-0.312,0.875,0.267,-0.702,0.550,38.0,42.0
45929,-0.356,-0.315,0.863,0.443,0.298,0.420,38.0,42.0
45971,-0.351,-0.315,0.866,0.687,0.191,0.427,38.0,42.0
46013,-0.359,-0.314,0.866,0.542,0.649,0.351,38.0,42.0
46054,-0.359,-0.314,0.866,0.557,0.183,0.359,38.0,42.0
46096,-0.359,-0.316,0.860,0.397,0.137,0.534,38.0,42.0
46140,-0.360,-0.306,0.876,0.389,-0.031,0.641,38.0,42.0
46182,-0.360,-0.310,0.868,0.481,0.168,0.412,38.0,42.0
46224,-0.349,-0.314,0.859,0.748,0.519,0.420,38.0,42.0
46265,-0.368,-0.318,0.865,0.504,0.977,0.221,38.0,42.0
46307,-0.368,-0.311,0.858,0.359,0.206,0.260,38.0,42.0
46349,-0.363,-0.317,0.863,0.389,0.130,0.412,38.0,42.0
46390,-0.366,-0.313,0.859,0.473,0.229,0.527,38.0,42.0
46432,-0.362,-0.314,0.861,0.397,0.313,0.374,38.0,42.0
46483,-0.359,-0.311,0.864,0.412,0.550,0.344,0.0,42.0
46527,-0.359,-0.306,0.855,0.489,0.130,0.359,38.0,42.0
46578,-0.365,-0.315,0.856,0.366,0.122,0.603,0.0,42.0
46633,-0.360,-0.310,0.875,0.321,-0.771,0.519,0.0,42.0
46685,-0.354,-0.311,0.861,0.389,-0.176,0.237,0.0,42.0
46739,-0.364,-0.315,0.866,0.382,0.237,0.420,0.0,42.0
46790,-0.364,-0.310,0.858,0.275,-0.122,0.366,0.0,42.0
46844,-0.364,-0.311,0.863,0.206,-0.626,0.603,0.0,42.0
46896,-0.365,-0.315,0.858,0.221,-0.176,0.450,0.0,42.0
46951,-0.358,-0.314,0.865,0.412,-0.183,0.214,0.0,42.0
47005,-0.361,-0.311,0.865,0.450,0.053,0.282,0.0,42.0
47056,-0.362,-0.317,0.867,0.252,-0.145,0.298,0.0,42.0
47111,-0.355,-0.311,0.859,0.267,-0.481,0.443,0.0,42.0
47159,-0.370,-0.312,0.865,0.382,-0.244,0.359,139.0,42.0
47206,-0.360,-0.314,0.868,0.313,0.084,0.099,139.0,42.0
47254,-0.364,-0.309,0.859,0.336,0.260,0.221,139.0,42.0
47301,-0.367,-0.309,0.852,0.153,0.206,0.626,139.0,42.0
47349,-0.364,-0.307,0.854,0.206,-0.672,0.412,139.0,42.0
47400,-0.351,-0.313,0.867,0.328,-0.153,0.321,0.0,42.0
47455,-0.365,-0.313,0.868,0.366,0.672,0.374,0.0,42.0
47506,-0.368,-0.307,0.854,0.282,-0.244,0.527,0.0,43.0
47560,-0.361,-0.309,0.860,-0.069,-0.305,0.466,0.0,42.0
47612,-0.369,-0.312,0.862,0.038,-0.191,0.496,0.0,42.0
47667,-0.363,-0.312,0.857,0.176,-0.160,0.267,0.0,42.0
47709,-0.356,-0.313,0.860,0.198,0.267,0.611,38.0,42.0
47751,-0.357,-0.313,0.868,-0.092,-0.107,0.351,38.0,43.0
47793,-0.364,-0.312,0.869,0.015,-0.496,0.718,38.0,42.0
47835,-0.359,-0.315,0.869,0.099,-0.725,0.557,38.0,42.0
47877,-0.354,-0.309,0.857,0.069,0.221,0.382,38.0,42.0
47922,-0.362,-0.316,0.871,0.069,-0.076,0.328,38.0,42.0
47964,-0.357,-0.315,0.864,0.115,-0.565,0.481,38.0,42.0
48006,-0.355,-0.308,0.862,0.176,0.031,0.420,38.0,42.0
48048,-0.372,-0.312,0.870,0.046,0.237,0.382,38.0,42.0
48133,-0.355,-0.320,0.873,-0.061,-0.427,0.252,38.0,42.0
48175,-0.363,-0.314,0.863,0.084,0.214,0.298,38.0,43.0
48217,-0.366,-0.311,0.858,-0.076,-0.427,0.557,38.0,43.0
48260,-0.361,-0.308,0.864,-0.137,-1.214,0.427,38.0,43.0
48302,-0.352,-0.317,0.864,-0.183,-0.725,0.443,38.0,42.0
48347,-0.357,-0.314,0.865,-0.191,-0.229,0.351,38.0,42.0
48389,-0.357,-0.314,0.869,0.328,0.130,0.305,38.0,42.0
48431,-0.352,-0.316,0.856,0.252,-0.061,0.290,38.0,42.0
48473,-0.362,-0.317,0.859,0.015,-0.305,0.473,38.0,42.0
48515,-0.360,-0.318,0.866,-0.008,-0.588,0.420,38.0,42.0
48557,-0.355,-0.319,0.860,0.275,-0.137,0.473,38.0,42.0
48599,-0.361,-0.314,0.865,0.191,-0.237,0.336,38.0,42.0
48641,-0.351,-0.315,0.865,0.344,-0.099,0.260,38.0,42.0
48684,-0.365,-0.315,0.866,0.420,0.389,0.542,38.0,42.0
48729,-0.365,-0.316,0.853,0.389,0.008,0.351,38.0,42.0
48771,-0.362,-0.314,0.874,0.221,-0.534,0.550,38.0,42.0
48813,-0.354,-0.316,0.867,0.389,0.023,0.244,38.0,42.0
48855,-0.360,-0.312,0.871,0.527,0.656,0.260,38.0,42.0
48897,-0.367,-0.314,0.856,0.603,0.305,0.481,39.0,42.0
48939,-0.363,-0.312,0.853,0.298,-0.061,0.618,39.0,42.0
48982,-0.363,-0.313,0.860,0.389,-0.107,0.458,39.0,42.0
49024,-0.358,-0.318,0.860,0.542,0.405,0.519,39.0,42.0
49065,-0.361,-0.315,0.862,0.366,0.115,0.427,39.0,42.0
49111,-0.354,-0.313,0.861,0.824,0.458,0.397,38.0,42.0
49153,-0.364,-0.311,0.869,0.588,0.496,0.351,38.0,42.0
49196,-0.360,-0.312,0.869,0.420,-0.168,0.473,38.0,43.0
49238,-0.361,-0.314,0.865,0.389,0.015,0.496,38.0,42.0
49280,-0.364,-0.318,0.867,0.313,-0.008,0.336,38.0,43.0
49321,-0.362,-0.313,0.859,0.450,0.382,0.458,38.0,43.0
49364,-0.369,-0.318,0.859,0.412,0.290,0.565,38.0,43.0
49406,-0.370,-0.312,0.861,0.298,-0.053,0.519,38.0,43.0
49448,-0.358,-0.317,0.860,0.626,0.046,0.481,38.0,43.0
49497,-0.364,-0.312,0.862,0.328,0.565,0.496,140.0,43.0
49543,-0.359,-0.312,0.855,0.321,-0.122,0.252,140.0,42.0
49591,-0.367,-0.314,0.861,0.267,-0.031,0.336,140.0,42.0
49639,-0.358,-0.309,0.867,0.397,0.412,0.695,140.0,42.0
49687,-0.367,-0.311,0.857,0.412,-0.122,0.580,140.0,42.0
49738,-0.365,-0.309,0.862,0.244,-0.107,0.458,0.0,42.0
49794,-0.367,-0.313,0.865,0.489,0.359,0.405,0.0,42.0
49846,-0.362,-0.312,0.857,0.374,-0.458,0.374,0.0,43.0
49901,-0.361,-0.311,0.858,0.382,0.115,0.443,0.0,42.0
49952,-0.357,-0.311,0.865,0.290,-0.092,0.328,0.0,42.0
50008,-0.365,-0.308,0.861,0.206,0.275,0.466,0.0,42.0
50059,-0.369,-0.309,0.865,0.252,-0.466,0.443,0.0,42.0
50111,-0.360,-0.315,0.857,0.252,0.000,0.489,0.0,42.0
50166,-0.359,-0.310,0.871,0.344,-0.008,0.473,0.0,42.0
50217,-0.360,-0.313,0.867,0.351,0.443,0.321,0.0,42.0
50273,-0.366,-0.314,0.857,0.267,0.092,0.336,0.0,42.0
50316,-0.367,-0.310,0.873,0.031,-0.550,0.275,38.0,42.0
50358,-0.359,-0.309,0.859,0.397,0.344,0.374,38.0,42.0
50444,-0.358,-0.312,0.859,0.244,-0.641,0.183,38.0,42.0
50490,-0.364,-0.304,0.855,0.275,0.275,0.641,38.0,42.0
50532,-0.369,-0.314,0.865,0.214,-0.252,0.435,38.0,42.0
50584,-0.366,-0.309,0.855,0.267,-0.244,0.527,0.0,42.0
50639,-0.366,-0.313,0.865,0.275,-0.130,0.489,0.0,42.0
50691,-0.362,-0.304,0.851,0.298,-0.092,0.336,0.0,42.0
50746,-0.368,-0.308,0.864,0.344,-0.107,0.275,0.0,42.0
50795,-0.363,-0.309,0.860,0.176,-0.695,0.458,140.0,42.0
50843,-0.357,-0.310,0.865,0.336,0.015,0.603,140.0,42.0
50894,-0.365,-0.312,0.864,0.336,0.031,0.382,0.0,42.0
50950,-0.363,-0.312,0.871,0.351,0.145,0.267,0.0,42.0
51005,-0.371,-0.312,0.864,0.061,-0.473,0.382,0.0,42.0
51054,-0.354,-0.311,0.862,0.328,-0.214,0.237,140.0,42.0
51102,-0.363,-0.309,0.867,0.405,0.168,0.359,140.0,42.0
51150,-0.366,-0.309,0.854,0.046,-0.191,0.313,140.0,42.0
51198,-0.365,-0.313,0.864,-0.076,-0.664,0.389,140.0,42.0
51248,-0.363,-0.307,0.861,0.008,0.145,0.603,140.0,42.0
51296,-0.362,-0.309,0.867,0.000,-0.176,0.527,140.0,42.0
51339,-0.370,-0.313,0.871,0.084,0.023,0.656,38.0,42.0
51384,-0.360,-0.311,0.861,0.084,-0.496,0.412,38.0,42.0
51427,-0.360,-0.308,0.863,-0.046,-0.481,0.382,38.0,42.0
51475,-0.369,-0.315,0.858,-0.092,-0.031,0.466,140.0,42.0
51524,-0.364,-0.317,0.868,-0.008,-0.595,0.397,139.0,42.0
51578,-0.368,-0.315,0.852,0.008,-0.374,0.580,140.0,42.0
51629,-0.366,-0.312,0.861,-0.115,-0.198,0.427,0.0,42.0
51683,-0.353,-0.312,0.859,0.023,-0.618,0.351,0.0,42.0
51734,-0.371,-0.312,0.869,0.046,0.221,0.397,0.0,42.0
51788,-0.362,-0.307,0.860,-0.206,-1.229,0.435,0.0,42.0
51840,-0.359,-0.320,0.860,0.069,-0.183,0.504,0.0,43.0
51894,-0.365,-0.319,0.864,0.015,0.107,0.519,0.0,42.0
51948,-0.365,-0.307,0.862,-0.008,-0.481,0.496,0.0,42.0
51999,-0.368,-0.315,0.861,-0.038,-0.237,0.527,0.0,42.0
52054,-0.367,-0.311,0.859,-0.046,-0.763,0.603,0.0,42.0
52102,-0.359,-0.313,0.859,0.061,-0.496,0.351,140.0,42.0
52153,-0.365,-0.314,0.857,0.275,0.359,0.382,0.0,42.0
52207,-0.370,-0.312,0.857,0.069,-0.321,0.290,0.0,42.0
52258,-0.362,-0.314,0.868,0.183,-0.855,0.557,0.0,42.0
52313,-0.353,-0.311,0.858,0.328,0.282,0.382,0.0,42.0
52375,-0.362,-0.320,0.865,0.664,0.069,0.305,0.0,42.0
52428,-0.358,-0.312,0.860,0.420,0.000,0.321,0.0,42.0
52482,-0.368,-0.310,0.869,0.313,0.458,0.511,0.0,43.0
52536,-0.356,-0.310,0.864,0.298,-0.618,0.275,0.0,42.0
52589,-0.362,-0.315,0.861,0.481,0.084,0.214,0.0,42.0
52642,-0.369,-0.311,0.868,0.527,0.641,0.588,0.0,42.0
52696,-0.363,-0.315,0.859,0.313,-0.855,0.366,0.0,42.0
52750,-0.358,-0.317,0.862,0.443,0.130,0.664,0.0,42.0
52800,-0.354,-0.317,0.861,0.626,0.008,0.550,140.0,42.0
52852,-0.367,-0.310,0.862,0.695,0.382,0.244,139.0,42.0
52905,-0.367,-0.309,0.871,0.443,0.565,0.450,0.0,42.0
52960,-0.363,-0.311,0.854,0.336,-0.588,0.565,0.0,43.0
