Timestamp(ms),AccelX(g),AccelY(g),AccelZ(g),GyroX(deg/s),GyroY(deg/s),GyroZ(deg/s),DistanceLeft(cm),DistanceRight(cm)
52129,0.003,-0.138,0.991,-58.16,43.29,9.351,132,67
52177,-0.134,-0.146,1.048,-103.282,33.031,3.725,133,66
52227,-0.157,-0.427,0.975,-50.084,11.985,0.771,134,66
52275,0.031,-0.428,0.929,-20.16,-6.664,4.015,129,65
52323,-0.088,-0.464,0.88,58.298,-44.069,5.16,136,63
52372,0.252,-0.147,1.171,69.305,-33.031,25.954,137,62
52420,-0.01,-0.02,0.803,63.412,-35.748,11.954,139,60
52475,0.253,0.002,1.306,14.191,-34.344,55.466,0,59
52531,-0.073,-0.095,1.07,-33.939,-19.389,55.908,0,58
52583,0.134,-0.167,1.003,25.565,-39.275,42.511,0,57
52638,0.046,-0.208,0.817,50.115,3.458,20.733,0,56
52689,0.035,0.091,1.018,33.824,11.756,12.412,0,54
52745,0.099,0.025,0.751,1.511,40.908,10.076,0,52
52796,-0.095,-0.049,1.126,45.969,55.55,25.817,0,51
52851,-0.163,0.079,0.712,73.656,39.206,17.702,0,50
52893,0.097,-0.22,0.99,18.954,18.847,37.809,29,48
52947,-0.035,0.275,1.128,29.672,12.008,49.542,0,48
53002,-0.156,0.571,0.836,62.069,-43.626,14.748,0,47
53053,0.154,0.404,1.304,-162.901,-45.328,-5.71,0,44
53108,0.229,-0.025,1.027,-107.756,-21.366,-28.328,0,42
53159,-0.086,-0.403,1.113,-19.489,-13.924,-55.55,0,40
53214,0.325,0.158,1.011,58.58,-8.313,38.069,0,40
53265,0.396,0.238,1.056,-37.855,5.84,41.985,0,38
53319,0.072,0,0.868,17.427,0,-42.664,0,37
53370,0.093,0.003,0.989,6.534,-7.015,-48.16,0,37
53424,0.094,-0.027,1.067,30.626,-24.046,-19.885,0,36
53478,0.367,0.256,0.805,17.748,-2.519,7.534,0,36
53529,0.138,0.323,0.864,-43.397,-9.015,-34.229,0,37
53583,0.287,0.013,0.317,-113.107,9.74,-38.573,0,37
53635,0.311,-0.364,1.238,-120.519,16.298,9.542,0,37
53689,0.081,-0.268,1.001,-49.527,10.817,27.672,0,36
53738,0.221,-0.225,1.013,19.832,0.305,18.328,173,38
53789,0.131,-0.426,1.355,140.336,16.374,-12.748,0,44
53844,0.047,-0.026,1.117,248.069,-5.206,6.931,0,43
53890,0.266,0.356,0.442,64.855,-29.794,17.344,35,45
53943,-0.087,0.337,1.068,-23.519,-35.985,-7.618,0,83
53994,0.269,0.418,0.903,-66.206,-11.229,-27.702,0,42
54049,0.108,0.063,1.022,-96.206,6.695,-41.427,0,42
54091,-0.018,-0.284,1.127,-1.053,16.702,-22.962,34,44
54133,0.04,0.093,1.044,13.71,4.534,7.481,37,41
54175,0.209,0.226,0.92,-37.137,7.672,-21.008,39,42
54217,0.267,0.082,0.831,-9.656,-0.489,-56.847,39,41
54259,0.189,-0.107,1.085,-13.397,6.832,7.679,39,41
54303,0.097,0.059,0.892,36.702,-2.137,0.595,37,41
54345,0.064,0.061,1.048,36.771,-19.099,-13.107,38,42
54388,0.214,0.132,1.211,14.206,-12.359,-14.252,43,42
54430,0.08,0.051,1.055,-13.618,19.29,7.718,43,40
54472,-0.091,0.023,0.651,-14.618,-7.046,8.656,44,41
54515,0.009,-0.122,1.213,-42.71,-55.015,33.366,43,43
54557,0.196,-0.055,1.084,5.305,-15.824,40.122,37,41
54644,0.161,-0.061,1.015,25.466,-17.298,36.718,45,75
54689,0.373,0.321,1.131,13.595,-8.244,50.649,50,77
54736,0.169,0.037,0.849,17.901,7.779,40.496,47,76
54788,0.214,0.09,0.942,2.542,-2.221,31.618,35,0
54842,0.174,0.14,0.885,3.183,13.252,16.221,35,0
54893,0.128,0.165,0.87,14.71,-8.756,23.893,36,0
54947,0.28,0.284,0.983,-31.847,-8.985,14.176,37,0
54991,0.212,0.029,0.915,-22.687,-0.008,0.229,35,77
55043,0.283,-0.121,1.098,-19.847,-1.748,12.366,36,0
55098,0.146,-0.197,1.143,75.198,15.901,8.779,56,0
55144,0.238,0.373,0.819,23.351,8.557,10.252,58,77
55196,0.278,0.303,0.879,-12.863,-9.282,0.84,57,0
55249,0.271,-0.037,0.99,-56.099,-20.435,-20.374,57,0
55302,0.288,-0.244,1.407,58.763,-17.679,8.229,58,0
55358,0.347,0.822,0.151,23.153,12.107,122.282,59,0
55410,0.429,-0.297,1.579,-114.321,-40.252,-65.573,59,0
55463,0.29,-0.416,0.867,18.924,-10.733,-0.603,61,0
55520,0.435,0.085,0.855,19.733,7.649,-11.74,61,0
55572,0.242,0.098,1.057,34.603,11.588,-19.45,72,0
55626,0.177,0.154,0.978,-15.794,-19.847,-24.382,74,0
55680,0.383,-0.046,1.142,19.313,-19.443,-35.397,76,0
55735,0.305,0.098,1.035,25.519,22.191,-21.092,81,0
55795,0.032,0.014,0.823,5.748,10.176,-29.053,0,0
55856,0.172,0.124,1.008,-7.687,5.122,-25.153,0,0
55911,0.192,0.058,0.999,-14.756,2.863,-51.443,114,0
55972,0.134,-0.131,1.204,72.649,15.183,-26.664,0,0
56033,0.123,0.458,0.719,27.534,11.695,1.702,0,0
56093,0.129,0.129,0.79,-78.557,-14.756,-45.962,0,0
56154,0.238,-0.145,0.986,-51.031,6.489,-25.649,0,0
56214,0.209,0.091,0.836,-9.183,27.183,-18.695,0,0
56279,0.127,0.038,1.019,-58.176,12.115,-22.42,0,0
56339,0.211,-0.174,1.132,4.389,7.695,-10.573,0,0
56399,0.165,-0.109,1.064,41.656,6.107,5.634,0,0
56460,0.222,0.045,1.055,42.565,-12.397,5.366,0,0
56520,0.254,0.113,1,9.992,-11.321,15.618,0,0
56582,0.107,0.076,1.091,-2.985,-16.191,-4.221,0,0
56642,0.191,0.103,1.251,39.366,-5.618,18.435,0,0
56702,0.242,0.309,0.971,28.756,11.695,24.145,0,0
56764,0.064,0.235,0.994,-13.786,-10.366,0.802,0,0
56827,0.051,0.21,0.879,29.137,-10.076,4.198,0,0
56888,0.237,0.461,0.923,-2.191,-3.817,-15.725,0,0
56949,0.16,0.257,0.914,22.977,-1.908,-4.435,0,0
57010,0.242,0.347,0.863,-32.29,-10.42,-12.664,0,0
57070,0.248,0.094,1.045,-18.153,-11.076,-19.427,0,0
57132,0.295,0.219,0.944,-2.664,6.061,-16.42,0,0
57192,0.306,0.274,0.844,-59.214,-4.573,-33.061,0,0
57252,0.296,0.045,1.053,-24.595,7.519,-26.87,0,0
57314,0.226,0.226,0.881,-29.458,5.107,-23.351,0,0
57377,0.187,-0.009,1.049,15.702,5.466,-24.137,0,0
57439,0.233,0.357,0.77,-48.504,-7.55,-29.832,0,0
57542,0.328,0.105,1.039,-1.061,2.718,-34.42,0,0
57603,0.354,0.326,0.983,-31.618,0.282,-25.351,0,0
57664,0.112,0.059,1.078,-13.74,-3.244,-30.366,0,0
57724,0.025,-0.235,1.203,-59.466,-6.885,-34.145,0,0
57786,0.001,0.005,0.756,12.542,7.26,-17.145,0,0
57846,-0.053,0.129,0.866,-63.42,-5.145,-50.023,0,0
57907,0.096,-0.316,1.006,-41.702,14.527,-33.618,0,0
57968,0.168,-0.128,0.906,27.87,26.847,-17.748,0,0
58033,0.01,0.162,0.539,-79.718,4.214,-23.229,0,0
58093,0.219,-0.484,0.989,50.023,21.359,-34.832,0,0
58153,0.16,-0.313,1.207,6.13,14.344,-35.954,0,0
58215,0.214,-0.199,0.744,30.374,27.481,-33.573,0,0
58275,0.234,-0.304,1.513,51.672,16.275,-9.374,0,0
58326,-0.27,0.362,0.936,118.496,2.092,22.076,9,0
58382,0.299,0.256,1.122,62.053,-28.282,-8.855,125,0
58440,0.227,0.401,1.133,37.267,-46.389,-53.443,153,0
58500,0.384,0.512,0.885,-83.366,-66.71,-23.275,172,0
58562,0.388,-0.03,1.258,-101.206,-20.389,-31.847,174,193
58621,0.206,-0.008,1.037,-20.779,15.809,-8.908,176,191
58680,-0.009,-0.282,1.263,-3.115,2.046,-24.733,0,146
58736,0.213,0.227,0.929,32.962,-5.336,-14.595,180,143
58792,0.196,0.208,0.861,4.466,0.45,-14.855,183,139
58849,0.073,0.125,0.994,-32.977,-1.26,-8.969,186,135
58906,0.143,0.006,1.019,-35.13,-6.313,-13.962,190,135
58971,0.209,-0.035,0.895,2.298,13,-10.069,191,174
59029,0.381,0.19,1.098,-13.145,-2.038,-41.069,195,138
59087,0.153,-0.348,1.1,44.748,19.023,-4.626,0,167
59146,0.276,-0.089,1.174,-5.046,9.954,-43.649,0,166
59203,0.185,-0.284,1.25,96.763,25.046,5.855,0,164
59258,0.181,0.22,0.863,88.115,7.954,33.42,0,118
59314,0.26,0.316,1.042,9.954,2.153,-11.412,0,114
59369,0.118,0.151,0.916,-34.924,-4.863,-1.84,0,123
59423,0.391,0.241,1.271,-54.206,-10.336,-3.298,0,111
59479,0.183,-0.025,0.967,-6.107,0.634,2.412,0,111
59536,0.095,-0.022,0.873,1.244,19.046,25.359,0,110
59591,0.045,0.33,0.955,4.336,3,1.908,0,110
59645,0.042,0.211,0.848,-21.053,-7.718,-17.099,0,109
59706,0.055,-0.079,1.084,-29.649,-5.183,-28.458,0,0
59763,0.04,-0.218,1.211,49.336,6.229,-5.87,0,161
59822,0.106,0.127,0.978,-0.389,-8.595,-2.466,0,170
59882,0.16,0.15,0.932,-8.427,-8.878,-17.733,0,0
59939,0.103,0.075,0.8,-56.885,-11.374,-5.504,0,155
60000,0.12,0.037,0.744,-24.878,-20.756,-3.13,0,0
60056,0.235,0.054,0.805,-57.901,-6.939,9.298,0,152
60116,0.265,-0.24,1.122,26.382,12.176,15.786,0,148
60174,0.229,-0.011,0.891,-0.695,2.221,44.733,0,146
60230,0.187,-0.252,1.055,0.458,-13.565,-16.855,0,143
60286,0.282,0.034,1.013,12.519,6.802,25.053,0,137
60343,0.283,-0.054,1.046,-11.71,-14.634,16.664,0,136
60400,0.198,0.054,1.167,1.901,-21.389,16.786,0,136
60503,0.15,0.004,1.099,39.42,-3.962,26.863,0,0
60563,0.201,0.259,0.86,32.359,-16.336,46.214,0,0
60623,0.181,0.21,0.842,1.977,-3.649,-9.176,0,0
60686,0.269,0.228,0.815,61.168,5.954,16.565,0,0
60746,0.255,0.081,0.853,-94.886,-14.015,-29.534,0,0
60806,0.228,-0.34,1.093,71.122,-4,-17.397,0,0
60866,0.232,0.554,0.595,-30.977,16.244,2.412,0,0
60926,0.35,-0.324,1.329,-25.107,-3.389,-31.733,0,0
60987,0.547,0.383,0.774,136.534,26.046,-4.969,0,0
61046,0.224,0.919,1.082,-143.061,55.427,10.504,0,0
61107,0.17,-0.814,0.928,3.015,-71.702,-60.489,0,0
61167,0.345,-0.098,1.059,86.214,19.679,-34.466,0,0
61230,0.18,0.383,0.844,-8.779,-1.481,-24.183,0,0
61284,0.305,-0.085,1.153,-16.672,1.802,-51.061,91,0
61344,0.11,0.188,0.919,33,6.466,-30.038,0,0
61405,0.142,0.427,0.86,-49.137,-0.878,-26.992,0,0
61464,0.059,0.078,0.984,-24.351,-1.679,-16.458,0,0
61524,0.125,0.163,0.974,10.885,5.168,-3.069,0,0
61584,0.062,0.206,0.902,2.534,5.16,-3.473,178,0
61637,0.086,0.083,1.038,-25.221,-9.969,4.534,92,0
61691,0.136,-0.029,1.037,-5.733,1.031,15.519,92,0
61749,0.22,0.204,0.88,1.107,-7.702,7.786,102,0
61803,0.117,0.026,0.969,-8.382,-17.634,12.45,86,0
61856,0.097,-0.11,1.029,5.351,-5.29,21.359,86,0
61911,0.264,0.017,0.989,4.756,11.42,22.969,85,0
61964,0.242,-0.149,1.002,17.389,8.099,6.573,89,0
62018,0.262,0.013,0.942,43.947,18.168,7.008,94,0
62072,0.156,-0.081,0.968,39.206,-3.076,-0.16,98,0
62128,0.267,0.059,1.057,97.13,14.702,21.229,100,0
62188,0.188,0.579,0.597,-15.13,5.702,28.908,0,0
62247,0.247,-0.092,1.312,-24.603,-0.832,34.305,0,0
62306,0.212,0.286,1.071,128.725,2.87,43.244,107,0
62366,0.232,0.38,1.058,29.687,9.092,19.969,0,0
62427,0.178,0.166,1.052,76.244,11.611,15.664,0,0
62487,0.005,0.626,0.677,66.344,1.748,13.168,0,0
62547,0.127,0.555,0.8,-15.435,-5.275,8.534,0,0
62608,0.18,0.534,0.877,15.557,5.053,2.733,0,0
62667,0.204,0.704,0.724,15.954,7.412,2.145,0,0
62728,0.233,0.392,0.896,-37.893,10.565,4.756,0,0
62788,0.215,0.561,0.77,47.321,28.58,13.473,0,0
62852,0.22,0.604,0.833,-76.328,3.603,-5.275,0,0
62912,0.2,0.434,0.95,-41.298,14.45,8.374,0,0
62972,-0.14,0.408,0.917,-88.832,7.115,8.084,0,0
63033,0.125,-0.235,1.202,-0.534,-11.557,-14.679,0,0
63093,0.24,0.464,0.789,40.122,-6.603,-18.435,0,0
63154,0.256,0.417,1.023,-43.397,-19.954,-21.45,0,0
63210,0.253,0.111,1.225,-16.71,0.695,8.893,131,0
63270,0.183,0.368,0.884,-21.924,-0.092,-3.74,200,0
63328,-0.086,0.084,1.035,-39.031,-6.695,-17.939,135,0
63390,0.12,0.222,0.969,-2.603,-17.16,-10.443,188,0
63494,0.114,0.286,0.929,-0.649,0.656,4.466,187,0
63553,0.132,0.138,0.968,-22.565,5.374,6.076,188,0
63613,0.161,0.178,1.029,-25.557,6.26,0.206,187,0
63673,-0.268,-0.147,0.908,54.885,15.122,10.817,188,0
63730,0.08,0.195,0.849,-14.656,1.611,20.015,143,0
63791,0.129,0.17,0.863,-4.611,5.198,27.809,198,0
63851,0.19,0.245,1.04,-3.977,3.42,23.649,198,0
63911,0.209,-0.108,1.195,-10.412,16.664,14.969,200,0
63971,0.018,0.011,0.932,-23.176,-11.916,27.855,115,0
64026,0.191,0.191,1.016,-59.183,-9.481,12.359,114,0
64082,0.125,-0.082,1.099,-1.55,-1.824,38.893,114,0
64138,-0.02,-0.375,0.968,23.458,-12.679,44.893,116,0
64196,0.053,0.134,1.268,-4,-18.435,31.038,151,0
64253,0.129,-0.136,1.081,8.733,-21.382,38.55,153,0
64315,0.265,0.229,0.889,50.847,-10.763,29.458,0,0
64375,0.376,0.011,1.223,85.13,19.649,41.985,0,0
64436,0.461,1.047,0.843,24.656,-0.863,24.382,0,0
64499,0.135,0.469,0.814,-59.779,1.511,10.626,0,0
64560,0.246,0.141,0.974,-6.985,-9.374,24.008,0,0
64620,0.234,0.027,1.215,30.069,14.008,22.84,0,0
64681,0.191,0.581,0.883,1.855,-1.542,26.198,0,0
64742,0.279,-0.401,1.244,13.206,19.802,7.321,0,0
64802,0.227,0.401,0.973,4.45,3.084,15.924,0,0
64863,0.19,0.073,0.947,26.947,1.038,10.412,0,0
64923,0.291,0.344,0.984,-57.115,-12.832,-6.244,0,0
64985,0.197,0.035,0.951,-23.229,3.374,4.069,0,0
65045,0.083,0.029,1.066,-24.13,10.214,-1.504,0,0
65108,0.111,0.007,0.979,6.16,11.656,4.794,0,0
65169,-0.094,0.204,1.146,-36.939,-3.58,-11.748,0,0
65230,0.215,0.087,0.919,-35.313,-0.038,-17.275,0,0
65291,0.205,-0.027,1.103,-7.817,6.168,-11.649,0,0
65351,0.273,-0.107,1.088,-6.122,4.924,-13.359,0,0
65413,0.187,0.082,0.965,-20.344,1.42,-14.13,0,0
65473,0.159,-0.202,1.22,-31.092,8.679,1.443,0,0
65533,0.164,0.043,1.123,3.939,5.962,2.802,0,0
65594,0.128,0.168,0.986,6.725,-1.466,4.687,0,0
65658,0.183,0.017,0.951,4.298,-7.229,-5.924,0,0
65719,0.136,-0.044,1.024,18.527,3.542,2.74,0,0
65779,0.037,0,1.064,39.427,10.275,7.366,0,0
65841,0.145,-0.363,1.552,68.267,3.191,4,0,0
65901,0.057,0.116,0.912,0.008,1.718,-0.817,0,0
65961,0.286,0.076,1.161,-10.427,-2.321,-7.29,0,0
66023,-0.003,0.153,1.152,-33.122,-15.26,-9.405,0,0
66083,-0.046,0.23,0.978,-34.733,2.969,-33.649,0,0
66138,0.208,0.29,1.202,5.954,7.504,-1.214,73,0
66192,0.503,0.546,1.01,-70.977,-6.427,-3.389,101,0
66253,0.142,-0.335,1.206,9.573,9.71,-40.366,149,0
66312,0.138,0.304,1.083,72.099,-3.885,-19.45,149,0
66370,0.222,0.113,1.137,7.412,-22.588,-25.969,150,0
66430,0.309,0.117,1.108,42.359,-9.328,-11.977,0,0
66535,0.187,0.047,1.013,-148.786,1.802,-24,0,0
66600,0.126,-0.187,1.013,-13.252,11.099,3.397,0,0
66661,0.127,0.05,0.96,-0.672,-0.244,-4.58,0,0
66720,-0.004,-0.042,0.925,-44.603,-10.092,-4.611,0,0
66781,0.216,0.163,1.005,12.824,-17.55,-5.153,0,0
66843,0.144,-0.074,1.008,14.588,-18.634,14.328,0,0
66903,0.235,0.526,0.679,-8.809,-30.153,23.29,0,0
66963,0.198,-0.486,1.151,-70.405,-14.252,10.405,0,0
67022,0.25,0.106,0.831,41.649,-4.221,34.626,0,0
67083,0.174,-0.813,1.296,129.718,15.84,53.855,0,0
67143,0.262,0.354,0.852,16.137,-6.183,31.237,0,0
67203,0.253,-0.087,0.95,-24.214,-6.489,18.267,0,0
67260,0.206,0.035,0.895,4.786,12.107,19.107,146,0
67316,0.306,-0.045,1.109,48.634,17.771,26.26,146,0
67372,0.168,0.14,1.036,11.893,9.962,32.656,146,123
67424,0.197,-0.293,1.112,53.885,5.275,43.328,147,121
67477,0.135,-0.084,0.998,82.725,10.45,62.191,148,119
67532,0.115,0.189,0.966,75.786,18.725,58.351,0,117
67588,0.182,0.461,0.817,1.519,5.267,38.603,0,115
67642,0.139,0.27,0.918,-30.443,3.878,25.191,0,116
67695,0.049,0.103,1.041,-37.595,1.504,40.458,0,73
67751,0.195,0.211,1.015,25.832,4.221,35.282,0,72
67803,0.106,0.245,0.992,13.557,-1.855,25.84,0,57
67858,-0.557,0.773,0.874,-48.466,-17.802,17.282,0,57
67913,0.263,0.075,1.059,-51.603,-14.733,17.718,0,60
67965,0.12,0.15,1.12,30.122,-8.137,8.786,0,60
68022,0.23,0.366,0.854,-12.863,-13.061,0.763,0,64
68074,0.205,-0.054,1.124,-6.084,-3.122,11.641,0,62
68130,0.228,0.384,0.766,-25.458,-7.58,2.573,0,73
68185,0.211,-0.002,1.006,-93.908,-4.351,5.008,0,108
68240,0.241,-0.102,0.966,-30.824,-0.137,3.855,0,109
68293,0.259,-0.107,1.009,-37.901,0.565,-22.023,171,110
68349,0.258,-0.082,0.93,51.954,5.099,-14.611,172,110
68405,0.253,0.334,0.774,57.527,-2.031,-8.84,0,111
68460,0.268,-0.007,0.897,0.511,-2.603,-9.313,0,111
68513,0.248,-0.065,0.995,-17.26,4.55,-23.275,170,112
68567,0.244,0.043,0.949,-15.412,4.481,-19.031,170,113
68622,0.267,0.001,0.844,-79.221,14.214,-12.611,0,114
68677,0.295,-0.099,0.951,-63.985,22.237,2.603,0,115
68732,0.239,-0.013,0.819,49.069,30.16,20.809,0,116
68785,0.287,0.119,0.727,-178.321,32.183,5.573,141,117
68845,0.203,-0.691,1.059,-131.954,9.817,5.595,139,0
68900,0.107,-0.444,0.924,66.313,33.122,14.771,0,119
68956,0.01,0.114,0.691,15.725,23.305,17.595,0,118
69008,0.047,-0.407,0.967,-29.275,12.832,10.573,136,119
69060,0.002,-0.741,0.885,-40.397,7.573,27.389,135,119
69112,0.019,-0.483,0.988,97.107,3.137,28.282,135,119
69164,0.023,-0.263,0.966,105.649,6.74,33.26,136,117
69216,0.1,0.307,0.711,24.847,-5.756,5.817,135,116
69267,0.093,-0.541,1.264,-49.214,-7.015,-22.382,135,116
69362,0.066,0.178,0.87,33.748,-2.947,1.366,136,61
69411,-0.061,-0.219,1.067,21.641,11.313,15.046,137,59
69464,-0.01,-0.02,1.029,36.092,14.748,29.031,0,59
69519,0.023,0.268,0.859,92.695,20.626,36.336,0,57
69571,-0.198,-0.146,1.03,44.374,26.053,30.008,0,55
69626,0.056,0.248,1.051,50.802,19.687,38.603,0,55
69679,-0.015,0.261,1.03,10.313,17.557,19.969,0,55
69734,-0.041,0.2,1.019,31,6.832,26.26,0,46
69785,0.004,0.312,0.943,22.229,5.282,18.458,0,47
69839,-0.075,0.288,0.915,-6.153,2.344,16.565,0,47
69895,-0.121,0.383,0.896,-21.191,-9.931,39.321,0,46
69946,0.005,0.179,1.115,-41.725,-21.817,58.603,0,47
70002,0.046,0.002,1.162,61.359,-11.435,90.122,0,49
70053,0.118,0.421,1.056,109.435,-19.702,106.901,0,50
70110,0.297,0.599,0.951,105.473,-25.55,132.893,0,59
70162,0.367,0.692,0.862,38.427,-32.221,139.679,0,66
70226,0.449,0.525,0.964,-23.618,-45.748,125.191,0,0
70279,0.366,0.261,0.965,24.954,-61.87,127.084,0,52
70333,0.47,0.26,0.796,95.298,-94.153,108.183,0,52
70389,0.456,0.236,0.598,151.053,-107.427,74.893,0,50
70440,0.414,0.334,0.498,188.198,-114.588,53.344,0,50
70497,0.648,0.48,0.323,174.969,-101.26,61.595,0,50
70539,0.717,0.411,0.267,188.802,-85.962,64.466,24,50
70581,0.812,0.568,0.042,222.237,-67.794,59.763,26,50
70623,0.83,0.887,-0.112,149.878,-54.962,69.053,28,50
70675,0.942,0.461,0.024,99.168,-41.511,67.939,0,58
70733,0.991,0.545,-0.069,107.435,-16.779,52.809,0,110
70792,0.954,0.451,-0.162,55.443,2.374,19.74,0,101
70846,0.919,0.44,-0.304,82.053,15.153,1.359,0,91
70900,1,0.282,-0.108,-42.794,36.412,-22.496,0,95
70944,0.915,0.356,-0.12,132.389,58.282,-32.824,30,72
70996,0.905,1.103,-0.4,29.374,69.931,-51.733,0,68
71054,0.885,0.415,0.038,-138.031,111.496,-68.298,0,67
71096,0.828,0.495,0.083,-115.42,163.626,-45.679,22,65
71139,0.66,0.449,0.428,-151.87,191.076,-56.397,22,64
71181,0.281,0.515,0.276,-117.244,158.763,-47.359,23,62
71237,0.306,0.349,0.892,-47.023,115.466,-1.038,0,60
71293,0.719,0.196,1.085,-45.061,91.229,-2,0,57
71346,0.404,0.788,0.886,-14.802,66.046,-19.511,0,57
71398,0.323,0.246,0.95,-45.336,20.427,-2.817,0,56
71450,0.564,0.504,0.919,17.214,11.053,54.26,0,55
71502,0.443,0.477,0.799,6.328,9.275,39.282,0,54
71555,0.439,0.393,0.76,0.779,-16.366,7.611,0,54
71607,0.475,0.507,0.785,-12.74,-18.26,12.313,0,54
71659,0.506,0.533,0.737,-33.908,-39.985,5.885,0,54
71714,0.636,0.131,0.938,-36.847,-38.328,-24.565,0,56
71768,0.531,0.191,0.66,147.557,-12.282,42.87,0,55
71820,0.686,0.707,0.443,132.275,1.679,33.534,0,54
71875,0.681,0.864,0.383,-72.786,32.458,4.847,0,55
71928,0.436,-0.297,1.15,-35.481,27.359,3.695,0,55
72024,0.575,0.315,0.722,-73.847,22.855,-15.305,0,55
72079,0.451,0.536,0.772,30.061,15.405,-1.359,0,55
72132,0.473,0.38,0.855,-30.13,3.992,-0.305,0,55
72187,0.345,0.376,0.885,-14.466,-19.13,29.893,0,56
72244,0.647,-0.166,1.014,58.779,-39.626,12.802,0,56
72300,0.711,0.527,0.266,174.794,-8.969,53.115,0,55
72352,0.646,0.671,0.615,-23.924,5.389,-7.397,0,56
72409,0.591,-0.348,0.764,32.496,-3.748,-19.595,0,56
72461,0.595,0.341,0.683,0.885,-7.328,-12.649,0,55
72517,0.613,0.411,0.701,7.908,-0.565,-19.893,0,55
72569,0.492,0.471,0.693,-20.779,-0.87,-13.527,0,55
72626,0.601,0.578,0.764,-29.26,-16.038,-1.748,0,55
72678,0.581,0.277,0.67,-10.092,-23.611,-3.527,0,56
72733,0.612,0.393,0.655,15.641,-18.718,-9.786,0,56
72790,0.696,0.336,0.631,30.939,-10.458,-21.252,0,55
72843,0.612,0.23,0.709,44.282,-5.298,-15.824,0,54
72898,0.654,0.397,0.443,155.847,15.664,3.29,0,53
72941,0.69,0.682,0.604,63.695,-0.053,-32.481,28,53
72983,0.705,0.879,0.454,44.84,-0.229,-6.573,27,52
73026,0.682,1.023,0.453,-65.656,-16.74,-31.015,30,51
73078,0.634,0.422,0.686,-71.985,-11.824,-24.992,0,51
73134,0.48,0.659,0.494,53.16,-29.366,-1.374,0,50
73181,0.673,0.698,0.399,-36.863,-31.71,-0.427,43,50
73233,0.596,0.417,0.582,14.359,-24.107,7.214,0,50
73288,0.541,0.727,0.382,24.321,-16.832,20.893,0,50
73331,0.643,0.802,0.342,77.771,-15.802,14.282,30,49
73373,0.667,0.725,0.334,31.847,-17.275,32.458,30,48
73416,0.651,0.621,0.277,47.069,-34.397,3.137,31,47
73464,0.661,0.775,0.333,-0.137,-12.595,-20.718,30,47
73505,0.59,0.723,0.371,9.389,-24.412,-26.153,30,47
73546,0.732,0.883,0.378,-14.115,-19.305,-18.84,30,46
73590,0.765,0.581,0.317,-3.298,-10.29,-21.458,29,46
73632,0.688,0.596,0.306,74.069,-17.42,-15.649,30,45
73673,0.73,0.98,0.294,56.145,-23.931,-14,33,45
73715,0.676,0.487,0.369,35.947,-20.252,4.901,36,45
73756,0.728,0.786,0.276,96.58,-23.374,27.153,30,44
73797,0.682,1.02,0.124,24.229,-24.275,20.382,32,42
73839,0.738,0.843,0.156,-30.015,-22.916,11.015,36,41
73880,0.698,0.586,0.186,10.237,-27.794,9.87,34,41
73922,0.693,0.819,0.117,39.321,-27.817,23.328,35,50
73966,0.698,0.886,0.026,-18.71,-24.611,23.504,34,41
74008,0.702,0.815,0.024,-57.84,-20.924,23.687,37,50
74049,0.626,0.472,0.137,-27.458,-19.29,26.58,34,41
74091,0.625,0.745,-0.025,10.985,-26.244,28.229,37,51
74142,0.672,0.858,-0.021,-52.229,-25.466,16.733,0,52
74198,0.683,0.49,0.139,-29.427,-17.855,13.527,0,53
74241,0.778,1.027,0.034,-58.008,-5.382,16.603,33,57
74283,0.728,0.686,0.094,-116.679,0.725,12.931,33,57
74324,0.706,0.434,0.171,-55.893,1.588,9.916,31,57
74370,0.694,0.629,0.007,-19.672,7.328,-8.763,31,57
74455,0.615,0.375,0.106,3.748,13.496,-60.359,31,60
74498,0.535,0.711,0.068,16.16,3.55,-86.618,35,64
74543,0.627,0.687,0.195,3.55,-13.802,-100.382,34,108
74588,0.503,0.776,0.175,59.145,-28.427,-100.031,37,108
74637,0.457,1.054,0.108,41.458,-56.725,-87.748,43,166
74689,0.502,0.955,0.112,26.229,-82.489,-78.557,44,0
74735,0.517,1.277,-0.073,-16.26,-96.832,-54.427,139,18
74781,0.413,0.972,-0.03,-9.939,-83.267,-42.954,139,14
74830,0.474,1.02,-0.064,8.725,-70.947,-28.924,139,16
74876,0.418,1.004,-0.099,14.13,-77.221,-13.542,140,16
74923,0.417,0.988,-0.185,20.672,-78.656,-15.618,139,16
74969,0.387,1.094,-0.186,-44.038,-49.771,-14.977,139,15
75015,0.314,0.922,-0.05,-73.206,-27.42,-8.603,138,16
75061,0.32,0.902,0.1,-80.344,-9.58,-18.45,139,16
75107,0.301,0.91,0.174,-90.779,6.145,-31.237,138,17
75153,0.344,1.476,-0.063,-250.137,26.878,-53.168,137,16
75199,0.289,0.669,0.251,-250.137,58.405,-79.748,138,21
75254,0.204,0.874,0.421,-250.137,123.618,-55.061,0,64
75311,-0.128,0.618,0.485,-250.137,118.046,-70.756,0,60
75363,-0.231,-0.281,1.082,-250.137,64.435,-72.527,0,65
75419,-0.257,-0.112,1.1,-160.344,56.374,-9.061,0,66
75480,-0.293,-0.124,0.813,-210.466,46.771,-59.092,0,0
75540,-0.354,-0.648,0.796,-214.031,44.115,-34.382,0,0
75600,-0.365,-0.589,0.735,-136.573,50.962,-17.42,0,0
75661,-0.351,-0.65,0.688,-142.664,42.557,-8.13,0,0
75724,-0.271,-0.777,0.642,-81.939,28.885,-1.145,0,0
75785,-0.202,-0.745,0.564,-45.55,21.725,-9.29,0,0
75844,-0.222,-0.736,0.616,-17.244,7.794,-3.733,0,0
75905,-0.206,-0.796,0.605,-6.534,-9.168,1.847,0,0
75965,-0.179,-0.854,0.549,24.718,-25.71,3,0,0
76025,-0.176,-1.039,0.579,88.794,-47.237,-34.817,0,0
76086,-0.173,-0.878,0.627,180.282,-43.458,-57.756,0,0
76146,-0.111,-0.565,0.774,159.962,-63.252,-46.519,0,0
76207,0.018,-0.478,0.832,250.13,-57.13,-33.252,0,0
76270,-0.11,0.156,0.753,246.412,-36.42,11.962,0,200
76331,0.024,0.465,0.876,147.466,-42,9.137,0,199
76391,0.025,-0.01,1.076,162.305,-37.374,-0.366,0,0
76451,0.106,0.281,0.805,250.13,-26.595,21.015,0,0
76512,0.122,0.759,0.543,241.328,-43.328,15.641,0,0
76562,0.21,1.111,0.353,207,-39.107,20.023,0,22
76615,0.31,1.036,0.395,119.305,-19.55,10.092,0,20
76662,0.292,0.92,0.268,116.595,2.023,14.985,136,18
76708,0.238,1.069,0.19,89.779,2.092,13.267,136,18
76758,0.254,0.88,0.274,90.298,-1.115,15.656,137,18
76804,0.28,0.973,0.165,139.328,7.603,18.443,137,16
76850,0.213,1.14,-0.043,137.748,19.824,18.458,138,16
76896,0.202,1.215,-0.153,62.008,32.405,12.924,138,16
76943,0.22,1.023,-0.117,21.626,47.771,13.458,137,16
76989,0.21,0.852,-0.081,22.328,52.473,14.092,137,18
77035,0.286,1.167,-0.289,54.695,48.565,32.939,137,17
77124,0.486,0.944,-0.261,-250.137,122.87,0.374,135,19
77166,0.337,0.63,0.04,-250.137,137.069,35.275,51,22
77231,0.295,0.75,0.307,-250.137,96,45.481,0,0
77291,0.225,0.624,0.669,-233.763,72.786,65.954,0,0
77351,0.217,0.459,0.811,-244.527,55.053,82.511,0,0
77412,0.188,-0.106,0.852,-250.137,14.71,46.656,0,0
77472,-0.013,-0.541,1.147,-123.084,-6.74,86.084,0,0
77533,0.139,-0.282,1.064,-53.863,-15.618,79.832,0,0
77586,0.116,-0.534,1.045,-31,-24.763,35.145,154,120
77642,0.08,-0.392,0.978,8.107,-32.748,14.42,0,119
77691,0.216,-0.397,0.929,4.298,-35.435,-8,74,119
77750,0.242,-0.322,0.86,26.679,-25.137,-19.962,0,118
77805,0.269,-0.18,0.846,12.107,-11.885,-18.847,177,119
77861,0.298,-0.127,0.868,-6.611,3.16,-7.855,0,118
77916,0.287,-0.149,0.859,-16.565,6.916,-4.45,190,106
77971,0.296,-0.258,0.922,-13.557,4.962,-1.893,0,106
78025,0.316,-0.156,0.856,-12.252,7.74,-11.023,172,120
78082,0.288,-0.299,0.958,-14.275,13.115,-19.855,0,120
78134,0.279,-0.199,0.885,-16.435,11.099,-22.779,0,38
78188,0.268,-0.398,0.972,1.641,11.58,-36.031,0,37
78243,0.307,-0.322,0.96,13.481,19.557,-45.748,0,39
78298,0.214,-0.448,0.968,67.336,27.084,-70.176,0,38
78350,0.073,-0.415,0.81,192.374,9.878,-118.725,0,37
78404,0.139,0.092,0.759,176.626,5.641,-113.458,0,39
78456,0.192,0.373,0.768,158.855,3,-102.206,0,37
78512,0.314,0.565,0.829,84.802,18.885,-86.267,0,46
78564,0.257,0.568,0.838,27.107,24.962,-65.321,0,46
78619,0.319,0.361,0.979,-3.458,24.046,-42.756,0,43
78670,0.169,0.437,0.9,55.504,24.847,-20.985,0,44
78726,0.109,0.344,0.945,60.74,12.008,-24.443,0,45
78781,0.116,0.499,0.742,109.886,8.977,-14.221,0,50
78833,0.073,0.949,0.615,65.481,-23.061,-25.985,0,50
78898,0.047,0.74,0.72,42.046,-42.679,-30.046,0,0
78959,0.064,0.794,0.598,27.084,-39.305,8.328,0,0
79014,0.047,0.975,0.659,14.679,-45.244,-8.802,51,0
79067,0.105,0.861,0.71,33.328,-46.618,-40.519,48,0
79120,0.132,0.85,0.611,36.763,-49.313,-13.458,149,120
79167,0.219,1.043,0.638,34.351,-51.603,-7.924,46,119
79223,0.199,1.021,0.589,86.565,-45.603,-3.244,147,118
79277,0.117,1.185,0.392,20.595,-44.344,9.069,146,119
79325,0.208,0.682,0.572,-23.672,-48.527,24.008,50,122
79372,0.221,0.792,0.477,40.656,-47.389,21.901,44,122
79420,0.139,0.903,0.411,-3.42,-53.504,8.321,43,124
79467,0.107,0.868,0.453,-33.389,-60.275,-15.031,43,125
79515,0.135,0.728,0.488,-13.885,-63.107,-18.786,41,125
79562,0.208,0.898,0.369,-0.298,-69.565,-18.443,40,125
79612,0.213,1.022,0.347,-33.069,-83.275,-42.458,40,124
79661,0.146,0.934,0.341,24.405,-93.534,-39.29,40,124
79708,0.178,1.29,0.088,-20.641,-104.031,-30.008,43,124
79756,0.295,1.131,0.101,-122.641,-105.229,-62.198,43,126
79850,0.175,1.027,0.405,-82.962,-57.71,-85.939,44,0
79906,0.248,0.898,0.508,-154.74,-33.779,-109.672,46,0
79959,0.142,0.549,0.775,-167.611,-24.13,-114.893,51,0
80020,0.013,0.596,0.858,-122.534,-18.214,-120.092,0,0
80076,-0.027,0.499,0.913,-40.634,-37.137,-111.321,49,0
80132,0.084,0.744,0.794,-30.58,-51.328,-121.122,49,118
80191,0.117,0.552,0.935,-43.725,-45.618,-120.031,0,0
80251,0.06,0.667,0.862,-44.45,-27.74,-100.733,0,0
80304,0.113,0.484,0.818,-97.389,-13.885,-90.672,164,98
80356,0.219,0.325,0.891,-65.58,5.847,-73.557,165,97
80407,0.192,0.401,0.821,-44.863,0.275,-41.649,166,96
80459,0.152,0.346,0.762,-43.817,-24.29,-26.321,166,96
80512,0.034,0.206,0.749,-37.695,-40.618,-11.092,166,96
80564,0.047,0.175,0.844,-13.115,-31.099,0.664,166,96
80619,0.223,0.134,1.014,-15.962,-8.779,-9.863,166,96
80671,0.336,0.382,1.108,-49.649,31.824,-11.099,165,97
80719,0.184,-0.029,1.117,-68.031,42.023,-11.351,85,97
80766,-0.024,0.118,0.959,-107.969,25.008,0.534,82,98
80818,-0.122,-0.213,0.948,-140.908,-2.893,-2.046,84,170
80869,-0.007,-0.58,1.095,-68.809,-28.786,15.87,83,161
80920,0.019,-0.428,0.992,-28.504,-35.557,23.122,77,158
80970,0.069,-0.504,1.073,30.435,-40.443,25.145,76,150
81025,0.044,-0.271,1.091,74.969,-42.466,11.198,82,167
81072,-0.1,-0.272,1.032,88.924,-46.023,-13.611,76,102
81119,-0.013,-0.223,1.007,154.305,-44.924,-3.809,78,92
81166,-0.014,0.197,0.869,178.374,-31.924,-19.137,79,88
81212,-0.04,0.36,0.823,147.794,-16.542,-36.221,82,85
81259,-0.038,0.319,0.807,175.672,-8.481,-15.908,85,85
81306,0.015,0.716,0.571,186.435,9.076,-18.527,87,82
81353,0.021,0.731,0.588,114.046,6.618,-25.718,90,89
81406,0.11,0.859,0.685,74.145,0.977,-32.527,0,85
81470,0.029,0.554,0.861,51.802,-0.733,-39.176,0,0
81525,0.113,0.864,0.756,95.626,-2.145,-6.756,52,0
81576,0.12,1.096,0.634,11.473,-22.275,-8.275,53,0
81637,0.1,1.078,0.807,-63.305,-32.908,-15.115,0,0
81690,0.051,0.999,0.851,3.389,-32.496,-4.328,0,76
81746,0.108,1.385,0.616,-140.252,-27.931,-6.618,0,71
81799,0.208,0.711,0.888,-192.031,-17.26,-37.023,0,68
81855,0.205,0.515,0.829,-137.908,3.84,0.267,0,59
81907,0.135,0.565,0.652,-248.008,-1.023,28.603,0,61
81964,0.09,-0.061,0.847,-239.611,-25.244,14.374,0,85
82019,0.081,-0.187,0.81,-185.16,-55.832,9.282,0,113
82074,0.132,-0.381,0.777,-137.626,-64.771,0.679,0,117
82124,0.228,-0.579,0.743,-69.489,-66.137,-12.969,80,148
82182,0.257,-0.501,0.727,-27.405,-61.809,-9.656,0,147
82239,0.388,-0.464,0.719,-1.053,-53.206,-14.763,0,148
82299,0.452,-0.412,0.714,-14.435,-38.527,-19.656,0,194
82357,0.425,-0.453,0.867,13.824,-18.023,-18.611,0,145
82416,0.471,-0.343,0.842,4.824,-21.718,0.13,0,191
82477,0.45,-0.401,0.929,29.58,-7.336,-7.412,0,140
82573,0.483,-0.249,0.903,17.252,6.405,0.847,138,135
82629,0.338,-0.18,0.894,34.908,15.992,-3.328,0,131
82681,0.338,-0.199,0.875,44.924,14.748,-1.664,140,130
82735,0.374,-0.192,0.781,55.649,16.351,-3.878,142,130
82788,0.302,-0.211,0.846,83.908,20.947,-12.42,143,128
82841,0.26,-0.044,0.786,124.282,28.58,-3.481,145,127
82894,0.272,0.136,0.819,101.519,26.351,-18.336,147,124
82948,0.293,0.135,0.956,97.519,28.183,-21.206,147,125
83003,0.274,0.334,0.972,85.099,40.779,-14.863,147,121
83059,0.248,0.32,1.078,70.031,47.466,-26.206,0,124
83116,0.129,0.427,1.091,94.939,44.305,-28.412,0,126
83172,0.112,0.6,1.038,77.718,39.74,-38.076,0,128
83228,0.065,0.43,0.891,101.832,39.252,-22.046,0,135
83287,0.153,0.691,0.767,65.359,37,-5.519,0,156
83343,0.038,0.438,0.864,-13.305,47.344,-12.504,0,129
83399,0.121,0.548,0.921,25.496,89.13,13.511,0,130
83459,0.05,0.707,0.784,-54.328,107.198,20.771,0,134
83516,-0.013,0.587,0.828,-104,120.023,59.183,0,133
83574,-0.161,0.526,0.747,-156.511,102.344,83.603,0,164
83631,-0.178,0.252,0.89,-90.26,105.847,122.244,0,133
83691,-0.252,0.564,0.722,-60.481,110.649,146.412,0,0
83751,-0.402,0.543,0.742,-102.328,89.107,143.695,0,0
83813,-0.493,0.53,0.776,-80.763,82.237,163.42,0,0
83873,-0.59,0.618,0.787,-72.863,67.962,144.42,0,0
83934,-0.626,0.6,0.763,-73.557,59.748,135.664,0,0
84019,-0.74,0.725,0.883,-84.84,14.832,81.061,0,0
84081,-0.619,0.471,0.821,-6.008,-15.618,67.786,0,0
84144,-0.398,0.596,0.623,14.481,-9.87,67.42,0,0
84207,-0.255,0.498,0.642,-8.878,-3.275,60.099,0,0
84270,-0.237,0.533,0.71,-14.344,19.13,79.504,0,0
84333,-0.364,0.729,0.828,-26.542,30.916,52.382,0,0
84396,-0.383,0.514,0.997,-12.053,25.588,36,0,0
84459,-0.341,0.461,0.894,-14.168,19.863,37.947,0,0
84521,-0.184,0.377,1.003,-48.534,21.656,56.137,0,0
84588,-0.401,0.274,1.004,-40.916,9.214,63.176,0,0
84651,-0.248,0.375,0.837,-12.618,10.137,77.466,0,0
84711,-0.218,0.322,0.722,-43.664,5.366,77.344,152,0
84773,-0.158,0.199,0.906,-38.924,11.168,74.351,0,0
84830,-0.169,0.297,1.066,-24.824,37.962,75.557,0,78
84893,-0.229,0.223,0.974,-68.061,23.214,83.954,0,0
84952,-0.177,0.199,0.91,-68.176,-11.885,73.71,0,124
85015,-0.201,0.068,0.978,-30.992,-45.321,55.511,0,0
85078,-0.242,0.226,0.881,34.076,-39.458,69.557,0,0
85144,-0.051,0.464,1.04,73.511,9.511,47.328,0,0
85199,-0.508,0.493,1.013,23.458,31.534,42.534,0,67
85254,-0.347,0.5,1.022,-10.985,45.038,57.74,0,43
85308,-0.251,0.426,0.962,-49.824,47.916,57.038,0,43
85361,-0.203,0.202,0.927,-88.29,37.42,51.954,199,41
85415,-0.309,0.073,0.899,-106.473,7.763,42.634,197,40
85469,-0.331,0.07,0.849,-88.122,-25.55,21.634,195,39
85562,-0.201,-0.002,1.016,-75.779,-46.985,-7.603,115,49
85612,-0.22,-0.222,1.156,-62.115,-32.679,-32.298,121,50
85665,-0.184,-0.092,1.127,-28.443,-9.542,-35.725,124,44
85714,-0.17,-0.188,1.159,-34.183,6.672,-57.527,124,44
85765,-0.192,-0.129,1.043,-15.527,3.504,-44.305,129,43
85819,-0.242,-0.175,0.96,-33.282,-11.855,-39.748,0,40
85873,-0.173,-0.225,0.892,0.824,-19.183,-44.542,0,42
85927,-0.135,-0.255,0.803,9.832,-19.107,-50.672,0,38
85981,-0.047,-0.228,0.743,7.328,-15.336,-51.42,0,36
86031,0.023,-0.35,0.759,8.382,-9.397,-64.748,54,112
86080,0.091,-0.414,0.824,34.626,-11.244,-75.282,52,108
86133,0.124,-0.396,0.89,74.733,-22.733,-81.947,55,102
86182,0.001,-0.098,0.996,75.534,-34.573,-101.649,59,97
86231,-0.078,-0.053,1.063,95.931,-42.748,-105.382,57,92
86280,0.036,0.123,1.081,114.191,-30.008,-77.794,62,88
86336,0.038,0.431,1.038,121.725,-2.145,-84.267,0,83
86392,-0.052,0.565,0.918,69.298,-2.992,-85.901,0,80
86448,-0.062,0.419,1.014,102.664,0.053,-90.191,0,58
86503,-0.096,0.614,0.798,156.557,-11.282,-74.115,0,53
86557,0.173,0.718,0.774,94.122,-31.511,-56.26,0,52
86616,0.261,0.68,0.816,23.29,-42.046,-39.878,0,52
86671,0.068,0.617,0.718,70.183,-66.26,-4.664,0,51
86725,0.172,0.997,0.463,63.634,-77.122,23.969,0,51
86771,0.221,0.878,0.523,23.725,-71.481,1.901,43,52
86817,0.238,0.934,0.543,25.817,-55.672,-20.298,44,52
86862,0.272,0.99,0.607,15.321,-40.229,-38.626,44,53
86908,0.182,0.96,0.628,48.519,-23.58,-53.511,45,55
86955,0.127,0.853,0.559,57.458,-29.099,-18.244,46,57
87007,0.227,0.933,0.555,37.489,-38.282,-4.153,147,58
87062,0.124,0.826,0.564,15.351,-14.42,-0.786,51,60
87107,0.134,0.776,0.518,11.779,-5.252,6.42,48,61
87153,0.133,0.627,0.504,12.969,-14.916,7.237,49,62
87198,0.259,0.665,0.438,52.206,-32.496,29.321,47,63
87247,0.419,0.822,0.378,38.122,-34.908,38.901,48,120
87297,0.484,0.717,0.434,2.641,-25.053,41.153,44,122
87342,0.494,0.841,0.333,14.298,-18.908,61.084,45,62
87387,0.469,0.919,0.292,24.29,-18.298,49.397,45,61
87439,0.45,0.924,0.28,24.779,-11.244,44.206,159,61
87494,0.387,1.131,0.24,47.679,-11.504,-0.328,159,63
87546,0.372,1.201,0.187,18.489,-4.053,8.511,160,62
87599,0.371,1.07,0.258,-36.473,2,-11.931,154,61
87644,0.332,0.899,0.34,-1.435,18.878,-8.763,42,60
87696,0.264,0.879,0.223,-31.779,29.771,4.328,159,61
87741,0.308,0.657,0.232,-61.305,25.061,13.382,50,60
87787,0.376,0.68,0.266,-54.397,27.008,14.634,41,60
87832,0.438,0.808,0.347,-57.656,25.74,19.573,40,60
87883,0.415,0.955,0.406,-72.107,16.626,17.992,162,59
87926,0.415,0.861,0.49,-47.321,-4.603,14.389,41,59
87971,0.521,0.961,0.493,-11.046,-13.611,-6.252,38,61
88026,0.591,0.954,0.539,-24.55,-12.954,-25.435,51,0
88115,0.495,0.885,0.536,-60.252,-0.534,-22.481,39,65
88160,0.4,0.756,0.661,-90.603,8.618,-1.84,39,63
88205,0.294,0.588,0.686,-80.687,19.496,17.221,38,64
88250,0.272,0.549,0.628,-71.137,24.053,32.924,37,65
88296,0.243,0.497,0.612,-81.382,21.863,25.229,38,68
88343,0.284,0.392,0.671,-71.725,16.511,27.122,37,37
88386,0.399,0.4,0.728,-63.015,20.87,34.115,38,34
88430,0.449,0.474,0.718,-96.595,31.504,37.977,36,31
88473,0.487,0.263,0.82,-137.863,36.748,48.611,38,31
88516,0.517,0.196,0.986,-131.458,43.771,53.595,37,29
88560,0.395,0.195,0.983,-107.168,41.718,46.832,36,29
88605,0.364,0.016,1.108,-97,30.237,67.214,69,29
88657,0.366,0.261,1.049,-92.26,36.435,60.832,0,28
88711,0.217,-0.071,1.045,-106.908,33.687,54.519,0,30
88766,0.221,0.052,1.018,-62.466,46.107,63.534,0,31
88820,-0.042,0.044,0.87,-83.931,39.847,54.527,0,39
88872,-0.016,-0.292,0.797,-86.641,11.725,70.229,0,33
88939,0.083,-0.251,0.731,-74.359,0.382,58.901,0,0
88993,0.041,-0.405,0.851,-14.473,-12.656,31.008,58,0
89056,0.09,-0.435,0.881,2.275,-25.779,23.916,0,0
89118,0.13,-0.496,0.958,23.351,-25.725,6.74,0,0
89182,0.177,-0.395,1.04,40.206,-7.901,7.336,0,0
89236,0.057,-0.411,1.132,47.969,3.282,-25.382,57,0
89298,0.054,-0.424,0.978,128.29,-6.924,-11.939,0,0
89355,0.046,0.063,0.806,121.527,-13.55,-6.481,63,0
89415,0.174,-0.017,0.917,105.87,-14.847,-6.275,0,169
89473,0.116,0.166,0.84,107.473,13.519,13.29,0,112
89531,0.151,0.253,0.867,91.496,23.137,12.992,0,108
89586,0.233,0.248,0.879,73.893,39.756,29.878,0,73
89641,0.281,0.242,1,31.366,39.74,55.015,0,70
89695,0.33,0.281,1.096,25.565,33.893,81.328,0,51
89749,0.073,0.583,1.119,11.809,14.702,95.763,0,46
89802,0.184,0.395,1.26,17.611,-5.824,101.618,0,38
89859,-0.015,0.532,1.183,49.962,12.305,67.382,0,33
89916,0.019,0.476,1.11,13.504,3.695,63.588,0,46
89978,-0.098,0.397,0.912,13.015,7.664,34.649,0,0
90042,-0.126,0.187,0.851,0.924,-12.481,2.786,0,0
90099,-0.049,0.117,0.786,13.557,-24.481,-18.672,0,120
90158,0.044,0.261,0.83,-10.473,-31.298,-45.924,0,121
90216,-0.016,0.179,0.879,-21.603,-47.405,-60.588,0,114
90273,-0.039,0.301,1.026,-9.595,-39.664,-79.069,0,107
90331,-0.067,0.386,1.118,-19.298,6,-84.504,0,101
90390,-0.095,0.593,1.166,-50.634,53.855,-109.206,0,87
90445,-0.242,0.404,1.033,-62.641,64.511,-124.336,0,72
90502,-0.2,0.33,1.019,-22.939,37.29,-103.886,0,75
90550,-0.15,0.33,0.821,15.221,18.458,-100.153,116,29
90598,-0.116,0.355,0.679,19.015,3.382,-99.702,115,25
90646,-0.133,0.283,0.708,4.603,-13.84,-95.656,117,28
90695,-0.034,0.208,0.812,25.756,-23.618,-91.298,118,55
90745,0.09,0.284,1.001,23.626,-27.13,-88.26,119,52
90842,0.166,0.363,1.207,17.527,-44.84,-40.244,120,51
90891,0.066,0.391,1.153,0.573,-43.664,-13.389,121,51
90941,0.096,0.404,1.243,24.893,-25.206,5.794,121,51
90991,-0.077,0.489,1.036,33.427,-1.534,3.496,121,51
91040,-0.091,0.439,0.958,0.344,-3.878,17.305,121,53
91090,-0.063,0.376,0.934,-9.534,5.405,12.855,119,57
91141,-0.143,0.284,0.887,6.023,9.527,20.366,118,63
91199,-0.036,0.236,0.736,26.641,9.74,30.611,118,0
91257,0.028,0.283,0.726,-11.168,6.962,38.366,116,0
91318,0.032,0.335,0.898,-33.748,7.626,41.16,114,0
91376,-0.132,0.364,1.035,-70.176,11.824,34.992,113,0
91433,-0.188,0.232,1.117,-46.374,30,13.855,111,0
91492,-0.14,0.263,1.063,-7.565,42.74,-6.313,109,0
91549,-0.232,0.425,1.051,35.137,59.511,-33.885,107,0
91608,-0.115,0.122,1.059,17.359,3.519,-31.16,105,0
91665,-0.146,0.195,0.986,43.115,-17.153,-5.977,102,0
91722,-0.147,0.207,0.888,35.168,-31.527,1.366,103,0
91780,-0.132,0.201,0.83,38.55,-26.87,6.26,101,0
91840,-0.051,0.15,0.868,19.664,-16.321,11.588,100,0
91897,0.031,0.147,0.975,-7.435,3.298,17.809,97,0
91955,-0.062,0.155,1,-50.924,-0.679,29.046,96,0
92011,-0.023,0.204,1.1,-15.42,-8.649,18.244,97,0
92068,-0.119,0.37,1.102,13.893,-6.405,16.55,100,0
92127,-0.101,0.521,1.149,42.198,14.603,-13.603,105,0
92184,-0.143,0.398,1.025,24.26,5.748,0.359,106,0
92241,-0.095,0.494,0.946,4.901,18.786,1.763,106,0
92300,-0.175,0.362,0.912,-22.542,12.611,1.534,106,0
92360,-0.087,0.236,0.799,3.282,-2.069,12.962,105,0
92419,-0.085,0.41,0.789,-25.221,-16.481,12.092,105,0
92476,-0.114,0.345,0.885,-40.618,-26.191,7.733,103,0
92533,-0.155,0.39,1.023,-36.351,-34.206,-6.618,98,0
92591,-0.176,0.335,1.052,-8.176,-22.328,-26.458,93,0
92647,-0.062,0.392,1.115,3.649,-2.718,-44.779,90,0
92704,-0.157,0.276,1.037,2.466,18.061,-66.718,89,0
92761,-0.048,0.058,1.093,18.443,-7.42,-32.931,89,0
92818,-0.059,0.208,0.921,25.221,-4.214,-10.008,88,0
92877,-0.07,0.207,0.781,3.924,-8.824,-9.115,87,0
92935,0.024,0.142,0.802,5.382,-12.183,-7.397,87,0
92991,0.103,0.191,0.877,8.863,-2.397,1.527,86,0
93045,0.072,0.289,0.927,-30.084,-3.26,11.305,59,185
93096,0.131,0.098,1.031,-18.061,-17.992,18.672,58,136
93150,0.082,0.299,1.092,13.527,-19.252,27.992,51,183
93205,-0.074,0.276,1.097,10.58,-21.038,32.802,58,0
93256,0.061,0.312,1.185,49.649,0.863,23.916,54,131
93307,-0.065,0.404,1.018,31.26,12.863,25.076,54,132
93363,-0.009,0.433,0.991,2.038,16.122,21.954,86,120
93414,-0.019,0.406,0.921,-4.282,22.794,13.588,86,115
93466,-0.099,0.322,0.799,1.511,16.42,7.702,86,113
93517,0.019,0.28,0.741,4,0.305,11.679,84,110
93569,-0.004,0.423,0.774,-15.527,-4.916,11.794,84,111
93662,0.008,0.412,1.001,-36.771,-14.855,7.847,86,80
93712,-0.004,0.371,1.09,-30.237,-11.962,-13.023,86,77
93761,0.004,0.428,1.12,-0.504,-0.45,-32.427,89,76
93811,0.034,0.385,1.156,1.489,9.618,-34.534,90,75
93864,0.001,0.266,1.034,18.893,22.084,-38.969,89,75
93914,0.071,0.14,0.9,4.87,0.427,-16.351,88,75
93967,0.046,0.239,0.949,1.023,-1.519,6.298,86,64
94015,-0.014,0.279,0.931,2.87,6.031,17.206,85,64
94063,-0.04,0.264,0.926,-1.389,3.687,20.634,84,64
94110,-0.024,0.188,0.908,3.901,-1.878,26.328,83,64
94158,0.057,0.23,0.862,8.443,-2.328,25.847,82,66
94205,0.083,0.244,0.913,-12.115,-3.863,18.107,80,67
94252,0.097,0.172,0.952,-8.878,-9.664,24.969,60,57
94301,0.154,0.281,1,-15.519,-12.252,31.756,60,69
94348,0.047,0.353,1.073,-22.023,-12.42,30.489,66,69
94396,0.054,0.213,1.095,-4.466,-21.916,40.893,64,75
94443,0.1,0.368,1.104,12.198,-16.031,38.58,65,79
94492,0.046,0.389,1.142,1.45,-10.725,30.023,66,111
94541,0,0.411,1.13,9.916,-2.351,36.122,65,107
94590,-0.082,0.373,1.045,-13.87,-9.099,37.397,66,105
94640,-0.04,0.279,1.045,-8.756,-13.779,36.74,67,103
94689,-0.06,0.342,0.937,-5.863,-11.885,42.908,60,102
94740,-0.051,0.295,0.925,-25.153,-15.382,39.977,58,102
94789,-0.024,0.235,0.942,-12.191,-14.748,39.038,56,102
94837,-0.011,0.268,0.916,-5.344,-10.771,36.71,53,102
94885,-0.011,0.263,0.962,-16.565,-6.611,32.405,52,103
94934,-0.02,0.26,1.018,-0.427,-0.13,24.489,51,103
94982,0.063,0.215,0.986,4.565,3.504,17.832,50,104
95030,0.098,0.176,0.974,-2.092,9.824,6.443,49,105
95079,0.093,0.146,0.973,-1.214,10.42,6.901,49,106
95127,0.15,0.188,0.932,-3.718,19.412,3.321,47,107
95178,0.163,0.13,0.937,-24.458,22.107,-6.198,47,108
95226,0.157,0.067,0.98,-23.031,19.45,-7.092,46,109
95275,0.161,0.076,0.957,-19.351,15.214,-5.427,44,110
95323,0.161,0.071,0.986,-21.305,16.71,-7.542,44,111
95372,0.164,0.004,1.02,-9.679,17.588,-3.802,43,112
95420,0.189,0.001,1.029,-3.473,17.298,-3.603,39,113
95468,0.146,-0.036,1.037,-7.229,10.573,-3.924,37,114
95516,0.118,-0.054,1.028,-0.534,0.382,-2.084,36,115
95564,0.091,-0.002,1.01,-0.786,-5.771,-2.588,36,115
95616,0.096,-0.021,1,0.397,-7.557,-6.443,38,115
95664,0.15,0.036,0.98,3.885,-2.298,-3.076,39,116
95713,0.172,0.004,0.997,-4.702,1.489,-2.267,45,116
95761,0.15,0.027,1.024,0.092,3.718,0.542,38,116
95809,0.131,0.05,1.003,-3.847,4.71,2.702,37,116
95857,0.097,0.017,1.01,-0.183,0.748,4.893,37,116
95906,0.098,0.032,0.991,3.023,-2.198,6.771,45,116
95954,0.113,0.019,0.996,-1.374,0.664,7.847,39,117
96004,0.124,0.01,1.018,0.939,5.779,7.298,44,117
96055,0.096,0.028,1.009,-1.832,7.702,8.397,43,117
96147,0.102,0.029,1.009,-0.588,5.038,4.84,46,118
96195,0.095,0.043,1.044,2.534,5.176,3.756,36,117
96244,0.085,0.05,1.037,-0.137,3.58,7.038,36,118
96292,0.072,0.036,1.029,-1.992,-1.473,10.45,44,118
96342,0.068,0.038,1.007,1.435,-5.405,8.229,45,118
96391,0.056,0.01,0.99,5.893,-8.435,7.473,39,118
96439,0.079,0.021,0.979,5.489,-6.389,6.412,38,119
96488,0.072,0.02,1.012,4.145,0.885,6.198,44,119
96536,0.065,0.036,1.034,2.16,2.565,4.015,44,119
96588,0.093,0.045,1.036,1.099,3.031,-1.664,45,118
96637,0.103,0.047,1.024,1.176,0.061,0.191,47,118
96687,0.124,0.044,1.018,-2.924,-0.824,0.015,46,119
96736,0.084,0.028,0.992,-0.618,-4.015,1.473,46,118
96785,0.108,0.06,0.991,0.496,-2.634,0.45,43,119
96833,0.086,0.036,1.007,0.031,0.427,-1.71,43,119
96882,0.116,0.045,1.007,2.679,0.313,-0.763,45,119
96931,0.118,0.021,1.012,0.076,0.405,-1.122,44,118
96980,0.101,0.06,1.024,1.458,-1.748,-1.023,44,118
97033,0.117,0.04,1.012,3.275,-4.748,2.244,44,119
97082,0.112,0.043,1.005,-0.771,-0.809,0.45,44,119
97131,0.121,0.044,1.02,1.832,-0.71,0.573,44,119
97179,0.109,0.044,1.006,-1.519,-1.84,-1.87,43,118
97228,0.115,0.057,1.016,0.13,-1.45,-1.336,44,119
97277,0.125,0.038,1.011,0.351,-1.947,2.435,44,119
97327,0.125,0.059,1,-1.443,0.481,1.863,44,119
97376,0.105,0.029,1.003,4.122,-3.076,4.336,44,119
97425,0.113,0.048,0.999,1.672,0.305,1.061,44,118
97477,0.072,0.047,1.014,2.595,1.87,2.267,38,118
97526,0.074,0.03,0.985,8.29,-0.038,-0.275,44,119
97574,0.09,0.046,0.983,10.053,-0.565,-2.504,39,119
97624,0.152,0.07,0.97,13.466,3.122,1.473,38,118
97673,0.161,0.099,1.008,9.626,5.328,4.519,45,118
97722,0.104,0.113,1.052,8.649,-0.244,6.931,45,118
97771,0.085,0.104,1.028,9.328,-7.618,8.214,37,119
97819,0.118,0.135,0.993,7.504,-4.771,9.595,38,119
97868,0.118,0.119,1.034,2.878,-3.237,6.344,37,118
97921,0.097,0.085,1.052,1.366,-6.603,6.802,36,119
97969,0.095,0.065,0.992,7.405,-10.45,10.626,37,119
98018,0.182,0.105,0.946,10.229,-8.321,3.748,37,119
98067,0.155,0.156,0.941,9.595,-5.511,0.618,37,118
98115,0.151,0.153,0.966,10.763,-5.344,7.679,38,119
98165,0.205,0.104,0.984,6.847,-7.053,10.573,48,118
98214,0.206,0.134,1.053,6.397,-2.878,6.511,47,118
98264,0.104,0.146,1.072,10.771,2.786,4.275,49,118
98313,0.129,0.175,0.97,11,9.618,10.359,37,118
98361,0.129,0.149,0.943,-5.771,7.092,5.534,37,118
98413,0.141,0.149,0.987,6.954,3.244,-4.397,37,118
98463,0.184,0.178,0.98,12.26,-1.748,-9.595,51,118
98512,0.219,0.172,1.008,4.595,0,-7.137,44,118
98561,0.17,0.174,1.019,-3.809,-2.313,-0.687,38,118
98654,0.134,0.215,0.994,2.206,-2.374,-0.252,51,118
98704,0.125,0.172,0.955,-1.435,-3.153,-1.29,50,117
98753,0.148,0.179,0.931,3.214,-5.046,-6.458,51,117
98803,0.187,0.184,0.959,5.031,-2.489,-7.145,53,116
98852,0.206,0.204,0.994,7.031,0.473,-3.298,51,116
98906,0.182,0.212,1.035,0.504,0.198,1.611,50,117
98955,0.131,0.203,1.022,2.496,-1.641,6.527,50,116
99004,0.111,0.184,0.987,3.397,-4.427,7.725,51,117
99054,0.153,0.185,0.954,0.924,-3.84,4.29,51,117
99103,0.151,0.164,0.95,2.168,-1.229,-0.885,52,116
99153,0.186,0.203,0.969,7.244,0.885,-2.863,53,117
99204,0.202,0.215,0.988,-0.931,6.122,-1.206,53,117
99253,0.16,0.203,1.009,-2.237,8.351,1.191,53,117
99303,0.133,0.209,1.025,-1.756,2.107,0.618,53,116
99356,0.137,0.205,0.983,-0.901,-0.763,0.366,53,116
99405,0.139,0.197,0.957,-1.267,-0.733,-0.672,50,117
99456,0.167,0.2,0.959,-0.847,1.954,-1.992,49,117
99505,0.153,0.189,0.978,-3.076,2.702,-4.573,49,117
99555,0.149,0.195,0.992,3.313,0.435,-2.427,50,117
99604,0.152,0.22,0.977,-0.427,0.656,1.214,50,117
99654,0.143,0.169,0.984,0.954,-0.237,-0.458,52,117
99703,0.139,0.195,0.979,4.519,-1.015,-3.237,53,118
99753,0.148,0.193,0.985,1.656,0.153,-4.466,51,117
99807,0.153,0.214,1.005,0.313,3.511,-3.893,50,117
99856,0.142,0.207,0.997,-1.794,1.87,-4.366,50,116
99906,0.162,0.212,0.99,0.84,0.901,-2.397,48,117
99955,0.146,0.219,0.988,-1.42,-0.885,-1.382,48,117
100005,0.144,0.214,0.988,0.511,-1.45,0.672,50,116
100056,0.146,0.199,0.982,-0.985,-0.641,1.015,50,116
100105,0.151,0.206,0.975,0.282,0.504,0.328,51,117
100155,0.142,0.2,0.989,0.87,1.046,0.008,51,117
100204,0.134,0.22,0.976,1.191,1.74,1.84,48,117
100257,0.147,0.197,0.98,-0.55,0.55,1.229,51,117
100313,0.138,0.207,0.995,2.252,0.29,0.031,51,117
100362,0.145,0.204,0.992,0.412,0.359,1.855,52,117
100410,0.157,0.209,0.978,-0.916,1.702,-0.382,52,116
100459,0.129,0.198,0.999,0.809,0.13,-0.008,52,116
100508,0.119,0.208,0.989,0.221,-3.061,0.336,52,117
100557,0.14,0.181,0.98,1.321,-2.908,0.389,53,116
100605,0.157,0.197,0.973,2.099,0.679,-3.244,53,116
100655,0.134,0.218,0.993,0.802,2.298,-3.885,52,116
100704,0.13,0.243,0.989,1.634,2.595,-0.695,52,116
100756,0.139,0.211,0.99,-1.229,0.092,0.092,53,116
100812,0.149,0.219,1.002,3.641,-2.13,-1.061,53,116
100860,0.142,0.223,0.989,0.794,-0.611,0.351,53,116
100910,0.149,0.228,0.99,-1.725,3.015,0.718,52,116
100959,0.135,0.225,1.006,-3.237,1.496,1.58,51,116
101007,0.127,0.238,0.995,-2.42,-0.45,3.214,51,116
101056,0.142,0.213,0.99,-4.565,-2.252,4.802,51,116
101105,0.149,0.21,0.973,-2.069,-2.092,4.473,51,116
101196,0.142,0.195,0.972,0.099,-2.55,2.183,51,115
101249,0.142,0.202,0.967,1.244,1.305,2.374,50,116
101297,0.133,0.197,0.971,1.527,3.176,1.931,51,116
101346,0.139,0.21,0.977,2.786,3.611,2.252,51,115
101395,0.135,0.21,0.983,0.397,4.611,2.313,51,115
101443,0.138,0.187,1.001,2.84,1.878,1.779,51,116
101492,0.15,0.193,1.012,5.641,1.405,2.763,51,116
101541,0.114,0.168,1.013,2.427,0.435,7.16,51,115
101590,0.153,0.172,1.001,6.237,0.405,10.473,50,116
101639,0.181,0.188,0.984,-1.107,6.015,11.817,51,116
101690,0.231,0.197,0.97,-3.206,15.16,14.023,52,115
101739,0.198,0.23,0.976,1.397,13.954,22.389,51,115
101788,0.138,0.258,0.968,4.977,12.382,34.076,53,115
101837,0.116,0.274,0.957,1.824,16.008,47.282,54,116
101888,0.095,0.262,0.945,-0.725,18.015,54.748,52,144
101937,0.043,0.321,0.989,-5.901,17.893,50.641,52,118
101988,-0.021,0.37,1.023,-6.718,15.947,48.122,51,145
102039,-0.052,0.376,1.032,-22.145,6.511,43.809,51,147
102090,-0.042,0.276,1.015,-20.328,-0.282,36.466,51,148
102144,0,0.27,0.961,-15.313,4.786,38.733,51,151
102195,0.003,0.29,0.954,-31.107,22.939,39.282,49,153
102246,-0.044,0.134,0.981,-40.679,25.031,34.344,47,155
102298,-0.06,0.197,0.968,-13.389,24.794,32.435,58,158
102351,-0.051,0.195,0.908,-15.298,24.481,29.557,72,161
102403,0.008,0.097,0.984,-3.527,26.328,21.359,26,165
102453,-0.021,0.061,1.034,14.282,28.977,14.023,22,168
102515,-0.015,0.008,1.032,15.42,30.382,21.55,0,0
102569,-0.056,-0.026,1.087,2.336,35.176,12.916,57,0
102622,-0.127,-0.061,1.078,20.71,35.588,3.008,72,0
102677,-0.197,-0.001,1.105,12.107,34.137,-4.328,58,0
102732,-0.248,-0.085,1.103,-3.664,26.634,-3.313,18,0
102785,-0.135,-0.174,0.976,2.84,23.443,9.55,9,0
102840,-0.111,-0.133,0.916,-11.916,23.214,9.282,9,0
102891,-0.093,-0.175,0.877,-1.282,19.679,18.55,9,0
102946,-0.067,-0.031,0.919,12.42,14.641,36.351,8,0
102998,-0.067,0.065,0.937,3.015,10.298,57.573,8,0
103053,-0.097,0.153,1.015,0.214,5.053,67.901,7,0
103107,-0.114,0.127,0.971,23.42,-0.718,88.626,6,0
103162,-0.062,0.274,0.931,13.076,5.672,103.588,7,0
103206,-0.117,0.411,1.044,-11.145,16.962,99.71,16,52
103258,-0.178,0.342,1.114,-7.275,15.588,86.611,10,0
103312,-0.255,0.381,1.075,13.29,8.634,72.031,0,51
103358,-0.188,0.353,0.998,18.916,3.031,57.832,62,49
103412,-0.218,0.359,0.918,8.023,6.489,52.45,0,47
103465,-0.177,0.328,0.878,8.015,18.489,44.71,0,46
103517,-0.23,0.373,0.908,-1.466,13.985,24.473,143,48
103562,-0.152,0.344,0.968,18.496,12.511,20.947,17,18
103607,-0.195,0.433,0.924,1.687,7.939,23.817,79,16
103652,-0.177,0.312,0.997,-4.893,7.649,20.687,78,17
103697,-0.193,0.281,0.973,11.214,6.351,23.13,75,17
103790,-0.195,0.352,0.9,-3.366,2.595,7.992,73,107
103842,-0.286,0.375,0.93,-15.267,-2.183,-9.519,0,16
103898,-0.34,0.357,0.997,-2.527,-9.863,-20.87,0,19
103943,-0.304,0.313,0.952,12.702,-14.389,-21.084,69,17
104008,-0.233,0.312,0.947,7.359,-3.244,-12.534,0,0
104072,-0.28,0.301,0.927,-15.534,7.466,0.45,0,0
104130,-0.2,0.257,0.901,-7.473,6.771,15.496,0,128
104188,-0.277,0.219,0.863,-11.817,0.191,11.885,0,126
104247,-0.264,0.208,0.835,-6.115,-9.397,14.641,0,127
104306,-0.259,0.342,0.905,-16.092,-10.832,14.466,0,126
104365,-0.29,0.447,0.967,-14.023,-17.076,0.336,0,124
104423,-0.236,0.332,0.902,10.42,-24.351,4.153,0,123
104481,-0.238,0.599,0.86,-3.802,4.817,0.702,0,122
104543,-0.369,0.334,0.915,-0.687,17.588,-8.626,0,122
104601,-0.146,0.355,0.829,27.038,17.466,-12.351,0,121
104659,-0.242,0.45,0.832,-1.405,23.137,-23.656,0,120
104718,-0.276,0.408,0.99,-12.313,24.336,-32.351,0,120
104776,-0.38,0.267,0.978,36.786,10.183,-25.504,0,120
104835,-0.167,0.323,0.913,24.87,4.969,-18.183,0,119
104893,-0.229,0.337,0.916,-1.74,4.924,-21.893,0,119
104951,-0.247,0.417,0.927,4.511,-9.954,-15.229,0,119
105010,-0.244,0.36,0.892,16.084,-15.008,-6.183,0,118
105071,-0.289,0.429,0.909,6.725,-0.359,-2.13,0,119
105129,-0.338,0.51,0.795,-4.206,-3.511,2.084,0,119
105188,-0.354,0.48,0.782,-18.489,1.916,-6.053,0,121
105246,-0.459,0.45,0.826,4.115,0.779,-18.214,0,122
105305,-0.447,0.247,0.906,40.168,-3.573,-38.275,0,123
105360,-0.341,0.325,0.871,59.885,-0.817,-49.099,0,52
105413,-0.344,0.438,0.846,24.382,-13.061,-33.618,0,38
105466,-0.472,0.367,0.812,7.939,-19.267,-32.985,0,31
105509,-0.43,0.363,0.814,23.267,-24.198,-27.863,16,37
105561,-0.365,0.315,0.85,28.023,-23.611,-36.496,107,18
105603,-0.397,0.327,0.837,27.649,-37.229,-46.985,9,20
105655,-0.376,0.369,0.847,12.214,-44.015,-54,0,16
105711,-0.418,0.358,0.951,5.55,-34.069,-58.176,0,16
105765,-0.448,0.393,1.045,21.901,-18.382,-67.962,0,57
105829,-0.445,0.421,0.954,9.55,-4.863,-75.916,0,0
105891,-0.347,0.423,1.014,-20.985,16.832,-71.664,0,0
105955,-0.39,0.326,0.889,-28.641,17.611,-71.42,0,0
106014,-0.264,0.398,0.842,-10.344,15.817,-88.969,127,0
106074,-0.327,0.305,0.793,3.779,4.389,-86.237,128,162
106131,-0.28,0.326,0.822,31.779,3.397,-84.099,128,157
106191,-0.38,0.354,0.863,35.191,-8.16,-76.16,0,155
106238,-0.367,0.323,0.873,37.939,-25.893,-65.519,16,105
106296,-0.39,0.253,0.917,38.901,-38,-59.74,0,101
106343,-0.323,0.274,0.93,45.252,-37.618,-49.817,17,99
106394,-0.35,0.324,0.939,27.87,-26.458,-47.511,94,97
106444,-0.406,0.24,0.976,13.847,-17.168,-41.206,75,96
106497,-0.348,0.163,0.899,19.824,-12.985,-22.511,58,94
106543,-0.315,0.211,0.838,7.298,-9.885,-9.336,10,93
106632,-0.328,0.214,0.889,18.405,-11.344,-4.511,9,91
106678,-0.357,0.252,0.907,14.099,-7.321,-3.214,11,91
106724,-0.372,0.204,0.935,12.489,-5.435,1.832,9,90
106769,-0.371,0.216,0.93,11.603,-3.74,6.084,10,90
106815,-0.368,0.249,0.924,1.771,-2.802,6.412,10,89
106861,-0.374,0.246,0.941,-0.771,-1.42,5.74,10,88
106906,-0.377,0.259,0.921,-0.427,-1.58,5.58,9,88
106955,-0.371,0.261,0.914,-5.061,-2.542,5.603,9,87
107001,-0.373,0.254,0.904,-3.214,-2.16,4.939,9,87
107047,-0.326,0.246,0.909,-1.924,-0.359,5.221,11,87
107092,-0.342,0.254,0.901,-6.191,2.153,3.42,9,86
107139,-0.358,0.243,0.933,-3.58,1.71,4.275,11,86
107184,-0.37,0.234,0.911,-2.626,-2.351,4.84,9,86
107230,-0.328,0.255,0.912,-0.084,0.015,3.489,9,85
107275,-0.351,0.259,0.904,-8.58,2.382,3.344,9,85
107321,-0.358,0.223,0.911,-5.779,1.847,2.229,9,85
107370,-0.345,0.239,0.917,-1.076,1.122,-1.618,10,84
107415,-0.355,0.231,0.914,-0.908,-0.191,-2.321,10,84
107461,-0.337,0.23,0.92,2.45,0.168,-2.206,10,83
107506,-0.357,0.243,0.898,-1.58,0.802,-1.695,10,83
107557,-0.351,0.209,0.925,0.489,0.275,-2.229,10,83
107602,-0.348,0.221,0.925,4.901,-1.42,-2.504,10,83
107648,-0.355,0.232,0.917,1.229,-2.031,-2.695,16,83
107692,-0.366,0.208,0.925,0.618,-2.702,-3.168,9,83
107737,-0.365,0.213,0.94,1.183,-4.618,-3.519,16,82
107784,-0.372,0.189,0.928,1.618,-6.809,-4.496,11,82
107829,-0.36,0.199,0.912,3.008,-5.863,-6.275,10,82
107873,-0.36,0.198,0.914,0.725,-4.992,-8.954,10,81
107918,-0.349,0.193,0.922,3.298,-4.55,-10.824,16,81
107964,-0.337,0.214,0.918,4.282,-2.275,-11.824,67,51
108010,-0.352,0.224,0.917,-0.511,-0.176,-12.573,67,51
108056,-0.341,0.191,0.921,2.481,-0.534,-11.863,67,50
108102,-0.348,0.212,0.915,4.893,-1.084,-13.061,68,50
108148,-0.345,0.185,0.909,4.908,-2.603,-13.099,68,50
108197,-0.326,0.183,0.91,5.794,-3.771,-11.802,68,50
108246,-0.333,0.195,0.908,1.786,-4.244,-13.305,72,77
108294,-0.347,0.177,0.925,-2.092,-4.221,-13.725,73,77
108341,-0.351,0.192,0.921,0.756,-4.496,-14.252,71,76
108389,-0.353,0.168,0.918,0.695,-4.802,-13.336,71,75
108437,-0.344,0.174,0.918,5.939,-5.298,-12.397,71,75
108484,-0.345,0.199,0.937,11.519,-3.351,-11.405,72,73
108529,-0.366,0.204,0.918,7.603,-2.321,-9.191,16,73
108573,-0.313,0.201,0.939,7.145,-3.023,-6.87,16,72
108621,-0.308,0.214,0.955,-0.038,-3.412,-9.198,17,72
108668,-0.302,0.193,0.974,1.13,-4.389,-9.45,73,71
108717,-0.269,0.206,0.972,1.618,-3.412,-9.847,74,70
108761,-0.262,0.168,0.98,-0.473,-4.588,-6.015,16,70
108809,-0.23,0.207,0.969,4.015,-7.496,-6.412,75,70
108853,-0.165,0.208,0.965,2.16,-7.656,-5.046,16,69
108897,-0.178,0.239,1.002,1.565,-4.649,-7.908,16,69
108985,-0.142,0.224,1.006,3.901,-3.748,0.542,16,69
109032,-0.142,0.196,0.973,4.237,1.924,6.053,71,51
109082,-0.164,0.223,0.917,3.641,4.038,9.947,69,68
109126,-0.152,0.224,0.929,2.42,9,7.168,17,68
109170,-0.192,0.211,0.963,0.763,9.924,4.359,16,69
109217,-0.206,0.23,1.051,6.092,10.382,-1.389,66,70
109265,-0.24,0.267,1.116,3.107,7,-5.252,65,71
109313,-0.267,0.218,1.133,-2.893,4.573,-4.832,65,77
109361,-0.23,0.235,1.085,-3.794,8.687,1.832,69,79
109409,-0.269,0.302,1.004,-17.122,20.046,6.061,73,82
109454,-0.38,0.238,0.963,-24.336,16.664,0.55,16,84
109503,-0.439,0.222,0.952,9.74,7.756,0.672,16,86
109548,-0.493,0.207,0.824,7.817,-9.382,10.542,16,89
109594,-0.41,0.112,0.828,2.053,-22.366,19.969,16,99
109640,-0.339,0.02,0.848,2.71,-17.855,22.702,16,97
109689,-0.261,0.023,0.801,-2.443,-9.328,20.71,58,95
109737,-0.226,0.072,0.8,-3.412,-5.244,8.382,59,91
109786,-0.235,0.083,0.816,0.26,-4.023,-3.183,59,89
109831,-0.219,0.163,0.879,-0.885,-0.672,-8.344,16,88
109876,-0.245,0.065,0.966,-10.656,-5.939,-9.252,17,84
109927,-0.178,0.039,1.052,-11.901,-14.656,-6.099,60,84
109973,-0.184,0.136,1.112,-11.336,-11.55,-8.794,47,63
110019,-0.281,0.134,1.09,1.458,-12.481,-1.191,50,57
110064,-0.225,0.247,1.208,33.115,-0.641,12.275,17,74
110109,-0.4,0.421,1.123,30.603,15.389,4.87,16,73
110154,-0.393,0.28,1.048,5.168,-0.252,19.099,16,74
110198,-0.304,0.283,0.946,16.603,6.397,20.145,17,73
110246,-0.331,0.441,0.83,3.466,13.107,13.87,65,73
110292,-0.294,0.295,0.838,-15.748,9.595,9.435,65,44
110343,-0.243,0.2,0.808,-2.939,-0.756,19.282,64,73
110391,-0.264,0.343,0.716,-26.756,-14.847,21.962,65,74
110438,-0.271,0.237,0.762,-60.885,-29.351,13.053,64,73
110486,-0.27,0.261,0.885,-61.015,-38.962,-1.786,64,73
110533,-0.372,0.189,1.029,-38.573,-28.359,-27.534,63,72
110579,-0.331,0.074,1.158,41.084,-6.45,-28.969,63,44
110627,-0.259,0.32,1.118,72.748,36.519,-31.267,62,73
110674,-0.326,0.311,0.997,45.656,62.473,-56.847,62,73
110723,-0.283,0.022,1.045,5.069,34.58,-26.366,61,75
110772,-0.317,0.093,0.896,19.542,31.504,11.489,60,43
110817,-0.433,0.26,0.771,6.527,8.374,8.336,60,44
110863,-0.354,0.083,0.779,6.252,-5.878,-0.519,59,44
110908,-0.283,0.08,0.738,22.947,-7.855,-3.321,59,43
110955,-0.25,0.165,0.721,5.489,-4.313,-10.969,59,50
111002,-0.223,0.078,0.902,-27.16,1.221,-13.443,60,73
111049,-0.182,0.013,1.037,-40.458,0.809,-4.802,61,74
111095,-0.205,0.026,1.165,-34.733,-8.527,3.672,16,76
111145,-0.331,0.031,1.136,7.046,-22.496,1.969,62,73
111193,-0.239,0.275,1.176,63.237,-21.191,13.878,52,73
111238,-0.473,0.61,0.986,53.733,-5.267,10.084,17,73
111286,-0.382,0.539,1.075,14.84,-8.038,27.412,64,70
111376,-0.362,0.42,0.837,-1.855,16.573,25.901,64,71
111424,-0.092,0.107,0.771,-9.099,4.229,47.26,64,72
111472,-0.01,0.249,0.704,-24.916,-2.16,47.336,63,75
111520,-0.115,0.37,0.795,-50.191,-21.511,34.458,62,76
111568,-0.314,0.499,0.897,-44.634,-38.115,17.252,61,77
111618,-0.356,0.384,0.98,-17.679,-53.595,14.573,61,57
111667,-0.315,0.372,1.015,34.496,-37.573,2.695,65,79
111713,-0.165,0.479,1.038,34.817,5.214,-1.168,64,57
111761,-0.221,0.405,1.083,5.053,54.588,-7.107,57,83
111809,-0.289,0.245,1.061,-29.115,41.565,27.611,52,85
111857,-0.239,0.132,0.994,-8.809,27.679,38.382,52,88
111905,-0.114,0.082,0.846,9.534,23.168,32.985,51,90
111953,-0.145,0.15,0.726,-11.908,20.534,21.634,52,92
112002,-0.297,0.152,0.753,-68.55,-0.298,14.366,54,93
112054,-0.305,-0.069,0.894,-46.099,-20.076,24.046,55,95
112103,-0.202,0.02,0.923,-17.282,-33.061,32.061,55,95
112151,-0.058,0.106,1.07,-34.893,-23.672,40.656,42,96
112198,-0.22,0.186,1.128,-34.099,-12.145,41.534,54,69
112245,-0.12,0.133,1.225,-12.076,-13.053,64.084,54,66
112291,-0.186,0.271,1.184,15.802,-3.504,64.977,53,63
112337,-0.169,0.217,1.085,17.733,-11.321,69.275,44,52
112384,-0.061,0.351,0.974,12.061,0.427,64.832,57,47
112439,-0.215,0.285,0.907,-4.145,8.595,44.649,75,0
112497,-0.238,0.045,0.801,32.046,-5.534,40.351,57,0
112552,-0.141,0.163,0.767,5.321,1.962,25.321,66,0
112607,-0.244,0.088,0.86,-36.87,0,-10.321,43,0
112661,-0.315,-0.005,1.03,-5.962,-9.092,-39.748,44,0
112715,-0.43,0.206,1.005,24.87,-0.603,-74.008,49,194
112770,-0.398,0.351,1.1,10.397,21.901,-90.962,47,186
112818,-0.532,0.255,1.097,32.809,39.71,-131.74,47,98
112866,-0.483,0.308,1.02,60.221,19.649,-120.267,49,93
112916,-0.406,0.365,0.869,50.153,19.443,-98.916,50,58
112962,-0.332,0.317,0.727,30.168,16.153,-95.962,53,57
113010,-0.223,0.173,0.707,17.351,-1.069,-87.107,56,83
113057,-0.208,0.237,0.739,10.557,-14.931,-89.649,58,50
113103,-0.17,0.139,0.909,7.954,-26.542,-85.916,60,48
113150,-0.01,0.189,1.045,5.565,-25.351,-54.107,62,45
113197,-0.08,0.371,1.132,-27.267,-21.137,-40.725,65,43
113243,-0.201,0.238,1.18,-29.992,-26.794,-24.473,61,47
113290,-0.132,0.156,1.224,28.374,-24.74,14.824,61,47
113340,-0.278,0.486,1.042,41.374,-5.863,17.16,63,54
113389,-0.372,0.334,1.007,-5.573,-7.626,28.069,80,67
113437,-0.299,0.193,0.958,18.611,1.832,27.29,80,67
113486,-0.266,0.289,0.786,24.74,8.145,20,81,67
113534,-0.19,0.122,0.737,6.603,-1.275,17.198,81,66
113584,-0.137,0.085,0.773,4.153,-19.519,21.107,81,66
113632,-0.218,0.283,0.891,-13.779,-33.42,15.924,82,65
113686,-0.372,0.244,1.024,-33.359,-51.015,-5.458,83,64
113734,-0.374,0.207,1.115,10.122,-48.275,-31.076,84,63
113794,-0.288,0.395,1.023,44.679,-10.389,-41.672,86,62
113887,-0.325,0.181,0.946,30.031,24.412,-63.206,80,61
113937,-0.128,0.176,0.973,37.939,10.267,-37.626,80,59
113987,-0.252,0.247,0.927,15.183,15.893,-41.336,93,56
114037,-0.316,0.189,0.933,19.45,16.336,-37.534,93,53
114087,-0.215,0.162,0.835,34.061,3.519,-22.191,93,51
114138,-0.119,0.261,0.759,17.687,-6.603,-25.206,91,50
114187,-0.034,0.17,0.924,-22.336,-7.878,-21.573,93,46
114242,-0.112,0.146,1.024,-34.534,-21.176,-8.092,139,43
114294,-0.18,0.233,1.11,-11.954,-37.489,-3.42,138,41
114342,-0.24,0.283,1.034,12.893,-45.992,1.595,67,41
114398,-0.102,0.353,1.081,28.16,-36.557,6.641,0,42
114453,-0.281,0.404,1.016,14.046,-20.634,-4.489,0,38
114508,-0.232,0.391,1.106,2.382,-18.779,-7.298,0,35
114564,-0.34,0.368,1.021,3.74,-12.206,-19.206,0,32
114619,-0.196,0.167,0.896,7.908,-27.58,-13.855,0,29
114675,-0.091,0.213,0.84,11.229,-35.947,-20.817,0,48
114734,-0.046,0.227,0.919,-45.519,-41.763,-20.603,0,42
114790,-0.056,0.16,0.986,-55.687,-45.557,-24.229,0,40
114845,-0.011,0.278,1.004,-60.969,-32.71,-31.847,0,36
114900,0.04,0.292,1.023,-82.916,-2.977,-37.473,0,35
114957,-0.046,0.116,1.179,-92.886,44.214,-35.679,0,36
115012,-0.209,-0.016,0.976,-99.305,39.351,-0.802,0,36
115073,-0.184,-0.301,0.938,-65.794,15.863,2.733,0,124
115133,-0.109,-0.146,0.816,-44.855,11.763,-7.687,0,121
115193,-0.167,-0.418,0.875,-36.344,11.458,-13.496,0,119
115257,-0.077,-0.303,0.797,-29.748,17.748,-7.634,0,116
115308,0.017,-0.466,0.793,-26.183,11.924,-6.244,59,114
115368,0.024,-0.374,0.765,-20.336,5.16,-14.534,0,111
115420,0.111,-0.494,1.023,-7.893,-3.588,-28.969,63,107
115472,0.036,-0.458,0.955,43.855,-21.626,-49.13,64,104
115523,0.382,-0.355,1.201,85.916,-7.031,-77.053,61,99
115572,-0.04,-0.187,1.193,116.366,0.267,-104.099,64,69
115622,-0.099,-0.01,1.191,142.947,-9.885,-79.145,65,70
115683,-0.23,0.381,0.986,96.229,-6.931,-56.924,0,73
115740,-0.304,0.264,0.995,68.336,-22.748,-14.84,188,77
115798,-0.023,0.431,0.839,15.954,-28.351,30.206,184,83
115856,0.093,0.223,0.904,-6.603,-14.679,37.13,179,94
115914,0.027,0.265,0.908,-13.756,-8.992,36.038,0,95
115974,0.058,0.166,0.98,-29.275,-9.985,35.885,0,101
116039,0.032,0.122,1.117,-31.527,-2.771,20.817,0,0
116100,0.004,0.131,1.089,-31.565,4.916,9.74,0,116
116164,-0.046,0.044,1.088,-31.321,15.168,6.13,0,0
116232,-0.016,-0.179,1.147,-23.496,9.069,-0.473,0,0
116297,-0.101,-0.14,1.016,-10.611,-4.023,-5.985,0,0
116363,-0.044,-0.145,0.944,-7.817,-6.344,-12.809,0,0
116427,0.033,-0.133,0.883,-8.931,-8.504,-10.756,0,0
116489,0.131,-0.121,0.851,-18.099,-2.893,-11.672,129,0
116549,0.119,-0.155,0.872,-7.115,-0.183,-12.863,126,0
116610,0.128,-0.153,0.949,-10.847,-6.214,-14.237,123,0
116671,0.127,-0.129,1.036,2.626,-8.176,-11.16,120,0
116774,0.212,-0.134,1.109,5.802,-3.687,-4.977,115,0
116838,0.061,-0.033,1.104,15.702,-1.702,-9.595,112,0
116898,-0.027,0.026,1.138,16.282,-8.412,-4.626,127,190
116956,-0.149,0.017,1.115,6.053,-7.802,-14.29,113,149
117012,-0.25,-0.016,1.112,8.954,-8.771,-23.847,112,148
117069,-0.26,-0.043,1.043,11.595,-19.756,-36.641,111,147
117127,-0.24,-0.156,1.051,17.282,-33.16,-64.702,110,146
117184,-0.28,-0.124,1.058,28.435,-46.267,-109.565,111,141
117240,-0.248,0.048,1.049,-21.847,-46.992,-140.992,114,137
117301,-0.214,0.374,1.066,-42.29,-24.092,-161.466,119,132
117356,-0.085,0.332,1.14,-82.053,-1.458,-176.481,123,111
117412,-0.082,0.267,1.027,-88.519,27.504,-186.527,125,111
117470,0.072,0.147,0.949,-93.588,40.229,-182.344,127,123
117529,-0.034,0.134,0.956,-82.71,45.244,-187.061,143,157
117592,-0.088,-0.023,0.942,-58.305,27.649,-166.137,0,152
117654,0.075,-0.079,0.971,-31.069,24.435,-145.557,0,152
117720,0.051,-0.064,0.978,-14.29,17.267,-129.824,0,0
117785,0.111,-0.132,0.971,-26.099,-0.565,-122.397,0,0
117848,0.206,-0.14,0.989,-0.405,-1.626,-106.969,0,0
117913,0.237,-0.064,0.97,0.924,0.42,-89.603,0,0
117979,0.207,-0.104,1.022,8.069,3.023,-70.45,0,0
118043,0.158,0.014,1.068,51.641,24.137,-58.679,0,194
118108,-0.014,0.069,0.909,117.214,55.42,-51.87,0,186
118172,-0.164,0.304,0.809,182.412,63.985,-38.939,0,179
118236,-0.098,0.342,0.725,193.771,26.565,-33.183,0,173
118301,0.061,1.053,0.61,173.061,-7.221,-41.344,0,0
118370,0.039,1.075,0.797,43.656,-36.802,-76.229,0,0
118435,0.084,0.875,0.757,21.176,-50.664,-44.427,0,0
118501,0.175,0.795,0.736,1.832,-55.962,-38.031,0,0
118557,0.123,0.748,0.701,36.183,-55.565,-20.794,46,0
118614,0.094,1.118,0.564,29.557,-62.443,-26.458,49,0
118671,0.106,1.125,0.596,-39.748,-53.29,-40.58,49,0
118727,0.182,0.86,0.752,-28.115,-32.519,-53.427,47,0
118784,0.168,0.754,0.669,0.863,-12.053,-24.427,47,0
118841,0.077,0.75,0.607,-14.573,6.374,5.466,50,0
118900,0.006,0.767,0.595,-52,19.435,18.71,43,0
118957,0.06,0.509,0.646,-45.573,26.504,22.359,44,0
119013,0.123,0.6,0.505,11.229,27.298,22.748,45,0
119070,0.197,0.754,0.52,8.252,31.092,26.275,51,0
119127,0.158,0.766,0.678,-27.069,33.13,44.771,46,0
119183,0.159,0.659,0.897,-69.573,22.412,57.641,44,0
119237,0.067,0.641,1.04,-51.183,16.328,68.053,42,156
119287,0.118,0.674,1.109,14.374,18.229,59.718,43,96
119347,-0.094,0.869,0.903,31.053,26.977,46.954,0,90
119400,-0.042,0.843,0.818,-32.817,27.466,30.206,43,85
119449,-0.095,0.499,0.798,-11.847,19.954,17.916,40,81
119501,-0.052,0.445,0.686,18.718,13.832,19.382,90,79
119554,-0.121,0.571,0.608,-26.206,8.901,24.305,91,75
119603,-0.134,0.575,0.729,-70.756,-3.74,44.038,50,72
119655,-0.116,0.531,0.83,-49.618,-13.382,33.58,87,70
119748,-0.084,0.594,1.035,-23.794,-11.084,4.092,73,66
119799,-0.05,0.707,1.026,-46.198,4.809,-5.534,75,65
119849,-0.029,0.366,1.019,-79.649,15.435,-39.664,74,64
119903,0.013,0.062,1.041,-31.74,12.672,-14.122,72,62
119953,0.037,0.167,0.986,18.115,15.695,-1.473,71,61
120003,-0.01,0.317,0.795,7.076,20.55,1.023,72,62
120053,-0.007,0.216,0.728,-19.489,9.107,15.42,72,65
120104,0.055,0.197,0.767,-4.985,-5.198,20.115,80,63
120155,0.178,0.245,0.866,-15.924,-2.962,14.198,82,57
120206,0.108,0.183,0.989,-45.618,-9.802,13.71,84,54
120256,0.177,0.146,1.163,-35.855,-17.863,14.145,85,55
120307,0.048,0.167,1.131,7.206,-16.748,9.527,87,56
120361,0.153,0.263,1.128,22.382,-13.656,21.153,89,57
120413,-0.01,0.385,1.049,-3.45,-1.832,1.679,91,57
120463,-0.038,0.288,1.137,-2.824,3.099,-7.198,93,55
120514,-0.136,0.427,1.035,43.16,16.084,-11.527,94,55
120565,-0.055,0.288,0.838,41.534,-0.809,-5.099,95,54
120616,0.1,0.167,0.729,72.412,-19.672,-2.267,95,53
120668,0.068,0.43,0.691,59.916,-27.305,8.298,96,52
120719,0.077,0.538,0.891,10.069,-29.702,17.389,96,53
120770,0.084,0.51,1.017,5.679,-29.58,27.771,96,50
120824,0.147,0.59,1.051,19.809,-11.214,14.023,96,43
120875,0.124,0.732,0.972,-5.16,2.382,4.977,95,45
120931,0.11,0.435,1.07,-13.412,1.29,-22.305,94,46
120981,0.191,0.319,0.949,25.542,-7.351,0.107,94,46
121030,0.202,0.425,0.892,-16.725,3.847,23.824,93,48
121080,0.123,0.221,0.855,-45.115,11.191,21.26,92,48
121129,0.03,0.174,0.76,-20.023,9.725,32.779,91,48
121180,0.092,0.214,0.685,-12.893,-0.252,25.099,91,49
121229,0.195,0.191,0.776,-16.458,-4.115,9.321,91,50
121281,0.32,0.212,0.911,-39.763,-3.282,8.298,91,49
121331,0.431,0.133,1.091,-64,-1.046,28.16,91,48
121380,0.352,0.14,1.121,-37.557,9.885,36.405,91,48
121431,0.209,0.272,1.018,-6.733,13.893,45.328,92,46
121480,0.26,0.271,1.114,19.382,21.16,2.458,92,46
121530,0.028,0.352,0.986,43.992,26.397,-6.229,93,44
121579,0.099,0.451,0.964,48.168,44.779,-28.305,93,47
121629,-0.01,0.307,0.761,46.053,57.084,-46.794,93,51
121679,0.168,0.077,0.763,38.16,42.237,-30.481,93,53
121733,0.029,0.384,0.793,-2.58,41.107,-12.053,93,55
121783,-0.098,0.377,1.005,-47.916,15.275,10.069,93,54
121833,-0.161,0.387,1.131,-77.191,-6.328,10.267,93,55
121883,-0.226,0.278,1.216,-78.153,-14.763,4.71,92,55
121933,-0.217,0.146,1.321,-48.84,-11.718,-15.542,92,55
121984,-0.183,0.188,1.26,-0.45,2.405,-26.58,92,55
122034,-0.077,0.038,0.969,-0.405,-6.542,-30.603,92,52
122084,-0.058,0.045,1.062,17.756,-20.221,-19.855,92,50
122137,-0.091,0.132,0.894,42.756,-21.031,-20.473,93,45
122186,-0.03,0.132,0.739,30.183,-27.168,-12.466,94,43
122236,0.052,0.141,0.739,23.824,-32.641,-4.519,94,43
122330,0.232,0.153,0.897,0.115,-34.992,-2.237,95,51
122380,0.319,0.173,0.994,-10.473,-31.382,8.443,96,46
122430,0.243,0.345,1.098,-14.985,-22.336,10.046,97,41
122479,0.148,0.17,1.129,-9.649,-34.74,24.634,98,39
122529,0.215,0.356,1.18,51.992,-13.626,22.382,99,39
122579,0.103,0.418,1.043,30.084,-2.481,17.489,97,39
122632,0.141,0.457,1.024,18.595,29.992,8.435,97,39
122682,0.04,0.36,0.877,12.42,50.656,6.588,97,40
122731,0.077,0.142,0.727,22.557,38.908,20.649,96,41
122781,0.152,0.195,0.618,32.672,27.275,33.038,96,40
122830,0.128,0.447,0.74,-10.908,20.588,34.145,95,41
122881,-0.014,0.412,0.934,-69.42,11.733,31.885,94,42
122930,-0.083,0.218,1.194,-56.74,0.901,20.634,90,44
122980,-0.022,0.289,1.224,8.824,22.916,0.756,89,43
123029,-0.008,0.429,1.137,8.634,47.069,-13.534,88,44
123082,-0.059,0.303,0.989,10.023,72.977,-32.336,87,46
123131,0.016,0.011,0.991,33.687,47.405,-15.641,87,47
123182,-0.121,0.246,0.893,58.511,60.412,-9.305,88,49
123231,-0.233,0.219,0.784,29.557,63.122,-6.412,88,49
123281,-0.157,0.063,0.708,35.695,43.466,-8.534,87,49
123331,-0.204,0.297,0.724,22.183,25.725,-10.756,87,50
123381,-0.118,0.208,1.014,-1.145,8.076,-13.214,87,50
123430,-0.073,0.274,1.19,-25.702,-5.206,-3.656,88,50
123481,-0.037,0.24,1.38,-56.496,-31.412,4.496,91,49
123532,-0.168,0.284,1.365,-36.031,-45.168,19.42,64,46
123581,-0.061,0.402,1.334,-23.359,-42.947,38.237,65,45
123631,-0.177,0.44,1.179,-26.389,-27.244,24.42,94,45
123681,-0.146,0.398,1.118,-35.58,-33.664,32.198,96,43
123731,-0.216,0.41,0.975,-37.191,-16.191,10.992,95,42
123782,-0.237,0.192,0.823,-37.534,-24.733,11.916,96,44
123832,-0.048,0.045,0.689,-1.908,-34.458,20.275,98,41
123882,-0.008,0.265,0.63,-9.046,-28.053,18.206,100,41
123935,-0.071,0.282,0.778,-54.664,-24.908,5.725,106,42
123986,-0.092,0.088,0.895,-57.405,-27.733,0.878,107,41
124038,-0.127,0.142,1.032,-30.695,-7.214,-13.916,113,42
124088,-0.114,0.121,1.049,-0.58,32.855,-23.504,110,43
124139,-0.116,0.156,1.125,29.618,83.229,-49.588,107,41
124190,-0.314,-0.002,0.91,27.855,77.473,-59.908,105,44
124240,-0.166,-0.024,1.115,52.252,64.618,-31.672,102,48
124292,-0.239,0.127,0.845,80.45,76.618,-14.794,97,52
124342,-0.156,0.165,0.721,45.947,60.336,-22.282,98,50
124396,-0.174,0.174,0.773,31.397,48.55,-17.916,93,50
124446,-0.143,0.169,0.96,33.534,26.809,-20.16,92,46
124503,-0.075,0.179,1.118,24.87,10.107,-9.649,0,47
124559,0.04,0.198,1.276,-11.107,-17.099,12.069,0,50
124609,-0.178,0.326,1.351,-33.099,-31.557,26.893,72,54
124659,-0.157,0.318,1.474,-22.023,-42.237,47.939,94,54
124717,-0.378,0.554,1.233,-24.031,-32.443,51.504,0,54
124768,-0.212,0.461,1.128,-56.252,-37.176,68.313,109,54
124822,-0.322,0.411,0.932,-99.672,-22.634,46.229,149,54
124916,-0.189,-0.178,0.761,-97.954,-67.351,47.595,142,51
124971,-0.156,0.07,0.673,-77.74,-74.229,38.29,145,49
125024,-0.099,-0.125,0.837,-80.321,-81.947,13.458,146,50
125078,-0.033,-0.236,1.083,-48.527,-66.237,-12.405,150,51
125135,-0.048,-0.354,1.115,-25.023,-55.763,-33.954,0,52
125192,0.104,-0.301,1.114,-22.71,-26.855,-35.046,0,52
125249,0.127,-0.446,0.894,20.214,-0.382,-36.649,0,52
125306,0.208,-0.29,0.929,7.282,23.282,-30.29,0,52
125366,0.071,-0.266,0.875,41.595,21.214,-36.008,0,52
125423,0.106,-0.163,0.695,20.924,7.145,-24.015,0,52
125480,0.223,-0.142,0.674,20.137,9.038,-9.084,0,51
125537,0.236,-0.268,0.82,-5.023,10.863,-13.328,0,50
125593,0.314,-0.161,0.822,11.053,11.145,-6.405,0,48
125650,0.278,-0.232,1.097,-2.679,14.305,-10.122,0,48
125707,0.137,-0.211,1.081,17.901,10.519,-7.55,0,46
125763,0.253,-0.087,1.224,24.977,18.779,-5.55,0,43
125819,-0.052,0.075,1.052,33.71,47.008,8.458,0,44
125880,0.002,0.062,1.108,4.206,57.344,2.611,0,50
125937,-0.046,-0.011,0.985,30.687,62.053,0.321,0,51
125993,-0.018,0.011,0.828,10.328,48.038,7.13,0,51
126051,-0.072,0.021,0.823,3.992,40.046,18.832,0,51
126107,-0.153,0.066,0.964,-18.374,23.481,9.092,0,51
126164,-0.121,-0.053,1.132,-5.092,6.496,4.992,0,51
126222,-0.208,0.014,1.28,6.878,8.45,-11.55,0,52
126278,-0.335,-0.073,1.305,36.802,0.985,-26.756,0,52
126336,-0.294,-0.131,1.373,58.374,-29.038,-65.321,0,51
126396,-0.252,-0.093,1.149,102.366,-61.282,-54.336,0,49
126452,-0.206,-0.01,0.898,173.718,-70.023,-34.55,0,47
126510,-0.033,0.346,0.496,159.664,-63.405,-22.809,0,45
126566,0.052,0.565,0.352,47.107,-37.344,-16.412,0,39
126623,0.137,0.39,0.577,-41.527,-18.458,-39.992,0,50
126680,0.196,0.379,0.812,-10.618,9.718,-40.168,0,43
126737,0.254,0.413,0.906,-18.038,20.527,-25.916,0,46
126793,0.346,0.445,1.155,-26.603,25.061,-34.183,0,46
126850,0.153,0.427,1.148,-5.061,20.87,0.015,0,44
126909,0.046,0.873,0.972,19.763,53.977,32.611,184,42
126965,-0.11,0.886,0.987,-43.611,56.053,55.183,0,40
127020,-0.277,0.611,0.943,-38.817,62.779,69.137,165,40
127074,-0.207,0.384,0.802,-2.275,54.412,99.313,158,42
127128,-0.133,0.371,0.672,-12.573,47.45,127.771,152,46
127182,-0.197,0.312,0.777,-61.046,34.214,126.305,148,48
127237,-0.205,0.231,0.866,-65.443,33.191,126.565,144,50
127294,-0.256,0.318,0.978,-88.977,25.939,96.611,0,54
127349,-0.356,0.126,1.139,-53.145,29.038,53.176,120,56
127403,-0.405,0.242,1.131,-42.344,21.725,14.58,116,57
127455,-0.427,-0.104,1.186,-0.298,10.802,-46.527,116,57
127508,-0.369,-0.006,1.046,55.84,-3.878,-59.244,116,56
127559,-0.469,0.122,0.959,25.832,-16.595,-79.046,90,54
127609,-0.334,-0.023,0.846,23.908,-25.275,-85.626,89,52
127661,-0.188,0.059,0.742,29.214,-29.405,-84.565,89,50
127759,-0.084,0.236,0.872,-11.595,-21.985,-85.458,86,45
127808,0.042,0.148,0.989,-19.641,-28.359,-68.656,86,44
127860,0.202,0.245,1.093,-24.298,-32.038,-48.206,86,42
127909,0.068,0.392,1.204,-25.802,-22.344,-23.649,87,42
127959,0.068,0.339,1.203,-6.824,-14.611,26.977,89,48
128009,0.132,0.448,1.117,5.977,7.618,53.008,89,50
128067,-0.001,0.471,1.05,-3.893,17.214,79.038,89,0
128124,-0.181,0.607,0.898,-7.076,34.107,97.405,87,0
128183,-0.107,0.334,0.766,-1.13,31.42,110.55,84,0
128241,-0.049,0.368,0.629,18.924,28.481,129.588,83,0
128299,-0.162,0.542,0.67,-9.435,26.122,127.992,78,0
128359,-0.171,0.49,0.906,-21,19.779,115.817,75,0
128416,-0.226,0.457,1.124,-21.779,2.458,108.26,72,0
128474,-0.293,0.447,1.222,3.702,3.679,91.718,69,0
128526,-0.248,0.328,1.191,18.962,14.84,74.237,74,106
128583,-0.279,0.239,1.079,41.099,32.771,58.13,72,0
128635,-0.285,0.217,0.943,23.328,19.382,63.16,106,74
128688,-0.33,0.121,0.925,-1.74,11.603,53.046,105,68
128739,-0.309,0.169,0.897,19.908,19.031,31.321,105,62
128793,-0.239,0.165,0.746,24.267,18.458,24.435,106,57
128844,-0.156,0.278,0.746,10.008,9.931,18.519,108,53
128896,-0.059,0.169,0.844,0.496,5.076,18.305,109,51
128955,0.006,0.25,0.919,-21.893,-5.641,17.855,111,0
129005,-0.032,0.154,1.138,-32.298,-26.282,13.229,114,40
129065,-0.218,0.291,1.206,13.847,-32.794,7.466,119,0
129126,-0.167,0.24,1.199,25.435,-44.328,8.87,126,0
129191,-0.266,0.5,1.116,30.534,-12.809,-12.565,0,0
129256,-0.166,0.289,1.014,-1.29,-24.344,-27.573,0,0
129325,-0.35,0.503,0.866,-1.718,-4.55,-74.573,0,0
129389,-0.216,0.092,0.836,12.069,-27.969,-75.115,0,0
129454,-0.15,0.305,0.791,-1.893,-41.489,-76.046,0,0
129511,-0.181,0.187,0.954,-43.565,-49.374,-80.481,68,0
129569,-0.198,0.26,1.073,-38.099,-53.634,-85.282,70,0
129627,-0.216,0.398,1.109,-27.649,-31.947,-106.504,72,0
129685,-0.187,0.453,1.177,-32.489,3.466,-121.832,74,0
129742,-0.301,0.31,1.011,-38.954,29.206,-131.863,77,197
129801,-0.253,0.118,0.999,-9.718,11.504,-112.221,81,193
129859,-0.143,0.186,0.794,2.359,19.702,-96.435,84,160
129915,-0.134,0.16,0.71,-28.359,17.931,-107.237,87,156
129972,-0.025,0.017,0.824,-3.069,9.74,-103.115,90,152
130030,0.019,0.112,0.854,9.74,4.45,-98.679,94,180
130087,0.088,0.005,0.994,1.031,-3.809,-81.115,109,171
130146,0.006,0.168,1.187,-1.924,-1.664,-56.031,110,171
130204,-0.071,0.043,1.233,11.389,-14.641,-25.603,112,171
130260,-0.009,0.235,1.24,62.359,-7.763,-11.221,76,167
130322,-0.175,0.363,1.083,39.847,-0.13,7.573,115,165
130382,-0.202,0.356,1.025,-1.008,15.519,29.924,157,163
130443,-0.237,0.156,0.823,3.763,7.076,49.466,153,161
130502,-0.046,0.157,0.688,15.481,-0.137,70.16,148,157
130562,-0.12,0.194,0.763,-26.771,0.092,69.053,144,154
130663,-0.295,0.161,1.054,-24.565,-5.55,43.55,122,154
130721,-0.328,0.122,1.251,-1.214,3.893,-2.076,123,152
130777,-0.366,0.161,1.186,22.351,22.443,-18.847,128,107
130833,-0.401,0.164,1.095,14.595,22.229,-56.718,137,106
130892,-0.367,0.041,0.97,50.702,11.198,-53.855,138,104
130953,-0.294,0.215,0.861,28.481,9.137,-48.397,0,101
131013,-0.234,0.071,0.771,28.206,12.053,-52.267,185,138
131074,-0.144,0.235,0.649,37.473,11.13,-37.191,184,135
131134,-0.088,0.329,0.784,-16.031,13.87,-48.962,182,132
131194,-0.065,0.092,1.073,-27.244,-0.427,-32.374,181,122
131254,-0.011,0.268,1.205,2.008,-14.176,-11.534,181,115
131312,-0.265,0.391,1.206,-3.939,-19.237,18.702,181,112
131376,-0.183,0.43,1.121,22.748,-12.656,52.412,0,107
131436,-0.23,0.522,1.031,-2.267,-2.779,69.794,0,106
131494,-0.424,0.535,0.939,-44.366,15.779,77.122,181,102
131551,-0.308,0.238,0.811,-27.855,14.176,79.573,179,71
131608,-0.215,0.172,0.652,-7.191,-2.092,76.061,192,69
131664,-0.202,0.213,0.705,-35.664,-16.931,66.26,174,69
131722,-0.332,0.215,0.81,-61.527,-13.901,41.679,176,84
131779,-0.392,0.115,1.034,-64.015,-13.786,10.763,179,82
131836,-0.507,-0.013,1.17,-20.084,4.153,-34.29,178,81
131897,-0.468,0.085,1.147,22.473,26.832,-68.389,183,79
131956,-0.486,0.014,0.936,39.603,36.802,-103.435,0,77
132014,-0.419,0.109,0.886,40.824,23.244,-91.214,0,75
132072,-0.344,0.137,0.794,36.252,30.542,-87.855,0,73
132130,-0.305,0.169,0.683,50.382,37.015,-78.679,0,72
132188,-0.247,0.292,0.624,47.794,37.45,-57.382,0,71
132246,-0.239,0.432,0.706,22.649,42.305,-31.443,0,71
132304,-0.168,0.308,1.067,-12.573,19.985,-21.382,0,72
132363,-0.082,0.147,1.35,-5.076,-6.489,-3.389,0,75
132424,-0.381,0.29,1.25,6.076,-30.282,37.267,0,79
132483,-0.368,0.463,1.271,17.794,-35.511,55.931,0,84
132542,-0.486,0.395,1.131,-2.244,-42.168,71.344,0,95
132608,-0.391,0.402,0.957,-12.718,-21.977,81.122,0,0
132673,-0.335,0.227,0.736,-28.115,-22.992,80.519,0,0
132739,-0.179,0.103,0.653,-7.046,-32.901,76.145,0,0
132804,-0.252,0.28,0.71,-42.725,-32.924,53.16,0,0
132869,-0.292,0.134,0.913,-39.664,-31.183,26.16,0,0
132938,-0.354,0.196,1.082,-23.405,2.435,-7.893,0,0
133003,-0.328,0.17,1.144,-17.405,39.435,-28.916,0,0
133068,-0.41,0.054,0.942,15.26,60.847,-54.931,0,0
133134,-0.348,0.166,0.913,9.634,52.115,-48.626,0,0
133199,-0.401,0.114,0.873,16.031,56.664,-43.557,0,0
133260,-0.206,0.107,0.818,35.954,46.695,-43.45,106,0
133320,-0.141,0.25,0.806,7.71,38.55,-27.916,110,0
133380,-0.104,0.164,0.994,-28.405,15.931,-3.405,93,0
133438,-0.198,0.083,1.066,-31.183,-26.137,24.122,86,0
133500,-0.213,0.271,1.153,-12.733,-44.763,60.435,80,198
133556,-0.358,0.257,1.124,-1.344,-45.344,87.87,74,147
133610,-0.298,0.334,1.105,25.153,-30.008,81.618,68,145
133711,-0.435,0.454,1.023,-23.786,-11.74,69.313,62,188
133766,-0.414,0.243,0.896,-8.817,-2.13,49.229,59,143
133813,-0.2,0.06,0.737,15.038,-18.008,51.076,58,25
133860,-0.161,0.179,0.676,10.542,-26.153,48.702,57,19
133907,-0.228,0.266,0.727,-38.214,-28.695,40.481,56,20
133957,-0.299,0.213,0.883,-56.511,-25.328,27.29,55,82
134010,-0.369,0.161,1.044,-43.695,-17.26,-1.481,56,79
134062,-0.382,0.168,1.103,4.16,18.115,-30.031,57,78
134112,-0.349,0.27,1.063,17.107,54.939,-54.298,59,79
134162,-0.437,0.236,0.932,16.916,82.992,-74.458,61,77
134214,-0.363,0.025,0.991,21.153,50.786,-70.71,62,106
134265,-0.415,0.178,0.896,47.229,57.489,-61.634,65,78
134317,-0.405,0.178,0.822,26.565,33.893,-63.908,69,91
134377,-0.28,0.117,0.778,44.13,16.198,-55.74,0,100
134436,-0.209,0.308,0.709,46.802,12.359,-45.183,0,102
134501,-0.208,0.272,0.938,5.359,3.939,-43.115,0,122
134561,-0.146,0.238,1.12,1.443,-15.321,-15.969,0,93
134627,-0.258,0.42,1.259,-4.74,-18.344,17.26,0,0
134686,-0.305,0.423,1.265,9.176,-17.687,58.458,0,99
134747,-0.484,0.49,1.018,-2.16,-8.756,73.145,0,101
134807,-0.445,0.464,1.017,-25.107,-10.527,80.153,101,0
134866,-0.516,0.367,0.833,-37.069,-4.855,72.802,99,0
134927,-0.255,0.095,0.712,-18.466,-24.534,76.397,96,0
134989,-0.261,0.275,0.666,-46.634,-36.252,71.924,96,0
135050,-0.34,0.189,0.796,-75.718,-47.618,52.214,96,0
135107,-0.369,0.14,0.988,-60.115,-47.191,20.557,95,158
135164,-0.395,0.082,1.071,-8.626,-17.519,-18.046,95,155
135227,-0.265,0.195,1.128,21.756,24.611,-39.664,96,151
135282,-0.356,0.091,0.861,29.672,44.931,-59.198,97,146
135339,-0.247,0.086,0.894,42.198,34.397,-54.87,98,145
135394,-0.311,0.194,0.786,45,51.191,-54.649,98,144
135453,-0.259,0.147,0.766,31.885,48.824,-54.962,100,0
135515,-0.234,0.169,0.784,38.206,35.595,-53.74,103,0
135580,-0.132,0.203,0.955,35.313,18.87,-40.061,0,0
135645,-0.171,0.309,1.121,-20.695,-0.435,-19.191,0,0
135702,-0.198,0.198,1.287,-19.038,-31.916,5.649,69,0
135753,-0.37,0.316,1.225,13.779,-34.351,24.359,69,96
135805,-0.351,0.474,1.217,17.374,-15.756,33.061,110,77
135859,-0.407,0.258,1.002,-9.344,-20.924,47.336,109,95
135913,-0.297,0.357,0.969,-22.107,-10.771,47.443,108,101
135967,-0.42,0.311,0.884,-37.13,-1.519,34.298,107,100
136024,-0.227,-0.003,0.758,-17.221,-25.382,39.496,107,101
136078,-0.095,0.171,0.625,-8.092,-30.489,39.351,107,104
136133,-0.223,0.32,0.745,-52.115,-26.168,22.015,108,108
136193,-0.332,0.19,0.896,-56.26,-26.71,8.557,108,197
136252,-0.369,0.117,1.075,-15.084,-6.832,-16.733,108,0
136311,-0.323,0.208,1.026,13.641,29.924,-32.931,108,0
136372,-0.418,0.014,1.088,13.237,44.847,-65.779,108,0
136431,-0.352,0.046,0.919,53.099,46.588,-41.214,109,0
136494,-0.344,0.104,0.909,12.954,38.885,-46.573,109,0
136602,-0.208,0.168,0.709,47.076,20.053,-20.71,0,0
136667,-0.151,0.208,0.817,20,9.763,-19.71,0,0
136731,-0.179,0.396,0.986,12.481,-1.771,2.832,0,0
136797,-0.1,0.216,1.217,-6.237,-22.29,10.13,0,0
136861,-0.201,0.275,1.262,14.931,-11.176,39.824,0,0
136927,-0.286,0.491,1.184,2.313,1.061,47.344,0,0
136979,-0.408,0.487,1.105,-19.443,-13.603,65.527,114,75
137039,-0.429,0.463,0.969,-27.756,-7.053,61.145,111,0
137102,-0.309,0.152,0.728,-26.733,-24.878,63.817,110,0
137161,-0.194,0.179,0.632,-22.771,-42.206,59.649,109,0
137222,-0.228,0.26,0.769,-37.748,-41.656,41.87,108,0
137281,-0.363,0.27,0.878,-42.863,-35.053,21.473,107,0
137340,-0.346,0.211,1.046,-22.496,-16.191,-10.214,106,0
137401,-0.271,0.214,1.029,15.618,16.26,-27.267,105,0
137460,-0.225,0.12,0.989,36.931,42.885,-57.015,104,0
137520,-0.23,0.232,0.886,36.252,49.931,-48.427,104,0
137579,-0.255,0.091,0.941,34.061,53.137,-54.305,104,0
137641,-0.316,0.197,0.721,45.603,45.603,-35.557,104,0
137702,-0.198,0.205,0.793,9.466,20.924,-27.84,105,0
137761,-0.207,0.172,0.942,10.153,12.145,-24.29,106,0
137821,-0.187,0.265,1.012,-9.008,2.924,-11.496,106,0
137878,-0.181,0.285,1.216,-18.74,-3.832,1.198,71,0
137936,-0.326,0.275,1.183,1.336,-6.008,22.802,70,0
137996,-0.279,0.496,1.211,7.405,1.298,27.962,107,0
138055,-0.44,0.454,1.124,-18.435,-12.275,48.305,107,0
138119,-0.509,0.485,0.981,-40.061,-3.13,51.855,106,0
138178,-0.366,0.132,0.732,-31.13,-22.382,57.504,105,0
138237,-0.121,0.08,0.614,6.626,-38.58,57.374,104,0
138298,-0.233,0.342,0.674,-33.985,-38.183,42.519,104,0
138357,-0.283,0.168,0.883,-61.252,-44.244,21.962,103,0
138417,-0.34,0.188,1.071,-24.374,-33.053,-1.748,102,0
138476,-0.302,0.218,1.094,5.107,1.183,-17.947,102,0
138535,-0.297,0.221,1.099,17.458,47.305,-39.389,102,0
138596,-0.333,0.094,0.879,25.702,43.992,-30.443,100,0
138658,-0.372,0.175,0.841,25.603,48.618,-32.519,100,0
138717,-0.274,0.165,0.729,45.29,43.763,-26.634,92,0
138776,-0.217,0.279,0.715,28.397,32.344,-24.718,89,0
138834,-0.171,0.268,0.855,35.206,28.137,-20.527,87,0
138894,-0.224,0.336,0.943,13.038,15.649,-7.45,85,0
138952,-0.134,0.246,1.115,11.763,5.618,16.427,83,0
139011,-0.175,0.459,1.213,-4.611,5.382,33.985,82,0
139068,-0.292,0.393,1.279,3.985,-7.206,51.061,79,189
139122,-0.434,0.681,1.049,23.557,3.947,65.45,76,133
139180,-0.373,0.583,0.966,-25.527,-3.328,85.298,73,132
139237,-0.431,0.497,0.909,-45.13,0.748,77.092,70,0
139286,-0.384,0.286,0.762,-34.672,-7.45,78.55,65,50
139343,-0.228,0.208,0.682,-24.771,-19.244,75.962,60,0
139401,-0.26,0.262,0.729,-47.618,-32.496,56.008,57,0
139458,-0.291,0.197,0.816,-44.481,-36.305,39.527,59,0
139515,-0.384,0.256,0.977,-45.634,-34.214,8.863,59,0
139616,-0.366,0.241,1.128,15.267,27.855,-49.145,57,0
139673,-0.494,0.21,0.897,22.565,56.641,-85.725,61,0
139729,-0.462,0.178,0.913,27.58,29.779,-84.183,60,127
139783,-0.463,0.226,0.772,46.214,35.519,-86.916,64,125
139836,-0.351,0.232,0.682,39.84,24.29,-90.29,74,124
139897,-0.269,0.246,0.688,35.084,21.313,-91.275,0,123
139958,-0.22,0.229,0.836,26.13,15.435,-87.786,0,120
140019,-0.171,0.299,0.981,18.779,5.718,-77.168,0,120
140080,-0.115,0.293,1.175,-5.267,-11.527,-46.885,0,120
140141,-0.35,0.361,1.237,8.901,-19.756,-6.802,0,124
140206,-0.292,0.53,1.221,38.198,-7.603,27.847,0,128
140268,-0.468,0.456,1.047,1.053,-7.305,55.985,0,147
140334,-0.423,0.434,0.951,-14.794,-5.672,65.87,0,0
140399,-0.377,0.184,0.765,-27.611,-19.489,60.092,0,0
140464,-0.204,0.145,0.642,0.55,-39.496,59.985,0,0
140529,-0.283,0.322,0.735,-45.824,-39.55,38.74,0,0
140595,-0.413,0.143,0.91,-45.924,-40.969,19.649,0,0
140660,-0.429,0.243,1.081,-20.069,-21.618,-23.359,0,0
140726,-0.383,0.23,1.079,10.168,13.389,-46.809,0,0
140794,-0.438,0.145,0.884,17.557,40.13,-83.16,0,0
140860,-0.32,0.123,0.873,47.763,34.443,-65.176,0,0
140925,-0.383,0.266,0.72,19.015,40.802,-56.618,0,0
140991,-0.178,0.121,0.744,32.359,24.336,-45.191,0,0
141057,-0.127,0.308,0.843,24.458,10.832,-37.58,0,0
141122,-0.187,0.289,1.019,-7.275,-0.534,-18.962,0,0
141188,-0.139,0.293,1.174,-1.954,-15.878,12.382,0,0
141253,-0.318,0.377,1.194,8.916,-6.427,35.382,0,0
141319,-0.681,0.605,1.134,5.504,18.55,37.107,0,0
141387,-0.378,0.315,1.006,0.763,-11.405,57.328,0,0
141453,-0.414,0.399,0.788,-22.13,-7.603,49.237,0,0
141518,-0.266,0.123,0.678,-16.473,-23.076,49.313,0,0
141584,-0.225,0.271,0.616,-19.328,-32.237,42.443,0,0
141649,-0.374,0.302,0.789,-48.557,-26.588,19.908,0,0
141715,-0.457,0.278,1.009,-31.924,-27.588,-3.763,0,0
141780,-0.441,0.229,1.076,3.824,3.893,-42.496,0,0
141846,-0.351,0.339,1.096,41.87,59.344,-72.573,0,0
141912,-0.315,0.123,0.941,19.924,38.214,-51.084,0,0
141980,-0.407,0.279,0.831,39.748,45.298,-43.641,0,0
142046,-0.207,0.195,0.711,24.779,22.183,-26.901,0,0
142111,-0.125,0.225,0.786,28.061,7.817,-31.969,0,0
142177,-0.215,0.323,0.99,-4.969,-0.519,-5.802,0,0
142243,-0.221,0.191,1.103,-24.046,-22.878,20.695,0,0
142309,-0.391,0.377,1.101,-3.336,-26.916,41.412,0,0
142374,-0.272,0.408,1.142,17.313,-23.328,44.221,0,0
142440,-0.505,0.523,1.075,0.985,-14.015,36.29,0,0
142505,-0.527,0.498,0.983,-18.443,1.008,32.74,0,0
142574,-0.293,0.114,0.722,-0.656,-23.061,34.092,0,0
142640,-0.136,0.184,0.608,-8.008,-41.679,40.534,0,0
142706,-0.199,0.312,0.775,-48.847,-42.939,16.275,0,0
142772,-0.328,0.29,0.962,-41.947,-39.977,-3.092,0,0
142880,-0.309,0.32,1.095,4.573,29.664,-45.847,0,0
142946,-0.355,0.251,0.901,16.992,63.893,-65.282,0,0
143012,-0.278,0.158,0.869,28.366,43.389,-54.847,0,0
143078,-0.352,0.219,0.779,41.962,50.687,-43.107,0,0
143149,-0.293,0.269,0.632,36.374,40.237,-24.412,0,0
143216,-0.197,0.168,0.798,33.168,20.206,-23.931,0,0
143281,-0.206,0.381,0.98,26.916,14.26,-11.496,0,0
143345,-0.208,0.332,1.203,-6.908,-0.58,15.74,0,0
143410,-0.47,0.458,1.161,1.046,-12.023,41.336,0,0
143474,-0.35,0.596,1.178,21.504,-6.672,44.565,0,0
143539,-0.504,0.559,1.018,-29.588,-15.908,55.863,0,0
143604,-0.489,0.461,0.952,-55.87,-10.382,51.229,0,0
143669,-0.301,0.162,0.734,-29.794,-38.695,53,0,0
143733,-0.183,0.333,0.573,-48.618,-50.863,52.962,0,0
143801,-0.313,0.27,0.788,-84.359,-56.672,25.939,0,0
143865,-0.292,0.259,1.02,-51.893,-47.695,10.55,0,0
143931,-0.335,0.193,1.135,-29.344,-19.725,-25.237,0,0
143995,-0.218,0.14,1.13,6.229,17.649,-39.573,0,0
144060,-0.174,-0.022,0.93,11.046,10.443,-45.931,0,0
144125,-0.217,0.099,0.888,24.603,18.931,-47.176,0,0
144190,-0.176,0.117,0.791,19.046,12.687,-40.137,0,0
144254,-0.066,0.117,0.756,24.443,8.298,-31.878,0,0
144320,-0.033,0.188,0.853,3.924,6.069,-26.298,0,0
144388,-0.005,0.101,1.025,-11.45,1.618,-11.389,0,0
144452,0.005,0.192,1.197,-7.748,-1.473,2.557,0,0
144517,-0.125,0.181,1.239,15.817,-10.374,17.458,0,0
144581,-0.202,0.371,1.138,36.084,5.107,12.908,0,0
144647,-0.192,0.462,1.089,25.618,10.481,47.58,0,0
144711,-0.312,0.495,0.9,-11.702,21.366,44.679,0,0
144776,-0.165,0.094,0.795,34.397,-4.649,52.756,0,0
144841,-0.104,0.312,0.659,23.695,-17.679,57.824,0,0
144906,-0.153,0.284,0.82,-26.893,-22.359,40.542,0,0
144973,-0.219,0.241,1.072,-28.969,-20.527,9.565,0,0
145039,-0.322,0.284,1.113,1.58,15.962,-30.42,0,0
145103,-0.29,0.241,1.158,-2.824,36.733,-67.802,0,0
145169,-0.308,0.152,0.902,27.26,31.229,-74.458,0,0
145233,-0.287,0.31,0.877,16.863,35.023,-64.672,0,0
145298,-0.328,0.287,0.792,20.382,31.183,-49.824,0,0
145363,-0.165,0.216,0.708,34.305,8.321,-36.443,0,0
145428,-0.128,0.354,0.763,29.947,5,-30.267,0,0
145494,-0.181,0.372,0.893,19.695,5.664,-10.695,0,0
145561,-0.125,0.376,1.077,20.588,8.237,12.71,0,0
145626,-0.347,0.505,1.113,13.695,10,37.466,0,0
145691,-0.295,0.657,1.153,26.328,21.321,49.42,0,0
145756,-0.494,0.647,1.03,-31.763,8.282,62.466,0,0
145821,-0.49,0.45,0.967,-58.092,3.229,60.908,0,0
145886,-0.443,0.25,0.793,-45.023,-9.389,54.992,0,0
145951,-0.314,0.223,0.628,-39.16,-39.29,46.153,0,0
146016,-0.373,0.262,0.638,-44.519,-51.321,15.137,0,0
146080,-0.386,0.211,0.815,-27.427,-54.641,-24.565,0,191
146184,-0.336,0.339,1.01,9.824,3.076,-92.504,58,188
146239,-0.386,0.309,1.075,28.443,27.672,-133.183,50,187
146305,-0.439,0.374,0.875,42.45,21.863,-131.435,0,0
146361,-0.302,0.358,0.862,13.687,13.076,-113.366,51,0
146417,-0.404,0.333,0.914,29.84,7.794,-102.71,49,0
146475,-0.251,0.273,0.848,55.664,-9.466,-91.008,50,0
146531,-0.137,0.346,0.804,39.489,-15.527,-77.496,55,0
146588,-0.109,0.328,0.896,23.061,-14.351,-57.473,55,0
146646,-0.054,0.29,0.92,15.626,-20.076,-33.008,56,0
146721,-0.12,0.329,0.986,17.107,-17.489,-8.916,179,0
146779,-0.189,0.35,0.99,11.328,-15.641,17.954,54,0
146841,-0.272,0.484,1.113,3.786,3.519,13.008,168,0
146898,-0.441,0.405,1.097,10.153,16.29,10.939,52,0
146955,-0.428,0.296,1.042,3.214,4.954,23.71,51,0
147011,-0.477,0.218,0.913,-23.55,11.145,44.321,49,0
147068,-0.45,0.064,0.771,-29.908,6.038,47.336,50,0
147123,-0.396,0.169,0.754,-1.412,12.519,43.382,17,0
147180,-0.416,0.187,0.787,-16.237,12.137,22.382,51,0
147239,-0.375,0.192,0.855,7.534,10.649,19.588,45,0
147305,-0.356,0.363,0.869,4.122,23.053,24.893,0,0
147360,-0.259,0.205,0.91,3.145,26.092,24.45,40,0
147423,-0.124,0.401,0.84,19.664,29.023,25.221,153,0
147479,-0.135,0.413,0.894,11.634,22.885,42.42,40,0
147535,-0.166,0.553,0.833,10,26.603,54.931,40,0
147585,-0.186,0.499,0.872,-7.58,18.847,61.015,44,70
147633,-0.222,0.537,0.906,-2.412,18.863,59.87,41,59
147680,-0.281,0.589,0.907,-13.298,20.382,52.473,42,42
147728,-0.335,0.556,0.926,-26.611,23.786,45.557,43,18
147776,-0.349,0.523,0.883,-35.84,20.412,38.794,44,57
147824,-0.361,0.452,0.897,-45.489,8.893,27.969,44,43
147870,-0.438,0.435,0.954,-49.031,-2.702,18.168,46,20
147918,-0.452,0.293,0.994,-37.519,-18.893,2,46,49
147969,-0.508,0.3,0.997,-10.672,-22.618,-27.847,48,103
148021,-0.561,0.303,0.957,3.779,-11.573,-51.076,48,119
148072,-0.526,0.284,0.829,-11.198,2.443,-53.55,47,104
148123,-0.511,0.158,0.813,-15.489,-3.908,-53.977,47,104
148172,-0.434,0.217,0.853,1.992,-3.779,-49.145,48,102
148222,-0.485,0.313,0.905,-12.565,-0.878,-54.191,49,100
148274,-0.399,0.12,0.908,5.176,-14.053,-50.763,49,100
148325,-0.15,0.156,0.845,28.702,-15.26,-39.603,48,98
148376,-0.092,0.283,0.787,4.885,-5.496,-35.229,49,107
148427,0.003,0.165,0.879,-7.756,3.183,-19.779,48,106
148478,-0.128,0.206,0.933,-10.84,4.176,4.206,48,106
148530,-0.201,0.091,0.964,-9.489,-12.832,23.855,46,105
148585,-0.209,0.047,0.916,4.763,-12.107,29.344,46,116
148636,-0.336,0.072,0.921,-8.649,0.069,19.053,46,114
148687,-0.468,-0.008,1.056,-26.771,8.702,14.069,44,113
148739,-0.445,-0.078,1.034,-4.13,15.924,9.29,44,113
148790,-0.38,0.017,0.958,10.496,3.511,0.321,47,98
148841,-0.338,0.186,1.044,12.511,3.023,0.84,47,103
148936,-0.249,0.45,0.925,13.542,13.099,-5.878,51,110
148985,-0.291,0.556,0.927,-21.901,18.244,-14.359,27,97
149038,-0.471,0.426,0.938,-5.45,14.489,-10.26,57,103
149092,-0.381,0.341,0.796,39.153,2.954,2.198,51,100
149145,-0.295,0.336,0.741,25.527,-5.511,-7.527,81,102
149198,-0.404,0.241,0.832,4.634,-12.168,-17.267,81,101
149251,-0.352,0.141,0.84,8.992,-27.611,-18.145,81,100
149304,-0.383,0.215,0.864,6.542,-42.534,-29.55,81,101
149357,-0.434,0.368,1.004,6.939,-33.069,-44.26,83,96
149416,-0.445,0.333,1.06,9.115,-27.244,-63.015,0,105
149476,-0.422,0.38,1.134,31.802,-10.977,-81.382,0,92
149539,-0.247,0.25,0.917,37.198,11.954,-61.794,0,104
149600,-0.174,0.235,0.771,-13.122,5.206,-27.244,0,95
149660,-0.28,0.125,0.811,-43.489,3.817,-3.985,0,106
149720,-0.242,0.045,0.71,3.298,-14.847,15.305,0,104
149780,-0.237,0.443,0.769,48.962,-10.344,-9.664,0,107
149840,-0.341,0.274,0.839,53.389,-23.885,-35.435,0,108
149902,-0.19,0.082,0.906,84.588,-27.527,-31.962,0,110
149962,0.008,0.184,1.039,34.397,2.817,-6.802,0,111
150020,-0.193,0.413,1.157,-14.992,19.389,13.305,65,0
150076,-0.214,0.368,1.119,13.176,2.893,41.198,62,113
150137,-0.221,0.768,0.984,40.679,31.855,52.969,0,126
150197,-0.421,0.687,0.853,-25.809,33.832,77.252,0,94
150257,-0.429,0.592,0.866,-39.718,36.298,81.977,0,99
150315,-0.492,0.385,0.86,-39.672,31.786,62.374,0,57
150372,-0.315,0.177,0.692,-13.756,25.664,60.511,0,57
150430,-0.155,0.176,0.671,-18.763,21.053,47.855,0,56
150488,-0.542,0.515,0.734,-67.748,10.809,35.374,0,54
150545,-0.615,0.299,0.883,-86.26,-21.252,9.107,0,57
150619,-0.531,0.096,0.955,17.412,-23.55,-32.023,0,0
150683,-0.437,0.466,0.847,54.305,3.076,-78.275,0,0
150748,-0.486,0.364,0.967,39.267,19.298,-119.168,0,192
150812,-0.453,0.228,0.973,50.672,1.771,-85.023,0,0
150877,-0.377,0.345,0.796,7.435,-3.351,-47.435,0,0
150940,-0.363,0.369,0.797,2.802,8.519,-49.267,0,173
151003,-0.408,0.324,0.73,40.687,-16.298,-48.008,0,171
151066,-0.209,0.286,0.667,87.237,-37.832,-47.412,0,173
151130,-0.095,0.329,0.838,85.015,-34.664,-45.924,0,174
151196,-0.159,0.541,1.098,3.924,5.16,1.87,0,176
151260,-0.502,0.438,1.125,-48.466,9.473,41.412,0,178
151323,-0.374,0.516,1.091,34.74,14.947,43.748,0,181
151388,-0.415,0.584,0.808,8.313,18.855,48.023,0,186
151452,-0.344,0.52,0.732,-57.061,28.153,57.924,0,0
151517,-0.586,0.44,0.892,-91.557,30.603,41.664,0,0
151581,-0.542,0.385,0.782,-46.702,17.397,54.947,0,0
151647,-0.271,0.28,0.661,-74.771,4.908,66.443,0,0
151711,-0.348,0.168,0.697,-115.26,13.771,68.634,0,0
151779,-0.472,0.182,0.751,-103.107,-8.45,28.176,0,0
151833,-0.523,0.28,0.968,22.534,-20.031,-32.16,17,0
151899,-0.552,0.404,0.935,76.84,-13.046,-58.221,0,0
152006,-0.356,0.35,0.752,140.702,-33.672,-136.702,0,0
152072,-0.417,0.505,0.86,107.489,-50.672,-137.115,0,195
152130,-0.296,0.256,0.997,37.977,-31.977,-74.046,0,84
152188,-0.194,0.282,0.896,37.496,9.809,-28.328,0,84
152246,-0.235,0.378,0.74,-19.214,1.466,-21.908,0,84
152303,-0.13,0.222,0.843,0.198,-6.695,-18.282,0,60
152355,-0.069,0.418,0.871,6.198,-5.893,-7.511,58,62
152420,-0.004,0.525,1.028,-3.626,0.794,7.023,0,199
152468,-0.599,0.64,1.103,-24.611,8.13,59.817,57,60
152525,-0.401,0.535,1.094,12.573,34.748,85.565,0,62
152583,-0.418,0.56,0.833,4.351,56.809,67.069,0,63
152647,-0.442,0.448,0.72,-39.962,44.427,76.008,0,0
152713,-0.461,0.513,0.801,-77.634,26.824,44.641,0,0
152777,-0.536,0.316,0.796,-42.802,13.779,32.137,0,0
152843,-0.293,0.416,0.603,-14.42,3.427,41.16,0,0
152910,-0.319,0.406,0.661,-51.634,-0.489,25.855,0,0
152975,-0.393,0.416,0.801,-39.985,-0.321,15.992,0,0
153040,-0.526,0.453,0.926,-31.412,5.992,-12.412,0,0
153105,-0.529,0.46,0.956,12.893,22.344,-21.588,0,0
153170,-0.401,0.108,0.802,18.153,9.229,-24.664,0,0
153235,-0.346,0.406,0.77,41.198,23.466,-19.298,0,0
153300,-0.52,0.448,0.839,-14.038,9.481,-29.344,0,0
153365,-0.615,0.122,0.918,35.916,-18.008,-32.435,0,0
153431,-0.404,0.192,0.722,107.229,-23.885,-34.763,0,0
153498,-0.317,0.333,0.794,47.55,-27.939,-25.069,0,0
153564,-0.273,0.329,0.912,11.023,-18.733,-7.901,0,0
153628,-0.193,0.355,0.945,-16.71,-6.275,15.947,0,0
153694,-0.168,0.461,0.973,-17.992,4.557,40.733,0,0
153759,-0.296,0.524,0.91,-10.435,19.45,60.16,0,0
153824,-0.323,0.678,0.836,7.191,36.008,65.45,0,0
153882,-0.565,0.76,0.785,-39.695,31.122,64.427,0,78
153939,-0.615,0.548,0.834,-36.374,19.282,50.939,0,67
153997,-0.519,0.442,0.792,-13.504,22.015,36.008,0,61
154057,-0.336,0.402,0.629,-13.221,26.908,34.763,0,60
154114,-0.316,0.479,0.62,-46.794,21.015,23.183,0,59
154171,-0.427,0.436,0.726,-56.145,7.695,16.634,0,59
154226,-0.46,0.402,0.734,-23.763,-8.504,5.038,160,58
154280,-0.445,0.496,0.78,-4.542,-6.672,-14.382,160,59
154338,-0.539,0.513,0.912,14.374,10.13,-33.817,0,59
154395,-0.519,0.541,0.985,15.542,26.328,-38.466,0,60
154452,-0.417,0.388,1.001,5.061,31.626,-27.305,0,62
154513,-0.236,0.285,0.83,-33.908,20.405,29.145,0,66
154578,-0.364,0.284,0.67,-95.29,10.74,59.489,0,0
154633,-0.347,0.343,0.818,-53.969,14.557,53.038,16,0
154698,-0.531,0.488,0.826,-21.954,5.107,23.534,0,0
154762,-0.449,0.31,0.78,24.527,-26.702,34.481,0,170
154818,-0.244,0.292,0.669,69.664,-24.84,31.359,44,0
154874,-0.277,0.353,0.795,29.542,-3.87,25.649,42,0
154937,-0.326,0.324,0.926,-29.351,35.282,56.397,0,159
155000,-0.4,0.324,0.956,-53.008,38.702,56.099,0,155
155109,-0.388,0.616,0.944,15.504,26.519,49.298,0,148
155171,-0.516,0.647,0.877,-24.992,31.733,50.641,0,144
155233,-0.407,0.588,0.766,-29.237,36.809,59.458,0,140
155294,-0.445,0.605,0.729,-63.779,43.084,51.924,0,138
155357,-0.456,0.496,0.715,-40.496,39.153,48.595,0,137
155418,-0.322,0.43,0.582,-23.595,19.863,54.061,0,136
155480,-0.327,0.475,0.567,-35.954,8.534,43.267,0,135
155541,-0.456,0.412,0.711,-21.321,-6.947,22.351,0,134
155603,-0.545,0.514,0.76,11.855,-11.634,10.176,0,134
155668,-0.543,0.533,0.921,17.992,1.29,-16.176,0,135
155729,-0.589,0.521,0.969,13.237,23.038,-23.885,0,135
155791,-0.521,0.404,1.044,15.519,46.076,-21.26,0,134
155853,-0.493,0.46,0.785,-29.115,20.214,-10.542,0,134
155915,-0.483,0.301,0.756,-43.366,-20.687,-3.397,0,134
155976,-0.534,0.288,0.672,-7.695,-48.046,-5.046,0,134
156039,-0.476,0.299,0.693,24.107,-42.275,-6.55,0,134
156100,-0.272,0.282,0.776,16.603,-19.405,9.916,0,134
156162,-0.154,0.423,0.821,-3.321,16.664,10.733,0,135
156227,-0.408,0.431,0.86,-45.374,25.366,28.656,0,134
156285,-0.301,0.264,0.869,-22.672,9.458,38.183,143,136
156352,-0.287,0.334,0.88,-13.824,6.931,40.618,142,139
156413,-0.392,0.378,0.934,-12.229,16.809,54.321,0,141
156475,-0.37,0.364,0.913,-21.557,20.168,76.389,0,143
156537,-0.408,0.502,0.971,-15.282,34.397,72.443,0,147
156602,-0.494,0.581,0.905,-14.588,39.031,79.366,0,0
156666,-0.442,0.553,0.774,-26.069,43.427,83.733,0,0
156734,-0.396,0.47,0.667,-70.809,37.71,78.305,0,0
156800,-0.387,0.543,0.667,-52.427,40.29,67.649,0,0
156864,-0.41,0.489,0.64,-46.237,35.519,58.351,0,0
156929,-0.459,0.518,0.709,-21.115,25.511,42.511,0,0
156993,-0.58,0.517,0.752,-10.611,5.427,29.229,0,0
157058,-0.513,0.406,0.77,17.191,-10.42,8.435,0,0
157123,-0.529,0.516,0.883,19.412,6.885,-17.573,0,0
157188,-0.795,0.564,1.11,-1.466,31.893,-19.985,0,0
157252,-0.347,0.087,0.758,4.962,-5.557,3.748,0,0
157320,-0.141,0.415,0.557,1.794,-14.527,8.565,0,0
157384,-0.311,0.534,0.77,-50.74,10.29,-5,0,0
157450,-0.364,0.404,1.018,-9.328,31.985,32.725,0,0
157514,-0.288,0.607,0.814,-39.855,57.931,79.557,0,0
157579,-0.303,0.432,0.752,-87.527,59.107,102.779,0,0
157643,-0.408,0.474,0.729,-75.969,52.954,119.092,0,0
157709,-0.459,0.524,0.76,-73.206,48.504,129.878,0,0
157773,-0.6,0.567,0.835,-87.489,39.542,143.153,0,0
157838,-0.637,0.603,0.933,-93.366,32.557,149.595,0,0
157899,-0.613,0.599,0.753,-133.954,4.992,142.748,0,81
157965,-0.452,0.34,0.751,-180.573,-22.435,111.489,0,0
158029,-0.342,0.29,0.837,-123.672,-42.74,75.443,0,0
158094,-0.329,0.183,0.892,-21.336,-58.45,43.183,0,0
158149,-0.223,0.241,0.877,32.023,-63.427,21.695,16,0
158214,-0.204,-0.008,0.965,106.832,-50.725,0.626,0,0
158322,-0.02,0.685,0.748,136.008,-21.977,23.061,0,0
158387,-0.025,0.904,0.77,35.076,28.351,16.519,0,0
158452,-0.173,0.86,0.708,-10.634,81.206,34.634,0,0
158520,-0.138,0.625,0.603,-48.649,112.084,63.702,0,0
158584,-0.139,0.574,0.708,-28.847,110.344,64.092,0,0
158644,-0.215,0.464,0.951,-45.84,63.26,32.618,0,98
158703,-0.292,0.17,1.159,5.702,6.038,-17,0,100
158763,-0.29,0.597,1.02,61.603,-31.985,-28.489,0,102
158822,-0.241,0.499,0.973,-11.573,-53.435,-39.58,0,105
158887,-0.178,0.186,0.944,-15.71,-93.74,-56.061,0,0
158952,-0.143,0.354,0.988,44.084,-88.534,-47.611,0,0
159010,-0.122,0.67,0.782,33.382,-30.145,-20.305,0,79
159072,-0.073,0.479,0.743,19.641,29.473,-1.221,0,80
159130,0.041,0.439,0.766,42.588,61.527,16.458,0,81
159186,0.014,0.524,0.887,-16.389,74.084,22.84,0,59
159244,-0.01,0.445,1.077,-8.817,64.809,45.389,0,60
159301,-0.081,0.567,0.973,-35.321,31.794,44.412,0,57
159357,-0.107,0.42,0.901,-41.153,-4.26,45.794,0,49
159414,-0.111,0.497,0.849,-24.695,-17.748,50.466,0,50
159470,-0.187,0.522,0.828,-60.191,-25.076,52.122,194,50
159526,-0.167,0.365,0.993,-65.069,-26.733,32.519,192,57
159587,-0.174,0.336,1.088,20.29,7.87,9.191,192,63
159643,-0.343,0.514,0.842,7.595,-0.687,19.008,193,61
159699,-0.124,0.405,0.908,-5.336,-2.496,35.321,192,59
159757,-0.26,0.575,0.912,-43.954,11.992,34.137,192,57
159814,-0.24,0.346,0.995,-50.305,9.916,26.397,192,72
159870,-0.214,0.359,0.927,-12.412,3.084,18.153,192,50
159927,-0.113,0.323,0.902,-19.939,-18.305,7.542,192,50
159973,-0.134,0.288,0.933,-3.916,-34.687,-13.038,25,50
160032,-0.113,0.325,0.877,21.366,-45.412,-22.42,193,51
160089,-0.036,0.405,0.819,20.542,-44.336,-31.275,194,50
160145,0.013,0.345,0.892,15.046,-26.534,-39.214,194,53
160202,0.063,0.462,0.913,39.611,-8.931,-46.931,195,51
160258,-0.003,0.599,0.9,27.366,-1.115,-59.992,198,45
160315,-0.017,0.545,0.989,5.718,-13.985,-72.534,0,45
160371,0.002,0.426,1.041,49.679,-20.443,-83.84,0,49
160428,-0.025,0.582,0.889,49.015,-21.137,-84.29,0,50
160485,-0.02,0.436,1.014,3.115,-31.565,-62.176,0,53
160544,-0.018,0.489,1.001,0.924,-25.733,-14.763,0,50
160602,0.016,0.406,0.98,-29.626,-13.183,-6.763,0,51
160658,-0.031,0.285,0.904,-21.656,-18.45,-5.221,0,51
160715,0.102,0.252,0.875,-21.321,-35.809,-5.267,0,53
160772,0.094,0.269,0.886,-26.718,-39.206,-0.244,0,55
160829,0.1,0.279,0.858,-12.962,-39.824,8.626,0,57
160886,0.216,0.345,0.97,-17.267,-28.802,20.115,0,55
160944,0.078,0.351,0.959,-17.489,-24.313,23.466,0,58
161001,0.123,0.388,1.001,-10.695,-24.878,29.198,0,59
161061,0.178,0.49,1.04,-5.977,-17.649,3.168,0,59
161119,0.169,0.27,1.046,-13.458,-11.076,6.229,0,57
161177,0.169,0.345,0.929,-26.092,-12.389,0.908,0,88
161277,0.035,0.371,0.885,4.107,-12.198,-6.519,0,58
161337,0.121,0.32,0.876,-19.229,-20.885,-7.313,0,87
161395,0.153,0.382,0.915,-16.672,0.427,-27.847,0,85
161454,0.068,0.341,0.932,18.305,14.847,-35.603,0,83
161513,0.064,0.506,0.786,35.313,23.618,-46.87,0,82
161571,0.034,0.493,0.839,3.473,6.092,-56.046,0,81
161633,0.027,0.52,0.891,1.275,-8.344,-52.656,0,82
161691,0.167,0.529,0.938,-17.015,-11.206,-52.122,0,82
161751,0.17,0.569,0.958,-12.458,-7.053,-41.183,0,84
161809,0.212,0.645,0.936,-18.053,-1.122,-14.947,0,84
161868,0.295,0.503,0.915,-31.321,10.321,3.557,0,89
161928,0.267,0.26,1.074,17.481,-16.55,32.511,0,94
161987,0.274,0.257,1.134,108.206,-61.122,54.687,0,97
162053,0.297,0.283,1.076,155.153,-115.42,113.313,0,0
162109,0.412,0.624,0.848,132.679,-164.489,129.87,30,0
162167,0.454,0.613,0.704,90.84,-146.893,140.244,26,0
162223,0.543,0.389,0.567,35.634,-121.649,119.489,23,0
162278,0.696,0.34,0.308,18.908,-87.183,114.969,21,0
162333,0.807,0.222,0.182,-6.298,-74.42,82.557,24,0
162388,0.867,0.119,0.235,43.298,-46.908,49.954,19,0
162444,0.903,0.257,0.112,4.603,-24.504,27.527,20,0
162499,0.939,-0.032,0.278,43.015,-8.672,5.153,19,0
162554,0.958,0.29,0.228,36.878,39.313,-19.824,20,0
162610,0.806,0.084,0.326,-6.733,89.099,-55.366,25,0
162668,0.63,0.196,0.366,27.916,132.191,-94.298,19,0
162734,0.496,0.386,0.418,-32.687,181.809,-148.779,0,0
162789,0.244,0.451,0.682,-71.725,216.679,-176.84,23,0
162845,-0.033,0.433,0.966,-25.702,212.099,-195.969,36,0
162912,-0.182,0.864,1.061,-59.809,162.13,-193.725,0,0
162977,-0.007,0.792,1.267,-40.779,74.756,-163.107,0,0
163036,-0.367,0.754,1.088,-94.031,12.832,-178.779,0,79
163094,-0.255,0.242,1.259,11.832,-22.878,-138.389,0,71
163155,-0.158,0.579,0.829,9.282,-44.519,-99.992,0,68
163215,-0.034,0.265,0.867,-57.084,-57.412,-85.695,0,84
163273,-0.103,0.221,0.789,-41.13,-50.267,-67.298,0,71
163331,-0.164,0.294,0.839,-42.298,-24.626,-46.611,0,64
163389,-0.306,0.299,0.977,-43.008,-8.824,-47.679,0,62
163446,-0.319,0.213,1.06,-8.786,-0.031,-36.221,0,63
163505,-0.346,0.195,1.103,-17.282,-4.298,-39.328,0,62
163563,-0.215,0.017,1.204,-7.725,-6.015,-48.069,0,69
163620,-0.297,0.073,1.044,37.244,-3.542,-55.405,0,66
163682,-0.258,-0.11,0.926,59.534,-28.672,-15.908,0,72
163741,-0.148,-0.105,0.779,93.145,-26.931,1.725,0,75
163800,-0.142,0.186,0.672,124.397,-39.374,-26.679,0,77
163858,-0.092,0.341,0.753,81.71,-43.168,-60.366,0,73
163917,-0.032,0.275,0.897,55.771,-39.282,-45.939,0,80
163977,0.146,0.333,1.013,48.076,10.191,-9.473,0,83
164040,0.105,0.586,0.961,-31.443,45.885,13.008,0,82
164099,0.14,0.539,1.038,-51.641,55.725,30.023,0,81
164149,-0.01,0.498,1.06,-25.771,41.481,35.771,69,86
164254,0.093,0.385,1.038,-28.405,36.748,64.565,0,96
164313,-0.183,0.372,1.215,-29.565,34.565,80.939,0,99
164378,-0.459,0.587,1.156,-62.328,18.924,75.458,0,0
164443,-0.348,0.252,0.966,-47.13,0.794,45.237,0,0
164507,-0.232,0.205,0.699,-41.153,-25.58,47.328,0,0
164572,-0.257,0.167,0.824,-86.176,-53.115,30.985,0,0
164637,-0.236,0.141,0.966,-79.55,-63.908,15.954,0,0
164702,-0.243,0.025,1.007,-25.42,-34.382,-3.916,0,0
164766,-0.178,0.258,1.026,-14.847,11.481,-20.397,0,0
164834,-0.083,-0.141,0.912,-1.267,21.313,-6.748,0,0
164898,-0.204,-0.011,0.756,29.153,15.977,5.947,0,0
164964,-0.164,0.119,0.713,78.641,5.634,0.191,0,0
165028,-0.137,0.247,0.813,84.244,13.427,-49.382,0,0
165093,-0.103,0.209,0.908,78.542,11.847,-50.153,0,0
165150,0.113,0.29,1.055,52.573,13.321,-44.061,61,0
165215,0.216,0.183,1.288,10.443,16.282,-11.29,0,0
165279,0.011,0.403,1.347,-10.71,-0.443,18.824,0,0
165344,-0.052,0.548,1.224,21.137,-4.351,35.901,0,0
165412,-0.146,0.516,1.093,-28.061,-8.832,43.817,0,0
165477,-0.216,0.611,1.072,-30.664,10.344,50.328,0,0
165541,-0.271,0.265,0.837,-40.046,3.298,46.275,0,0
165607,-0.01,0.051,0.602,-4.969,-22.336,50.771,0,0
165671,-0.094,0.267,0.603,-50.244,-38.328,38.656,0,0
165736,-0.154,0.284,0.867,-46.809,-32.954,22.389,0,0
165801,-0.153,0.294,1.055,-17.206,10.031,-16.71,0,0
165866,-0.255,0.332,1.093,3.321,53.145,-50.153,0,0
165932,-0.082,0.062,1.011,37.221,62.916,-51.298,0,0
165999,-0.063,0.183,0.891,26.702,44.595,-10.649,0,0
166064,-0.125,0.297,0.856,52.267,48.237,4.58,194,0
166128,-0.25,0.494,0.776,32.053,50.763,2.931,189,0
166192,-0.179,0.153,0.985,24.382,10.809,11.947,175,0
166254,-0.013,0.37,0.974,15.588,13.321,33.641,172,0
166319,-0.104,0.313,1.152,-37.389,4,40.878,184,197
166376,-0.221,0.46,1.123,10.901,-8.878,58.672,179,94
166427,-0.274,0.783,1.083,25.481,12.443,73.977,51,95
166487,-0.371,0.71,1.01,-20.435,13.473,83.229,51,0
166543,-0.323,0.573,0.945,-14.84,23.534,90.588,51,0
166599,-0.281,0.464,0.74,-18.519,38,89.809,45,0
166656,-0.372,0.424,0.566,-29.55,27.145,90.725,0,57
166712,-0.304,0.394,0.564,-56.107,7.153,92.115,0,51
166760,-0.307,0.336,0.741,-67.298,-12.679,77.458,45,47
166815,-0.355,0.28,0.891,-53.351,-25.328,49.817,0,42
166862,-0.302,0.294,1.031,-16.817,-38.122,-1.504,43,37
166918,-0.053,0.225,1.082,16.489,-23.435,-32.527,0,37
166968,0.042,0.432,1.107,28.061,26.687,-60.565,38,44
167020,0.027,0.25,1.004,13.969,50.489,-54.977,136,38
167072,-0.308,0.447,0.899,2.473,69.237,-45.748,133,36
167123,-0.271,0.391,0.981,-19.458,57.473,-21.305,134,33
167176,-0.372,0.204,0.746,-17.397,58.595,14.885,135,33
167231,-0.539,0.175,0.604,-20.046,55.687,25.947,0,33
167329,-0.371,-0.004,0.828,-0.977,9.908,39.878,0,29
167385,-0.205,0.135,0.91,19.023,-8.618,56.901,0,26
167440,-0.326,0.658,0.931,2.534,25.366,41.305,0,24
167494,-0.818,0.521,0.905,-6.71,18.84,15.145,137,24
167545,-0.526,0.473,0.858,10.924,24.252,37.58,138,21
167597,-0.405,0.514,0.751,-34.336,22.687,38.282,137,21
167648,-0.591,0.282,0.815,-60.756,7.061,29.107,138,22
167700,-0.598,0.201,0.84,-35.145,3.656,32.42,139,23
167751,-0.54,0.187,0.84,-34.481,7.031,22.191,140,22
167802,-0.486,0.05,1.016,-23.031,14.115,13.962,142,24
167855,-0.486,0.117,0.974,-15.344,17.557,22.855,144,23
167907,-0.428,0.133,1.039,-25.229,12.069,20.481,147,24
167962,-0.456,0.186,0.992,-3.992,1.84,10.763,150,23
168018,-0.435,0.307,0.906,28.107,8.924,6.817,172,77
168075,-0.326,0.291,0.818,-5.786,1.855,2.198,157,82
168129,-0.318,0.276,0.872,-4.313,7.985,-15.71,16,0
168175,-0.585,0.168,0.922,-1.252,-2.947,-44.336,16,46
168221,-0.418,0.054,1.033,9.275,-19.916,-36.954,17,46
168275,-0.23,0.052,1.016,-16.031,-25.588,-23.275,16,0
168332,-0.303,0.014,0.962,-36.45,-55.87,-31.191,44,0
168392,-0.347,-0.041,0.962,2.351,-76.725,-49.191,48,0
168449,-0.254,0.07,0.859,10.954,-76.099,-53.145,40,0
168505,-0.021,-0.042,0.921,-24.511,-51.977,-53.618,45,0
168561,0.023,0.047,0.943,-30.221,-32.29,-66.237,50,0
168619,-0.076,-0.073,1.032,-28.206,-18,-83.588,56,0
168676,-0.159,0.084,1.045,-8.382,-10.053,-90.511,58,0
168735,-0.239,0.043,1.031,-7.969,-6.206,-82.26,99,0
168796,-0.088,0.043,1.088,-18.443,-20.489,-62.55,102,0
168861,-0.01,0.124,1.055,-10.473,-3.176,-40.718,0,0
168930,-0.065,0.094,0.952,-13.191,-9.649,-24.29,0,197
168994,0.017,0.085,0.842,0.29,-15.664,1.687,0,192
169052,0.035,-0.02,0.891,-21.977,-17.489,7.046,66,188
169108,0.121,-0.101,0.962,-8.847,-27.206,18.389,68,180
169164,0.15,-0.167,1.09,-25.008,-28.015,11.924,72,176
169223,0.036,-0.216,1.141,8.046,-29.794,8.496,75,184
169279,0.139,-0.098,1.214,24.718,-21.229,5.458,79,175
169344,-0.027,-0.058,1.046,16.366,0.328,3.29,0,183
169408,-0.083,0.067,1.062,9.519,14.351,0.977,0,182
169473,-0.039,-0.04,0.833,11.748,4.557,8.679,0,119
169533,0.055,-0.01,0.8,-7.267,-1.366,9.679,0,120
169593,-0.011,0.017,0.864,-5.023,2.542,6.672,0,115
169654,-0.002,-0.032,0.935,-16.573,-0.084,-3.023,0,113
169714,-0.078,-0.082,1.117,-2.076,10.405,-12.511,0,111
169775,-0.116,0.015,1.132,16.023,38.076,-28.267,0,111
169835,-0.178,-0.178,1.202,40.076,75.328,-46.74,0,111
169896,-0.108,0.009,0.788,83.802,100.115,-45.405,0,111
169960,-0.273,0.02,0.818,44.427,105.634,-39.351,0,112
170020,-0.383,0.141,0.747,71.931,88.473,-10.74,0,113
170081,-0.317,0.135,0.844,63.84,43.191,-14.298,0,116
170142,-0.246,0.185,0.882,79.588,36.71,14.015,0,119
170247,-0.16,0.715,0.997,-11.672,-8.191,59.435,0,126
170308,-0.542,0.518,1.334,-38.962,-49.809,47.824,0,116
170366,-0.432,0.3,1.106,64.786,-62.511,78.298,72,0
170432,-0.303,0.756,0.936,50.26,-22.924,70.878,0,0
170498,-0.356,0.577,0.906,-24.321,-17.267,62.168,0,0
170566,-0.29,0.514,0.859,-44.573,27.053,49.214,0,0
170632,-0.258,0.212,0.634,-27.527,37.298,46.298,0,0
170697,-0.084,0.342,0.435,-9.069,40.382,54.13,0,0
170763,-0.243,0.305,0.722,-88.916,16.496,29.305,0,0
170828,-0.433,0.2,1.113,-55.252,-8.802,-25.489,0,0
170894,-0.465,0.306,1.16,46.656,9.939,-41.45,0,0
170959,-0.316,0.507,1.022,52.359,49.26,-59.015,0,0
171025,-0.491,0.345,0.786,-24.878,26.626,-57.832,0,0
171090,-0.386,0.014,0.838,30.58,6,-17.137,0,0
171160,-0.295,0.47,0.703,50.878,19.931,-10.023,0,0
171226,-0.313,0.301,0.715,-5.443,4.748,-7.427,0,0
171291,-0.236,0.322,0.833,9.863,-1.099,0.397,0,0
171357,-0.243,0.247,1.021,-27.099,-23.496,5.527,0,0
171422,-0.262,0.344,1.152,-11.473,-22.397,16.969,0,0
171481,-0.343,0.508,1.205,2.794,-6.573,31.198,68,0
171546,-0.53,0.589,0.948,6.328,17.519,26.397,0,0
171612,-0.415,0.495,0.899,-5.275,0.405,37.74,0,0
171677,-0.457,0.422,0.771,-16.099,5.756,28.565,0,0
171746,-0.216,0.157,0.642,-9.58,-6.687,38.405,0,0
171816,-0.271,0.39,0.64,-17.939,-20.695,41.42,0,0
171881,-0.373,0.509,0.832,-43.794,-29.061,43.252,0,0
171947,-0.469,0.407,0.975,-50.389,-24.153,18.336,0,0
172011,-0.279,0.265,1.049,16.076,5.45,-5.053,0,0
172076,-0.209,0.359,1.01,41.817,36.389,-39.588,0,0
172140,-0.219,0.158,0.922,36.931,17.817,-44.702,0,0
172196,-0.264,0.214,0.864,48.328,33.29,-39.115,0,49
172261,-0.366,0.228,0.736,30.328,35.366,-35.664,0,0
172319,-0.371,0.334,0.69,39.718,9.962,-24.977,0,43
172376,-0.31,0.311,0.827,16.595,-7.122,-13.153,0,40
172431,-0.246,0.426,0.966,-5.618,-3.053,-3.84,0,37
172486,-0.245,0.375,1.051,-49.023,-4.153,9.656,0,35
172541,-0.366,0.361,1.14,-39.313,0.504,11.618,0,34
172589,-0.373,0.425,1.161,12.58,5.588,13.58,61,32
172644,-0.501,0.514,0.956,10.527,10.031,1.344,0,30
172698,-0.38,0.516,0.978,-17.885,1.58,14.58,0,30
172753,-0.532,0.522,0.895,-48.176,7.321,6.802,0,30
172812,-0.375,0.141,0.738,-14.237,-13.58,11.756,0,30
172876,-0.228,0.235,0.59,4.267,-29.336,22.626,0,0
172941,-0.335,0.219,0.7,-53.176,-49.84,12.885,0,0
173005,-0.383,0.203,1.006,-21.931,-42.481,-1.16,0,189
173070,-0.465,0.282,1.144,4.244,-36.405,-26.321,0,195
173134,-0.324,0.345,1.137,18.115,-4.16,-33.466,0,191
173198,-0.342,0.235,0.905,21.748,16.534,-41.244,0,176
173262,-0.299,0.248,0.856,21.847,15.489,-20.389,0,186
173326,-0.36,0.23,0.729,10.786,25.069,-14.13,0,170
173435,-0.277,0.298,0.612,14.275,25.198,-6.466,0,175
173499,-0.181,0.202,0.944,-3.947,12.221,-23.023,0,172
173560,-0.143,0.125,1.167,-23.42,-11.496,-8.954,0,153
173618,-0.353,0.352,1.281,-12.817,-24.061,-1.244,63,0
173680,-0.306,0.458,1.319,26.069,-26.267,19.183,0,153
173737,-0.436,0.443,0.957,14.206,-17.779,18.412,62,0
173792,-0.334,0.459,0.906,13.786,-10.122,19.267,59,151
173853,-0.376,0.422,0.734,-9.008,1.382,11.511,0,135
173913,-0.236,0.076,0.621,1.496,-7.137,15.443,0,101
173973,-0.249,0.327,0.647,-12.076,-12.824,13.656,0,80
174031,-0.285,0.315,0.85,-40.664,-19.183,2.092,0,80
174090,-0.26,0.23,1.02,-46.504,-32.496,-14.779,0,87
174148,-0.291,0.303,1.16,-16.611,-20.771,-41.397,0,77
174206,-0.264,0.265,1.154,-3.771,-5.542,-42.893,0,76
174264,-0.359,0.345,1.087,-2.756,28.191,-64.878,0,73
174322,-0.318,0.006,0.963,-4.466,3.252,-48.779,0,75
174380,-0.3,0.041,0.913,50.42,13.008,-29.611,0,75
174438,-0.289,0.175,0.717,32.053,2.405,-20.221,0,75
174499,-0.198,0.062,0.761,5.443,-17.847,-17.145,0,89
174559,-0.157,0.064,0.88,27.893,-28.481,-21.725,0,102
174618,-0.187,0.139,0.868,15.023,-34.985,-33.878,0,100
174678,-0.095,0.097,1.063,-2.573,-37.634,-38.511,0,92
174736,-0.305,0.209,1.088,6.969,-15.046,-42.901,0,95
174793,-0.262,0.326,1.159,54.664,2.542,-34.863,65,0
174845,-0.417,0.489,0.981,56.901,29.962,-53.344,71,98
174911,-0.34,0.477,0.957,23.718,29.336,-44.473,0,0
174979,-0.381,0.396,0.879,11.443,39.626,-49.603,0,0
175044,-0.185,0.167,0.766,31.015,16.145,-31.412,0,0
175109,-0.138,0.341,0.707,8.031,-12.908,-18.008,0,0
175174,-0.218,0.321,0.954,-24.672,-43.282,-10.534,0,0
175240,-0.31,0.3,1.143,-31.832,-59.298,-22.725,0,0
175304,-0.335,0.291,1.229,3.412,-43.863,-34.145,0,0
175370,-0.396,0.354,1.099,-8.389,-20.344,-45.855,0,0
175435,-0.337,0.151,0.841,24.122,-1.229,-58.931,0,0
175500,-0.281,0.181,0.71,33.977,8.061,-44.099,0,0
175568,-0.299,0.255,0.624,19.656,37.298,-33.107,0,0
175633,-0.31,0.208,0.615,5.695,29.725,-27.366,0,0
175698,-0.177,0.24,0.766,34.748,18.466,-26,0,0
175764,-0.233,0.367,0.993,2.359,13.16,-28.565,0,0
175828,-0.132,0.209,1.247,-3.344,-0.557,-3.718,0,0
175894,-0.317,0.38,1.293,-0.748,-5.198,10.557,0,0
175960,-0.285,0.495,1.29,15.366,-10.595,20.069,0,0
176017,-0.407,0.457,1.101,-8.458,-22.496,42.29,65,0
176082,-0.406,0.469,0.965,-33.305,-11.198,48.252,0,0
176150,-0.27,0.129,0.765,-33.427,-26.252,49.351,0,0
176216,-0.172,0.235,0.668,-19.672,-33.656,50.771,0,0
176281,-0.264,0.285,0.786,-62.603,-42.344,31.473,0,0
176347,-0.305,0.146,0.917,-52.901,-49.076,17.168,0,0
176411,-0.429,0.226,1.054,-28.534,-16.901,-18.947,0,0
176477,-0.307,0.187,1.07,0.969,19.206,-33.588,0,0
176585,-0.231,0.137,0.872,46.656,41.817,-40.336,0,0
176651,-0.247,0.205,0.762,45.45,60.229,-42.092,0,0
176716,-0.239,0.18,0.732,33.969,50.122,-33.328,0,0
176785,-0.124,0.182,0.859,31.71,27.542,-16.42,0,0
176850,-0.14,0.339,1.053,-5.137,17.13,-7.328,0,0
176915,-0.156,0.183,1.29,-23.855,-15.656,8.298,0,0
176980,-0.361,0.39,1.249,9.702,-16.947,25.435,0,0
177046,-0.447,0.552,1.265,4.74,-4.504,29.092,0,0
177112,-0.319,0.339,1.061,0.969,-20.122,53.588,0,0
177177,-0.407,0.48,0.882,-31.313,-2.618,46.611,0,0
177243,-0.254,0.076,0.75,-28.008,-25.763,47.214,0,0
177307,-0.165,0.223,0.617,-22.924,-39.275,50.305,0,0
177376,-0.271,0.201,0.808,-56.504,-45.756,24.496,0,0
177441,-0.383,0.205,1.004,-34.191,-39.847,0.977,0,0
177507,-0.336,0.231,1.075,3.588,-4.664,-30.076,0,0
177572,-0.283,0.217,1.128,27.282,42.359,-63.55,0,0
177638,-0.288,0.125,0.87,49.863,40.664,-60.069,0,0
177703,-0.262,0.236,0.837,39.977,50.061,-53.267,0,0
177769,-0.216,0.232,0.73,37.573,53.672,-33.947,0,0
177835,-0.136,0.244,0.743,22.229,40.504,-19.634,0,0
177900,-0.167,0.286,0.946,26.061,30.649,-12.206,0,0
177969,-0.221,0.302,1.149,-10.901,4.847,4.336,0,0
178034,-0.311,0.328,1.309,-11.351,-11.954,17.198,0,0
178100,-0.342,0.464,1.291,16.74,-11.725,38.847,0,0
178165,-0.54,0.503,0.962,-13.504,-7.649,44.565,0,0
178229,-0.392,0.418,0.912,-28.847,-13.427,46.053,163,0
178291,-0.424,0.333,0.754,-36.893,-12.489,36.29,161,0
178353,-0.191,0.172,0.66,-13.252,-26.962,37.023,160,154
178413,-0.258,0.316,0.655,-41.878,-37.191,34.58,159,156
178470,-0.287,0.201,0.864,-47.313,-43.565,21.137,159,95
178537,-0.371,0.289,1.02,-38.435,-34.061,0.847,159,0
178600,-0.288,0.281,1.099,-3.641,3.015,-18.725,159,0
178664,-0.269,0.25,1.095,19.099,48.076,-44.71,162,0
178726,-0.27,0.18,0.914,33.924,25.504,-35.076,180,163
178787,-0.255,0.196,0.923,9.985,34.924,-18.534,141,163
178849,-0.197,0.16,0.803,-9.519,32.931,1.794,177,164
178912,-0.16,0.107,0.809,-7.13,11.84,5.931,141,0
178975,-0.144,0.153,0.842,-9.733,-8.069,0.763,175,0
179034,-0.127,0.142,1.061,-25.298,-24.412,2.145,64,0
179095,-0.191,0.129,1.224,-21.473,-37.26,12.595,65,0
179159,-0.23,0.132,1.208,11.603,-44.145,25.031,172,0
179223,-0.208,0.342,1.125,16.908,-17.214,18.725,172,0
179287,-0.195,0.267,1.108,-11.885,-14.771,25.351,171,0
179351,-0.31,0.302,0.885,-4.328,-0.053,5.71,170,0
179415,-0.132,0.098,0.721,18.229,-23.573,9.015,168,0
179479,-0.167,0.223,0.702,-4.305,-22.176,3.481,166,0
179543,-0.138,0.223,0.913,-0.191,-27.252,-6.992,164,0
179609,-0.122,0.226,1.166,-23.992,-19.473,-17.069,163,0
179673,-0.15,0.252,1.159,-2.878,-1.183,-19.916,162,0
179736,-0.125,0.125,1.149,-10.595,13.985,-30.603,160,0
179844,-0.232,0.144,0.999,-2.641,16.252,-23.588,157,0
179911,-0.088,0.046,0.831,11.26,8.878,-4.534,156,0
179974,-0.011,0.073,0.764,-5.42,-1.252,2.244,155,0
180035,-0.003,0.08,0.847,-3.328,-4.756,-2.038,155,0
180091,-0.045,0.087,0.95,-14.496,-12.687,-1.053,67,181
180148,0.049,0.054,1.112,-3.206,-14.008,2.153,67,181
180211,-0.115,0.135,1.159,3.679,-7.42,0.366,152,181
180268,-0.059,0.219,1.239,39.344,8.229,8.542,65,180
180328,-0.157,0.325,1.052,26.221,19.809,20.641,152,180
180389,-0.187,0.376,1.021,15.107,44.664,13.504,151,183
180450,-0.275,0.277,0.788,19.137,53.573,17.534,150,182
180511,-0.1,0.17,0.624,50.16,53.053,38.878,149,182
180572,-0.207,0.443,0.612,24.939,48.282,47.321,147,183
180633,-0.314,0.294,0.918,-52.901,10.076,20.038,145,183
180694,-0.411,0.058,1.251,-20.397,-13.863,-14.962,143,184
180758,-0.466,0.352,1.244,26.977,8.916,-29.519,143,0
180819,-0.489,0.374,1.182,-18.786,12.176,-58.061,143,0
180881,-0.374,0.108,0.912,36.13,-6.885,-54.427,143,0
180943,-0.322,0.3,0.799,22.656,-8.893,-47.275,144,0
181005,-0.274,0.183,0.688,27.748,-1.313,-38.611,145,0
181066,-0.173,0.23,0.605,17.863,-10.489,-21.832,145,0
181129,-0.153,0.191,0.806,1.74,-9.969,-19.954,148,0
181190,-0.097,0.319,1.026,-26.107,-8.916,-8.382,145,0
181263,-0.157,0.258,1.316,-39.107,-19.733,15.763,147,0
181325,-0.228,0.284,1.262,4.634,-34.87,41.29,148,0
181387,-0.333,0.418,1.102,2.29,-20.901,32.489,147,0
181449,-0.241,0.341,1.028,-0.824,-15.244,44.771,147,0
181511,-0.324,0.404,0.86,-12.336,5.939,26.038,146,0
181573,-0.243,0.114,0.695,-5.069,-10.031,24.031,146,0
181635,-0.118,0.176,0.652,2.176,-22.282,29.214,146,0
181697,-0.17,0.295,0.865,-21.832,-27.389,11.718,144,0
181758,-0.223,0.242,1.068,-39.511,-31.855,-1.015,145,0
181823,-0.233,0.278,1.189,-4.382,-12.885,-22.313,144,0
181885,-0.121,0.283,1.187,-0.656,13.382,-35.031,144,0
181947,-0.218,0.057,0.992,3.466,6.313,-49.137,145,0
182009,-0.162,0.121,0.935,34.527,6.863,-36.702,144,0
182071,-0.111,0.188,0.745,27.924,14.137,-28.511,144,0
182132,-0.088,0.155,0.669,6.771,16.618,-10.038,144,0
182195,-0.063,0.22,0.76,2.565,25.511,-8.45,143,0
182256,-0.094,0.24,0.965,-21.305,29.87,-7.695,143,0
182319,-0.041,0.053,1.16,-32.641,12.641,3.084,149,0
182383,-0.253,0.245,1.231,6.748,9.466,14.992,149,0
182440,-0.184,0.374,1.308,15.443,2.824,21.802,66,0
182501,-0.247,0.293,1.157,16.206,-1.008,26.573,118,0
182561,-0.276,0.476,0.995,-3.015,16.496,25.26,116,0
182622,-0.278,0.19,0.807,-23.756,2.328,26.718,114,0
182682,-0.099,0.109,0.704,3.496,-18.458,40.595,114,0
182742,-0.194,0.345,0.844,-19.244,-36.939,38.679,114,0
182802,-0.187,0.266,0.984,-34.023,-57.267,28.901,114,0
182865,-0.218,0.274,1.2,-26.122,-63.29,15.733,115,195
182969,-0.133,0.223,1.199,-11.756,-25.817,-12.359,118,198
183030,-0.079,0,0.935,-2.718,-19.443,-7.931,134,200
183092,-0.083,0.102,0.874,-4.359,-13.366,-16.321,133,0
183153,-0.029,0.06,0.837,26.466,-1.679,-23.656,133,0
183215,0.023,0.096,0.732,11.84,-0.168,-16.962,133,0
183273,0.087,0.102,0.857,-3.084,1.641,-12.321,133,149
183334,0.137,0.108,0.944,-5.382,-10.588,-6.344,133,200
183396,0.182,0.073,1.052,-21.015,-28.779,6.29,133,199
