Timestamp(ms),AccelX(g),AccelY(g),AccelZ(g),GyroX(deg/s),GyroY(deg/s),GyroZ(deg/s),DistanceLeft(cm),DistanceRight(cm)
20023,-0.267,0.01,1.055,-2.733,-2.656,-6.748,0,52
20077,-0.226,0.023,1.036,-2.84,-1.466,-1.702,0,53
20131,-0.23,0.012,1.033,1.115,0.313,1.366,0,54
20175,-0.238,0.019,1.021,3.519,3.366,4.511,10,53
20218,-0.261,0.02,1.023,3.527,3.481,9.046,7,51
20261,-0.249,0.017,1.014,2.206,0.679,13.832,9,50
20304,-0.233,0.019,1.011,-1.489,0.008,17.702,9,49
20348,-0.22,-0.001,1.014,-4.763,-0.603,18.802,10,52
20395,-0.205,-0.007,1.033,-6.679,-2.16,18.695,9,53
20449,-0.193,-0.005,1.022,-8.252,3.038,20.794,0,54
20504,-0.239,-0.022,1.036,-9.626,9.504,22.802,0,51
20547,-0.253,-0.026,1.037,-10.626,5.595,26.183,6,50
20591,-0.258,-0.06,1.027,-7.336,-4.015,24.595,16,50
20645,-0.193,-0.091,1.014,-2.908,-9.237,16,0,52
20700,-0.118,-0.104,0.997,2.092,-5.603,1.137,0,52
20755,-0.176,-0.101,1.034,4.954,-0.649,-10.924,0,53
20809,-0.198,-0.064,1.024,5.718,-3.176,-17.832,0,51
20867,-0.215,-0.032,1.003,4.893,-5.107,-19.382,0,50
20922,-0.23,-0.006,1.014,1.252,-0.076,-13.885,0,53
20976,-0.228,0.022,1.021,-0.802,2.878,-8.221,0,51
21030,-0.24,0.027,1.005,-3.916,0.084,-4.084,0,57
21086,-0.238,0.036,1.018,-7.847,-2.443,0.817,0,51
21140,-0.257,0.024,1.035,-7.779,-3.046,6.489,0,57
21195,-0.29,0.037,1.047,-4.695,-2.779,16.855,0,52
21250,-0.267,-0.022,1.025,-2.26,-14.092,27.84,0,50
21305,-0.152,-0.101,1.035,7.115,-5.71,26.985,0,54
21362,-0.12,-0.091,1.032,11.137,7.725,15.275,0,52
21416,-0.146,-0.092,1.034,7.206,2.237,3.382,0,50
21472,-0.169,-0.084,1.013,0.916,-2.916,-4.29,0,51
21526,-0.164,-0.083,1.001,-1.977,-4.718,-11.107,0,51
21580,-0.17,-0.052,1.004,-1.321,2.023,-17.992,0,52
21636,-0.191,-0.021,1.008,0.55,4.992,-21.328,0,51
21690,-0.223,-0.017,1.026,0.618,5.504,-21.282,0,54
21745,-0.232,0.011,1.022,2.221,7.275,-18.74,0,53
21800,-0.258,0.017,1.026,1.893,7.328,-11.802,0,58
21858,-0.251,0.022,1.033,1.649,3.244,-6.641,0,51
21913,-0.249,0.01,1.028,0.962,1.145,-2.023,0,57
21967,-0.235,-0.004,1.025,1.099,-0.763,-0.137,0,51
22022,-0.217,-0.007,1.011,2.275,0.191,-0.275,0,51
22077,-0.229,-0.009,1.016,-0.023,1.679,-0.069,0,57
22132,-0.229,-0.005,1.009,-2.985,-1.008,1.237,0,57
22187,-0.229,-0.021,1.004,-5.481,-1.084,1.351,0,50
22242,-0.231,-0.029,1.022,-5.397,-2.26,1.229,0,51
22286,-0.233,-0.011,1.015,-6.412,-0.366,3.382,9,57
22344,-0.259,0.001,1.01,-9.313,-2.191,6.672,0,56
22398,-0.31,0.03,1.078,-8.84,-3.763,16.061,0,51
22454,-0.284,0.007,1.047,-8.221,-20.26,25.603,0,55
22498,-0.168,-0.095,0.998,-4.145,-11.947,32.641,9,53
22552,-0.129,-0.149,1.017,6.023,7.069,25.855,0,52
22607,-0.123,-0.125,1.034,12.504,14.023,8.977,0,54
22705,-0.195,-0.098,1.009,3.496,1.824,-7.939,0,55
22760,-0.201,-0.065,1.003,3.053,-0.382,-14.931,0,51
22814,-0.211,-0.067,1.004,5.58,0.702,-20.794,0,50
22873,-0.218,-0.036,0.995,7.275,7.519,-23.901,0,52
22917,-0.257,-0.004,1.026,4.092,9.748,-20.282,9,54
22972,-0.272,0.003,1.025,2.527,5.885,-16.443,0,55
23027,-0.271,0.013,1.022,1.603,0.985,-10.878,0,53
23081,-0.262,0.015,0.988,0.794,3.511,-6.252,0,51
23137,-0.268,-0.006,0.99,-0.611,3.489,-3.771,0,49
23191,-0.259,-0.008,1.012,-1.756,1.489,-2.664,0,50
23235,-0.267,-0.024,1.021,-0.595,2.023,-0.443,16,50
23280,-0.252,-0.009,1.023,-0.275,3.718,-0.092,16,52
23332,-0.26,-0.019,1.025,-0.557,1.252,0.397,16,53
23379,-0.247,-0.014,1.007,-1.267,-0.122,0.321,16,53
23424,-0.256,-0.014,1.01,-3.16,-0.328,0.687,16,52
23468,-0.266,0.001,1.015,-6.099,-2.466,1.893,16,52
23522,-0.276,0.019,0.985,-10.366,-4.031,5.344,0,52
23576,-0.294,-0.007,1,-14.221,-0.756,13.145,0,54
23620,-0.352,-0.014,1.062,-11.443,-6.305,21.214,9,54
23674,-0.311,-0.031,1.012,-8.282,-17.26,30.748,0,53
23730,-0.207,-0.114,1.021,-0.626,2.336,34.977,0,52
23784,-0.175,-0.131,1.029,8.237,8.305,22.069,0,51
23841,-0.168,-0.134,1.02,8.275,0.626,2.863,0,52
23896,-0.195,-0.122,1,2.42,0.061,-7.786,0,54
23950,-0.244,-0.107,1.007,-0.519,-1.45,-14.771,0,53
24005,-0.242,-0.063,0.988,0.641,-2.198,-20.183,0,53
24059,-0.264,-0.022,0.997,2.061,5.947,-20.42,0,55
24115,-0.296,-0.012,1.021,4.412,4.176,-17.496,0,54
24169,-0.278,0,1.002,5.641,3.344,-12.893,0,57
24223,-0.272,-0.019,1.016,6.443,4.153,-9.13,0,52
24279,-0.273,-0.015,1.019,7.137,3.466,-7.992,0,52
24336,-0.269,-0.028,1.011,5.176,2.725,-5.863,0,53
24390,-0.272,-0.008,1.022,2.962,0.466,-4.863,0,52
24445,-0.276,-0.021,1.013,1.992,-1.977,-2.832,0,53
24489,-0.268,-0.012,1,1.542,-0.664,-2.061,16,53
24534,-0.271,-0.018,1.008,1.313,-0.664,-0.893,16,53
24588,-0.269,-0.016,0.99,-0.74,-1.908,-0.237,0,53
24643,-0.271,-0.022,0.995,-3.443,-1.183,0.977,0,52
24697,-0.261,-0.004,1,-7.221,-1.588,0.183,0,51
24741,-0.313,0.046,1.011,-13.473,-2.985,2.855,16,51
24788,-0.371,0.028,1.072,-10.969,-0.038,16.092,16,52
24833,-0.358,0.014,1.04,-7.588,-11.634,28.13,7,54
24887,-0.275,-0.062,1.003,-5.947,-16.641,33.71,0,54
24942,-0.161,-0.132,1.012,0.908,1.191,29.779,0,52
24986,-0.174,-0.152,1.025,4.359,7.466,18.191,9,52
25040,-0.179,-0.145,1.004,2.802,3.878,6.282,0,54
25095,-0.204,-0.109,0.946,-2.908,9.321,-3.183,0,53
25150,-0.28,-0.085,0.946,-10.122,25.275,-4.74,0,51
25204,-0.341,-0.049,0.996,-15.061,17.427,-5.916,0,52
25263,-0.352,-0.04,1.015,-13.557,-1.855,-6.489,0,52
25360,-0.312,-0.051,1.019,-3.672,-1.641,-2.588,0,50
25415,-0.324,-0.057,1.019,1.84,1.344,0.695,0,50
25469,-0.323,-0.065,0.996,3.573,-4.099,1.511,0,50
25524,-0.293,-0.072,0.984,1.58,-4.916,3.076,0,50
25579,-0.294,-0.078,0.981,0.015,-0.13,3.634,0,50
25633,-0.292,-0.068,0.99,-0.824,2.298,3.557,0,50
25689,-0.292,-0.071,0.992,-4.237,-1.26,1.641,0,55
25744,-0.279,-0.066,0.994,-6.603,-4.794,0.359,0,55
25790,-0.276,-0.093,1.025,-5.756,-7.099,-2.58,4,51
25833,-0.252,-0.105,1.034,-0.328,-3.695,-3.237,4,50
25877,-0.266,-0.091,1.038,3.046,-1.145,-6.855,6,50
25920,-0.254,-0.084,1.05,8.519,-5.603,-10.115,4,50
25964,-0.299,-0.105,1.063,13.763,-5,-10.702,6,50
26018,-0.289,-0.105,1.031,18.794,-11.153,-10.969,0,52
26062,-0.238,-0.054,0.973,19.313,-1.954,-7.908,9,52
26118,-0.278,-0.038,0.998,15.656,4.237,-4.344,0,51
26173,-0.302,-0.055,1.006,12.084,-4.511,-2.649,0,54
26230,-0.242,-0.034,0.963,8.687,-4.374,-2.359,0,54
26286,-0.251,-0.044,0.978,4.55,2.176,-1.863,0,53
26341,-0.265,-0.02,0.994,1.74,0.466,-2.916,0,53
26395,-0.25,-0.018,0.988,-1.084,1.931,-3.366,0,53
26450,-0.278,-0.046,1.022,-3.176,1.29,-2.443,0,53
26506,-0.265,-0.036,1.018,-0.847,-1.634,0.618,0,52
26560,-0.254,-0.019,1.032,-0.832,2.718,1.176,0,52
26615,-0.25,-0.003,1.017,-0.099,-0.634,-1.466,0,52
26671,-0.239,-0.019,0.98,-1.931,0.344,-3.817,0,52
26728,-0.284,-0.059,1.009,-4.305,-3.985,-5.412,0,52
26783,-0.273,-0.049,0.977,-3.023,2.534,2.504,0,51
26839,-0.322,-0.059,1.02,-7.412,4.779,9.344,0,51
26893,-0.291,-0.077,1.027,-8.214,-3.107,12.992,0,53
26948,-0.256,-0.077,1.041,-4.359,-0.229,15.061,0,51
27003,-0.239,-0.037,1.05,2.038,4.061,11.42,0,54
27047,-0.249,-0.004,0.994,1.076,0.771,6.863,9,53
27101,-0.258,-0.024,0.959,-2.832,-0.84,5.282,167,52
27154,-0.242,-0.032,0.977,-9.382,-0.87,3.466,165,55
27212,-0.235,-0.039,0.969,-10.099,-3.809,-3.397,0,54
27267,-0.235,-0.047,0.997,-7.809,4.122,-9.153,0,53
27322,-0.262,-0.12,1.018,-6.641,1.16,-12.328,0,54
27377,-0.338,-0.074,1.047,-0.305,7.092,-3.931,0,51
27432,-0.275,-0.075,1.005,1.366,-3.71,-3.641,0,50
27487,-0.283,-0.084,0.994,1.191,1.71,-2.099,0,51
27542,-0.293,-0.081,0.999,1.931,-1.053,-1.198,0,53
27597,-0.287,-0.078,1.003,1.084,0.74,0.221,0,53
27653,-0.292,-0.076,1.012,0.817,-2.046,0.16,0,52
27708,-0.274,-0.077,1.006,1.664,-1.366,0.786,0,53
27766,-0.272,-0.075,1.007,1.16,0.328,0.565,0,52
27821,-0.268,-0.07,1.012,0.687,-2.489,-0.626,0,52
27876,-0.276,-0.072,1.004,0.351,-0.115,0.229,0,52
27931,-0.277,-0.071,1.006,0.313,-0.427,0.13,0,52
27986,-0.271,-0.077,1.002,1.458,-2.275,-0.313,0,52
28085,-0.287,-0.07,1.006,-0.336,-1.099,0.656,0,52
28139,-0.251,-0.065,1.018,-0.947,-4.855,-0.069,0,53
28194,-0.266,-0.056,1.037,0.802,-2.496,-1.656,0,53
28250,-0.238,-0.064,1.046,7.099,-8.336,-5.473,0,52
28308,-0.226,-0.111,1.027,14.221,-18.244,-15.641,0,51
28353,-0.25,-0.074,1.014,16.84,-7.527,-9.87,16,50
28408,-0.234,-0.027,0.993,12.443,3.901,-3.298,0,50
28464,-0.28,-0.039,1.012,7.023,-3.092,-1.939,0,49
28518,-0.23,-0.028,0.958,2.74,-4.802,-0.443,0,50
28573,-0.259,-0.032,0.989,-1.244,1.832,3.046,0,50
28617,-0.24,-0.028,1.004,-1.481,-1.878,3.443,9,49
28662,-0.218,-0.023,0.998,-2.641,1.832,3.122,16,50
28706,-0.23,-0.036,1.028,-3.344,2.87,2.137,17,51
28765,-0.229,-0.038,1.028,-1.863,-0.031,0.878,0,50
28810,-0.226,-0.027,1.025,-1.885,2.099,1.389,17,50
28865,-0.249,-0.032,1.03,-3.061,2.122,1.641,0,52
28909,-0.237,-0.037,1.013,-3.046,-1.481,1.71,16,52
28954,-0.247,-0.046,1.013,-2.947,0.237,2.71,16,54
29009,-0.253,-0.037,1.014,-2.191,0.878,3.756,0,53
29065,-0.243,-0.04,1.012,-2.16,0.916,4.374,0,54
29120,-0.244,-0.048,1.01,-2.557,2.252,3.832,0,53
29165,-0.238,-0.053,1.008,-2.42,3.908,5.244,16,52
29223,-0.242,-0.045,1.029,-2.641,3.298,5.489,0,51
29279,-0.255,-0.045,1,-3.458,4.718,6.16,0,51
29334,-0.26,-0.046,1.008,-5.13,3.985,5.931,0,52
29389,-0.255,-0.053,0.999,-7.405,3.16,5.115,0,54
29445,-0.276,-0.051,1.014,-7.885,2.557,5.893,0,54
29490,-0.256,-0.067,1.017,-4.771,-0.87,3.412,9,54
29534,-0.246,-0.047,1.01,-4.26,2.527,1.908,6,54
29578,-0.277,-0.064,1.015,-4.412,2.183,1.977,9,54
29623,-0.261,-0.055,1.014,-4.702,-3.099,0.962,9,55
29681,-0.228,-0.077,1.006,-5.321,-6.321,-4.634,0,55
29736,-0.262,-0.08,1.027,-0.656,8.656,-5.969,0,55
29793,-0.301,-0.089,1.038,3.534,3.107,-6.221,0,55
29837,-0.275,-0.091,1.012,5.649,-1.481,-7.107,9,55
29892,-0.267,-0.067,0.999,5.626,-1.206,-7.397,0,54
29937,-0.262,-0.066,0.979,3.031,1.809,-6.26,7,54
29992,-0.302,-0.071,1.007,0.695,3.305,-3.374,0,53
30048,-0.295,-0.081,1.008,0.863,-1.282,-1.931,0,53
30099,-0.277,-0.08,1.006,2.992,-1.16,-1.878,9,53
30145,-0.263,-0.066,1.005,2.435,0.771,-1.092,9,52
30188,-0.27,-0.065,1.011,2.176,-0.618,-1.924,9,52
30231,-0.263,-0.063,0.99,1.573,-2.107,-2.183,9,52
30285,-0.265,-0.075,1.011,1.595,-2.42,-2.305,0,52
30341,-0.265,-0.066,0.998,2.504,-2.023,-3.076,0,52
30395,-0.292,-0.08,1.022,4.351,-1.748,-1.771,0,53
30449,-0.241,-0.063,0.997,6.542,-1.42,-1.863,0,53
30503,-0.28,-0.048,0.997,3.939,11.679,1.481,0,52
30559,-0.314,-0.048,1.008,1.183,2.679,1.809,0,52
30613,-0.282,-0.058,0.988,1.107,-3.664,1.809,0,52
30713,-0.276,-0.044,0.996,-1.191,3.023,2.87,0,53
30768,-0.285,-0.046,1.009,-1.779,-0.336,2.13,0,53
30822,-0.279,-0.059,0.982,-1.588,0.107,1.763,0,53
30877,-0.306,-0.06,1,-1.702,3.344,4.305,0,53
30931,-0.293,-0.054,1.012,-1.824,-0.557,4.55,0,53
30976,-0.279,-0.052,0.997,-1.122,-1.13,3.718,16,53
31030,-0.269,-0.041,0.988,-0.664,1.695,2.832,0,53
31085,-0.296,-0.044,1.007,-0.107,1.695,3.885,0,53
31139,-0.286,-0.035,0.979,-1.939,1.466,4.336,0,53
31197,-0.293,-0.053,0.998,-3.901,1.015,4.084,0,53
31241,-0.276,-0.045,0.988,-6.565,-5.053,1.695,9,53
31295,-0.262,-0.065,0.996,-8.252,-7.023,-1.45,0,52
31349,-0.26,-0.113,1.001,-4.977,-6.42,-4.695,0,52
31405,-0.289,-0.082,1.009,-0.168,4.802,-5.168,0,52
31459,-0.28,-0.066,1.023,1.466,-0.863,-5.336,0,52
31514,-0.287,-0.073,1.005,0.664,0.374,-4.435,0,52
31568,-0.287,-0.073,0.986,0.908,-0.481,-3.023,0,52
31623,-0.304,-0.08,0.996,1.031,-0.542,-0.13,0,52
31680,-0.274,-0.072,0.998,0.504,-1.748,0.137,0,52
31735,-0.265,-0.079,0.999,0.901,-1.275,-0.893,0,52
31790,-0.277,-0.073,0.997,0.84,0.74,-0.878,0,52
31844,-0.282,-0.075,1.002,0.588,-1.031,-1.107,0,52
31899,-0.277,-0.069,0.997,0.405,0.099,-0.725,0,52
31953,-0.274,-0.068,1.016,1.244,-0.656,-1.718,0,52
32009,-0.289,-0.072,1.016,2.122,-1.198,-2.267,0,52
32063,-0.31,-0.105,1.056,2.855,-13.13,-5.496,0,52
32118,-0.226,-0.062,0.974,5.656,0.046,-1.305,0,53
32176,-0.304,-0.056,1.005,3.214,8.885,2.458,0,53
32230,-0.291,-0.057,0.999,1.55,-3.534,-0.611,0,53
32285,-0.261,-0.049,0.982,-0.214,1.16,1.366,0,53
32339,-0.291,-0.066,1.014,-0.863,2.817,1.908,0,53
32395,-0.275,-0.069,1.01,0.351,-0.115,0.779,0,53
32449,-0.281,-0.06,1.012,0.756,1.305,1.351,0,53
32504,-0.28,-0.057,1.008,1.496,-1.168,1.237,0,53
32559,-0.271,-0.046,1.005,0.863,1.702,0.756,0,52
32614,-0.287,-0.043,0.991,1.122,0.053,1.336,0,52
32668,-0.27,-0.04,0.992,0.252,2.618,1.863,0,52
32727,-0.275,-0.05,1.001,-1.015,1.588,1.405,0,53
32781,-0.285,-0.052,1.01,-1.244,1.076,1.382,0,53
32836,-0.294,-0.054,1.001,-1.198,2.779,1.855,0,53
32890,-0.312,-0.056,0.998,-1.191,1.313,2.908,0,52
32946,-0.305,-0.059,1.002,-1.153,-0.023,4.115,0,52
33001,-0.287,-0.051,1,-3.405,1.046,4.573,0,53
33055,-0.272,-0.055,0.997,-4.443,-2.977,2.115,0,52
33111,-0.271,-0.071,1.004,-3.504,-3.26,-0.489,0,52
33165,-0.264,-0.073,1.016,0.42,-1.534,-3.908,0,52
33223,-0.285,-0.083,1.011,2.366,3.221,-4.542,0,52
33278,-0.298,-0.068,0.992,3.71,-2.794,-5.366,0,53
33333,-0.281,-0.052,0.999,3.649,0.198,-3.748,0,53
33388,-0.296,-0.055,0.99,2.824,0.809,-3.046,0,52
33486,-0.282,-0.037,0.994,0.496,0.298,-1.656,0,53
33541,-0.291,-0.055,0.992,-2.176,0.504,-1.802,0,52
33596,-0.298,-0.07,1.009,-3.221,-2.718,-2.176,0,51
33651,-0.284,-0.083,1.011,-1.435,1.267,-0.244,0,52
33705,-0.301,-0.064,1.015,0.481,-0.183,-0.176,0,51
33764,-0.278,-0.06,0.998,-0.664,0.252,0.038,0,51
33819,-0.287,-0.071,1.018,0.099,-0.969,-0.298,0,51
33873,-0.283,-0.063,0.998,0.878,-0.939,0.183,0,51
33929,-0.281,-0.062,1.002,0.42,0.458,0.412,0,51
33983,-0.291,-0.071,0.999,-0.359,-0.611,0.008,0,51
34038,-0.287,-0.063,0.989,0.115,-1.122,0.214,0,52
34094,-0.289,-0.066,1.002,-0.13,0.695,-0.267,0,51
34149,-0.284,-0.072,1,0.481,-1.382,0.015,0,51
34203,-0.281,-0.054,0.988,-0.718,2.786,1.359,0,52
34262,-0.309,-0.057,1.011,-2.221,0.649,3.183,0,52
34317,-0.297,-0.061,0.99,-2.756,-0.382,4.55,0,52
34372,-0.289,-0.06,1.007,-1.977,1.168,3.504,0,52
34426,-0.284,-0.066,1.01,-0.282,0.313,1.573,0,52
34482,-0.286,-0.082,1.002,1.168,1.328,0.931,0,52
34537,-0.291,-0.067,1,0.893,0.244,0.389,0,52
34592,-0.294,-0.068,0.999,-0.244,-0.58,-0.427,0,52
34647,-0.294,-0.065,0.995,0.435,-1.847,-0.504,0,52
34692,-0.299,-0.06,0.989,0.458,0.916,-0.458,16,52
34736,-0.297,-0.064,1.001,0.221,-0.229,-0.351,16,52
34784,-0.295,-0.063,0.999,1.115,-2.099,0.573,16,52
34828,-0.277,-0.059,0.981,0.405,-0.458,-0.053,16,52
34873,-0.284,-0.071,1.004,-0.527,1.076,-1.519,16,52
34928,-0.307,-0.066,1.012,0.458,0.214,-0.756,0,52
34982,-0.288,-0.059,0.993,1.053,-0.511,-0.13,0,52
35038,-0.29,-0.061,1.009,0.107,0.26,-1.099,0,53
35093,-0.299,-0.066,1.012,0.397,-0.656,-0.26,0,53
35148,-0.292,-0.064,0.992,0.305,-0.061,-0.725,0,53
35204,-0.301,-0.074,1.007,0.573,-0.855,-0.26,0,53
35262,-0.286,-0.068,1.006,1.221,-1.214,-0.153,0,52
35317,-0.281,-0.063,0.997,1.237,-0.969,-1.168,0,53
35373,-0.273,-0.057,0.996,1.534,-1.42,-2.786,0,52
35428,-0.304,-0.067,1.017,1.954,-1.916,-2.504,0,53
35483,-0.303,-0.06,0.998,1.374,-3.527,-2.214,0,52
35538,-0.301,-0.051,1.008,-2.397,-3.748,-1.756,0,52
35594,-0.291,-0.071,1.011,-5.359,-3.115,0.924,0,52
35649,-0.301,-0.101,1.027,-5.397,-5.031,2.885,0,52
35704,-0.261,-0.095,1.002,-3.084,-10.779,3.847,0,51
35763,-0.242,-0.075,0.943,-1.336,-1.229,4.244,0,53
35807,-0.294,-0.052,0.97,-1.878,7.511,5.809,9,53
35862,-0.335,-0.056,0.984,-4.786,4.389,7.275,0,54
35917,-0.349,-0.067,0.999,-7.397,-0.305,11.137,0,54
35974,-0.302,-0.077,0.98,-7.901,-3.466,15.718,0,54
36029,-0.291,-0.096,0.99,-7.229,-1.466,15.053,0,53
36084,-0.301,-0.105,1.012,-4.756,-3.489,14.573,0,52
36140,-0.275,-0.109,1.021,-5.412,-0.198,14.565,0,55
36238,-0.294,-0.107,1.007,-6.305,-6.305,17.244,0,55
36297,-0.27,-0.117,0.983,-5.015,-7.588,19.015,0,56
36353,-0.258,-0.126,0.969,-1.672,-2.344,19.695,0,57
36409,-0.24,-0.082,0.978,0.305,9.313,15.221,0,56
36464,-0.295,-0.087,1.036,0,4.786,11.092,0,57
36519,-0.236,-0.052,0.974,-1.336,-2.908,10.313,0,57
36576,-0.244,-0.066,0.991,-4.435,2.977,8.588,0,57
36631,-0.257,-0.036,1.01,-3.809,3.092,9.328,0,62
36687,-0.233,-0.022,1.026,-0.855,7.977,7.733,0,57
36743,-0.222,0.018,0.992,1.466,12.298,8.16,0,57
36802,-0.259,0.038,0.994,-0.221,14.878,10.084,0,58
36857,-0.272,0.044,1.015,-4.176,5.489,5.824,0,57
36914,-0.256,0.042,1.018,-11.634,1.931,2.832,0,59
36969,-0.256,0.006,0.995,-17.977,1.13,2.947,0,57
37015,-0.198,0.007,0.895,-23.038,3.718,-1.374,29,54
37070,-0.247,-0.035,0.894,-31.023,5.832,-8.313,0,52
37132,-0.359,-0.103,0.896,-35.931,-1.542,-8.237,0,50
37177,-0.337,-0.098,0.859,-44.153,8.794,2.74,38,48
37222,-0.366,-0.136,0.886,-52.809,11.107,8.26,41,48
37278,-0.368,-0.215,0.874,-59.855,9.702,9.893,0,44
37332,-0.513,-0.335,0.956,-71.496,16.985,11.015,0,46
37387,-0.672,-0.516,0.991,-72.061,15.45,10.359,0,51
37434,-0.716,-0.701,0.959,-59.71,20.626,11.656,37,76
37488,-0.646,-0.671,0.881,-52.71,35.351,13.443,0,53
37534,-0.655,-0.719,0.885,-47.015,25.901,6.863,30,74
37580,-0.587,-0.723,0.799,-38.908,19.679,-1.45,30,74
37635,-0.586,-0.718,0.75,-34.664,34.954,-10.466,0,61
37690,-0.664,-0.693,0.762,-28.145,44.557,-11.122,0,55
37747,-0.676,-0.581,0.752,-23.985,33.321,-8.58,0,56
37803,-0.688,-0.538,0.755,-18.519,15.55,-0.382,0,62
37858,-0.686,-0.487,0.759,-13,2.641,10.13,0,53
37910,-0.704,-0.531,0.761,-0.901,-24.702,12.779,0,19
37963,-0.642,-0.535,0.676,19.26,-39.687,6.443,0,23
38017,-0.631,-0.54,0.615,36.473,-36.931,0.366,0,27
38070,-0.605,-0.519,0.577,48.366,-32.908,-0.611,0,38
38124,-0.531,-0.455,0.602,52.351,-23.466,2.588,0,45
38179,-0.445,-0.363,0.666,46.809,-24.023,11.053,0,50
38237,-0.309,-0.288,0.75,35.183,-38.229,27.137,0,61
38282,-0.207,-0.233,0.766,20.023,-43.008,43.42,10,65
38337,-0.193,-0.235,0.781,11.008,-41.969,54.435,197,65
38381,-0.24,-0.293,0.789,12.076,-45.588,55.595,6,69
38426,-0.228,-0.324,0.78,19.107,-36.42,51.153,10,70
38470,-0.23,-0.298,0.81,25.214,-19.145,51.756,6,70
38525,-0.26,-0.214,0.844,30.45,-15.038,55.733,0,63
38572,-0.294,-0.113,0.86,26.252,-7.702,67.679,30,61
38617,-0.339,-0.079,0.911,20.084,-4.809,81.252,28,61
38665,-0.32,-0.018,0.896,10.916,-3.672,95.962,26,62
38710,-0.382,-0.058,0.914,4.099,-1.756,111.847,27,61
38756,-0.395,0.007,0.876,3.305,3.809,116.74,24,76
38802,-0.518,0.072,0.884,-1.168,25.45,118.099,25,71
38891,-0.613,-0.016,0.925,-3.847,9.969,110.718,24,83
38937,-0.487,0.061,0.858,-8.221,7.008,94.397,24,83
38983,-0.503,0.092,0.872,-20.649,15.344,76.168,24,80
39028,-0.541,0.127,0.896,-27.71,18.046,61.618,23,60
39073,-0.559,0.202,0.873,-24.725,16.733,58.641,27,57
39127,-0.56,0.21,0.807,-15.733,10.382,53.58,116,57
39182,-0.569,0.252,0.77,-13.901,16.435,46.42,0,58
39234,-0.592,0.242,0.845,-18.275,11.565,43.405,117,83
39290,-0.513,0.281,0.842,-20.954,-0.153,43.191,0,89
39343,-0.474,0.306,0.836,-26.359,2.939,41.252,116,84
39389,-0.51,0.294,0.855,-27.901,6.771,28.702,26,82
39440,-0.586,0.253,0.925,-29.053,8.305,22.153,117,74
39492,-0.553,0.242,0.969,-29.489,1.672,26.794,116,88
39547,-0.463,0.231,0.988,-32.427,-14.466,31.321,119,92
39596,-0.388,0.207,0.926,-29.198,-28.908,24.847,26,95
39643,-0.373,0.21,0.873,-26.466,-14.672,17.824,27,91
39691,-0.377,0.237,0.902,-26.687,6.382,20.176,25,112
39739,-0.429,0.215,0.954,-26.099,1.046,26.718,25,106
39787,-0.407,0.143,0.921,-21.931,-17.427,23.985,23,113
39835,-0.358,0.08,0.895,-19.656,-10.695,15.366,23,111
39883,-0.397,0.06,0.947,-15.298,1.893,6.542,26,107
39931,-0.433,0.055,0.983,-8.893,4.298,7.42,24,115
39983,-0.444,0.018,0.983,-4.443,3.092,8.069,26,117
40033,-0.372,0.02,0.945,-1.824,5.855,11.061,26,135
40081,-0.373,0.037,0.925,0.496,2,10.481,24,124
40131,-0.404,0.022,0.936,-6.282,10.321,3.183,28,134
40179,-0.451,0.033,1.028,-18.588,17.221,5.252,25,108
40228,-0.469,0.057,1.056,-25.374,1.832,13.573,27,132
40278,-0.38,0.06,0.979,-22.687,-10.725,22.84,24,132
40328,-0.333,0.058,0.866,-14.305,-5.954,27.145,28,132
40376,-0.336,0.071,0.85,-11.443,7.679,29.229,28,105
40426,-0.422,0.074,0.892,-17.634,11.893,34.87,25,105
40475,-0.512,0.034,0.964,-25.725,7.893,42.115,29,108
40522,-0.534,-0.043,1.021,-24.786,0.359,52.153,28,100
40582,-0.457,-0.041,0.999,-18.145,-0.779,53.496,0,116
40640,-0.376,-0.023,0.953,-9.046,1.84,44.947,0,117
40698,-0.37,0.052,0.911,-6.664,11.473,34.534,0,102
40758,-0.5,0.085,0.926,-11.458,14.641,29.885,0,128
40807,-0.527,0.083,0.891,-11.344,2.557,28.267,27,128
40856,-0.496,0.082,0.866,-9.344,3.191,24.275,24,128
40908,-0.503,0.107,0.89,-8.786,8.679,19.534,24,129
40957,-0.53,0.1,0.939,-9.809,4.878,17.534,25,115
41006,-0.479,0.105,0.945,-8.115,-1.069,15.473,29,114
41064,-0.451,0.117,0.937,-5.702,2.275,12.282,0,113
41123,-0.48,0.116,0.959,-2.893,0.496,10.344,0,113
41182,-0.456,0.134,0.93,0.214,-0.206,7.664,0,113
41240,-0.477,0.124,0.935,0.878,-1.695,6.664,0,114
41298,-0.448,0.134,0.929,-1.511,-2.466,3.527,0,114
41347,-0.453,0.116,0.945,-2.924,-1.412,1.611,30,101
41398,-0.434,0.118,0.938,-1.771,-3.42,-0.641,29,100
41489,-0.432,0.126,0.946,-0.664,-1.771,-2.42,29,101
41538,-0.449,0.115,0.943,-1.985,-1.863,-1.756,29,116
41586,-0.459,0.119,0.937,-2.45,-1.916,-0.26,27,103
41634,-0.451,0.11,0.922,-3.695,-2.206,1.786,26,103
41682,-0.446,0.097,0.948,-5.206,-5.641,0.824,27,103
41732,-0.401,0.079,0.93,-3.939,-5.313,-1.954,26,117
41780,-0.416,0.09,0.937,-2.779,1.374,-1.878,26,104
41828,-0.44,0.097,0.958,-2.939,-0.084,-1.962,26,104
41881,-0.43,0.111,0.934,-2.924,-1.931,-2.168,27,147
41932,-0.448,0.109,0.931,-4.198,-0.13,0.061,28,153
41980,-0.449,0.103,0.937,-3.496,-2.718,2.168,29,102
42029,-0.443,0.088,0.937,-2.817,-0.832,3.718,28,103
42078,-0.445,0.075,0.946,-2.779,-1.244,4.008,27,120
42127,-0.417,0.077,0.926,-2.176,0.168,3.756,30,117
42176,-0.425,0.08,0.955,-3.771,2.328,2.099,30,116
42235,-0.43,0.07,0.967,-4.351,-3.71,1.45,0,116
42294,-0.391,0.062,0.955,-2.863,-4.832,-2.069,0,116
42356,-0.415,0.04,0.969,-0.023,-2.718,-5.748,0,116
42415,-0.386,0.072,0.957,5.046,-2.168,-8.176,0,116
42464,-0.417,0.056,1.009,9.718,-0.771,-12.321,29,111
42523,-0.434,0.04,0.994,17.87,-4.473,-14.885,0,116
42572,-0.405,0.099,0.902,17.275,10.664,-9.45,30,116
42621,-0.463,0.108,0.935,8.847,8.901,-5.565,28,117
42672,-0.472,0.11,0.946,4.985,-6.84,-5.29,29,146
42723,-0.408,0.115,0.901,1.573,-4.176,-3.069,26,146
42773,-0.448,0.117,0.92,-0.626,4.344,-0.527,26,145
42826,-0.449,0.104,0.946,-0.901,-1.87,-0.702,26,131
42876,-0.415,0.101,0.936,-0.649,-0.496,0.557,26,130
42926,-0.427,0.097,0.947,-0.45,3.046,0.298,26,132
42977,-0.437,0.091,0.942,-0.519,0.977,-0.641,26,145
43027,-0.434,0.102,0.929,-1.817,2.634,0.466,26,146
43078,-0.443,0.107,0.941,-3.809,1.885,0.969,26,145
43126,-0.442,0.096,0.943,-3.55,-1.092,0.733,26,109
43175,-0.439,0.093,0.933,-1.924,1.779,1.183,26,108
43224,-0.448,0.086,0.948,-1.527,3.023,1.183,27,109
43278,-0.455,0.084,0.935,-2.107,1.58,1.305,27,145
43327,-0.448,0.088,0.944,-3.374,0.29,2.443,29,117
43376,-0.445,0.075,0.936,-2.947,-0.977,2.885,29,115
43425,-0.43,0.08,0.926,-2.015,1.206,2.099,30,114
43484,-0.443,0.079,0.944,-2.298,1.901,0.977,0,114
43543,-0.452,0.074,0.94,-2.748,0.305,1.557,0,114
43601,-0.443,0.085,0.934,-2.817,-0.664,1.397,0,113
43661,-0.454,0.072,0.935,-2.511,-0.244,1.145,0,113
43725,-0.436,0.073,0.936,-1.977,0.573,0.557,0,114
43787,-0.449,0.069,0.943,-1.718,0.153,0.397,0,115
43846,-0.453,0.08,0.944,-1.328,0.908,1.153,0,152
43907,-0.459,0.076,0.929,-1.374,0.611,1.725,0,151
43966,-0.458,0.071,0.931,-1.527,0.481,2.58,0,145
44026,-0.455,0.082,0.931,-1.13,0.824,3.069,0,146
44086,-0.445,0.073,0.923,-1.756,-0.046,3.252,0,146
44189,-0.455,0.083,0.933,-2.992,-0.58,3.511,0,147
44251,-0.451,0.07,0.926,-2.931,-1.305,3.87,0,174
44311,-0.451,0.076,0.938,-3.069,0.58,4.649,0,154
44374,-0.454,0.066,0.92,-5.763,-0.618,5.198,0,153
44434,-0.442,0.055,0.928,-5,-0.473,2.695,0,152
44494,-0.447,0.067,0.939,-3.183,3.145,2.427,0,152
44555,-0.461,0.063,0.942,-4.351,0.824,2.794,0,153
44615,-0.457,0.073,0.929,-6.443,1.076,4.74,0,154
44675,-0.461,0.061,0.922,-9.076,-1.267,6.282,0,148
44735,-0.447,0.038,0.94,-9.344,-3.611,5.023,0,147
44794,-0.433,0.028,0.929,-6.084,-1.58,2.26,0,147
44855,-0.438,0.033,0.925,-5.107,2.771,-0.115,0,147
44908,-0.443,0.016,0.979,-8.611,-5.885,-4.084,30,147
44967,-0.428,0.019,1.026,-1.313,-3.267,-5.496,0,148
45026,-0.424,0.024,1.003,11.008,-2.275,-7.603,0,108
45076,-0.467,0.02,1.007,22.183,-4.344,-12.099,30,148
45135,-0.442,0.086,0.906,25.649,-1.618,-7.748,184,152
45186,-0.494,0.115,0.906,10.45,5.305,3.16,25,146
45236,-0.495,0.066,0.929,4.359,-15.924,3.496,29,146
45286,-0.387,0.071,0.877,2.534,-14.267,2.13,26,153
45345,-0.396,0.064,0.897,0.015,5.344,1.153,182,152
45399,-0.452,0.063,0.955,0.634,1.237,0.298,29,152
45449,-0.418,0.094,0.95,-0.16,-0.122,0.573,31,152
45500,-0.431,0.08,0.96,0.015,0.687,0.992,30,152
45550,-0.423,0.094,0.946,1.122,1.229,0.344,30,152
45598,-0.417,0.085,0.943,1.13,2.588,-1.214,28,116
45646,-0.405,0.083,0.927,-0.55,1.107,-4.809,30,115
45704,-0.457,0.035,0.926,-4.29,-0.634,-5.397,181,114
45753,-0.478,0.02,0.934,-7.313,-5.725,0.771,31,115
45803,-0.469,0.065,0.965,-8.198,-6.252,6.908,29,146
45864,-0.441,0.067,0.978,-13.672,-7.053,12.985,182,147
45916,-0.373,0.052,0.977,-3.634,-6.725,6.366,26,154
45966,-0.361,0.099,0.957,6.382,6.168,1.779,25,154
46016,-0.396,0.106,0.948,5.023,5.71,-2.168,25,154
46075,-0.444,0.062,0.963,-2.336,-7.298,-8.191,182,146
46126,-0.412,0.035,0.913,-4.221,-13.519,-3.763,28,154
46177,-0.391,0.073,0.95,-2.802,8.206,-1.084,28,154
46227,-0.455,0.059,1,-1.229,-0.16,-1.29,30,154
46278,-0.394,0.05,0.947,2.153,-3.305,2.908,28,154
46341,-0.406,0.064,0.962,4.29,13.153,5.183,181,154
46400,-0.466,0.05,0.944,6.084,0.053,4.481,181,154
46451,-0.425,0.086,0.92,-1.359,-3.893,9.206,29,155
46501,-0.369,0.106,0.926,-8.748,-8.008,3.931,25,147
46552,-0.377,0.061,0.985,-11.321,-22.008,-9.298,27,147
46602,-0.444,0.036,1.034,-1.519,2.092,0.473,26,147
46652,-0.409,0.033,1.01,8.115,3.374,5.244,28,147
46702,-0.376,0.066,0.952,9.542,7.733,3.076,29,149
46761,-0.411,0.057,0.94,6.924,-1.023,-1.626,183,148
46824,-0.394,0.072,0.916,2.641,-5.718,-4.573,182,147
46883,-0.406,0.089,0.941,-1.366,-1.069,-3.511,181,153
46987,-0.398,0.087,0.966,-0.069,-2,-0.573,181,153
47046,-0.401,0.068,0.967,0.863,0.008,-0.344,181,153
47106,-0.392,0.063,0.958,1.198,0.519,0.076,182,152
47165,-0.395,0.073,0.964,-0.573,-0.092,-0.626,181,152
47225,-0.401,0.072,0.968,-0.328,-2,-0.71,182,152
47285,-0.4,0.078,0.955,-0.221,1.366,-0.023,182,152
47344,-0.402,0.072,0.966,0.176,-2.573,0.099,182,148
47407,-0.379,0.074,0.949,1.794,-0.221,-1.038,182,147
47466,-0.405,0.067,0.969,1.611,0.931,-1.008,182,147
47525,-0.394,0.073,0.952,1.13,-0.931,-1.366,181,147
47585,-0.404,0.075,0.962,0.008,0.718,-1.038,182,146
47644,-0.403,0.076,0.961,-0.435,-0.588,-0.679,183,147
47702,-0.405,0.078,0.953,0.16,1.847,0.481,182,117
47760,-0.402,0.082,0.952,-0.252,-0.695,0.229,182,116
47817,-0.402,0.08,0.946,-1.855,1.611,1.328,181,116
47875,-0.414,0.088,0.941,-4.008,1.969,3.611,182,115
47935,-0.415,0.09,0.947,-8.344,1.557,8.405,183,114
47993,-0.409,0.07,0.965,-10.084,-2.489,7.672,0,112
48053,-0.379,0.025,0.967,-8.679,-8.023,2.45,0,114
48111,-0.344,0.033,0.965,-4.588,-2.473,-4.382,0,115
48169,-0.405,0.029,1.018,0.718,8.931,-4.076,0,113
48228,-0.416,0.018,0.987,5.099,-4.198,-6.763,0,101
48284,-0.362,0.066,0.962,8.145,-1.817,-8.099,182,100
48342,-0.425,0.06,0.948,3.985,6.046,-0.901,182,100
48398,-0.418,0.054,0.951,1.489,-2.939,-0.718,181,100
48458,-0.394,0.054,0.941,0.099,-1.71,0.313,181,99
48515,-0.396,0.052,0.954,-1.13,2.092,-0.473,182,99
48572,-0.41,0.043,0.976,-0.466,-0.489,-0.489,182,99
48628,-0.397,0.051,0.961,0.298,0.901,0.275,183,99
48686,-0.407,0.047,0.974,0.908,0.382,-0.42,183,99
48742,-0.401,0.056,0.957,0.947,-0.29,0,182,98
48798,-0.401,0.059,0.959,0.42,-0.13,0.29,183,99
48856,-0.393,0.058,0.96,0.733,0.313,0.107,183,99
48912,-0.41,0.054,0.952,-0.122,1.908,0.87,183,99
48972,-0.411,0.043,0.963,-0.672,-1.504,0.611,183,99
49029,-0.396,0.051,0.953,-0.443,1.252,0.542,182,98
49086,-0.406,0.062,0.95,-0.985,1.328,0.397,182,98
49142,-0.417,0.061,0.958,-1.748,2.427,1.969,182,99
49200,-0.422,0.06,0.96,-1.969,-0.046,3.351,182,99
49248,-0.425,0.054,0.953,-3.595,0.786,6.344,31,99
49296,-0.414,0.047,0.962,-4.298,-2.534,6.359,28,99
49353,-0.394,0.061,0.946,-5.855,-2.542,5.618,0,100
49412,-0.391,0.036,0.966,-6.916,-3.573,1.977,0,99
49473,-0.373,0.017,0.986,-2.588,-5.809,-4.733,0,100
49530,-0.429,0.02,0.994,3.611,4.87,-3.809,0,99
49579,-0.421,0.032,1.022,7.58,-3.611,-5.87,30,100
49627,-0.382,0.063,0.962,10.374,0.153,-5.046,27,99
49675,-0.407,0.085,0.932,5.84,5.954,-1.45,26,98
49723,-0.442,0.067,0.955,0.924,-1.908,0.412,27,99
49771,-0.411,0.058,0.933,-0.328,-8.084,0.42,28,99
49862,-0.412,0.05,0.959,0.664,2.672,0.908,27,99
49909,-0.398,0.056,0.964,1.076,-1.756,0.015,26,99
49957,-0.396,0.06,0.957,0.084,1.809,0.412,27,99
50009,-0.405,0.057,0.973,0.458,-1.802,-0.29,27,99
50057,-0.391,0.064,0.957,0.763,-0.191,-0.687,27,99
50105,-0.408,0.056,0.96,0.718,1.328,0.115,27,99
50153,-0.406,0.057,0.96,0.282,-1.756,-0.763,27,99
50209,-0.399,0.049,0.959,1.137,-1.237,-0.496,182,99
50267,-0.4,0.063,0.958,1.466,1.641,-0.198,182,100
50324,-0.407,0.06,0.969,-0.26,-0.16,-0.183,182,100
50381,-0.409,0.055,0.955,-0.389,-1.786,0.237,182,100
50438,-0.396,0.055,0.964,0,-0.061,1.137,181,100
50499,-0.396,0.06,0.963,0.099,-0.519,0.389,181,102
50555,-0.402,0.065,0.966,0.053,1.069,1.458,181,101
50614,-0.415,0.06,0.952,-0.473,1.229,2.954,182,115
50672,-0.398,0.062,0.963,-0.771,-1.748,2.115,181,115
50729,-0.389,0.069,0.947,-1.481,-0.687,0.473,181,115
50788,-0.415,0.042,0.985,-1.298,-3.412,-1.916,181,115
50846,-0.377,0.059,0.962,1.962,0.74,-1.229,181,115
50904,-0.415,0.055,0.982,3.809,1.221,-2.756,181,113
50967,-0.4,0.074,0.957,6.015,-0.412,-2.641,181,115
51027,-0.415,0.075,0.96,1.977,1.481,-0.084,180,114
51084,-0.403,0.072,0.952,0.107,-3.061,0.137,181,114
51141,-0.392,0.073,0.952,-0.954,-0.527,0.153,181,115
51197,-0.402,0.07,0.963,-0.458,-0.489,-0.061,180,115
51255,-0.389,0.075,0.967,0.908,0.443,-0.069,181,115
51312,-0.405,0.065,0.963,0.313,0.282,0.137,180,115
51368,-0.406,0.063,0.964,-0.13,-2.954,-0.244,181,115
51426,-0.387,0.073,0.959,0.702,-0.534,-0.053,181,115
51483,-0.41,0.066,0.973,-0.405,-1.969,-0.573,180,116
51551,-0.417,0.076,0.959,-1.42,-3.366,2.145,180,117
51613,-0.401,0.08,0.975,-2.427,-4.519,6.137,181,152
51675,-0.402,0.071,0.954,-6.153,-5.305,9.863,181,152
51734,-0.379,0.072,0.975,-7.405,-6.458,9.168,181,117
51795,-0.345,0.056,0.969,-5.626,-4.618,5.71,181,153
51859,-0.339,0.059,0.963,-5.115,-1.031,0.198,0,153
51920,-0.345,0.055,0.979,-4.885,-2.893,-4.878,181,149
51982,-0.375,0.042,0.989,-1.885,6.046,-4.244,181,151
52046,-0.397,0.036,1.001,4.458,-4.168,-3.237,181,149
52106,-0.346,0.043,0.989,6.267,-6.313,-7.626,181,117
52165,-0.331,0.07,0.997,13.275,-5.55,-10.076,180,115
52216,-0.403,0.09,0.983,8.015,12.221,0.305,31,116
52268,-0.403,0.071,0.979,2.847,-8.16,-1.504,29,116
52326,-0.338,0.077,0.931,-0.282,-7.412,-2.351,182,111
52377,-0.37,0.061,0.979,-0.405,3.374,-0.359,30,115
52436,-0.379,0.061,0.983,1.71,-1.489,-0.183,182,110
52496,-0.351,0.067,0.973,1.702,0.656,0.084,182,115
52558,-0.363,0.062,0.994,1.664,-0.115,-1.031,182,111
52618,-0.357,0.057,0.99,2.87,-0.718,-0.977,182,115
52679,-0.344,0.084,0.966,1.931,0.389,-1.756,0,115