Timestamp(ms),AccelX(g),AccelY(g),AccelZ(g),GyroX(deg/s),GyroY(deg/s),GyroZ(deg/s),DistanceLeft(cm),DistanceRight(cm)
42938,-0.126,-0.168,1.017,0.565,-1.656,-0.45,75,29
42985,-0.126,-0.177,1.023,-0.466,1.58,0.13,75,29
43031,-0.137,-0.184,1.046,-0.29,-2.695,0.321,75,29
43078,-0.098,-0.161,0.996,-0.519,3.45,0.26,75,30
43124,-0.154,-0.173,1.048,0.046,-0.725,0.763,75,29
43170,-0.118,-0.166,1.014,-0.947,0.382,0.183,75,29
43216,-0.142,-0.186,1.035,-0.504,-0.634,0.26,75,29
43267,-0.099,-0.173,0.997,0.183,0.321,0.282,75,30
43313,-0.143,-0.171,1.049,-0.626,1.664,0.702,75,29
43359,-0.11,-0.169,1.003,-1.206,-0.496,0.405,75,29
43406,-0.145,-0.188,1.047,-0.053,-0.542,0.26,75,29
43452,-0.1,-0.177,1.01,1.099,0.031,-0.321,75,29
43498,-0.157,-0.287,1.154,13.038,0.504,0.84,76,30
43545,-0.132,-0.261,1.213,60.511,4.939,8.695,76,30
43591,-0.145,0.009,1.318,96.748,30.84,16.176,78,31
43643,-0.209,0.337,1.359,105.718,22.924,37.985,169,31
43689,-0.208,0.437,1.271,105.702,-20.481,44.244,54,32
43738,-0.138,0.409,0.942,99.557,-55.977,26.87,51,42
43784,-0.023,0.506,0.712,64.061,-37.672,8.504,50,43
43831,0,0.397,0.604,18.359,-27.672,-16.71,53,55
43882,-0.026,0.271,0.635,-26.13,-5.687,-38.863,139,48
43927,-0.044,0.032,0.73,-54.145,18.29,-37.382,50,24
43973,-0.212,-0.106,0.933,-60.702,17.947,-30,70,23
44021,-0.177,-0.191,1.103,-53.672,-32.061,-39.634,87,44
44067,-0.011,-0.268,1.041,-38.282,-31.534,-13.794,67,21
44115,-0.006,-0.152,1.116,-13.244,-31.252,-2.977,67,22
44163,0.083,0.028,1.06,-7.458,-19.733,-5.664,86,21
44209,0.042,0.096,1.013,-11.924,7.328,-4.061,71,23
44255,-0.098,0.088,1.12,-15.435,-0.397,-0.092,69,22
44301,-0.068,0.063,1.06,-12.374,-8.794,2.061,68,26
44346,-0.045,0.074,1.042,-9.023,-2.802,2.122,69,22
44392,-0.013,0.043,1.118,-0.16,3.771,3.008,69,24
44439,-0.021,0.064,1.084,5.443,12.725,6.504,83,22
44485,-0.047,0.065,1.119,3.763,1.649,7.786,84,22
44535,0.03,0.073,1.069,0.656,-6.496,5.084,83,23
44579,0.083,0.058,1.042,-1.672,0.244,-0.092,51,23
44624,0.055,0.002,1.051,-2.328,8.313,-7.214,51,23
44670,-0.008,-0.025,1.089,-0.359,4.733,-9.511,66,22
44716,0.005,-0.013,1.011,-1.756,3.13,-8.603,68,23
44762,-0.027,-0.02,1.076,0.504,2.595,-6.74,67,22
44808,-0.021,0.028,1.035,2.595,-0.359,-8.573,68,23
44854,-0.077,0.12,1.032,0.908,10.878,-1.832,67,22
44900,-0.157,0.13,1.083,-3.412,10.695,8.779,58,45
44948,-0.127,0.074,1.092,-2.107,-10.771,10.985,57,23
44993,-0.035,0.079,1.07,2.687,-14.252,9.405,48,23
45038,0.042,0.096,1.02,3.855,-4.954,4.16,48,22
45082,0.036,0.075,1.027,0.939,3.87,-1.534,46,22
45127,0.019,0.022,1.029,-2.916,6.504,-6.855,48,23
45172,-0.013,-0.008,1.045,-1.115,6.496,-9.359,51,22
45216,-0.04,-0.005,1.037,-1.244,6.893,-7.298,49,21
45304,-0.07,0.051,1.018,0.389,5.992,-3.962,50,22
45349,-0.127,0.035,1.097,1.344,4.336,1.656,49,24
45394,-0.096,0.094,1.06,6.771,-12.29,0.931,48,23
45443,0.003,0.158,0.98,0.053,3.641,6.939,47,44
45489,-0.066,0.075,1.097,-1.473,3.733,5.038,48,39
45534,-0.045,0.051,1.055,1.13,-0.702,3.771,47,22
45578,-0.052,0.073,1.025,-3.031,3.534,6.137,47,22
45623,-0.043,0.032,1.04,-4.618,-2.107,2.557,48,22
45667,-0.003,0.004,1.069,1.084,-4.634,-3.55,46,22
45712,-0.016,0.069,1.047,2.366,20.992,0.321,48,22
45757,-0.105,0.066,1.055,-1.466,13.618,-0.55,48,21
45802,-0.092,0.021,1.047,-4.634,-7.939,-0.351,48,22
45849,-0.072,-0.003,1.139,1.649,-19.137,0.786,47,22
45895,-0.086,0.047,1.11,5.29,-22.695,3.542,68,23
45941,-0.237,0.009,1.283,34.634,-27.389,25.511,67,24
45988,-0.226,0.371,1.098,46.55,6.305,51.679,51,46
46032,-0.448,0.511,0.944,27.053,45.71,95.214,40,23
46083,-0.519,0.362,0.854,-11.015,40.947,137.221,135,26
46133,-0.343,0.098,0.937,-17.443,-17.908,141.26,131,30
46178,0.033,0.027,0.941,-15.802,-82.863,103.16,43,33
46233,0.454,-0.013,0.82,-31.542,-95.183,64.687,0,36
46281,0.602,-0.249,0.945,-45.069,-19.786,40.511,35,38
46326,0.433,-0.317,1.041,-24.702,30.443,24.496,37,37
46371,0.163,-0.165,1.183,-2.565,32.725,11.214,31,37
46416,0.114,-0.042,1.085,3.092,6.382,0.115,33,38
46460,0.123,-0.009,1.047,-0.183,-0.389,2.023,30,38
46507,0.133,-0.036,1.044,0.336,1.344,3.328,44,38
46552,0.098,-0.015,1.024,0.542,-3.542,-0.366,32,37
46596,0.124,0.058,1.071,0.443,-5.038,-1.29,30,37
46641,0.115,0.091,1.051,-0.504,6.55,0.137,30,36
46689,0.024,0.101,1.056,-1.695,12.855,2.557,31,38
46733,0.011,0.073,1.108,4.336,-0.496,2.985,30,37
46778,0.083,0.062,1.029,6.183,-4.702,4.771,30,36
46829,0.107,0.03,1.032,0.969,9.962,8.756,31,36
46873,0.104,-0.062,1.076,0.252,-3.985,3.779,30,37
46917,0.233,-0.034,1.051,-1.023,-10.336,-4.687,29,38
46961,0.235,-0.053,1.014,-4.542,2.092,-8.443,30,37
47005,0.16,-0.041,1.036,-8.008,1.076,-16.977,35,35
47049,0.073,0.006,1.13,-1.702,-8.748,-20.817,29,36
47096,0.113,0.085,1.037,1.687,-8.679,-26.313,30,38
47139,0.086,0.114,1.017,3.221,11.901,-23.763,29,37
47183,0.028,0.128,0.978,0.992,26.191,-11.443,32,36
47227,-0.081,0.137,1.076,3.664,24.099,-0.344,31,36
47282,-0.103,0.116,1.045,3.198,12.023,11.794,0,36
47326,-0.049,0.095,1.059,3.16,-4.511,20.832,31,37
47370,0,-0.016,1.078,2.779,-12.321,23.847,30,35
47414,0.132,0.029,1.041,2.55,-11.42,20.504,32,36
47458,0.173,-0.017,1.014,-0.511,9.641,16.947,35,35
47505,0.137,-0.074,1.085,-1.71,5.015,10.618,34,37
47549,0.228,-0.041,1.071,-1.725,-2.954,-2.145,34,36
47646,0.182,-0.05,1.03,-6.733,-6.71,-18.275,0,36
47690,0.105,-0.002,1.09,-1.817,-14.221,-29.305,37,36
47735,0.11,0.06,1.057,-1.061,1.664,-29.695,36,37
47779,0.019,0.11,1.008,-2.901,11.046,-22.863,38,39
47824,-0.111,0.122,1.083,5.824,15.183,-16.351,35,36
47868,-0.114,0.227,1.048,6.885,5.748,-7.137,32,37
47912,-0.087,0.2,0.991,0.626,3.275,8.679,32,36
47960,-0.096,0.125,1.085,0.13,5.198,21.832,32,39
48004,-0.026,0.078,1.074,4.977,-13.496,21.733,31,40
48048,0.122,0.099,0.974,5.42,-2.176,21.695,30,38
48093,0.052,0.08,1.048,-1.718,25.084,28.634,37,38
48137,0.053,0.004,1.066,-3.824,7.939,22.924,37,37
48181,0.082,-0.043,1.096,-6.191,0.878,19.771,38,36
48226,0.134,-0.086,1.083,-6.267,-6.229,12.244,36,39
48271,0.13,-0.146,1.13,-2.336,-21.824,2.916,36,40
48315,0.244,-0.031,1.027,1.389,-20.588,-5.435,37,38
48362,0.21,-0.032,1.061,-1.565,-2.55,-16.466,32,36
48407,0.178,-0.014,1.031,-1.214,-2.473,-23.55,33,37
48451,0.052,0.017,1.088,-1.58,-1.573,-26.611,33,37
48495,0.056,0.038,1.042,0.496,-6.611,-23.282,33,37
48539,0.066,0.048,0.994,2.977,-3.763,-16.954,30,39
48584,0.068,-0.046,1.076,7.435,-4.382,-6.733,31,37
48628,0.239,-0.153,1.023,15.534,-12,-12.031,35,38
48673,0.384,-0.18,1.045,25.176,-8.076,-31.282,37,36
48717,0.416,-0.114,0.999,25.725,0.084,-60.641,39,32
48764,0.285,0.041,0.969,18.137,15.42,-98.221,43,26
48809,0.075,0.147,0.919,9.779,36,-123.351,38,29
48854,-0.232,0.296,0.913,-2.107,70.427,-119.366,44,27
48898,-0.583,0.351,1.025,-14.107,59.855,-78.771,39,24
48943,-0.554,0.325,1.024,-19.634,20.084,-43.458,41,44
48989,-0.368,0.276,1.029,-21.061,2.16,-23.534,59,23
49034,-0.235,0.112,1.026,-20.832,-7.756,-9.481,51,43
49080,-0.148,-0.002,1.141,-14.611,-7.55,8.534,68,22
49125,-0.054,-0.009,1.187,-2.191,-46.504,-1.206,56,24
49173,0.15,0.065,1.016,6.321,-38.221,-13.405,59,26
49217,0.172,0.046,0.972,1.542,21.908,-18.321,45,25
49264,-0.06,0.043,1.05,2.504,44.053,-16.458,68,38
49311,-0.189,0.083,1.112,2.809,20.229,-14.443,70,40
49357,-0.178,0.118,1.045,-1.649,1.954,-6.748,67,39
49404,-0.134,0.065,1.055,-1.115,0.794,-2.435,69,37
49451,-0.124,0.091,1.08,1.313,-1.977,0.221,68,37
49497,-0.09,0.07,1.074,1.786,-6.359,1.702,68,38
49544,-0.077,0.078,1.029,1.069,-4.16,3.511,68,39
49593,-0.077,0.083,1.052,0.466,-1.802,2.87,60,38
49639,-0.067,0.065,1.038,1.725,-2.305,0.595,60,38
49686,-0.067,0.078,1.051,2.504,3.947,1.244,68,48
49731,-0.142,0.049,1.059,1.878,0.664,2.328,59,38
49779,-0.093,0.084,1.066,1.473,-6.069,2.809,84,39
49826,-0.051,0.11,1.024,0.214,-0.466,4.206,84,43
49873,-0.083,0.068,1.069,0.809,-2.672,2.664,57,43
49963,-0.063,0.083,1.043,0.16,7.183,1.061,58,43
50011,-0.08,0.087,1.059,-1.802,7.496,1.473,84,43
50056,-0.08,0.094,1.046,-2.198,7.489,1.588,50,44
50105,-0.104,0.071,1.05,-2.725,7.405,-0.099,51,43
50151,-0.11,0.075,1.041,-0.672,1.718,-3.221,51,42
50197,-0.076,0.071,1.037,-1.084,7,-6.053,50,43
50243,-0.1,0.071,1.046,-1.786,10.786,-6.832,51,41
50288,-0.131,0.071,1.05,-1.313,4.611,-8.336,51,39
50335,-0.125,0.062,1.064,1.55,0.855,-6.481,70,37
50381,-0.111,0.075,1.044,1.153,-4.29,-9.206,68,38
50428,-0.087,0.082,1.031,0.351,-1.229,-11.45,69,37
50477,-0.094,0.084,1.042,-0.084,1.901,-8.802,86,37
50527,-0.132,0.097,1.02,-3.183,4.237,-4.611,86,37
50574,-0.147,0.068,1.06,-1.847,4.168,-2.42,71,38
50620,-0.153,0.09,1.022,-1.481,7.115,-0.328,70,37
50667,-0.174,0.061,1.07,-2.969,5.237,0.916,70,40
50714,-0.185,0.083,1.076,-6.221,-6.542,7.45,70,38
50761,-0.151,0.04,1.064,-6.809,-19.931,7.74,70,37
50807,-0.049,0.041,0.964,-3.176,-13.748,3.45,58,37
50853,-0.061,0.031,1.02,-1.237,-1.893,2.939,58,37
50898,-0.078,0.052,1.051,0.626,-0.595,4.656,52,37
50950,-0.1,0.053,1.044,0.29,3.489,3.855,86,37
50997,-0.096,0.045,1.076,3.107,5.542,1.099,86,37
51045,-0.097,0.071,1.028,3.206,10.275,-0.206,86,38
51092,-0.163,0.058,1.074,-1.504,4.718,0.008,86,38
51138,-0.134,0.043,1.077,-2.321,-13.573,-0.221,51,39
51184,-0.063,0.071,1.057,0.038,-9.183,1.58,50,37
51229,-0.071,0.045,1.036,-3.344,4.931,0.542,50,37
51275,-0.154,0.057,1.084,-2.969,-1.229,0.71,51,37
51320,-0.117,0.056,1.075,-1.244,-8.511,2.74,50,23
51369,-0.107,0.049,1.068,-1.412,-1.069,3.794,51,39
51416,-0.131,0.039,1.038,0.16,6.237,8.634,51,39
51461,-0.108,-0.047,1.016,-0.817,11.595,14.481,51,40
51508,-0.169,0.065,1.091,-4.038,-5.947,11.229,85,22
51553,-0.073,0.006,1.067,0.84,-25.595,4.878,51,23
51600,0.007,0.034,1.019,0.198,-19.603,2.794,84,22
51647,0.036,0.039,1.014,-1.908,1.328,0.954,84,25
51694,-0.079,0.027,1.06,-2.687,8.847,0.321,84,22
51740,-0.106,0.054,1.061,-1.725,-0.16,-0.366,84,25
51790,-0.081,0.055,1.053,-0.336,0.443,-1.687,84,23
51837,-0.098,0.035,1.058,1.038,-0.603,-0.847,84,23
51885,-0.07,0.031,1.061,1.16,-7.313,-2.282,84,22
51931,-0.059,0.048,1.038,1.855,-0.221,0.962,68,22
51976,-0.072,0.046,1.078,0.885,-3.397,0.092,51,22
52021,-0.055,0.046,1.058,-0.435,-1.901,-0.389,51,23
52067,-0.071,0.037,1.067,-0.511,-6.74,-0.511,68,39
52113,-0.028,0.058,1.038,-2.076,-4.489,-0.435,51,42
52160,-0.055,0.054,1.06,-2.13,-0.58,-0.168,68,41
52210,-0.078,0.037,1.065,-1.466,-4.038,0.008,68,40
52257,-0.06,0.067,1.034,-0.756,-7.13,0.198,61,41
52347,-0.023,0.059,1.057,1.443,-3.947,0.618,69,39
52393,-0.049,0.066,1.07,0.122,2.267,2.366,58,23
52439,-0.052,0.076,1.058,-2.038,-1.756,0.069,58,23
52484,-0.057,0.017,1.06,-1.565,-8.176,-0.863,58,23
52529,-0.024,0.026,1.035,-0.389,-10.183,-0.809,51,22
52574,0.002,0.025,1.027,-0.466,-5.382,-0.42,48,23
52619,0.004,0.054,1.045,-1.122,2.595,0.115,50,23
52665,-0.039,0.055,1.074,-1.992,1.977,0.893,57,22
52713,-0.02,0.034,1.07,-0.672,-3.298,-0.557,58,22
52759,0,0.026,1.047,0.366,-0.466,-1.053,57,22
52810,-0.039,0.026,1.071,1.847,11.87,1.122,57,23
52854,-0.067,0.069,1.063,-0.679,-2.542,-0.153,51,24
52900,-0.009,0.029,1.042,-3.42,-13.962,0.198,58,44
52946,0.034,0.051,1.048,-0.733,-4.71,-0.168,57,44
52992,-0.022,0.058,1.065,-0.527,6.588,-2.374,61,23
53037,-0.018,0.057,1.072,-0.038,-4.847,-9.87,58,44
53083,0.008,0.065,1.035,-2.74,-1.061,-8.725,57,45
53131,-0.037,0.031,1.08,-4.198,3.405,-0.87,58,23
53176,-0.054,0.011,1.067,-2.939,-3.55,0.366,59,22
53220,-0.031,0.039,1.033,-3.702,-5.435,1.405,58,22
53265,-0.022,-0.011,1.047,-2.359,-6.809,1.069,58,22
53309,0.015,0.01,1.021,-0.435,-2.992,0.519,51,21
53355,0.005,0.007,1.02,-0.817,3.779,0.321,75,21
53399,-0.028,-0.006,1.062,0.015,3.641,1.573,50,22
53443,-0.02,-0.011,1.062,1.55,6.198,5.924,51,23
53487,-0.017,0.003,1.075,1.87,0.092,5.061,49,23
53535,-0.01,0.033,1.071,2.076,-5.504,4.038,48,43
53580,-0.006,0.057,1.064,1,-5.183,3.153,46,43
53626,0.021,0.077,1.061,-0.519,-2.573,0.664,47,45
53671,-0.008,0.038,1.058,-0.718,1.924,-0.634,47,48
53718,-0.03,0.042,1.055,-0.435,1.71,1.115,50,48
53764,-0.017,0.053,1.044,-1.885,-0.137,3.366,48,53
53810,-0.017,0.032,1.088,0.229,0.061,3.168,50,53
53854,-0.006,0.052,1.037,1.237,-0.634,1.679,49,23
53898,-0.019,0.039,1.034,-1.679,0.198,1.626,49,23
53947,-0.017,-0.01,1.058,0.397,-1.931,1.542,46,50
53992,0.012,0.023,1.029,-0.137,1.374,1.58,47,50
54038,0,0.047,1.057,-0.466,0.939,0.038,48,44
54083,0.017,0.021,1.067,0.221,1.359,-0.244,47,44
54128,0.008,0.037,1.068,-0.435,9.718,3.092,46,43
54174,-0.054,0.008,1.09,0.221,2.924,0.969,49,43
54219,-0.014,0.034,1.055,1.099,-6.084,-0.641,49,43
54264,0.009,0.029,1.045,1.008,-1.992,-0.298,46,45
54310,-0.012,0.05,1.05,0.023,3.534,0.519,45,45
54354,-0.021,0.033,1.055,-0.328,-2.969,-0.679,46,23
54403,-0.016,0.009,1.056,0.191,-2.954,-0.305,45,44
54448,-0.015,0.031,1.058,0.26,-6.16,-0.084,46,43
54494,0.021,0.035,1.028,0.458,-1.336,-1.321,46,43
54539,-0.015,0.007,1.061,0.664,4.588,-0.122,46,43
54584,-0.007,0.049,1.032,0.275,0.115,-0.221,46,44
54673,-0.009,0.038,1.098,2.115,11.74,1.046,45,45
54718,-0.055,0.049,1.074,-0.16,-3.504,0.061,48,45
54764,-0.015,0.01,1.037,-2.725,-14.252,1.427,45,43
54808,0.034,-0.002,1.065,-0.763,-14.176,-0.45,46,22
54855,-0.052,-0.018,1.149,5.061,-7.527,-2.611,46,22
54901,-0.084,-0.049,1.187,26.13,-31.84,-2.137,49,45
54946,-0.041,0.168,1.037,36.13,2.473,22.221,60,24
54990,-0.255,0.303,1.079,30.046,37.115,55.992,45,25
55036,-0.411,0.387,0.968,12.924,28.702,83.29,65,25
55081,-0.385,0.251,1.011,-9.046,-10.664,106.985,47,26
55126,-0.136,0.105,1.016,-11.237,-53.679,102.84,42,29
55171,0.213,0.05,0.939,-9.893,-60.733,86.069,47,30
55215,0.438,0.002,0.885,-16.298,-28.176,60.229,30,30
55263,0.4,-0.141,1.006,-17.061,12.496,32.718,41,37
55308,0.291,-0.126,1.054,-10.45,18.618,14.412,46,37
55353,0.196,-0.073,1.048,-10.557,17.153,10.336,39,37
55397,0.122,-0.042,1.091,-11.397,2.992,15.405,38,38
55442,0.156,-0.041,1.057,-8.359,-9.618,12.718,37,41
55487,0.18,-0.005,1.05,-3.893,-6.603,8.58,33,40
55532,0.149,-0.006,1.028,-3.511,3.435,7.061,35,41
55576,0.127,0.022,1.067,-1.435,1.649,1.573,36,39
55621,0.093,-0.043,1.078,-2.687,2.626,2.29,34,38
55669,0.103,0.009,1.067,2.641,4.55,-0.763,34,40
55713,0.071,0.005,1.049,4.55,5.603,2.878,33,37
55757,0.07,0.05,1.06,4.099,3.672,5.634,33,38
55802,0.084,0.036,1.065,0.824,-1.237,4.527,33,40
55846,0.093,0.003,1.039,-0.214,-6.779,2.58,32,41
55891,0.14,0.034,1.022,0.695,-3.779,-0.191,32,40
55937,0.097,0.023,1.024,-2.206,5.656,2.763,32,40
55981,0.079,0.012,1.065,-2.336,3.534,1.076,33,36
56025,0.114,0.026,1.066,0.244,1.771,-0.328,33,36
56073,0.08,0.023,1.05,-1.725,1.71,1.046,33,36
56117,0.072,0.008,1.03,-4.435,-0.29,1.779,33,35
56161,0.083,0.019,1.099,-0.817,-8.176,-0.618,32,35
56206,0.097,0.025,1.068,0.878,-1.542,0.992,33,34
56250,0.122,0.023,1.031,0.168,6.267,-1.603,31,35
56294,0.115,-0.067,1.035,-1.649,10.618,0.046,32,36
56339,0.063,-0.006,1.106,2.519,0.458,-3.855,32,36
56383,0.08,0.029,1.03,-0.565,-1.664,1.298,32,36
56427,0.08,0.011,1.055,-2.397,-2.382,1.466,32,37
56472,0.057,-0.015,1.14,2.489,-7.931,2.802,32,36
56514,0.128,0.039,1.037,2.748,-3.679,-0.71,32,36
56559,0.105,0.022,1.014,-0.389,7.031,-1.115,32,36
56603,0.121,-0.044,1.03,2.008,5.878,-1.779,32,36
56647,0.093,0.031,1.075,2.313,1.656,-2.794,32,36
56692,0.094,0.042,1.041,-0.298,2.275,0.573,32,36
56736,0.051,-0.009,1.081,-1.504,1.863,1.634,33,38
56781,0.091,0.05,1.074,4.527,-3.496,-2.573,32,36
56825,0.081,0.04,1.046,1.794,7.504,0.168,32,36
56870,0.073,0.053,1.028,-0.473,4.038,-1.824,32,37
56961,0.067,0.022,1.045,-1.878,3.122,0.695,32,37
57006,0.048,0.02,1.057,-3.435,-1.366,0.878,33,36
57051,0.06,-0.01,1.139,1.992,-8.969,0.183,32,37
57095,0.125,0.056,1.04,2.122,5.046,1.58,32,37
57140,0.063,0.049,1.056,-0.42,7.481,-1.641,33,37
57184,0.069,0.062,1.111,1.099,-2.634,-1.275,33,37
57229,0.09,0.042,1.028,-0.45,1.443,1.145,33,37
57274,0.054,0.002,1.1,-1.74,-1.336,1.015,33,37
57318,0.099,-0.055,1.105,5.115,-13.229,-2.267,32,36
57366,0.123,-0.127,1.098,9.809,-2.061,-0.16,32,35
57411,0.166,-0.314,1.146,23.183,-17.992,2.802,34,41
57456,0.266,-0.502,1.05,48.527,-17.542,-2.473,36,42
57501,0.32,-0.467,0.918,71.214,22.679,-8.985,37,44
57547,0.135,-0.16,0.956,64.863,50.145,-9.809,39,36
57591,-0.066,-0.03,0.979,34.893,27.374,-12.947,29,34
57636,-0.116,0.096,0.849,-5.55,12.504,-19.107,29,36
57691,-0.224,0.394,0.785,-48.969,22.427,-29.023,0,37
57746,-0.33,0.633,1.035,-63.618,21.26,-24.855,0,46
57795,-0.103,0.51,1.069,-28.824,-2.718,-26.618,49,38
57839,0.021,0.528,1.049,-28.649,11.084,-38.901,17,39
57883,0.017,0.284,1.156,-32.817,6.427,-41.237,17,39
57928,0.04,-0.042,1.215,-37.588,-23.038,-53.733,50,36
57974,0.157,-0.157,1.09,-54.641,-30.901,-73.038,48,36
58018,0.23,-0.14,0.96,-82.397,8.58,-69.679,16,34
58073,0.014,-0.12,1.098,-104.16,38.29,-64.076,0,31
58117,-0.196,-0.167,1.202,-106.038,8.427,-80.847,16,31
58162,-0.129,-0.196,1.081,-103.901,-4.489,-82.924,46,29
58208,-0.055,-0.212,0.927,-111.061,32.733,-61.038,17,26
58252,-0.127,-0.276,0.916,-111.977,106.954,-20.733,16,27
58295,-0.26,-0.454,0.908,-110.695,104.397,-12.618,12,26
58339,-0.391,-0.645,1.224,-82.641,32.84,-24.092,13,29
58382,-0.102,-0.56,0.902,-73.817,-52.809,-34,11,29
58426,0.233,-0.737,0.546,-94.237,4.366,-19.099,12,30
58469,0.077,-1.144,0.598,-103.649,34.046,-39.435,16,28
58513,-0.092,-0.965,0.677,-111.794,19.901,-46.893,14,37
58561,-0.098,-0.74,0.595,-119.405,3.794,-33.382,44,28
58605,-0.097,-0.796,0.54,-124.023,-48.084,-36.504,16,28
58654,0.113,-1.14,0.33,-107.466,-63.908,-39.275,16,30
58697,0.11,-1.249,0.244,-78.344,5.122,-27.565,17,29
58743,-0.026,-1.325,0.404,-38.557,22.29,-18.221,63,31
58789,0.085,-1.156,0.344,-1.634,2.992,-19.702,62,48
58832,0.143,-1.038,0.332,3.992,12.191,14.534,16,32
58875,0.147,-0.978,0.369,18.229,-10.588,38.885,16,32
58919,0.155,-0.867,0.408,40.397,-22,55.122,42,33
58968,0.095,-0.717,0.444,58.641,-38.427,51.412,59,20
59010,0.042,-0.545,0.474,61.756,-43.26,53.931,12,20
59052,-0.166,-0.617,0.584,63.878,-62.053,62.527,18,20
59095,-0.213,-0.649,0.57,70.168,-90.359,70.832,17,21
59137,-0.296,-0.728,0.562,68.511,-102.527,78.397,16,22
59180,-0.351,-0.79,0.557,56.29,-101.511,78.458,17,23
59268,-0.53,-0.767,0.612,21.687,-80.351,100.992,56,25
59313,-0.579,-0.701,0.555,6.26,-94.435,115.588,55,29
59356,-0.637,-0.639,0.586,-2.908,-107.802,117.634,16,42
59402,-0.653,-0.666,0.552,-5.107,-131.969,105.046,17,34
59446,-0.55,-0.605,0.468,-10.359,-119.023,96.168,16,40
59489,-0.543,-0.608,0.531,-21.626,-93.198,89.733,9,42
59533,-0.512,-0.628,0.535,-32.473,-90.87,83.573,16,43
59577,-0.445,-0.695,0.549,-43.198,-93.863,68.412,9,47
59620,-0.342,-0.795,0.491,-50.542,-93.573,45.786,7,55
59665,-0.199,-0.755,0.445,-53.687,-63.466,31.298,9,58
59709,-0.236,-0.811,0.439,-53.008,-31.611,31.443,9,57
59766,-0.163,-0.69,0.407,-50.527,-7.748,26.435,0,54
59810,-0.16,-0.699,0.436,-52.901,1.366,29.053,16,49
59866,-0.308,-0.927,0.5,-45.008,-26.55,28.481,0,56
59920,-0.187,-1.036,0.435,-30.992,-63.664,12.183,0,37
59974,-0.022,-0.961,0.332,-29.26,-45.076,3.298,0,39
60027,-0.004,-0.896,0.347,-35.252,-22.84,-12.038,184,42
60071,-0.009,-0.802,0.351,-50.206,-12.069,-32.992,16,42
60118,-0.046,-0.83,0.313,-57.29,-8.496,-42.298,59,42
60165,-0.046,-0.885,0.215,-56.947,-2.42,-44.794,60,45
60215,-0.063,-0.913,0.083,-58.374,16.298,-39.687,70,49
60261,-0.117,-0.844,0.08,-64.076,22.26,-16.252,67,47
60316,-0.162,-0.987,0.075,-70.351,1.275,6.58,0,57
60371,-0.135,-1.261,0.009,-79.046,5.74,-5.229,0,52
60427,-0.19,-1.008,0.246,-88.282,-12.443,-6.687,0,52
60471,-0.209,-1.189,0.201,-63.015,-50.183,-5.282,10,57
60515,-0.181,-1.148,0.142,-44.344,-64.321,-18.916,4,58
60559,-0.129,-0.961,-0.003,-27.718,-44.687,-18.878,4,61
60618,-0.312,-0.847,0.046,-3.794,-32.55,22.344,0,69
60662,-0.271,-0.915,-0.098,28.244,-24.397,43.924,5,58
60718,-0.329,-0.953,0.035,34.893,-21.267,46.458,0,57
60762,-0.086,-0.983,0.002,40.634,-94.901,1.321,8,57
60817,-0.344,-0.96,-0.022,25.885,-70.145,13.344,0,61
60873,-0.471,-1.081,0.089,4.366,-106.115,6.275,196,66
60930,-0.253,-1.418,0.04,39.214,-162.832,-2.756,190,79
60985,0.229,-1.204,0.06,76.26,-128.886,-12.443,184,78
61040,0.405,-0.845,-0.008,92.42,34.336,16.756,179,83
61100,0.081,-0.967,0.158,101.252,126.328,31.863,174,87
61155,-0.037,-1.084,0.15,108.092,112.427,32.16,170,90
61210,0.024,-0.814,0.123,93.092,89.817,11.374,168,94
61265,0.183,-0.787,-0.068,56.519,80.122,-16.443,166,92
61318,0.086,-0.588,0.036,-1.763,104.389,-42.885,166,30
61370,-0.091,-0.753,0.106,-44.626,93.221,-68.519,167,30
61421,-0.2,-1.048,0.061,-63.809,67.496,-98.336,168,23
61472,-0.18,-1.232,-0.037,-76.916,76.725,-103.794,170,18
61524,-0.273,-1.471,-0.158,-94.878,116.954,-103.275,171,17
61570,-0.336,-1.169,0.103,-123.237,115.794,-90.855,16,15
61613,-0.394,-1.146,0.336,-104.336,78.794,-65.672,16,16
61672,-0.331,-1.039,0.416,-48.366,36.855,-51.664,0,124
61731,-0.158,-1.177,0.224,9.542,53.603,-28.931,0,125
61835,-0.117,-0.881,0.111,73.702,167.611,64.458,0,149
61897,-0.183,-1.143,0.161,101.695,156.26,96.374,0,177
61953,-0.156,-1.095,0.188,110.389,115.977,98.008,63,187
62007,-0.14,-1.014,0.192,105.702,86.87,76.504,57,189
62071,-0.134,-0.909,0.23,87.275,48.473,35.656,0,158
62127,-0.078,-1.097,0.113,67.695,32.802,-27.878,62,183
62178,0,-0.884,0.091,47.809,62.573,-69.313,58,123
62229,-0.019,-0.92,0.064,14.702,102.74,-86.962,60,123
62282,-0.1,-0.818,0.189,-18.939,118.618,-93.71,60,165
62332,-0.184,-0.999,0.219,-39.565,98.55,-110.649,65,94
62383,-0.196,-1.033,0.225,-39.084,83.168,-122.145,60,107
62437,-0.181,-0.987,0.179,-40.267,92.832,-101.008,58,171
62495,-0.234,-0.895,0.247,-53.962,111.015,-78.244,63,0
62551,-0.292,-0.905,0.355,-60.389,98.443,-64.626,68,171
62606,-0.305,-0.866,0.469,-54.321,56.122,-43.069,85,166
62660,-0.191,-0.865,0.397,-31.977,19.702,-9.542,83,163
62718,-0.085,-1.034,0.282,-5.237,34.389,17.611,139,161
62775,-0.044,-0.962,0.218,30.359,72.634,39.786,138,130
62831,-0.032,-0.977,0.231,55.74,98.519,74.733,138,127
62887,-0.047,-1.411,0.151,73.046,113.458,55.656,137,126
62943,-0.021,-1.1,0.143,73.702,139.756,49.969,139,124
63002,-0.133,-0.831,0.241,55.939,128.786,53.328,137,123
63057,-0.193,-0.787,0.26,47.122,86.679,24.809,137,122
63114,-0.146,-0.958,0.104,53.336,66.382,-32.656,139,119
63169,-0.134,-0.986,-0.037,51.733,112.595,-75.954,141,116
63225,-0.244,-1.124,-0.053,25.427,167.886,-94.84,144,112
63281,-0.373,-0.927,0.122,-9.557,171.412,-102.573,149,109
63337,-0.385,-0.924,0.278,-38.008,83.634,-85.397,151,108
63388,-0.285,-1.093,0.237,-54.817,11.046,-108.107,80,106
63450,-0.157,-0.935,0.174,-67.542,1.13,-104.443,0,105
63508,-0.084,-0.817,0.213,-68.443,34.702,-80.29,0,105
63556,-0.118,-0.898,0.27,-60.107,66.939,-46.107,16,106
63604,-0.171,-1.017,0.384,-51.916,71.939,-25.336,10,107
63650,-0.193,-1.024,0.475,-37.588,52.252,-4.099,9,81
63696,-0.116,-1.139,0.448,-24.229,34.45,16.763,9,81
63742,-0.079,-1.174,0.403,-11.031,35.069,27.916,10,83
63789,-0.058,-1.203,0.346,5.267,38.931,34.351,9,87
63836,-0.007,-0.997,0.28,25.435,49.244,50.099,10,91
63891,-0.083,-0.896,0.358,29.511,53.015,84.992,107,98
63943,-0.134,-1.148,0.322,50.71,10.573,88.107,93,105
63995,-0.04,-1.206,0.149,71.901,-7.947,84.153,87,114
64049,-0.07,-1.042,0.15,61.847,-10.962,87.84,84,122
64106,-0.151,-0.842,0.194,40.527,-36.87,80.229,81,0
64162,-0.185,-0.794,0.206,33.313,-69.779,40.069,75,0
64218,-0.106,-0.793,0.142,37.389,-67.573,6.214,70,178
64269,-0.046,-0.933,0.096,44.626,-27.893,-5.481,63,100
64319,-0.04,-1.016,0.112,38.16,21.618,-3.519,60,99
64371,-0.102,-1.262,0.139,24.206,50.771,-7.366,58,99
64427,-0.129,-1.214,0.184,12.595,54.794,-20.992,57,194
64483,-0.173,-0.963,0.235,-20.382,47.603,-37.885,58,195
64581,-0.001,-0.94,0.187,-14.092,-9.893,-42.008,54,199
64636,0.113,-0.876,0.097,-14.809,55.366,-30.84,52,200
64692,-0.046,-0.958,0.205,-26.344,118.42,-29.267,65,174
64750,-0.171,-0.873,0.285,-23.687,110.053,-36.626,124,172
64806,-0.171,-0.753,0.29,-20.733,98.824,-35.038,122,145
64866,-0.198,-0.748,0.286,-24.107,107.748,-17.992,96,167
64922,-0.312,-0.992,0.352,-8.489,85.924,-9.107,103,161
64977,-0.221,-1.008,0.251,-3.458,72.458,-7.237,101,146
65033,-0.259,-1.041,0.281,-25.366,73.557,-10.641,98,149
65090,-0.308,-1.171,0.344,-29.756,40.916,-32.634,96,174
65145,-0.19,-0.743,0.389,-12.55,-3.069,-9.389,93,152
65201,-0.082,-1.093,0.297,20.282,-14.389,28.489,90,155
65256,0.061,-1.347,0.11,63.756,36.221,21.374,87,157
65311,-0.027,-0.906,0.221,64.405,92.229,48.313,85,161
65377,-0.178,-0.902,0.335,69.847,57.962,62.023,84,192
65433,-0.11,-0.848,0.244,73.328,32.244,36.168,83,192
65488,-0.05,-0.808,0.183,64.672,43.313,12.939,82,196
65546,-0.056,-0.971,0.131,54.779,72.389,-11.29,82,0
65601,-0.168,-1.088,0.12,37.893,87.702,-37.908,83,189
65657,-0.239,-1.104,0.145,11.748,88.031,-62.321,84,189
65714,-0.319,-1.067,0.203,-25.366,69.702,-100.779,84,188
65770,-0.386,-0.929,0.389,-44.55,3.595,-109.611,84,0
65829,-0.105,-0.842,0.206,-13.527,-43,-82.282,76,0
65886,0.031,-0.865,0.107,-22.885,34.023,-50.496,80,0
65941,-0.129,-0.957,0.261,-32.015,84.763,-26.008,65,0
65996,-0.233,-0.818,0.393,-25.618,48.336,-9.13,63,0
66052,-0.178,-0.807,0.373,-23.191,8.084,0.626,61,0
66107,-0.123,-0.77,0.397,-16.87,-9.313,7.145,58,0
66162,-0.11,-0.939,0.427,-6.565,-20.321,19.992,57,0
66216,-0.028,-1.109,0.376,12.824,-23.824,31.176,54,0
66272,0.029,-0.999,0.269,18.824,1.794,49.389,51,0
66329,-0.086,-1.225,0.214,11.802,32.702,36.802,51,0
66384,-0.077,-0.844,0.218,16.908,31.084,32.237,51,0
66439,-0.131,-0.815,0.217,11.695,4.305,54.42,47,0
66493,-0.127,-1.365,0.039,25.595,-16.771,33.275,49,0
66547,0.01,-1.183,-0.063,47.58,8.183,7.634,44,0
66601,0.018,-0.828,-0.02,40.298,45.458,28.847,44,0
66657,-0.103,-0.928,-0.001,21.031,61.26,32.389,49,0
66711,-0.147,-1.003,0.004,26.137,55.092,3.786,37,0
66765,-0.087,-1.023,-0.109,38.038,62.206,-28.16,45,0
66822,-0.072,-1.091,-0.216,29.931,108.107,-51.618,30,0
66875,-0.144,-1.238,-0.22,22.069,148.069,-67.87,31,0
66924,-0.219,-1.213,-0.126,20.786,157.405,-85.794,33,110
66972,-0.237,-1.048,-0.08,6.466,153.939,-95.802,39,98
67020,-0.254,-0.911,0.041,-8.053,147.595,-89.695,44,94
67069,-0.288,-0.983,0.014,2.351,145.008,-91.695,49,87
67117,-0.242,-0.977,-0.071,9.176,169.954,-87.557,55,73
67165,-0.281,-0.907,-0.074,6.321,211.702,-76.336,59,67
67211,-0.368,-0.873,-0.004,4.855,220.008,-56.489,64,45
67261,-0.373,-0.868,0.087,0.641,186.473,-38.634,72,36
67357,-0.258,-0.986,0.08,-16.855,150.046,-29.763,0,26
67410,-0.276,-1.022,0.169,-29.527,140.603,-26.603,0,20
67464,-0.266,-0.857,0.276,-37.183,117.008,-10.786,0,17
67516,-0.252,-0.884,0.318,-40.58,88.863,3.504,0,15
67569,-0.258,-0.997,0.295,-33.45,78.679,5.702,0,13
67622,-0.28,-1.136,0.254,-20.473,73.603,4.053,0,12
67675,-0.23,-0.895,0.261,-9.13,60.916,31.366,0,12
67730,-0.279,-1.122,0.24,-1.733,40.962,40.328,0,12
67783,-0.168,-0.938,0.146,16.641,22.809,41.885,0,14
67836,-0.126,-0.837,0.124,16.863,30.916,53.237,0,15
67889,-0.173,-0.889,0.188,14.557,32.771,49.298,0,17
67942,-0.202,-1.024,0.226,11.198,12.443,21.221,0,17
67995,-0.165,-0.964,0.205,5.817,0.214,-5.992,0,17
68048,-0.219,-1.135,0.206,0.435,-6.168,-27.45,0,18
68102,-0.19,-1.245,0.155,10.908,-21.542,-49.809,0,18
68155,-0.116,-1.217,0.071,16.527,-11.977,-48.122,0,19
68211,-0.137,-1.051,0.11,4.626,5.038,-31.84,0,20
68264,-0.216,-0.847,0.224,-2.366,-31.947,-2.137,0,22
68318,0.011,-0.783,0.158,13.954,-72.794,-2.221,0,23
68371,0.194,-0.854,-0.005,10.809,-40.802,-31.756,0,25
68426,0.108,-0.979,0.049,-13.13,-8.656,-22.031,0,42
68481,-0.005,-1.002,0.139,-16.466,-11.084,-22.321,0,43
68528,0.021,-0.887,0.12,-17.122,-35.206,-24.26,67,46
68582,0.004,-0.829,0.138,-27.473,-38.908,-20.695,0,37
68636,-0.057,-0.87,0.177,-28.183,-58.901,-20.977,0,36
68695,0.012,-0.898,0.075,-16.733,-70.29,-11.191,0,50
68739,0.029,-0.842,0.056,-11.466,-76.321,12.74,17,52
68794,0.151,-0.96,-0.119,-12.221,-68.321,14.664,0,55
68838,0.092,-1.223,-0.173,-29.481,-44.916,-1.061,5,50
68883,0.113,-0.906,-0.058,-36.237,-37.321,11.237,17,59
68927,0.142,-0.858,-0.064,-45.351,-39.023,19.656,7,40
68981,-0.016,-1.104,-0.055,-39.282,-40.733,-6.519,0,36
69024,-0.061,-0.965,-0.151,-16.626,-55.855,-12.641,5,38
69080,-0.068,-0.793,-0.188,-21.473,-51.901,2.229,0,57
69127,-0.08,-0.891,-0.202,-19.389,-28.198,17.504,4,44
69170,0.005,-0.922,-0.247,-7.031,-1.611,16.16,4,45
69214,-0.019,-0.99,-0.213,-5.847,18.969,12.389,4,48
69269,-0.075,-0.992,-0.144,-8.252,14,5.695,0,53
69313,-0.176,-1.062,-0.129,0.107,-15.511,-15.725,4,60
69368,0.16,-1.064,-0.256,-53.748,250.13,2.84,199,59
69420,-1.378,-1.69,0.515,7.183,235.092,76.504,105,64
69470,-0.537,-0.952,0.208,42.504,-166.794,11.229,99,70
69524,0.476,-0.761,-0.536,52.092,-208.779,-0.466,178,19
69577,0.809,-0.737,-0.574,37.122,-32.076,12.061,172,24
69628,0.43,-0.907,-0.302,-18.191,58.076,40.145,167,29
69681,0.119,-0.984,-0.169,-15.366,75.886,38.496,162,37
69737,-0.096,-0.789,0.022,-16.107,59.878,37.466,159,98
69790,-0.301,-0.958,0.099,-9.733,38.87,44.786,154,71
69843,-0.408,-0.891,0.251,-4.344,-12.527,42.443,131,75
69895,-0.395,-1.084,0.183,3.359,-72.832,41.687,121,63
69989,-0.172,-1.042,-0.028,38,-117.87,11.298,135,47
70043,-0.153,-1.244,-0.157,34.397,-80.344,2.969,130,50
70094,-0.239,-1.231,-0.044,28.389,-16.595,-1.366,126,53
70146,-0.233,-0.719,0.13,23.542,-16.382,19.137,122,57
70202,-0.255,-0.798,0.138,10.198,-39.527,44.405,0,63
70258,-0.291,-1.193,0.075,24.618,-75.198,22.733,0,72
70317,-0.108,-1.006,-0.033,48.198,-78.916,7.382,0,98
70374,-0.005,-0.872,-0.051,42.328,-19.908,23.55,0,103
70433,-0.147,-0.907,0.087,33.092,14.656,20.42,0,105
70495,-0.429,-1.041,0.306,40.756,-20.153,14.71,0,108
70553,-0.213,-0.96,0.203,54.427,-59.779,10.809,0,113
70617,-0.11,-0.887,0.241,49.076,1.626,3.008,0,189
70680,-0.202,-1.077,0.249,52.618,45.847,-18.481,0,0
70739,-0.187,-0.856,0.275,35.626,110.695,-45.168,0,115
70791,-0.282,-0.887,0.346,41.718,127.74,-47.855,64,115
70850,-0.255,-0.793,0.309,42.069,134.634,-42.473,0,114
70908,-0.309,-0.917,0.279,50.969,144.786,-27.969,0,114
70963,-0.365,-0.888,0.248,65.282,147.466,-30.779,101,120
71031,-0.422,-0.873,0.21,61.053,151.855,-39.557,71,0
71089,-0.677,-0.855,0.416,53.893,147.771,-34.573,110,132
71152,-0.653,-0.775,0.468,58.809,54.382,-35.885,145,0
71209,-0.371,-0.688,0.289,52.176,45.893,-40.84,122,125
71272,-0.347,-0.685,0.276,44.885,99.313,-49.038,124,0
71334,-0.574,-0.716,0.572,31.58,23.725,-68.939,135,0
71393,-0.265,-0.753,0.423,15.489,-29.908,-101.519,123,140
71451,-0.13,-0.789,0.405,-15.313,17.786,-106.397,125,135
71510,-0.208,-0.856,0.491,-27.443,25.099,-102.13,129,130
71567,-0.363,-0.901,0.738,-15.603,-38.901,-54.038,57,127
71621,-0.19,-0.865,0.692,0.71,-97.084,-22.145,55,126
71674,0.038,-1.05,0.55,15.26,-53.878,-7.519,55,126
71729,0.044,-0.87,0.627,39.58,1.382,15.389,56,125
71780,-0.049,-0.787,0.661,58.191,-1.832,28.351,16,125
71831,-0.039,-0.882,0.585,70.542,-9.885,25.389,16,125
71882,-0.056,-0.855,0.547,68.634,-5.42,17.878,14,126
71934,-0.068,-0.882,0.562,56.168,0.397,8.55,13,126
71989,-0.05,-0.781,0.58,47.397,11.023,7.16,16,126
72040,-0.09,-0.711,0.601,44.885,8.168,14.962,17,127
72092,-0.067,-0.701,0.591,34.939,9.115,5.092,17,126
72154,-0.095,-0.731,0.62,29.267,5.527,-6.908,193,127
72211,-0.11,-0.723,0.733,22.809,25.053,-16.115,16,126
72262,-0.096,-0.742,0.777,20.557,7.206,-25.954,17,126
72312,-0.021,-0.733,0.748,16.84,25.229,-33.038,16,126
72373,-0.076,-0.805,0.768,3.42,36.908,-47.359,182,125
72433,-0.135,-0.744,0.826,-10.153,36.321,-39.55,183,125
72487,0.031,-0.734,0.575,-17.359,39.534,-44.611,17,124
72538,-0.028,-0.687,0.543,-15.756,57.046,-39.458,13,124
72588,0.011,-0.711,0.463,-27.939,56.954,-48.183,12,123
72639,0.046,-0.761,0.368,-48.153,83.344,-57.794,16,122
72689,0.022,-0.747,0.346,-62.443,110.13,-63.137,11,121
72739,-0.058,-0.784,0.403,-74.878,113.832,-67.771,16,119