Timestamp(ms),AccelX(g),AccelY(g),AccelZ(g),GyroX(deg/s),GyroY(deg/s),GyroZ(deg/s),DistanceLeft(cm),DistanceRight(cm)
44308,-0.124,-0.031,1.054,0.511,4.267,3.198,85,73
44357,-0.066,-0.016,1.029,0.687,0.344,2.351,85,73
44406,-0.15,-0.038,1.067,0.672,3.214,3.305,85,73
44455,-0.105,-0.028,1.041,0.832,4.496,3.344,85,73
44505,-0.079,-0.134,1.1,-1.084,-0.649,4.183,85,73
44554,-0.122,-0.007,1.069,0.206,6.351,2.992,85,73
44603,-0.11,-0.029,1.049,0.519,0.313,3.45,85,73
44652,-0.135,-0.035,1.051,-0.237,1.267,4.153,85,73
44704,-0.08,-0.008,0.992,-1.221,10.641,4.573,85,73
44753,-0.111,-0.014,1.026,0.847,0.107,2.794,85,73
44803,-0.115,-0.032,1.031,1.061,4.511,2.771,85,73
44852,-0.122,-0.167,1.128,3.664,-1.656,1.267,85,73
44901,-0.138,-0.015,1.073,0.298,5.038,3.061,85,73
44950,-0.117,-0.025,1.047,0.427,-1.038,3.534,85,73
44999,-0.053,-0.019,1.023,0.679,3.756,2.588,85,73
45048,-0.165,-0.034,1.083,0.977,1.855,3.076,85,73
45097,-0.099,-0.028,1.042,0.466,3.427,3.122,85,73
45150,-0.042,-0.166,1.12,-1.244,1,4.595,85,73
45199,-0.135,-0.011,1.073,-0.344,7.099,3.481,85,73
45248,-0.121,-0.039,1.046,0.71,-0.664,3.74,85,73
45297,-0.134,-0.022,1.048,0.565,4.153,3.046,85,73
45346,-0.116,-0.027,1.054,0.229,0.198,2.137,85,73
45395,-0.113,-0.011,1.05,0.832,0.198,1.183,85,73
45442,-0.135,-0.023,1.049,-0.038,7.206,1.412,37,73
45492,-0.142,-0.02,1.064,-0.656,2.153,0.634,85,73
45541,-0.064,-0.037,1.002,-1.031,-0.26,0.046,84,73
45590,-0.123,-0.031,1.059,-0.42,5.191,-0.74,37,73
45639,-0.179,-0.047,1.069,-1.427,-2.489,-2.176,84,73
45688,-0.088,-0.042,1.038,0.282,-15.84,-5.771,84,74
45739,-0.091,-0.034,1.077,-1.939,-2.786,-2.634,84,73
45788,-0.054,-0.072,1.043,-0.168,-13.405,-6.092,84,73
45834,-0.06,-0.04,1.025,-1.374,0.328,-7.046,38,74
45881,-0.119,-0.033,1.051,-3.725,12.771,-9.16,30,73
45927,-0.143,-0.064,1.085,-2.13,0.435,-11.321,31,74
45973,0.002,0.019,1.023,-3.282,5.87,-12.649,31,74
46022,-0.143,-0.048,1.066,-5.565,11.595,-9.351,31,74
46069,-0.158,-0.13,1.12,-5.16,-22.931,-8.534,31,75
46116,0.043,-0.103,0.963,-7.183,-12.977,-14.458,37,75
46162,-0.077,-0.085,1.041,-11.267,20.382,-11.267,36,75
46210,-0.103,-0.036,1.031,-5.863,-0.565,-16.061,32,76
46259,-0.042,-0.106,1.02,-8.153,-0.573,-11.855,82,76
46306,0,-0.181,1.035,-6.924,2.855,-5.153,38,77
46356,0.039,-0.15,1.022,-6.168,2.489,-4.45,82,77
46405,0.002,-0.154,1.013,-11.382,17.198,-3.87,82,77
46458,-0.18,-0.217,1.176,-22.069,20.863,-1.237,83,78
46508,-0.178,-0.192,1.274,-2.481,-47.679,-17.985,83,77
46558,0.043,-0.105,1.004,-6.931,-23.366,-14.878,83,87
46608,-0.023,-0.222,1.035,-15.496,-26.84,-12.443,84,84
46658,0.042,-0.327,1.022,-8.183,-33.473,-20.092,84,90
46709,0.162,-0.331,0.905,-6.947,-27.031,-31.626,85,86
46801,0.259,-0.316,0.891,-17.16,-43.74,-87.282,91,74
46858,0.43,-0.307,0.732,-41.534,-43.206,-103.443,0,71
46913,0.45,-0.316,0.759,-61.237,30.015,-105.611,127,69
46964,0.254,-0.404,0.858,-66.267,81.16,-100.939,132,65
47015,0.023,-0.371,0.957,-59.977,83.13,-104.855,109,63
47070,-0.067,-0.381,1.017,-50.038,61.359,-101.534,37,0
47128,0.018,-0.352,0.956,-40.763,49.603,-92.504,119,0
47182,0.057,-0.375,0.984,-32.244,51.542,-86.519,36,0
47233,0.105,-0.373,0.971,-33.374,42.466,-89.832,37,124
47283,0.15,-0.348,0.917,-37.191,56.435,-83.527,38,115
47329,0.042,-0.361,0.949,-33.023,73.718,-76.489,38,66
47378,-0.052,-0.367,0.909,-27.16,86.962,-74.313,38,61
47424,-0.163,-0.318,0.805,-25.855,110.107,-59.359,42,58
47471,-0.349,-0.351,0.776,-36.496,126.137,-38.046,41,56
47518,-0.523,-0.453,0.92,-47.542,93.122,-17.557,63,54
47564,-0.469,-0.603,0.904,-53.893,40.947,-2.924,44,53
47611,-0.321,-0.639,0.811,-61.046,14.924,4.412,46,54
47657,-0.211,-1.2,0.943,-61.534,26.023,1.611,46,55
47704,0.046,-0.681,0.886,-26.534,17.985,-30.733,45,55
47754,-0.175,-0.78,0.8,-69.473,85.725,-10.275,50,55
47800,-0.339,-0.952,1.087,-79.473,0.397,-22,44,56
47846,-0.048,-0.924,0.721,-87.489,-59.29,-27.786,42,56
47892,0.171,-1.061,0.527,-86.305,-25.183,-17.237,42,56
47939,0.201,-1.129,0.312,-80.954,63.336,-8.504,44,55
47986,0.041,-1.149,0.208,-83.13,112.748,-9.214,67,54
48033,-0.097,-1.178,0.266,-78.626,91.794,-22.511,51,52
48081,-0.141,-1.088,0.362,-70.634,26.84,-43.756,87,51
48129,-0.007,-1.032,0.292,-63.115,-25.198,-53.412,46,51
48178,0.163,-0.966,0.227,-48.191,1.366,-45.664,44,49
48223,0.166,-0.862,0.207,-28.366,34.84,-28.863,43,47
48269,0.115,-0.8,0.26,-5.55,63.359,-7.588,43,47
48316,0.05,-0.798,0.288,10.305,71.939,1.099,44,71
48363,-0.002,-0.86,0.307,17.145,65.672,-0.313,42,68
48410,0.019,-0.884,0.276,20.794,65.176,-6.824,40,64
48456,-0.01,-0.909,0.28,16.748,70.298,-9.947,41,62
48503,-0.063,-0.961,0.302,14.649,64.168,-12.916,41,60
48549,-0.08,-0.967,0.281,24.351,46.84,-8.832,44,58
48600,-0.068,-1.002,0.241,36.527,34.649,-7.374,50,58
48654,-0.041,-1.052,0.205,40.947,36.374,-6.695,81,152
48710,-0.068,-0.867,0.201,37.534,44.198,-4.229,82,179
48760,-0.114,-0.719,0.257,28.153,31.336,5.924,85,83
48811,-0.099,-0.701,0.26,24.374,5.008,7.519,86,82
48866,-0.058,-0.737,0.222,16.13,3.733,3.656,87,156
48920,-0.119,-0.862,0.265,5.031,9.87,-0.145,87,160
48975,-0.092,-0.86,0.288,-1.45,15.42,-0.168,88,155
49030,-0.145,-0.788,0.372,-11.023,18.656,7.763,87,148
49087,-0.21,-0.838,0.507,-11.649,-19.672,18.695,87,135
49137,-0.149,-1.015,0.496,-6.099,-46.008,20.947,86,84
49188,-0.065,-0.959,0.438,-5.115,-44.664,19.26,84,84
49236,0.01,-0.909,0.37,-10.427,-10.985,14.725,83,57
49326,-0.07,-0.965,0.483,-20.817,17.145,4.534,16,58
49381,-0.013,-1.045,0.415,-14.687,10.855,-10.992,0,60
49443,0.102,-1.105,0.271,0.16,34.336,-42.634,0,178
49505,0.148,-0.849,0.145,12.786,117.466,-33.702,0,144
49568,-0.109,-0.898,0.408,-4.145,124.947,1.328,0,146
49629,-0.228,-0.923,0.597,-9.206,-23.069,17.878,0,136
49690,0.235,-0.953,0.364,-7.931,-97.382,7.504,0,151
49751,0.395,-0.88,0.385,15.618,11.153,-17.664,0,151
49813,-0.014,-0.828,0.375,1.267,26.832,-23.824,0,171
49874,-0.008,-0.825,0.304,-15.015,-9.198,-25.29,0,151
49936,0.042,-0.842,0.303,-33.954,-20.206,-9.122,0,151
49996,0.124,-0.876,0.355,-30.176,-19.038,16.748,0,151
50053,0.219,-0.89,0.439,-20.641,-11.863,21.382,0,65
50117,0.19,-0.964,0.47,-6.656,0.855,13.397,0,151
50173,0.097,-0.926,0.451,20.092,-2.244,20.489,0,62
50236,0.03,-0.937,0.38,24.427,-5.275,26.855,0,171
50293,-0.074,-0.983,0.398,15.954,-19.855,28.687,0,88
50349,-0.1,-1.058,0.411,21.443,-48.588,33.061,0,51
50404,-0.043,-1.05,0.323,26.794,-69.237,31.313,0,51
50460,-0.03,-1.075,0.267,28.031,-66.794,26.397,0,51
50515,0.048,-0.911,0.206,34.679,-54.519,26.977,0,51
50561,0.052,-0.818,0.181,33.695,-23.534,29.634,17,56
50619,-0.042,-0.876,0.248,25.87,-2.87,22.328,0,50
50674,-0.089,-0.915,0.247,14.901,3.282,8.069,0,43
50728,-0.101,-0.925,0.231,-6.893,24.794,-3.412,0,40
50790,-0.097,-0.915,0.275,-24.153,48.031,2.076,0,39
50844,-0.184,-0.93,0.378,-22.656,49.443,8.916,0,37
50897,-0.184,-0.915,0.395,-18.817,27.87,10.42,0,36
50952,-0.17,-0.966,0.407,-21.252,17.511,4.267,0,35
51005,-0.173,-0.95,0.397,-19.649,23.29,2.763,0,35
51059,-0.181,-0.933,0.419,-21.252,21.649,-1.771,0,36
51116,-0.169,-0.914,0.398,-23.588,9.504,-9.061,0,35
51170,-0.119,-0.927,0.383,-24.664,-0.573,-14.412,0,35
51213,-0.065,-0.991,0.335,-22.031,2.305,-17.985,16,36
51266,-0.045,-1.065,0.315,-21.664,9.405,-26.527,0,36
51320,-0.036,-0.973,0.296,-18.084,22.527,-27.252,0,36
51363,-0.091,-0.926,0.356,-10.908,11.794,-20.412,6,35
51406,-0.106,-0.98,0.342,-1.954,-13.985,-23.443,16,36
51449,-0.016,-0.974,0.245,4.863,-19.275,-27.191,5,38
51494,0.045,-0.949,0.184,5.557,4.481,-23.198,16,72
51548,-0.012,-0.937,0.232,4.618,27.519,-10.069,129,52
51600,-0.089,-0.96,0.321,8.305,7.634,2.763,127,67
51651,-0.052,-0.972,0.314,9.847,-27.565,6.794,125,67
51701,0.017,-0.975,0.288,10.695,-42.26,8.221,123,64
51752,0.055,-0.952,0.3,12.557,-45.107,9.977,120,57
51798,0.052,-0.89,0.307,20.405,-51.702,13.756,17,68
51842,0.07,-0.865,0.282,28.107,-58.863,19.71,11,57
51893,0.092,-0.938,0.262,28.305,-58.687,24.969,114,80
51948,0.088,-1.017,0.248,21.924,-55.649,25.885,0,60
52002,0.085,-0.906,0.27,12.267,-56.794,27.389,110,89
52100,0.004,-0.883,0.342,-1.626,-71.748,22.969,107,133
52158,0.017,-0.896,0.326,-5.618,-83.481,19.366,17,133
52206,0.019,-0.913,0.327,-5.107,-86.298,20.664,19,134
52255,-0.001,-0.956,0.326,-2.534,-93.84,21.985,16,134
52315,0.035,-0.964,0.277,6.71,-102.305,27.191,0,135
52372,0.079,-1.001,0.224,14.763,-88.687,35.695,155,137
52425,0.06,-1.002,0.239,17.656,-68.886,31.84,88,143
52477,0.047,-0.962,0.212,22.588,-57.198,26.427,16,142
52531,0.056,-0.938,0.173,25.519,-40.924,24.351,89,143
52585,0.025,-0.891,0.181,20.618,-21.191,25.252,89,145
52637,-0.053,-0.924,0.245,5.885,-21.031,27.206,89,119
52689,-0.072,-0.909,0.289,-3.198,-40.985,27.443,90,118
52742,-0.073,-0.884,0.311,-15.847,-57.031,26.443,92,117
52800,-0.078,-0.94,0.323,-26.58,-66.427,19.939,0,117
52848,-0.028,-0.97,0.315,-26.55,-64.557,9.885,17,117
52896,0.013,-0.941,0.308,-24.366,-50.466,10.069,16,117
52952,-0.022,-0.97,0.295,-12.542,-38,20.458,91,117
53000,-0.033,-0.964,0.3,-2.458,-36.45,27.893,16,117
53048,-0.06,-0.959,0.284,-5.214,-38.412,26.924,17,118
53100,-0.075,-0.966,0.311,-11.42,-49.29,19.802,91,120
53148,-0.066,-1.003,0.306,-14.847,-63.511,10.611,16,121
53208,-0.048,-1.007,0.308,-6.855,-74.687,8.336,0,122
53266,0.024,-1,0.245,9.87,-75.397,9.718,0,125
53315,0.08,-0.942,0.176,14.962,-37.015,11.733,16,137
53374,0.012,-0.944,0.233,11.023,-7.672,11.687,0,136
53438,-0.067,-0.976,0.281,5.992,-18.985,5.076,0,137
53497,-0.036,-0.985,0.243,2.992,-35.252,1.389,0,137
53557,0.02,-0.972,0.217,6.115,-27.336,4.901,0,138
53606,0.046,-0.931,0.233,6.092,-5.802,9.374,16,139
53666,-0.014,-0.971,0.309,6.496,-4.802,6.58,0,139
53715,-0.008,-0.957,0.281,4.313,-7.641,3.374,16,140
53765,-0.006,-0.976,0.284,-0.496,-5.176,4.557,16,141
53825,-0.013,-0.971,0.289,-0.061,-7.237,7.893,0,142
53884,0.019,-0.917,0.295,4.031,-9.321,13.985,0,144
53944,0.009,-0.93,0.302,1.847,-10.031,13.832,0,72
54000,0.043,-0.922,0.294,-0.908,-12.115,6.786,0,73
54055,0.048,-0.913,0.321,-1.038,-6.779,2.16,0,73
54102,0.046,-0.943,0.323,-0.427,-4.931,-0.046,16,74
54147,0.043,-0.962,0.318,-1.336,-2.618,1.008,16,75
54203,0.044,-0.991,0.312,-0.405,-4.427,3.382,0,76
54259,0.057,-0.956,0.299,1.137,-5.908,4.969,0,76
54316,0.04,-0.941,0.288,1.145,-4.817,2.221,0,76
54372,0.045,-0.948,0.29,-2.397,-3.916,-2.115,0,77
54431,0.032,-0.963,0.31,-3.351,-5.641,-6.099,0,78
54488,0.045,-0.94,0.291,-0.58,-5.763,-6.618,0,78
54544,0.037,-0.917,0.307,0.84,-1.115,-6.427,0,79
54600,0.031,-0.937,0.308,2.237,0.916,-7.489,0,80
54657,0.031,-0.946,0.295,1.565,3.137,-3.84,0,80
54703,0.031,-0.912,0.303,3.008,6.71,3.565,16,81
54759,0.011,-0.898,0.344,3.542,3.893,5.664,0,83
54859,0.072,-0.933,0.35,4.771,1.153,9.71,0,85
54916,0.035,-0.968,0.405,3.641,-10.58,12.267,192,88
54975,0.059,-0.937,0.38,7.374,-34.794,11.878,188,88
55031,0.107,-0.929,0.327,6.878,-39.847,13.969,186,90
55088,0.124,-0.947,0.319,5.176,-33.901,13.893,183,89
55144,0.097,-0.937,0.328,2.053,-36.672,14.359,181,91
55200,0.109,-0.913,0.322,0.26,-43.237,13.344,179,91
55256,0.122,-0.906,0.302,-2.214,-36.542,10.611,178,91
55312,0.101,-0.921,0.335,-4.115,-31.344,6.092,176,91
55368,0.074,-0.95,0.351,-3.489,-37.809,5.183,175,92
55424,0.078,-0.968,0.351,0.084,-44.076,7.115,174,93
55483,0.095,-0.978,0.336,4.626,-48.321,11.16,173,93
55539,0.107,-0.94,0.321,10.511,-43.534,14.985,172,95
55595,0.091,-0.911,0.323,12.443,-44.634,19.634,171,96
55651,0.094,-0.898,0.313,9.802,-50.275,20.244,170,98
55710,0.121,-0.888,0.303,5.916,-48.672,19.321,167,167
55762,0.142,-0.883,0.309,2.443,-39.397,18.397,17,168
55814,0.132,-0.871,0.319,1.26,-33.641,18.344,17,168
55865,0.129,-0.883,0.306,0.206,-27.863,20.053,17,168
55913,0.115,-0.933,0.308,-2.496,-20.679,19.962,18,130
55967,0.122,-0.976,0.308,-1.015,-12.336,18.061,16,167
56029,0.112,-0.945,0.282,2.137,-4.756,18.924,0,167
56078,0.071,-0.933,0.28,1.687,1.366,21.351,16,123
56126,0.066,-0.97,0.293,-3.099,-0.74,18.237,17,121
56185,0.063,-1,0.287,-4.931,-3.534,13.565,0,121
56247,0.048,-0.967,0.289,-3.496,-2.008,10.351,0,166
56306,0.023,-0.968,0.273,-2.023,-3.275,5.595,0,115
56365,0.013,-0.936,0.253,-0.008,0.779,4.603,0,114
56418,-0.007,-0.933,0.231,0.313,4.473,6.382,0,29
56478,-0.018,-0.952,0.236,1.84,3.466,3.16,0,78
56534,-0.023,-0.982,0.215,0.466,4.687,-1.389,0,66
56579,-0.026,-0.973,0.21,-5.092,13.252,-2.107,16,64
56637,-0.044,-0.962,0.244,-9.26,14.832,1.618,0,109
56696,-0.078,-0.985,0.279,-8.16,2.046,4.74,0,109
56750,-0.019,-0.974,0.232,-3.527,-5.305,6,0,25
56803,0,-0.954,0.211,-1.84,11.061,6.527,0,26
56857,-0.028,-0.969,0.233,-1.725,20.137,4.817,0,24
56910,-0.03,-0.969,0.238,-0.481,18.252,3.679,0,23
56967,-0.009,-0.985,0.227,1.847,22.656,2.42,0,26
57021,0.008,-0.992,0.215,3.771,32.595,-0.206,0,24
57074,-0.005,-0.985,0.234,4.809,43.763,-4.969,0,23
57127,-0.036,-0.981,0.26,7.443,52.038,-9.153,0,24
57182,-0.065,-1.012,0.283,8.908,54.061,-15.008,0,25
57245,-0.046,-0.989,0.27,7.916,56.573,-18.237,0,0
57303,-0.074,-0.975,0.293,5.679,57.069,-18.443,85,0
57360,-0.071,-0.958,0.315,6.176,53.061,-14.076,81,0
57416,-0.058,-0.895,0.364,7.099,46.405,-10.069,80,0
57475,-0.028,-0.946,0.409,12.718,24.16,-16.008,78,167
57526,0.033,-0.933,0.361,18.756,26.389,-8.84,16,168
57581,0.02,-0.922,0.337,21.435,42.832,3.412,76,169
57679,0.038,-0.889,0.349,27.664,36.405,10.061,73,172
57731,0.072,-0.907,0.382,22.237,30.107,0.496,72,120
57783,0.13,-0.918,0.355,14.153,32.076,-9.13,71,121
57834,0.128,-0.894,0.381,5.863,37.275,-14.008,70,121
57886,0.119,-0.943,0.405,0.26,31.084,-15.611,70,122
57943,0.121,-0.931,0.424,-3.313,21.115,-14.832,72,0
58002,0.164,-0.874,0.401,-7.649,25.847,-16.847,71,0
58062,0.108,-0.843,0.449,-8.031,36.45,-20.687,135,0
58123,0.067,-0.83,0.452,-11.13,32.878,-23.061,137,0
58186,0.072,-0.853,0.417,-15.954,30.84,-20.802,0,0
58250,0.101,-0.839,0.381,-16.466,39.282,-16.198,185,0
58313,0.078,-0.792,0.377,-17.13,51.198,-7.496,183,0
58376,0.027,-0.845,0.371,-21.786,51.405,-2.038,184,0
58439,0.021,-0.969,0.37,-27.992,38.863,-4.954,185,0
58502,0.034,-0.91,0.306,-26.328,35.42,0.328,185,0
58568,0.004,-0.941,0.293,-21.84,40.725,13.656,186,0
58632,-0.021,-1.059,0.302,-14.282,30.565,15.565,188,0
58695,0.043,-1.006,0.206,-1.893,33.435,18.947,189,0
58758,-0.029,-1.013,0.244,3.084,40.046,19.511,189,0
58821,-0.034,-1.051,0.224,5.092,20.359,2.412,188,0
58885,0.031,-0.99,0.143,9.832,31.931,-4.573,188,0
58948,-0.007,-0.933,0.134,11.061,65.137,-1.336,189,0
59012,-0.07,-0.925,0.143,9.878,76.031,-4.733,190,0
59072,-0.12,-0.926,0.143,-1.992,78.756,-11.611,144,0
59127,-0.133,-0.963,0.141,-10.824,77.626,-12.58,109,92
59179,-0.149,-1.048,0.18,-11.87,70.603,-12.519,84,90
59230,-0.125,-1.054,0.17,-4.649,72.115,-9.267,84,89
59281,-0.142,-1.069,0.201,-2.382,78.847,-8.573,84,84
59336,-0.166,-1.068,0.231,3.87,78.321,-15.351,85,75
59385,-0.143,-0.967,0.216,11.802,84.183,-13.473,85,69
59435,-0.183,-0.932,0.218,22.26,95.603,-9.443,84,66
59483,-0.215,-0.921,0.215,32.153,96.115,-12.916,85,65
59535,-0.224,-0.964,0.185,35.992,92.641,-20.244,84,65
59584,-0.218,-0.997,0.162,35.901,89.076,-27.977,107,65
59634,-0.196,-1.094,0.156,34.145,85.969,-29.634,106,67
59685,-0.229,-1.152,0.194,20.435,73.763,-31.489,107,69
59735,-0.176,-1.047,0.322,-2.153,53.656,-34.702,101,59
59784,-0.198,-0.961,0.606,-21.16,26.115,-26.939,90,63
59833,-0.125,-0.747,0.813,-15.74,-39.756,-13.901,88,66
59882,0.034,-0.616,0.762,3.786,-103.397,14.802,92,68
59931,0.232,-0.636,0.479,28.954,-108.771,32.74,89,73
59981,0.221,-0.635,0.298,24.916,-62.122,51.786,43,75
60030,0.153,-0.734,0.265,14.786,-40.137,61.252,84,78
60078,0.099,-0.824,0.29,10.534,-49.359,64.527,42,80
60128,0.201,-0.911,0.204,7.115,-63.389,51.878,81,93
60178,0.381,-0.771,0.078,-3.847,-42.908,36.206,44,123
60230,0.33,-0.807,0.106,-17.534,-14.504,26.145,82,121
60281,0.324,-0.77,0.02,-39.863,5.168,17.313,81,119
60332,0.198,-0.833,-0.007,-66.504,31.756,9.206,82,73
60379,-0.015,-1.008,0.097,-80.748,29.351,-17.191,58,69
60471,-0.218,-1.163,0.06,-65.137,45.214,-29.313,44,61
60518,-0.245,-1.176,-0.046,-47.962,58.71,-22.977,47,58
60563,-0.308,-1.268,0.028,-29.679,57.252,-5.382,39,55
60609,-0.235,-1.17,-0.026,-12.336,56.252,11.779,42,54
60655,-0.127,-1.229,-0.054,1.534,63.374,31.29,44,53
60701,-0.21,-1.602,0.533,79.802,131.855,59.954,44,52
60746,-0.28,-0.928,0.048,77.878,81.756,30.023,45,51
60795,-0.287,-0.96,0.233,62.023,31.695,24.626,93,52
60847,-0.094,-0.912,0.253,69.076,18.786,8.313,90,51
60895,-0.16,-0.851,0.224,58.809,37.053,12.733,91,51
60944,-0.13,-0.938,0.219,56.183,24.962,7.405,90,52
60993,-0.173,-0.99,0.231,46.504,41.427,7.992,91,69
61050,-0.257,-0.947,0.406,46.084,26.84,21.45,96,0
61096,-0.181,-0.886,0.423,55.336,-2.137,27.069,32,71
61143,-0.107,-0.806,0.38,56.015,11.573,23.969,31,70
61193,-0.246,-0.786,0.469,53.542,24.237,27.817,97,69
61239,-0.331,-0.843,0.529,51.542,5.099,29.45,30,70
61288,-0.246,-0.828,0.522,53.115,-11.137,30.466,29,69
61335,-0.207,-0.815,0.526,58.252,-0.412,27.908,58,70
61382,-0.284,-0.825,0.606,64.176,3.87,21.45,51,69
61430,-0.276,-0.879,0.598,65.763,1.519,8.618,51,70
61475,-0.359,-0.798,0.709,60.542,-7.366,4.191,30,69
61523,-0.245,-0.594,0.712,52.321,-14.817,5.901,51,69
61571,-0.315,-0.5,0.8,42.748,-3.939,12,57,71
61618,-0.34,-0.454,0.785,42.519,1.16,9.55,50,69
61667,-0.431,-0.436,0.842,41.969,-4.573,12.756,67,70
61717,-0.447,-0.451,0.868,32.573,-4.687,11.008,51,71
61763,-0.497,-0.46,0.969,12.321,-12.382,3.229,49,58
61811,-0.384,-0.436,0.976,-16.038,-30.534,-13.618,50,72
61857,-0.284,-0.475,0.879,-37.565,-25.076,-10.359,50,57
61904,-0.292,-0.564,0.856,-49.42,-31.206,3.763,51,57
61950,-0.38,-0.748,0.996,-51.26,-46.603,32.099,50,57
61999,-0.382,-0.893,0.881,-12.427,-75.443,53.107,59,60
62047,-0.344,-0.715,0.835,34.542,-82.382,66.29,58,80
62094,-0.275,-0.536,0.835,45.901,-54.977,76.527,55,63
62144,-0.254,-0.445,0.822,42.481,-54.198,81.603,53,65
62192,-0.296,-0.511,0.772,43.038,-69.489,101.031,51,69
62243,-0.289,-0.493,0.849,53.427,-76.863,114.511,65,123
62295,-0.216,-0.351,0.875,57.695,-71.74,130.122,46,135
62349,-0.248,-0.357,0.968,54.344,-71.649,139.458,45,0
62404,-0.18,-0.341,1.021,50.198,-80.901,143.466,46,0
62464,-0.029,-0.356,0.966,51.534,-92.344,146.58,136,0
62511,0.128,-0.282,0.837,56.924,-77.817,142.145,45,63
62561,0.188,-0.212,0.793,56.427,-50.107,131.29,39,65
62610,0.158,-0.159,0.829,54.229,-19.023,127.145,91,68
62657,0.106,-0.144,0.891,52.626,6.229,122.038,37,69
62708,0.08,-0.077,0.923,50.931,15.092,114.565,43,144
62761,0.064,-0.026,0.965,46.611,16.771,99.588,87,130
62809,0.124,0.018,0.976,40.061,25.183,86.954,36,79
62859,0.133,0.037,1.02,33.977,45.489,76.542,85,77
62948,0.086,0.04,1.057,24.771,43.145,50.725,18,77
62997,0.035,0.095,1.082,16.405,51.779,47.634,85,76
63051,-0.041,0.162,1.072,5.74,47.107,50.328,85,92
63097,-0.139,0.102,1.119,-9.466,25.885,44.046,19,89
63142,-0.205,0.035,1.1,-14.863,9.656,37.809,19,48
63186,-0.159,0.016,1.054,-12.214,17.336,30.191,17,47
63230,-0.146,0.094,1.032,-15.695,42.588,19.092,16,45
63277,-0.23,0.01,1.055,-12.763,57.832,8.405,17,72
63321,-0.28,0.107,1.012,-10.336,60.809,-0.26,17,44
63365,-0.372,0.085,1,-15.084,56.809,-8.412,17,43
63419,-0.523,0.064,1.225,-10,45.313,-0.664,0,43
63470,-0.302,0.149,1,-16.038,7.328,-3.771,86,44
63525,-0.303,0.126,1.047,-26.947,2.557,1.29,0,42
63580,-0.29,0.075,1.007,-35.748,14.695,4.237,0,44
63635,-0.375,-0.002,1.007,-38.687,12.771,2.687,0,42
63689,-0.315,-0.013,1.046,-34.496,-1.794,4.519,0,42
63745,-0.227,-0.018,1.104,-33.008,-8.595,8.611,0,43
63799,-0.364,-0.065,1.006,-25.817,9.282,3.336,0,40
63853,-0.495,-0.198,0.845,-17.382,1.229,-10.145,0,40
63902,-0.414,-0.218,0.794,-2.305,-38.511,-19.725,89,43
63954,-0.293,-0.134,0.775,-0.473,-14.916,-12.771,89,57
64003,-0.355,-0.144,0.905,-1.076,-2.359,-9.893,89,41
64047,-0.264,-0.114,0.975,7.527,-5.046,-13.695,16,42
64095,-0.259,-0.104,1.108,17.565,-2.443,-15.924,88,41
64145,-0.22,-0.038,0.979,19.504,-3.206,-21.122,87,73
64194,-0.425,-0.075,1.208,16.527,-26.527,-20.237,87,70
64244,-0.261,-0.084,1.065,20.809,-77.832,-23.145,87,72
64289,-0.009,-0.098,0.97,17,-60.718,-16.733,16,44
64333,0.092,-0.021,0.978,17.664,-31.557,-18.496,16,47
64382,-0.017,-0.031,1.039,14.115,-1.198,-12.038,16,73
64429,-0.036,-0.03,1.053,15.031,-4.473,-7.779,17,74
64479,-0.031,-0.008,1.071,11.55,-0.084,-1.832,85,73
64528,-0.028,-0.008,1.083,3.511,0.901,3.412,84,72
64578,-0.045,-0.011,1.065,-4.206,3.718,5.405,84,73
64627,-0.046,-0.012,1.055,-8.099,13.687,6.069,84,73
64677,-0.072,-0.07,1.026,-3.122,12.405,6.198,85,72
64728,-0.081,-0.09,1.002,5.412,14.42,4.573,85,72
64777,-0.15,-0.051,1.08,10.809,5.214,1.969,85,72
64830,-0.06,0.004,1.064,8.817,1.389,-0.305,85,72
64879,-0.055,0.001,1.073,3.366,4.626,2.115,85,72
64929,-0.084,-0.013,1.059,0.786,8.504,3.397,85,72
64979,-0.104,-0.028,1.064,0.504,-1.328,4.504,85,72
65029,-0.054,-0.021,1.031,0.206,5.321,4.046,85,72
65079,-0.103,-0.034,1.054,-0.023,8.412,2.084,85,72
65128,-0.114,-0.017,1.063,1.198,3.794,-0.618,85,72
65178,-0.087,-0.001,1.061,0.58,2.069,0.237,85,72
65228,-0.083,-0.003,1.055,-0.832,5.053,2.168,85,72
65281,-0.09,-0.021,1.046,-1.412,2.031,3.321,85,72
65331,-0.089,-0.029,1.043,-1.099,6.992,2.702,85,72
65381,-0.119,-0.036,1.055,1.481,3.763,1.137,85,72
65473,-0.101,-0.015,1.059,0.74,3.282,0.107,85,72
65523,-0.087,-0.014,1.065,-1.031,2.809,0.771,85,72
65573,-0.087,-0.022,1.046,-2.695,3.908,1.115,85,72
65624,-0.099,-0.035,1.036,-1.626,2.939,1.969,84,72
65673,-0.096,-0.039,1.034,0.282,2.649,2.58,85,72
65729,-0.094,-0.027,1.046,1.16,3.405,2.786,84,72
65781,-0.1,-0.031,1.053,1.26,2.626,3.168,85,72
65829,-0.088,-0.02,1.035,1.473,4.389,3.695,85,72
65879,-0.102,-0.024,1.05,1.947,3.527,4.771,85,72
65928,-0.088,-0.018,1.038,2.244,4.489,4.786,84,72
65977,-0.103,-0.022,1.06,2.061,5.115,4.374,85,72
66026,-0.111,-0.018,1.05,1.405,3.389,4.267,85,72
66075,-0.098,-0.022,1.051,1.382,2.992,3.977,85,72
66124,-0.107,-0.015,1.051,1.29,3.45,3.649,85,72
66173,-0.103,-0.013,1.053,1.221,2.878,3.198,85,72
66222,-0.104,-0.018,1.049,0.924,2.137,2.725,85,72
66274,-0.091,-0.01,1.056,0.992,3.16,3.076,85,72
66323,-0.104,-0.014,1.059,0.29,2.962,3.435,85,72
66372,-0.099,-0.017,1.05,0.382,2.427,3.435,85,72
66421,-0.096,-0.02,1.051,1.13,4.435,3.229,85,72
66470,-0.109,-0.009,1.048,1.382,2.45,3.099,85,72
66520,-0.101,-0.015,1.042,0.718,3.389,3.397,85,72
66569,-0.107,-0.013,1.05,0.672,3.58,3.374,85,72
66617,-0.109,-0.004,1.046,0.954,2.115,2.885,85,72
66666,-0.099,-0.017,1.048,0.878,3.053,3.382,85,72
66718,-0.106,-0.016,1.049,0.901,3.748,3.168,85,72
66767,-0.111,-0.011,1.04,0.863,2.397,3.527,85,72
66817,-0.102,-0.013,1.058,0.458,3.115,3.29,84,72
66866,-0.1,-0.012,1.056,0.557,3.527,3.473,85,72
66915,-0.111,-0.009,1.057,0.588,2.397,3.412,85,72
66964,-0.101,-0.007,1.043,0.183,2.42,3.496,85,72
67013,-0.096,-0.005,1.045,0.198,3.153,3.397,85,72
67062,-0.114,-0.011,1.048,0.282,2.924,2.969,85,72
67111,-0.101,-0.013,1.044,0.351,2.687,3.405,85,72
67164,-0.114,-0.011,1.05,0.267,3.863,3.527,85,72
67213,-0.106,-0.011,1.045,0.321,2.427,3.542,85,72
67262,-0.102,-0.013,1.053,0.542,3.779,3.595,85,72
67311,-0.112,-0.018,1.047,0.565,3.053,3.366,85,72
67360,-0.101,-0.014,1.057,0.214,2.786,3.664,84,72
67409,-0.101,-0.017,1.052,-0.038,3.511,3.74,85,72
67459,-0.108,-0.01,1.039,0.237,2.824,3.725,85,72
67508,-0.114,-0.018,1.052,0.42,3.046,3.344,85,72
67557,-0.115,-0.012,1.057,0.183,2.458,3.237,85,72
67606,-0.1,-0.012,1.043,-0.046,3.214,3.595,85,72
67658,-0.116,-0.019,1.048,0.115,3.466,3.588,85,72
67707,-0.104,-0.01,1.047,0.641,3,3.046,85,72
67757,-0.105,-0.006,1.041,0.626,3.107,3.45,85,72
67806,-0.109,-0.013,1.043,0.328,3.305,3.573,85,72
67855,-0.106,-0.016,1.051,0.45,3.504,3.481,85,72
67904,-0.115,-0.01,1.056,0.618,3.099,3.557,85,72
67997,-0.109,-0.011,1.054,0.702,2.221,3.206,85,72
68046,-0.109,-0.009,1.045,0.74,2.733,3.092,85,72
68096,-0.107,-0.01,1.055,1.076,3.397,2.832,85,72
68148,-0.11,-0.011,1.051,0.695,2.16,3.221,85,72
68197,-0.104,-0.008,1.046,0.244,3.13,3.42,85,72
68246,-0.115,-0.013,1.049,0.527,3.282,3.336,85,72
68295,-0.106,-0.008,1.047,0.634,2.336,2.924,85,72
68344,-0.099,-0.009,1.043,0.634,3.076,3.443,85,72
68395,-0.109,-0.004,1.042,0.489,3.344,3.313,85,72
68444,-0.112,-0.016,1.047,0.733,2.756,3.214,85,72
68493,-0.103,-0.006,1.045,0.992,3.504,3.092,85,72
68542,-0.114,-0.01,1.051,0.344,2.733,3.481,85,72
68594,-0.111,-0.012,1.042,0.122,2.931,3.244,84,71
68643,-0.113,-0.013,1.038,0.29,2.542,3.023,85,72
68694,-0.108,-0.007,1.051,0.748,2.992,3.084,85,72
68743,-0.115,-0.008,1.063,0.718,3.16,3.145,85,72
68792,-0.101,-0.01,1.057,-0.107,2.038,3.412,85,72
68841,-0.116,-0.006,1.043,0.221,3.458,3.412,85,72
68891,-0.104,-0.01,1.045,0.84,2.489,3.076,85,72
68940,-0.113,-0.01,1.049,0.992,2.962,3.115,85,73
68989,-0.113,-0.005,1.06,0.374,3.16,3.458,85,73
69042,-0.118,-0.007,1.054,0.359,2.847,3.55,85,73
69092,-0.109,-0.003,1.05,0.473,3.16,3.573,85,73
69141,-0.118,-0.009,1.054,0.481,3.145,3.588,85,72
69190,-0.109,-0.006,1.051,0.321,2.519,3.45,85,72
69240,-0.112,-0.009,1.036,0.802,3.015,2.947,85,72
69289,-0.099,-0.006,1.048,0.985,2.321,3.16,85,72
69339,-0.112,-0.008,1.049,0.603,3.794,3.214,85,72
69389,-0.11,-0.013,1.051,-0.092,1.947,3.351,85,72
69438,-0.106,-0.013,1.04,0.038,3.168,3.511,85,72
69487,-0.117,-0.008,1.052,0.786,2.802,2.893,85,72
69539,-0.1,-0.009,1.048,0.939,2.374,3.244,85,72
69590,-0.111,-0.006,1.052,0.183,3.748,3.565,85,72
69639,-0.117,-0.008,1.056,0.344,2.412,3.687,85,72
69688,-0.103,-0.007,1.042,0.298,3.382,3.45,85,72
69738,-0.119,-0.009,1.045,0.595,3.031,3.542,85,72
69787,-0.106,-0.01,1.051,0.359,3.214,3.359,85,72
69836,-0.116,-0.016,1.052,0.26,2.298,3.519,85,72
69886,-0.104,-0.001,1.051,0.374,2.771,3.244,85,72
69936,-0.113,-0.007,1.058,0.87,2.916,3.229,85,72
69989,-0.112,-0.011,1.052,0.374,2.366,3.313,85,72
70038,-0.106,-0.005,1.044,0.107,2.779,3.496,85,72
70087,-0.117,-0.013,1.044,0.359,3.282,3.053,85,72
70137,-0.107,-0.001,1.051,0.664,2.405,3.183,85,72
70187,-0.109,-0.003,1.058,0.458,3.244,3.565,85,72
70237,-0.112,-0.013,1.05,0.557,3.405,3.168,85,72
70286,-0.12,-0.008,1.05,0.664,2.656,3.206,85,72
70335,-0.107,-0.004,1.045,0.55,3.389,3.412,85,72
70385,-0.115,-0.002,1.063,0.344,2.924,3.489,85,72
70437,-0.105,-0.005,1.045,0.267,2.664,3.641,85,73
70531,-0.102,0,1.045,0.771,1.992,3.191,85,72
70581,-0.119,-0.006,1.052,0.466,3.702,3.397,85,72
70630,-0.119,-0.004,1.056,0.122,2.008,3.405,85,72
70680,-0.105,-0.011,1.046,0.313,2.725,3.29,85,72
70729,-0.119,-0.009,1.048,0.649,3.16,2.924,85,72
70778,-0.111,-0.009,1.045,0.87,2.496,3.237,85,72
70829,-0.117,-0.005,1.046,0.55,3.328,3.573,85,72
70879,-0.109,-0.004,1.052,0.435,2.885,3.641,85,72
70928,-0.108,-0.008,1.044,0.267,2.947,3.473,85,72
70981,-0.112,-0.008,1.061,0.817,3.374,3.527,85,72
71030,-0.114,-0.006,1.058,0.427,2.779,3.496,85,72
71080,-0.106,-0.001,1.046,0.389,2.588,3.336,85,72
71130,-0.122,-0.003,1.053,0.565,2.87,3.122,85,72
71180,-0.106,-0.007,1.041,0.763,2.412,3.481,85,72
71229,-0.114,-0.008,1.058,0.313,3.504,3.359,85,72
71279,-0.105,-0.004,1.048,0.107,2,3.481,85,72
71328,-0.106,-0.008,1.038,0.336,3.275,3.55,85,72
71378,-0.118,-0.005,1.055,0.779,2.74,3.168,85,72
71432,-0.096,-0.007,1.052,0.511,3.015,3.58,85,72
71481,-0.116,-0.004,1.049,0.344,3.183,3.473,85,72
71531,-0.109,-0.003,1.049,0.466,2.542,3.366,85,72
71580,-0.113,-0.005,1.045,0.565,3.45,3.382,85,72
71630,-0.113,-0.007,1.051,0.534,3,3.458,85,72
71681,-0.117,-0.006,1.049,0.29,2.863,3.344,85,72
71730,-0.114,-0.004,1.052,0.389,2.718,3.26,85,72
71780,-0.109,-0.004,1.044,0.504,2.534,3.099,85,72
71829,-0.105,-0.008,1.043,0.427,3.168,3.527,85,72
71882,-0.118,-0.014,1.052,0.137,2.786,3.588,85,72
71932,-0.101,-0.012,1.045,0.015,2.153,3.473,85,72
71982,-0.115,-0.012,1.041,0.351,3.16,3.458,85,72
72032,-0.111,-0.001,1.042,0.656,2.656,3.458,85,72
72082,-0.113,-0.008,1.049,0.305,3.641,3.756,85,72
72137,-0.111,-0.005,1.049,0.267,2.725,3.481,85,72
72186,-0.106,-0.01,1.053,0.45,3.496,3.435,85,72
72236,-0.112,-0.013,1.053,0.298,2.962,3.595,85,72
72285,-0.109,-0.003,1.045,0.191,3.389,3.573,85,72
72334,-0.112,-0.006,1.056,-0.015,2.542,3.382,85,72
72385,-0.109,-0.01,1.049,0.099,2.878,3.321,85,72
72434,-0.104,-0.011,1.048,0.443,2.832,3.328,85,72
72483,-0.104,-0.01,1.056,0.473,3.244,3.55,85,72
72532,-0.125,-0.004,1.053,-0.076,2.786,3.298,85,72
72582,-0.105,-0.009,1.044,0.053,2.71,3.542,85,72
72631,-0.122,-0.01,1.042,0.328,3.412,3.298,85,72
72679,-0.116,-0.004,1.047,0.733,2.45,3.366,85,72
72728,-0.106,-0.007,1.044,0.527,3.771,3.405,85,72
72777,-0.113,-0.011,1.045,0.252,2.756,3.473,85,72
72829,-0.107,-0.013,1.044,0.305,3.244,3.679,85,72
72879,-0.117,-0.015,1.049,0.679,3.176,3.382,85,72
72928,-0.105,-0.004,1.048,0.504,2.374,3.198,85,72
72977,-0.116,-0.012,1.054,0.298,2.969,3.458,85,72
73069,-0.112,-0.003,1.035,0.779,2.679,3.229,85,72
73118,-0.123,-0.01,1.05,0.702,3.038,3.244,85,72
73167,-0.116,-0.009,1.047,0.244,2.038,3.275,85,72
73217,-0.113,-0.009,1.038,0.298,2.931,3.389,85,72
73266,-0.118,-0.01,1.042,0.939,2.931,2.924,85,72
73317,-0.104,-0.009,1.043,0.756,2.435,3.183,85,72
73366,-0.114,-0.013,1.059,0.229,3.229,3.504,85,72
73415,-0.113,-0.009,1.052,0.168,2.542,3.458,85,72
73464,-0.106,-0.016,1.043,0.634,3.298,3.298,85,72
73513,-0.116,-0.005,1.055,0.656,2.878,3.382,85,72
73563,-0.109,-0.007,1.047,0.427,2.969,3.298,85,72
73612,-0.121,-0.003,1.045,0.244,2.855,3.382,85,72
73661,-0.106,-0.009,1.052,0.565,2.603,3.115,85,72
73710,-0.107,-0.005,1.048,0.832,2.664,3.382,85,71
73759,-0.114,-0.004,1.047,0.321,3.061,3.191,85,72
73806,-0.114,-0.009,1.054,0.176,2.511,3.298,85,71
73856,-0.103,-0.011,1.037,0.244,2.496,3.58,85,71
73905,-0.121,-0.009,1.045,0.504,2.985,3.206,85,71
73954,-0.11,-0.009,1.051,0.634,2.481,3.466,85,72
74003,-0.105,-0.003,1.061,0.26,3.42,3.687,85,71
74052,-0.119,-0.006,1.049,0.527,2.58,3.313,85,72
74101,-0.113,-0.008,1.043,0.588,3.229,3.328,85,72
74150,-0.113,-0.01,1.053,0.45,2.985,3.496,85,72
74201,-0.114,-0.006,1.047,0.252,3.229,3.504,85,72
74261,-0.104,-0.003,1.042,0.198,1.885,3.313,85,72
74312,-0.111,-0.011,1.044,0.557,3.328,3.176,85,72
74364,-0.106,-0.004,1.047,0.901,2.45,3.214,85,72
74416,-0.111,-0.005,1.051,0.214,3.55,3.229,85,72
74468,-0.112,-0.009,1.045,0.053,2.031,3.389,85,72
74519,-0.109,-0.007,1.048,0.573,3.42,3.221,85,72
74571,-0.118,0.005,1.045,0.702,2.183,3.244,85,72
74622,-0.099,-0.003,1.05,0.412,3.305,3.489,85,72
74675,-0.117,-0.007,1.061,0.496,2.969,3.45,85,72
74729,-0.105,-0.007,1.036,0.443,3.16,3.45,85,71
74780,-0.116,-0.008,1.042,0.534,3.214,3.656,85,72
74832,-0.109,-0.002,1.047,0.58,2.321,3.305,85,72
74884,-0.113,-0.005,1.049,0.618,2.832,3.145,85,72
74936,-0.104,-0.005,1.044,0.565,2.588,3.13,85,72
74987,-0.109,-0.003,1.05,0.519,2.664,3.382,85,72
75039,-0.115,-0.002,1.056,0.359,3.618,3.489,85,72
75091,-0.11,-0.002,1.045,0.244,2.282,3.321,85,72
75143,-0.109,-0.009,1.043,0.053,2.985,3.252,85,72
75198,-0.119,-0.013,1.055,0.534,2.687,3.053,85,72
75249,-0.101,-0.004,1.043,0.603,3.031,3.58,85,72
75301,-0.116,-0.003,1.048,0.328,3.634,3.45,85,72
75353,-0.112,-0.002,1.057,0.191,2.366,3.534,85,72
75405,-0.112,-0.009,1.056,0.366,3.649,3.481,85,72
75456,-0.112,-0.006,1.054,0.534,3.031,3.58,85,72
75508,-0.111,-0.006,1.052,0.244,2.748,3.389,85,72
75560,-0.116,-0.005,1.045,0.084,2.855,3.466,85,72