Timestamp(ms),AccelX(g),AccelY(g),AccelZ(g),GyroX(deg/s),GyroY(deg/s),GyroZ(deg/s),DistanceLeft(cm),DistanceRight(cm)
525015,-2.000,1.188,-0.809,-250.137,181.267,250.130,30.0,0.0
525070,-2.000,-2.000,-1.634,-250.137,120.573,9.824,25.0,0.0
525125,-2.000,-0.843,-1.801,250.130,244.969,-250.137,30.0,0.0
525176,-2.000,2.000,-1.445,224.710,167.527,-250.137,43.0,107.0
525236,-2.000,2.000,-0.147,250.130,92.748,-250.137,0.0,100.0
525301,-2.000,2.000,-1.489,250.130,-34.870,-250.137,0.0,0.0
525367,-1.353,1.254,-0.043,140.733,3.618,-192.145,0.0,0.0
525434,1.445,2.000,-0.076,159.382,-163.313,69.893,0.0,0.0
525500,2.000,2.000,-0.563,110.198,5.954,234.985,0.0,0.0
525557,0.837,2.000,-1.045,-88.122,250.130,250.130,0.0,61.0
525616,-2.000,2.000,-2.000,28.084,220.832,250.130,0.0,86.0
525676,-2.000,2.000,-0.661,-49.069,127.756,250.130,0.0,109.0
525742,-2.000,2.000,-1.376,-250.137,250.130,250.130,0.0,0.0
525807,-2.000,-2.000,-1.640,-145.817,225.046,57.603,0.0,0.0
525862,-2.000,0.351,-1.402,228.924,178.466,-250.137,35.0,0.0
525914,-2.000,0.616,-0.510,229.130,170.695,-250.137,38.0,119.0
525977,-2.000,2.000,-0.440,250.130,123.244,-250.137,0.0,108.0
526043,-2.000,2.000,-0.100,250.130,60.076,-250.137,0.0,0.0
526108,-1.812,2.000,-0.373,236.061,69.374,-158.740,0.0,0.0
526174,1.110,2.000,0.499,110.511,-100.672,58.092,0.0,0.0
526239,2.000,2.000,-0.333,129.481,-52.679,192.183,0.0,0.0
526297,1.153,2.000,-0.899,-59.107,178.053,250.130,0.0,60.0
526355,-1.342,2.000,-1.909,65.076,210.359,250.130,0.0,84.0
526414,-2.000,2.000,-2.000,-182.702,250.130,250.130,0.0,97.0
526483,-2.000,2.000,-1.187,-237.076,190.450,250.130,0.0,0.0
526538,-2.000,-2.000,-1.765,-250.137,126.061,98.366,28.0,0.0
526595,-2.000,-0.908,-1.634,231.817,246.702,-250.137,30.0,0.0
526646,-2.000,0.440,-1.122,250.130,247.466,-250.137,39.0,117.0
526705,-2.000,2.000,-0.573,250.130,159.466,-250.137,0.0,102.0
526771,-2.000,2.000,-0.586,250.130,-20.229,-250.137,0.0,0.0
526836,-1.546,2.000,-0.771,250.130,-15.847,-153.298,0.0,0.0
526902,0.183,1.768,-0.028,132.290,-45.718,25.427,0.0,0.0
526967,1.781,1.248,0.421,68.886,-94.939,133.786,0.0,0.0
527036,2.000,1.960,-0.516,-32.870,75.611,250.130,0.0,0.0
527095,0.420,2.000,-1.711,152.573,241.802,250.130,0.0,88.0
527155,-2.000,2.000,-2.000,-204.069,250.130,250.130,0.0,95.0
527220,-2.000,2.000,-1.032,-195.130,197.023,250.130,0.0,0.0
527286,-2.000,-2.000,-2.000,-250.137,168.344,68.687,0.0,0.0
527338,-2.000,-1.010,-1.956,210.313,250.130,-250.137,32.0,136.0
527390,-2.000,0.280,-1.383,250.130,168.031,-250.137,53.0,105.0
527456,-2.000,2.000,-0.972,250.130,-13.053,-250.137,0.0,0.0
527517,-2.000,2.000,-0.719,-18.000,36.725,-250.137,67.0,0.0
527583,-0.630,1.444,-0.046,250.130,-20.733,-27.191,0.0,0.0
527648,1.949,1.857,0.405,94.878,-98.710,70.511,0.0,0.0
527714,2.000,2.000,-0.170,98.450,44.237,135.504,0.0,0.0
527779,0.223,2.000,-0.683,-85.870,136.069,250.130,0.0,0.0
527838,-2.000,2.000,-1.983,-81.870,242.321,250.130,0.0,87.0
527898,-2.000,2.000,-1.892,-250.137,216.573,250.130,0.0,106.0
527965,-2.000,0.131,-1.020,-250.137,247.695,250.130,0.0,0.0
528021,-2.000,-2.000,-1.448,-84.939,180.412,-147.870,42.0,0.0
528119,-2.000,0.537,-0.918,250.130,46.061,-250.137,59.0,105.0
528186,-2.000,1.810,-1.000,250.130,31.740,-250.137,0.0,0.0
528251,-2.000,1.649,-0.080,250.130,-54.237,-250.137,0.0,0.0
528317,-0.126,2.000,-0.733,131.901,-62.290,21.779,0.0,0.0
528382,1.753,1.362,-0.156,18.466,-5.542,146.924,0.0,0.0
528448,1.603,2.000,-0.324,40.305,73.725,188.649,0.0,0.0
528509,0.331,2.000,-0.600,-66.817,173.160,250.130,0.0,120.0
528569,-2.000,2.000,-1.954,-98.679,250.130,250.130,0.0,89.0
528624,-2.000,2.000,-1.356,-131.908,248.511,250.130,56.0,107.0
528679,-2.000,0.421,-1.096,-250.137,250.130,250.130,39.0,166.0
528735,-1.809,-2.000,-1.165,-248.229,189.817,-48.252,28.0,0.0
528796,-2.000,-1.015,-1.768,250.130,154.588,-250.137,0.0,123.0
528857,-2.000,0.231,-1.117,250.130,48.771,-250.137,0.0,104.0
528923,-2.000,1.975,-1.395,250.130,-11.519,-250.137,0.0,0.0
528989,-2.000,2.000,-0.445,134.748,50.733,-207.496,0.0,0.0
529054,-0.359,1.776,-0.225,250.130,-4.260,-2.550,0.0,0.0
529124,2.000,1.466,0.421,42.626,-108.878,115.260,0.0,0.0
529189,2.000,2.000,-0.873,101.725,38.420,250.130,0.0,0.0
529249,0.158,2.000,-1.370,74.847,250.130,250.130,0.0,91.0
529308,-2.000,2.000,-2.000,-1.260,250.130,250.130,0.0,93.0
529371,-2.000,2.000,-1.451,-205.656,250.130,250.130,0.0,143.0
529428,-2.000,-0.760,-1.687,-250.137,250.130,229.282,37.0,0.0
529484,-2.000,-2.000,-1.762,89.206,238.886,-203.847,30.0,0.0
529538,-2.000,0.306,-1.483,219.168,177.786,-250.137,38.0,147.0
529598,-2.000,0.073,-0.293,250.130,149.198,-250.137,0.0,106.0
529668,-2.000,2.000,-2.000,250.130,-105.145,-250.137,0.0,0.0
529725,-2.000,1.198,0.069,170.244,38.511,-228.183,52.0,0.0
529790,-0.573,2.000,-0.538,240.176,-40.473,-53.069,0.0,0.0
529856,1.886,1.054,0.649,109.626,-175.328,62.115,0.0,0.0
529923,1.856,2.000,-0.064,-8.733,-31.046,134.573,0.0,0.0
529988,0.505,1.951,-0.359,-61.656,108.603,250.130,0.0,0.0
530048,-2.000,2.000,-1.823,41.260,198.191,250.130,0.0,87.0
530108,-2.000,2.000,-0.740,-89.603,154.168,250.130,0.0,104.0
530164,-1.416,0.850,-0.626,-232.382,200.664,250.130,39.0,123.0
530222,-1.533,-2.000,-0.960,-250.137,172.481,100.725,42.0,0.0
530274,-1.940,-1.203,-1.475,188.656,146.565,-250.137,43.0,132.0
530326,-1.823,0.035,-0.856,149.519,111.267,-250.137,41.0,115.0
530386,-2.000,1.269,-0.164,212.450,43.084,-250.137,0.0,99.0
530453,-2.000,2.000,-0.274,250.130,-115.511,-250.137,0.0,0.0
530514,-0.446,2.000,-0.119,94.107,-72.924,-14.809,0.0,128.0
530573,0.241,1.076,0.135,46.687,-108.672,-17.244,58.0,0.0
530638,1.210,0.430,0.268,39.931,-69.313,37.176,0.0,0.0
530702,2.000,0.669,0.491,-42.511,-0.412,79.000,0.0,0.0
530762,0.659,0.807,0.410,-72.969,112.328,200.458,0.0,101.0
530823,-1.718,2.000,-0.868,39.328,144.748,244.359,0.0,93.0
530883,-1.857,2.000,-0.742,-113.565,149.267,250.130,0.0,103.0
530945,-0.691,0.655,-0.572,-150.641,177.870,181.122,0.0,116.0
531006,-0.767,-1.243,-0.612,-188.198,161.534,42.763,0.0,125.0
531068,-0.760,-1.239,-0.749,86.588,124.443,-149.000,0.0,120.0
531129,-1.469,-0.102,-0.594,182.321,10.328,-250.137,0.0,108.0
531237,-2.000,2.000,0.188,217.031,-160.748,-205.229,0.0,122.0
531299,-0.538,1.977,-0.204,82.618,-105.702,28.420,0.0,112.0
531365,0.176,0.755,-0.027,-29.863,-124.031,-18.588,0.0,0.0
531419,0.989,0.085,-0.008,33.992,-63.641,64.664,44.0,129.0
531480,1.711,-0.005,0.101,10.122,-15.092,68.939,0.0,114.0
531540,1.099,0.457,0.221,-2.305,34.931,102.206,0.0,102.0
531600,-0.032,2.000,-0.072,211.366,101.107,250.130,0.0,93.0
531661,-1.967,2.000,-0.665,-177.267,250.130,250.130,0.0,100.0
531717,-0.696,0.886,-0.307,-65.870,247.733,128.023,37.0,111.0
531783,-0.558,-0.553,-0.291,-28.992,216.695,3.137,0.0,120.0
531844,-0.884,-0.902,-0.760,-29.084,151.656,-35.000,0.0,111.0
531903,-0.781,-0.498,-0.525,97.092,-31.672,-204.878,0.0,112.0
531963,-1.243,0.406,-0.328,170.542,-117.618,-195.450,0.0,100.0
532022,-2.000,2.000,-0.569,237.351,-223.466,-98.786,0.0,96.0
532082,-0.321,2.000,-0.345,26.053,-95.924,26.740,0.0,102.0
532142,0.354,0.780,0.062,-49.076,-121.420,-24.076,0.0,110.0
532202,0.644,-0.014,0.299,-0.328,-109.634,-9.542,0.0,114.0
532264,1.129,-0.298,0.323,1.267,-23.489,52.450,0.0,112.0
532325,1.292,-0.049,0.430,13.298,46.748,36.176,0.0,105.0
532383,0.562,2.000,0.275,141.702,102.748,112.351,0.0,95.0
532443,-0.956,2.000,-1.393,-115.115,180.809,228.313,0.0,98.0
532503,-0.532,1.649,-0.736,-58.809,192.031,177.344,0.0,108.0
532563,-0.673,0.310,-0.643,-85.634,182.702,35.053,0.0,119.0
532625,-1.199,-0.910,-0.834,-129.817,179.832,-16.489,0.0,124.0
532675,-0.663,-0.832,-0.463,89.595,51.656,-131.740,39.0,112.0
532739,-0.874,-0.252,-0.316,204.145,-38.687,-245.847,0.0,109.0
532798,-2.000,2.000,-1.044,223.443,-149.679,-192.542,0.0,100.0
532857,-0.979,2.000,-0.425,118.099,-175.595,-6.840,0.0,101.0
532918,-0.152,1.375,-0.050,-10.702,-151.382,19.489,0.0,107.0
532978,0.502,0.486,0.210,0.115,-154.382,-19.885,0.0,113.0
533039,0.780,-0.100,0.297,44.809,-81.924,13.305,0.0,115.0
533099,0.973,-0.029,0.333,20.794,4.885,32.504,0.0,111.0
533158,0.832,0.124,0.442,5.443,102.802,19.046,0.0,102.0
533217,-0.383,2.000,-0.490,77.473,179.748,65.366,0.0,95.0
533266,-1.318,2.000,-1.186,-250.137,200.275,250.130,57.0,99.0
533318,-0.573,0.922,-0.466,-98.137,121.153,226.153,49.0,110.0
533369,-0.646,0.134,-0.636,-60.069,117.832,83.435,35.0,119.0
533421,-0.943,-0.774,-0.659,-53.374,140.870,-25.908,33.0,123.0
533480,-0.711,-0.992,-0.601,44.504,105.313,-128.397,0.0,111.0
533540,-1.137,-0.339,-0.458,162.794,2.084,-250.137,0.0,108.0
533600,-2.000,2.000,-0.586,212.893,-111.061,-250.137,0.0,99.0
533660,-1.392,2.000,-0.263,154.282,-135.725,-27.924,0.0,108.0
533724,-0.200,1.249,-0.136,49.679,-143.122,3.802,0.0,109.0
533786,0.532,0.468,0.239,88.893,-155.397,-39.397,0.0,147.0
533847,0.984,0.234,0.354,36.832,-49.931,2.840,0.0,123.0
533907,1.068,-0.031,0.395,-67.924,9.450,40.221,0.0,111.0
533966,0.711,0.652,0.376,-1.046,73.214,77.237,0.0,100.0
534026,-0.646,2.000,-0.276,-36.023,116.397,248.611,0.0,94.0
534086,-1.755,2.000,-0.557,-144.580,80.260,250.130,0.0,102.0
534147,-0.698,0.824,-0.385,42.977,133.985,172.305,0.0,112.0
534244,-0.881,-1.267,-0.479,-111.489,177.672,-68.092,32.0,121.0
534305,-0.605,-0.889,-0.375,126.779,80.962,-193.168,0.0,114.0
534365,-1.150,0.025,-0.326,175.947,-55.855,-250.137,0.0,103.0
534424,-2.000,2.000,-0.858,203.916,-177.718,-211.221,0.0,97.0
534486,-0.958,2.000,-0.431,154.237,-124.634,-12.641,0.0,113.0
534551,-0.039,1.173,-0.041,-27.122,-129.641,-5.000,0.0,0.0
534612,0.470,0.265,0.268,104.282,-146.374,5.076,0.0,128.0
534674,0.896,0.196,0.181,97.267,-55.176,48.672,0.0,133.0
534734,1.012,0.198,0.214,-54.260,48.008,57.038,0.0,110.0
534797,0.475,0.523,0.157,-54.366,121.756,71.260,0.0,100.0
534856,-0.982,2.000,-0.609,55.160,177.740,111.725,0.0,93.0
534916,-1.462,2.000,-0.965,-164.565,201.221,167.122,0.0,97.0
534976,-0.831,0.760,-0.485,-16.084,133.130,72.069,0.0,105.0
535036,-0.726,0.007,-0.549,-104.244,116.977,0.107,0.0,110.0
535097,-0.541,-1.165,-0.382,-153.695,58.252,-66.924,0.0,112.0
535157,-0.633,-0.747,-0.207,167.573,-22.115,-178.763,0.0,104.0
535217,-2.000,1.308,-1.037,250.130,-194.908,-138.802,0.0,96.0
535280,-1.307,2.000,-0.763,81.985,-164.328,7.427,0.0,99.0
535341,-0.111,1.232,-0.000,1.069,-124.084,15.511,0.0,105.0
535401,0.404,0.607,0.041,57.817,-136.038,26.496,0.0,113.0
535461,0.705,0.159,0.136,26.260,-91.710,46.649,0.0,114.0
535522,0.833,-0.030,0.226,-27.443,-14.214,51.443,0.0,111.0
535582,0.647,0.063,0.247,-38.771,66.618,37.954,0.0,103.0
535642,-0.306,2.000,-0.262,141.229,136.588,95.061,0.0,96.0
535702,-1.108,2.000,-1.037,-189.824,220.595,215.389,0.0,100.0
535762,-0.668,0.987,-0.311,-116.366,167.366,138.511,0.0,110.0
535812,-0.551,0.128,-0.377,-40.504,145.702,43.962,38.0,116.0
535863,-0.809,-0.629,-0.605,-44.420,113.473,-6.824,36.0,120.0
535924,-0.573,-0.895,-0.571,12.061,36.847,-78.718,0.0,111.0
535985,-0.897,-0.256,-0.408,108.351,-53.878,-250.137,0.0,108.0
536044,-2.000,1.006,-0.389,170.702,-141.282,-250.137,0.0,97.0
536104,-2.000,2.000,-0.617,183.649,-122.053,-93.397,0.0,110.0
536166,-0.242,1.504,0.004,32.069,-120.542,17.412,0.0,115.0
536227,0.459,0.767,0.178,98.947,-135.420,46.756,0.0,130.0
536293,0.766,0.310,0.234,49.366,-65.450,56.473,0.0,131.0
536353,0.811,-0.102,0.308,-61.420,32.733,88.786,0.0,115.0
536414,0.861,-0.141,0.299,-45.221,106.924,73.290,0.0,107.0
536474,0.702,2.000,0.211,144.977,134.702,74.321,0.0,96.0
536525,-1.810,2.000,-1.700,-147.687,160.336,250.130,51.0,96.0
536574,-0.826,1.305,-0.397,-85.115,128.519,250.130,57.0,60.0
536636,-0.567,0.636,-0.407,-33.351,152.840,161.130,0.0,115.0
536688,-0.857,-0.567,-0.335,-76.565,145.603,-4.359,48.0,120.0
536743,-0.756,-1.288,-0.369,10.534,95.137,-147.641,37.0,118.0
536796,-0.923,-0.523,-0.458,166.260,30.687,-250.137,51.0,109.0
536855,-2.000,0.432,-0.880,147.779,-87.710,-250.137,0.0,98.0
536915,-2.000,2.000,-0.340,110.756,-130.366,-154.084,0.0,109.0
536979,-0.538,1.546,-0.043,96.229,-101.420,8.855,0.0,143.0
537041,0.094,0.818,-0.013,87.985,-148.107,15.939,0.0,137.0
537103,0.828,0.251,0.181,99.435,-118.511,30.107,0.0,130.0
537164,1.060,0.132,0.311,-14.046,-10.221,50.115,0.0,116.0
537268,0.683,1.738,0.439,117.802,87.931,53.252,0.0,97.0
537330,-0.810,2.000,-1.240,-112.092,180.405,250.130,0.0,95.0
537391,-1.204,1.902,-0.521,-109.847,187.756,250.130,0.0,106.0
537443,-0.851,0.429,-0.436,-46.481,184.649,94.107,38.0,115.0
537495,-0.789,-0.394,-0.452,-10.763,156.450,-32.702,36.0,121.0
537546,-0.833,-0.889,-0.416,16.229,91.443,-114.992,34.0,112.0
537607,-0.802,-0.323,-0.401,121.534,-3.000,-250.137,0.0,110.0
537667,-1.530,0.251,-0.510,76.420,-121.534,-250.137,0.0,100.0
537728,-2.000,2.000,-0.663,200.137,-183.985,-149.053,0.0,98.0
537792,-0.330,1.646,-0.152,51.763,-119.786,37.115,0.0,113.0
537853,0.301,0.755,0.101,44.275,-136.809,11.481,0.0,111.0
537914,0.668,0.302,0.240,75.282,-95.985,3.450,0.0,114.0
537975,0.887,0.069,0.242,-11.840,-8.153,37.527,0.0,111.0
538036,0.818,0.050,0.270,-23.748,54.695,31.511,0.0,106.0
538095,0.134,2.000,-0.066,-50.565,108.023,61.534,0.0,95.0
538156,-1.018,2.000,0.022,-181.733,88.924,226.618,0.0,94.0
538216,-1.181,2.000,0.136,-243.786,-0.832,187.527,0.0,102.0
538271,-0.518,0.581,0.260,-108.924,-27.450,134.229,37.0,113.0
538323,-0.751,0.003,-0.429,-89.977,-2.305,137.740,38.0,121.0
538378,-0.640,-0.287,-0.399,-155.771,0.359,122.947,38.0,150.0
538443,-0.674,0.450,0.141,-174.511,21.702,2.695,0.0,0.0
538510,0.234,0.439,1.672,-250.137,36.534,-52.321,0.0,0.0
538575,-0.256,-0.021,2.000,-83.168,45.023,-61.336,0.0,0.0
538632,0.149,0.273,1.345,-37.702,50.710,-35.061,37.0,0.0
538689,0.168,-0.164,0.841,5.244,29.389,-50.687,36.0,0.0
538745,0.437,0.097,0.142,-14.855,0.198,-23.954,36.0,0.0
538805,0.518,-0.083,0.150,-38.794,-3.725,11.656,37.0,0.0
538871,0.342,0.288,0.668,-25.710,-20.679,52.847,0.0,0.0
538928,-0.082,0.689,1.500,3.115,-7.359,77.985,37.0,0.0
538994,-0.171,0.482,1.737,19.908,-3.641,116.511,0.0,0.0
539060,-0.388,-0.078,1.331,53.206,13.802,92.840,0.0,0.0
539126,-0.252,-0.129,0.749,39.137,38.863,58.008,0.0,0.0
539192,-0.186,-0.051,0.381,-17.885,24.206,34.397,0.0,0.0
539258,-0.365,-0.118,0.530,-79.260,5.481,-18.908,0.0,0.0
539324,-0.571,-0.209,1.432,-25.237,8.221,-101.565,0.0,0.0
539394,-0.354,0.040,1.726,-66.374,21.000,-102.718,0.0,0.0
539466,0.119,-0.076,1.261,-18.168,32.099,-67.000,0.0,0.0
539531,0.273,0.125,0.606,1.931,12.244,-60.008,0.0,0.0
539596,0.327,0.151,0.394,4.321,-18.206,-13.679,0.0,0.0
539661,-0.042,0.099,0.599,-20.847,-50.237,20.160,0.0,0.0
539725,0.154,0.035,1.398,-19.649,-41.626,49.458,0.0,0.0
539791,-0.025,-0.027,1.791,19.336,1.969,84.298,0.0,0.0
539855,-0.084,-0.228,1.376,16.305,13.366,82.672,0.0,0.0
539921,-0.160,-0.269,0.768,9.481,14.336,50.573,0.0,0.0
539988,-0.126,-0.101,0.353,-9.458,0.588,28.298,0.0,0.0
540054,-0.101,-0.171,0.475,-33.099,-3.458,5.115,0.0,0.0
540119,-0.697,-0.458,1.213,-68.771,-1.931,-61.679,0.0,0.0
540184,-0.598,-0.418,1.647,-12.031,31.023,-74.962,0.0,0.0
540249,-0.162,-0.484,1.528,-12.176,33.550,-62.038,0.0,0.0
540314,0.042,-0.251,1.113,24.489,36.145,-70.107,0.0,0.0
540423,0.323,0.200,0.295,12.275,-13.122,-16.855,0.0,0.0
540487,0.095,0.171,0.463,3.893,-27.779,11.985,0.0,0.0
540553,0.377,0.188,1.103,-11.000,-71.076,52.542,0.0,0.0
540620,-0.166,-0.204,1.507,96.779,20.611,94.802,0.0,0.0
540686,-0.703,-0.323,1.237,175.084,102.695,111.473,0.0,0.0
540740,-0.691,0.285,0.588,151.351,174.122,27.969,16.0,0.0
540795,-0.720,-0.002,0.328,64.099,213.886,-27.557,17.0,0.0
540860,-0.919,0.407,0.117,56.252,179.504,-26.031,0.0,0.0
540915,-0.946,-0.227,0.532,86.359,100.359,-69.252,17.0,0.0
540971,-1.881,0.295,0.814,250.130,41.649,-111.359,25.0,0.0
541026,-2.000,1.531,0.649,250.130,-66.939,-65.855,33.0,0.0
541091,-0.832,1.675,0.230,250.130,-104.779,-5.656,0.0,0.0
541146,-0.027,0.932,0.162,194.550,-92.344,16.908,51.0,0.0
541202,0.628,0.520,0.199,152.542,-44.740,35.084,51.0,0.0
541256,0.750,0.279,0.286,-16.336,14.534,67.206,58.0,146.0
541307,0.562,-0.069,0.419,-146.725,24.023,96.908,46.0,123.0
541359,0.394,0.109,0.800,-55.191,32.962,128.397,47.0,107.0
541410,-1.149,2.000,0.198,53.046,63.000,183.863,51.0,95.0
541461,-1.627,2.000,0.004,-250.137,49.206,219.656,58.0,98.0
541511,-0.802,0.734,0.499,53.580,39.168,205.160,40.0,104.0
541565,-0.433,0.714,-0.230,216.740,85.168,103.412,38.0,108.0
541616,-0.489,0.125,-0.286,128.260,85.702,-5.870,40.0,112.0
541667,-0.592,-0.591,-0.368,-30.015,74.069,-89.198,41.0,108.0
541718,-0.502,-0.607,-0.161,-63.595,51.031,-203.466,43.0,108.0
541769,-1.289,-0.373,-0.177,22.580,12.214,-250.137,47.0,101.0
541830,-2.000,2.000,-0.219,126.351,-87.015,-230.756,0.0,107.0
541890,-1.032,2.000,-0.171,190.931,-110.328,-20.771,0.0,121.0
541952,-0.129,1.280,-0.226,68.115,-128.389,10.038,0.0,133.0
542016,0.390,0.389,0.156,75.580,-120.015,11.603,0.0,127.0
542077,0.789,0.217,0.279,40.511,-51.962,56.351,0.0,124.0
542139,0.912,0.007,0.410,-65.565,18.405,86.153,0.0,129.0
542198,0.614,0.212,0.587,20.718,77.351,73.046,0.0,100.0
542258,-0.461,2.000,-0.949,82.336,167.908,250.130,0.0,94.0
542310,-1.442,2.000,-0.617,-232.947,174.779,250.130,58.0,100.0
542370,-0.818,1.097,-0.119,-41.435,109.366,149.450,0.0,110.0
542422,-0.581,-0.059,-0.294,-33.511,137.786,-0.550,38.0,117.0
542473,-0.529,-0.889,-0.575,-32.763,154.038,-111.336,33.0,119.0
542527,-0.685,-0.935,-0.712,10.267,109.908,-238.817,36.0,115.0
542578,-1.098,-0.428,-0.490,135.580,14.145,-250.137,43.0,107.0
542640,-2.000,0.753,-0.501,219.679,-76.550,-250.137,0.0,121.0
542705,-2.000,2.000,-1.605,250.130,-95.794,-22.252,0.0,0.0
542771,-0.312,1.017,-0.019,-67.771,-77.137,22.794,0.0,0.0
542836,0.315,0.771,0.130,210.916,-116.580,58.748,0.0,0.0
542899,0.901,0.625,0.295,62.267,-57.893,94.023,0.0,144.0
542960,0.869,0.150,0.439,-125.084,6.695,122.855,0.0,128.0
543024,0.664,-0.081,0.626,-62.137,34.664,103.618,0.0,103.0
543083,-0.722,2.000,-0.956,188.450,112.351,241.382,0.0,94.0
543134,-2.000,2.000,-0.826,-250.137,149.099,250.130,43.0,100.0
543185,-0.805,0.982,-0.503,2.695,140.153,189.145,39.0,109.0
543246,-0.659,-0.093,-0.433,-39.656,137.420,-0.473,0.0,116.0
543341,-0.849,-1.044,-0.382,50.580,103.237,-224.626,37.0,114.0
543401,-1.350,-0.310,-0.440,132.771,15.878,-250.137,0.0,105.0
543464,-2.000,0.183,-0.482,196.267,-105.893,-250.137,0.0,155.0
543534,-2.000,2.000,-1.074,250.130,-67.160,-66.481,0.0,0.0
543599,-0.105,1.160,-0.171,70.450,-34.427,28.588,0.0,0.0
543663,0.264,0.992,0.267,52.779,-86.985,94.160,0.0,170.0
543729,0.860,0.104,0.562,10.802,-87.672,139.389,0.0,0.0
543791,1.116,0.154,0.360,21.168,3.840,154.466,0.0,131.0
543850,0.417,0.719,0.093,24.855,92.305,90.901,0.0,96.0
543909,-1.504,2.000,-1.739,-69.802,219.344,194.206,0.0,90.0
543970,-2.000,2.000,-0.999,-158.145,213.687,250.130,0.0,98.0
544021,-0.553,0.769,-0.546,-110.969,190.061,84.916,41.0,107.0
544075,-0.516,-0.718,-0.159,-100.359,166.901,-40.130,37.0,115.0
544128,-0.643,-1.297,-0.581,-27.832,119.450,-113.450,39.0,116.0
544180,-0.514,-0.941,-0.634,73.771,30.023,-230.901,43.0,111.0
544240,-0.603,-0.290,-0.379,155.511,-45.656,-250.137,0.0,119.0
544303,-2.000,2.000,-1.011,214.832,-99.015,-250.137,0.0,128.0
544368,-1.902,1.955,-0.183,95.962,-20.344,82.107,0.0,0.0
544430,-0.157,0.763,0.185,65.031,-121.214,71.282,0.0,124.0
544493,0.530,0.409,0.150,132.153,-146.611,47.969,0.0,157.0
544559,0.782,0.279,0.192,-8.580,-41.809,68.893,0.0,141.0
544619,0.787,0.039,0.266,-66.267,22.817,97.305,0.0,111.0
544679,0.634,0.350,0.239,-4.160,81.565,61.557,0.0,99.0
544739,-1.213,2.000,-1.587,-35.008,159.893,210.061,0.0,94.0
544799,-1.476,2.000,-0.535,-170.779,150.298,250.130,0.0,102.0
544851,-0.744,0.782,-0.389,-90.924,131.389,178.290,37.0,112.0
544913,-0.983,-0.794,-0.316,5.092,119.855,3.420,0.0,119.0
544964,-0.643,-0.976,-0.568,-50.374,132.305,-198.466,35.0,118.0
545016,-0.687,-0.653,-0.302,56.656,115.924,-250.137,38.0,111.0
545080,-1.993,-0.125,-0.238,106.191,41.489,-250.137,0.0,109.0
545141,-2.000,2.000,-0.196,250.130,-129.244,-204.466,0.0,119.0
545205,-0.725,1.630,-0.141,114.038,-88.374,27.954,0.0,161.0
545268,0.101,0.786,0.036,85.786,-100.641,41.229,0.0,143.0
545330,0.600,0.421,0.299,68.580,-64.992,42.718,0.0,134.0
545392,0.738,0.152,0.444,-45.252,-14.038,61.252,0.0,125.0
545453,0.773,0.068,0.446,-38.275,35.542,78.542,0.0,105.0
545512,0.043,2.000,-0.271,-13.580,78.275,131.771,0.0,94.0
545567,-1.613,2.000,-0.492,-170.412,129.840,250.130,51.0,94.0
545618,-1.232,1.760,-0.286,-97.534,98.252,235.565,43.0,102.0
545671,-0.500,0.449,-0.135,-18.733,100.687,93.366,49.0,111.0
545723,-0.619,-0.721,-0.189,94.733,95.015,-16.290,39.0,117.0
545775,-0.782,-0.729,-0.490,58.351,79.427,-84.450,49.0,115.0
545836,-0.706,-0.525,-0.492,36.389,25.099,-216.855,0.0,110.0
545897,-1.282,-0.168,-0.404,60.840,-29.863,-250.137,0.0,101.0
545958,-2.000,2.000,-0.781,250.130,-122.366,-215.481,0.0,119.0
546023,-0.879,2.000,-0.469,117.771,-117.763,33.015,0.0,116.0
546084,-0.049,0.994,-0.016,88.305,-141.191,59.511,0.0,123.0
546147,0.867,0.465,0.284,88.076,-91.817,61.924,0.0,135.0
546208,0.917,0.018,0.354,-43.878,-0.817,71.366,0.0,118.0
546270,0.915,-0.084,0.427,-39.557,63.763,54.115,0.0,105.0
546372,-0.935,2.000,-1.409,-21.817,165.198,150.664,0.0,89.0
546424,-1.533,2.000,-0.849,-91.557,131.115,250.130,50.0,96.0
546477,-0.796,0.785,-0.885,-52.000,147.534,168.374,53.0,106.0
546529,-0.618,-0.481,-0.502,-27.122,211.763,-36.183,45.0,114.0
546584,-0.747,-0.833,-0.489,-79.168,214.695,-178.908,43.0,108.0
546646,-0.688,-0.603,-0.357,-143.870,126.725,-250.137,0.0,111.0
546706,-0.840,-0.516,0.284,-10.405,0.107,-250.137,0.0,104.0
546767,-2.000,1.948,-0.111,250.130,-73.962,-128.031,0.0,106.0
546830,-1.699,2.000,-1.361,250.130,-50.382,-7.389,0.0,128.0
546891,-0.497,1.273,-0.195,-131.305,-42.176,9.992,0.0,119.0
546953,-0.077,0.335,0.482,34.809,-89.649,40.496,0.0,127.0
547015,0.857,0.240,0.363,58.634,-55.527,77.992,0.0,126.0
547080,0.949,0.182,0.476,-142.565,-6.802,79.183,0.0,111.0
547146,0.444,-0.327,0.851,-181.802,-104.176,28.168,0.0,110.0
547206,-0.396,2.000,-1.177,250.130,69.107,250.130,0.0,93.0
547256,-1.832,2.000,-1.454,-250.137,250.130,203.634,53.0,98.0
547307,-0.846,0.647,-0.283,-10.466,250.130,114.931,51.0,106.0
547367,-0.976,0.106,-0.433,-56.641,215.580,2.115,0.0,112.0
547428,-0.831,-1.028,-0.196,-72.908,82.031,-60.611,0.0,114.0
547487,-0.434,-0.781,-0.187,171.725,-17.107,-151.756,0.0,108.0
547550,-1.334,-0.171,-0.622,240.893,-123.618,-235.183,0.0,106.0
547610,-2.000,2.000,-1.390,162.565,-201.344,-189.573,0.0,110.0
547672,-0.995,1.570,-0.311,98.473,-124.534,16.031,0.0,121.0
547732,0.046,1.012,-0.263,141.931,-168.168,11.656,0.0,133.0
547793,0.696,0.589,-0.080,98.511,-145.893,13.550,0.0,126.0
547854,1.084,0.139,0.247,-38.687,-38.198,35.649,0.0,116.0
547914,1.149,0.104,0.463,-59.313,34.015,50.962,0.0,114.0
547974,0.339,1.151,0.296,43.740,98.099,115.824,0.0,99.0
548032,-1.206,2.000,-1.379,-46.206,192.290,250.130,0.0,94.0
548096,-1.541,1.485,-0.568,-152.298,128.290,239.733,0.0,103.0
548156,-0.700,0.457,-0.559,4.634,145.099,97.779,0.0,112.0
548216,-0.361,-0.714,-0.267,-40.473,124.336,-78.275,0.0,116.0
548268,-0.551,-1.253,-0.294,-9.244,109.786,-203.389,39.0,113.0
548318,-0.965,-0.328,-0.339,98.344,38.122,-250.137,43.0,106.0
548378,-2.000,0.013,-0.538,74.382,-67.092,-250.137,0.0,104.0
548440,-2.000,2.000,-0.581,250.130,-99.870,-47.557,0.0,131.0
548500,-0.920,1.671,-0.362,-3.702,-76.305,83.420,0.0,120.0
548564,0.008,0.500,0.182,2.282,-169.886,55.565,0.0,139.0
548625,0.677,0.016,0.316,110.405,-141.962,52.763,0.0,117.0
548685,0.990,0.041,0.254,46.649,-23.687,62.206,0.0,113.0
548746,1.010,0.103,0.305,-46.504,75.122,17.702,0.0,106.0
548804,0.365,1.435,0.414,106.832,144.641,84.489,0.0,95.0
548859,-0.674,2.000,-2.000,-115.878,250.130,223.924,0.0,20.0
548920,-1.567,1.573,-1.085,-203.901,250.130,250.130,0.0,104.0
548980,-0.816,0.482,-0.696,-133.504,153.336,106.145,0.0,116.0
549031,-0.908,-0.901,-0.321,-135.458,76.641,-58.069,32.0,122.0
549087,-0.634,-1.116,-0.279,0.794,46.153,-119.244,46.0,121.0
549147,-0.860,-0.392,-0.382,192.992,-19.580,-250.137,0.0,112.0
549207,-1.469,0.326,-0.612,135.015,-95.405,-250.137,0.0,102.0
549269,-2.000,2.000,-0.605,147.496,-113.298,-171.214,0.0,137.0
549373,-0.259,1.207,-0.130,71.664,-120.634,14.420,0.0,122.0
549434,0.363,0.602,0.125,92.183,-144.832,18.542,0.0,121.0
549495,0.954,0.201,0.361,49.985,-56.748,29.832,0.0,128.0
549556,1.022,0.132,0.406,-73.405,39.466,55.221,0.0,115.0
549627,0.376,1.265,0.388,-14.290,114.092,150.313,0.0,99.0
549687,-0.452,2.000,-0.669,-98.328,157.573,250.130,0.0,95.0
549747,-1.201,1.843,-0.634,-131.412,138.992,232.992,0.0,103.0
549808,-1.047,0.797,-0.532,-3.328,158.069,83.260,0.0,111.0
549858,-0.925,-0.471,-0.311,-86.886,111.267,-35.557,32.0,112.0
549919,-0.704,-1.075,-0.180,-28.847,60.817,-125.954,0.0,114.0
549980,-0.713,-0.439,-0.172,155.969,-14.374,-250.137,0.0,106.0
550039,-2.000,0.294,-0.735,175.832,-114.969,-250.137,0.0,99.0
550108,-2.000,2.000,-0.346,23.672,-120.260,-85.382,0.0,0.0
550170,-0.549,1.260,0.049,62.053,-110.824,34.053,0.0,140.0
550236,0.152,0.788,0.164,92.634,-140.328,30.214,0.0,0.0
550298,0.642,0.022,0.385,62.229,-72.794,34.458,0.0,150.0
550359,0.718,-0.212,0.334,15.382,14.092,86.565,0.0,115.0
550419,1.006,-0.067,0.228,54.725,81.321,76.557,0.0,106.0
550478,0.821,2.000,-0.441,59.504,126.908,117.718,0.0,94.0
550538,-1.196,2.000,-1.018,-120.565,222.786,250.130,0.0,95.0
550590,-1.104,1.721,-0.577,-89.023,138.290,250.130,58.0,106.0
550654,-0.473,0.339,-0.481,-5.679,125.473,44.328,0.0,117.0
550706,-0.536,-0.870,-0.417,-93.855,140.015,-125.450,37.0,121.0
550758,-0.738,-1.000,-0.491,-10.023,134.511,-182.611,35.0,118.0
550809,-0.694,-0.379,-0.330,130.840,61.908,-250.137,40.0,110.0
550870,-1.353,0.015,-0.440,148.214,-5.718,-250.137,0.0,101.0
550931,-2.000,2.000,-0.837,216.771,-104.786,-202.702,0.0,123.0
550992,-1.270,2.000,-0.475,118.641,-54.084,61.412,0.0,130.0
551058,0.091,0.723,-0.090,142.634,-108.672,66.687,0.0,0.0
551123,0.801,0.587,0.261,94.641,-93.115,22.511,0.0,140.0
551185,0.882,0.248,0.346,-103.985,-34.710,32.282,0.0,129.0
551246,0.863,-0.043,0.539,-109.626,8.504,79.916,0.0,127.0
551307,0.264,2.000,0.405,103.740,28.511,165.450,0.0,96.0
551358,-1.291,2.000,-0.972,-80.786,136.855,250.130,51.0,94.0
551408,-1.553,1.835,-0.695,-215.527,130.832,188.641,43.0,100.0
551460,-0.577,0.701,-0.279,-43.969,155.382,65.557,39.0,108.0
551512,-0.456,0.006,-0.295,-37.099,153.298,-49.977,35.0,113.0
551563,-0.435,-0.835,-0.453,-54.901,124.015,-105.802,37.0,115.0
551618,-0.220,-0.879,-0.283,59.931,65.389,-171.122,50.0,111.0
551670,-0.642,-0.256,-0.317,140.809,15.305,-247.504,48.0,104.0
551731,-2.000,2.000,-0.251,107.504,-66.977,-225.069,0.0,122.0
551793,-2.000,1.747,0.011,179.328,-96.779,5.168,0.0,136.0
551856,-0.276,1.485,-0.516,129.618,-140.115,69.603,0.0,131.0
551921,0.647,0.479,0.061,68.130,-131.000,37.855,0.0,0.0
551984,0.829,0.245,0.227,41.603,-38.466,50.779,0.0,139.0
552045,0.674,0.116,0.428,-78.679,1.023,71.893,0.0,125.0
552109,0.298,0.031,0.651,-63.847,5.832,50.634,0.0,101.0
552168,-0.500,2.000,-0.808,195.573,80.687,192.679,0.0,93.0
552228,-1.627,2.000,-0.912,-250.137,214.977,250.130,0.0,98.0
552280,-0.817,1.094,-0.202,-78.145,129.214,141.137,41.0,106.0
552385,-0.677,-0.425,-0.423,-25.885,128.718,22.542,0.0,120.0
552437,-0.745,-0.946,-0.771,28.427,112.809,-48.206,51.0,120.0
552489,-0.623,-0.414,-0.587,133.061,27.366,-189.832,38.0,114.0
552550,-1.156,0.596,-0.440,119.672,-30.611,-235.275,0.0,103.0
552613,-2.000,2.000,-0.676,250.130,-186.718,-11.756,0.0,100.0
552674,-0.454,2.000,-0.577,-48.779,-115.496,76.092,0.0,105.0
552735,0.248,0.653,0.083,-163.298,-124.145,-2.802,0.0,113.0
552797,0.579,-0.142,0.321,-23.527,-117.664,-48.725,0.0,117.0
552857,0.684,-0.191,0.325,46.038,-46.099,2.496,0.0,116.0
552919,0.829,0.086,0.431,14.435,13.229,21.634,0.0,109.0
552978,0.522,1.736,0.392,85.443,75.214,104.481,0.0,99.0
553038,-0.823,2.000,-0.990,-10.870,151.519,220.863,0.0,97.0
553091,-1.076,1.844,-0.647,-170.405,128.290,162.763,55.0,103.0
553146,-0.447,0.607,-0.290,-13.817,105.832,48.779,38.0,111.0
553207,-0.372,-0.159,-0.241,-15.328,85.458,-45.725,0.0,116.0
553259,-0.600,-0.899,-0.373,-59.191,89.809,-103.634,37.0,116.0
553311,-0.524,-0.677,-0.385,47.137,57.863,-190.687,38.0,111.0
553371,-1.187,-0.065,-0.364,127.153,-9.206,-250.137,0.0,101.0
553435,-2.000,2.000,-0.681,170.595,-117.649,-223.344,0.0,151.0
553500,-0.823,2.000,-0.242,161.084,-88.366,76.511,0.0,0.0
553562,0.133,0.809,0.108,4.298,-104.450,44.053,0.0,118.0
553627,0.482,0.262,0.302,31.634,-83.160,4.153,0.0,124.0
553689,0.481,0.173,0.282,-42.832,-38.336,29.221,0.0,127.0
553750,0.589,-0.070,0.408,-66.260,8.878,50.267,0.0,109.0
553811,0.226,0.483,0.395,15.855,56.351,80.229,0.0,114.0
553871,-1.103,2.000,-0.477,32.595,94.824,182.275,0.0,94.0
553923,-1.703,2.000,-0.177,-122.565,18.893,232.595,51.0,99.0
553974,-0.543,0.964,0.096,34.023,42.519,128.229,41.0,107.0
554027,-0.428,0.244,-0.238,-42.046,108.214,4.191,40.0,114.0
554079,-0.303,-0.643,-0.524,-214.840,160.718,-93.931,37.0,118.0
554134,-0.152,-1.358,-0.351,-79.702,143.298,-181.985,39.0,116.0
554195,-0.514,-0.788,-0.379,143.115,88.542,-250.137,0.0,109.0
554261,-2.000,0.958,-0.621,250.130,-51.550,-250.137,0.0,0.0
554328,-1.944,2.000,-0.124,149.595,-67.679,-3.626,0.0,0.0
554394,-0.398,1.308,0.241,23.328,-75.214,53.763,0.0,0.0
554460,0.250,0.556,0.289,67.634,-92.771,66.504,0.0,0.0
554521,0.714,0.086,0.249,3.809,-40.817,98.580,0.0,118.0
554583,0.746,-0.143,0.349,-17.702,19.405,116.802,0.0,109.0
554651,0.480,0.323,0.458,62.489,88.916,100.611,0.0,99.0
554711,-0.397,2.000,-0.789,60.748,155.641,164.344,0.0,92.0
554770,-1.589,2.000,-0.755,-200.939,162.969,250.130,0.0,99.0
554829,-0.426,0.768,-0.471,5.618,166.725,125.405,0.0,109.0
554890,-0.386,-0.108,-0.297,-7.252,158.191,-24.481,0.0,116.0
554950,-0.811,-0.894,-0.495,-25.550,130.832,-83.008,0.0,107.0
555010,-0.561,-0.592,-0.334,50.160,32.344,-179.115,0.0,108.0
555070,-1.528,-0.093,-0.381,105.084,-70.855,-250.137,0.0,98.0
555131,-2.000,2.000,-0.571,216.672,-199.153,-77.084,0.0,96.0
555191,-0.535,1.937,-0.394,107.412,-141.779,61.229,0.0,101.0
555251,0.213,0.932,-0.067,17.260,-152.969,51.069,0.0,108.0
555312,0.714,0.255,0.248,17.420,-102.802,26.855,0.0,112.0
555415,0.861,-0.121,0.327,-60.802,38.214,30.099,0.0,108.0
555474,0.476,-0.038,0.244,-12.595,94.893,5.824,0.0,100.0
555533,-0.824,2.000,-0.741,85.198,162.015,92.084,0.0,92.0
555592,-1.361,2.000,-1.241,-220.252,214.977,205.710,0.0,96.0
555653,-0.747,1.130,-0.503,-38.344,151.702,118.214,0.0,105.0
555715,-0.579,0.165,-0.338,-36.244,107.061,23.344,0.0,114.0
555767,-0.716,-0.731,-0.340,-90.313,65.962,-5.237,51.0,109.0
555828,-0.510,-0.846,-0.181,-2.702,9.985,-81.481,0.0,113.0
555887,-1.007,-0.294,-0.250,132.076,-67.107,-249.115,0.0,104.0
555947,-2.000,2.000,-0.754,235.206,-150.244,-249.634,0.0,97.0
556007,-1.005,2.000,-0.683,112.832,-111.023,-37.229,0.0,101.0
556067,-0.049,1.371,-0.016,-9.351,-157.939,-0.267,0.0,114.0
556128,0.496,0.447,0.323,38.725,-171.519,18.611,0.0,125.0
556192,0.792,-0.104,0.314,36.092,-57.527,59.817,0.0,127.0
556253,0.936,-0.069,0.298,-37.550,39.214,61.702,0.0,110.0
556312,0.560,0.185,0.227,-46.855,112.870,16.893,0.0,101.0
556371,-0.922,2.000,-0.562,60.305,178.229,148.573,0.0,94.0
556431,-1.640,2.000,-1.023,-140.992,137.275,199.107,0.0,99.0
556482,-0.765,0.635,-0.207,35.504,103.817,90.710,46.0,107.0
556533,-0.295,-0.007,-0.103,-29.481,116.206,-25.015,40.0,113.0
556584,-0.230,-0.793,-0.137,-125.748,139.168,-104.008,40.0,116.0
556645,-0.356,-0.939,-0.218,-78.046,96.908,-151.344,0.0,112.0
556708,-1.184,-0.348,-0.395,142.008,-35.099,-250.137,0.0,103.0
556768,-2.000,2.000,-0.949,250.130,-108.916,-193.511,0.0,102.0
556828,-1.179,2.000,-0.622,152.069,-62.710,35.260,0.0,115.0
556890,0.154,0.993,-0.062,26.389,-127.649,35.824,0.0,119.0
556951,0.508,0.376,0.162,44.443,-134.481,24.885,0.0,133.0
557012,0.688,0.048,0.260,-18.267,-62.458,52.718,0.0,135.0
557073,0.742,-0.027,0.314,-11.389,0.008,51.397,0.0,115.0
557133,0.354,0.600,0.144,66.611,46.626,62.832,0.0,100.0
557195,-0.513,2.000,-0.857,38.695,158.504,130.244,0.0,92.0
557255,-2.000,2.000,-1.276,-236.878,250.130,212.672,0.0,96.0
557315,-0.889,0.875,-0.429,-55.160,182.718,116.779,0.0,106.0
557376,-0.367,0.039,-0.299,-2.687,144.748,10.901,0.0,115.0
557436,-0.500,-0.593,-0.305,-73.389,119.725,-40.817,0.0,116.0
557497,-0.733,-0.708,-0.435,-0.557,47.221,-78.115,0.0,112.0
557557,-1.025,-0.257,-0.344,132.893,-67.603,-207.802,0.0,105.0
557618,-2.000,2.000,-1.258,212.992,-199.061,-209.886,0.0,103.0
557681,-0.867,2.000,-0.394,119.229,-153.687,-17.817,0.0,110.0
557742,-0.036,1.316,-0.210,46.626,-159.550,8.427,0.0,113.0
557803,0.542,0.526,0.074,61.847,-149.053,1.519,0.0,130.0
557864,0.737,0.010,0.192,-4.389,-66.214,18.489,0.0,122.0
557925,0.838,-0.136,0.277,-42.817,15.924,36.008,0.0,119.0
557985,0.573,0.058,0.287,-3.359,84.084,21.153,0.0,103.0
558045,-0.842,2.000,-0.448,83.237,140.481,111.489,0.0,95.0
558104,-1.829,2.000,-1.061,-184.519,152.588,231.069,0.0,96.0
558156,-0.759,1.127,-0.120,-20.641,103.282,145.176,58.0,104.0
558220,-0.581,0.453,-0.407,-10.389,142.275,51.992,0.0,113.0
558272,-0.585,-0.698,-0.531,-196.374,157.634,-18.748,37.0,117.0
558323,-0.210,-1.068,-0.211,-80.939,96.740,-97.282,38.0,116.0
558427,-2.000,0.757,-0.688,197.634,-78.359,-174.908,0.0,102.0
558487,-1.974,2.000,-0.327,197.122,-157.954,-69.710,0.0,98.0
558547,-0.432,1.769,-0.026,90.573,-127.038,-23.603,0.0,109.0
558608,0.140,1.117,0.169,21.237,-131.244,-30.962,0.0,112.0
558669,0.630,0.192,0.312,23.824,-104.260,-25.061,0.0,118.0
558733,0.924,-0.093,0.307,10.939,-20.947,20.595,0.0,113.0
558793,0.922,0.218,0.380,-18.664,75.916,22.298,0.0,109.0
558854,0.212,2.000,0.190,-9.954,135.275,146.389,0.0,97.0
558913,-1.565,2.000,-0.765,-125.618,102.366,224.939,0.0,96.0
558973,-0.963,1.738,-0.209,-33.863,13.901,156.427,0.0,105.0
559026,-0.401,0.766,-0.353,-22.061,103.397,75.588,43.0,113.0
559086,-0.777,-0.500,-0.539,-220.061,169.275,43.137,0.0,120.0
559138,-0.604,-1.283,-0.588,3.588,111.817,-45.328,36.0,119.0
559199,-0.787,-0.610,-0.580,222.901,22.206,-236.107,0.0,110.0
559262,-1.987,1.164,-0.721,185.298,-106.008,-250.137,0.0,100.0
559323,-2.000,2.000,-0.221,172.511,-150.237,-69.481,0.0,105.0
559384,-0.334,1.625,-0.035,92.641,-89.916,48.817,0.0,113.0
559444,0.049,0.854,0.116,29.435,-112.191,46.107,0.0,116.0
559506,0.635,0.232,0.316,11.557,-86.160,44.702,0.0,118.0
559567,0.946,-0.088,0.436,-47.015,3.985,67.763,0.0,114.0
559628,0.850,0.208,0.479,-62.885,71.908,51.985,0.0,107.0
559687,-0.021,2.000,-0.108,59.069,94.496,137.176,0.0,98.0
559751,-1.096,2.000,-0.873,-93.344,125.679,236.214,0.0,98.0
559811,-0.934,1.357,-0.558,-33.908,105.053,141.603,0.0,107.0
559873,-0.593,-0.099,-0.344,69.748,112.588,-11.779,0.0,113.0
559933,-0.312,-0.512,-0.084,-40.183,117.626,-147.817,0.0,114.0
559994,-0.395,-0.652,-0.046,-60.183,111.412,-201.710,0.0,108.0
560055,-1.357,0.019,-0.118,37.557,1.466,-223.267,0.0,107.0
560115,-2.000,2.000,-0.894,250.130,-171.313,-57.275,0.0,100.0
560176,-0.925,2.000,-0.780,124.168,-141.656,84.573,0.0,109.0
560240,0.058,0.904,-0.021,-88.725,-139.664,31.557,0.0,113.0
560304,0.562,0.131,0.334,0.229,-114.473,-13.733,0.0,148.0
560364,0.694,-0.042,0.267,8.817,-33.679,17.939,0.0,113.0
560425,0.823,0.003,0.293,-34.252,25.260,29.344,0.0,107.0
560485,0.464,0.903,0.323,25.756,87.191,73.153,0.0,97.0
560544,-0.691,2.000,-0.669,29.176,171.145,170.931,0.0,92.0
560605,-1.760,2.000,-1.033,-207.702,178.366,168.321,0.0,99.0
560658,-0.882,0.607,-0.247,-100.321,112.679,63.824,58.0,108.0
560709,-0.485,-0.341,-0.187,-16.481,88.313,-7.817,38.0,115.0
560765,-0.324,-0.863,-0.337,-16.702,76.328,-55.824,40.0,117.0
560817,-0.272,-0.656,-0.359,20.565,29.687,-148.496,40.0,114.0
560878,-0.917,-0.072,-0.326,62.305,-58.618,-250.137,0.0,109.0
560939,-2.000,2.000,-0.474,250.130,-127.260,-163.840,0.0,110.0
561000,-1.259,2.000,-0.535,132.374,-50.634,-20.908,0.0,115.0
561061,-0.378,1.033,0.099,-12.847,-101.519,-1.878,0.0,122.0
561124,0.285,0.613,0.179,156.962,-152.031,-0.550,0.0,131.0
561186,0.828,0.243,0.172,115.076,-92.351,32.122,0.0,127.0
561248,1.028,0.218,0.228,56.115,-1.069,64.382,0.0,66.0
561308,0.673,0.591,0.087,-23.008,97.336,72.473,0.0,101.0
561368,-0.478,2.000,-0.620,35.031,191.886,129.931,0.0,91.0
