Timestamp(ms),AccelX(g),AccelY(g),AccelZ(g),GyroX(deg/s),GyroY(deg/s),GyroZ(deg/s),DistanceLeft(cm),DistanceRight(cm)
202651,-1.032,0.865,-0.290,-124.176,124.053,204.359,0.0,107.0
202703,-0.403,-0.188,-0.309,-29.366,138.023,40.771,42.0,116.0
202764,-0.630,-1.245,-0.543,-7.924,129.969,-86.450,0.0,118.0
202825,-0.758,-0.734,-0.581,176.580,37.244,-250.137,0.0,110.0
202885,-1.950,-0.204,-0.776,205.473,-81.573,-250.137,0.0,99.0
202945,-2.000,2.000,-0.890,136.649,-139.244,-199.336,0.0,95.0
203011,-1.059,1.864,-0.335,86.702,-67.626,15.351,0.0,0.0
203079,0.284,0.795,0.116,65.824,-139.679,1.702,0.0,0.0
203145,0.935,0.254,0.224,80.634,-78.168,27.481,0.0,0.0
203205,1.230,0.203,0.345,-36.542,-1.496,50.328,0.0,109.0
203266,0.518,0.308,0.524,-22.901,31.328,68.969,0.0,99.0
203325,0.031,2.000,-0.257,119.443,87.237,236.939,0.0,89.0
203384,-2.000,2.000,-1.673,-250.137,183.435,250.130,0.0,94.0
203442,-0.768,1.415,-0.527,-52.901,175.802,196.473,0.0,57.0
203503,-0.524,-0.436,-0.237,-136.588,153.977,1.046,0.0,117.0
203568,-0.556,-1.696,-0.344,-1.595,114.740,-114.710,0.0,118.0
203628,-0.947,-0.475,-0.468,231.779,7.038,-250.137,0.0,109.0
203688,-1.729,0.012,-0.528,192.275,-105.168,-250.137,0.0,100.0
203754,-2.000,2.000,-1.101,101.756,-196.412,-203.053,0.0,0.0
203821,-1.078,2.000,-0.490,95.191,-117.809,51.580,0.0,0.0
203881,0.070,0.849,-0.174,56.656,-160.611,55.031,0.0,112.0
203941,0.933,0.179,0.062,48.290,-102.336,36.427,0.0,116.0
204003,1.312,-0.115,0.290,16.420,-18.252,41.542,0.0,115.0
204063,0.862,-0.085,0.375,53.229,60.275,29.031,0.0,105.0
204125,0.228,2.000,-0.012,142.916,149.496,122.886,0.0,64.0
204184,-1.832,2.000,-1.520,-236.107,250.130,250.130,0.0,95.0
204237,-1.224,1.752,-0.644,-160.496,169.237,227.061,58.0,106.0
204290,-0.486,0.228,-0.540,-172.595,115.191,85.672,51.0,116.0
204351,-0.441,-1.555,-0.429,-119.977,94.557,-26.939,0.0,123.0
204412,-0.502,-0.948,-0.678,185.107,36.931,-191.886,0.0,117.0
204473,-1.055,-0.154,-0.514,187.489,-33.725,-250.137,0.0,106.0
204539,-2.000,2.000,-0.703,142.664,-82.641,-250.137,0.0,0.0
204608,-1.844,2.000,-0.324,145.198,-87.779,-9.481,0.0,0.0
204675,-0.132,1.177,-0.022,80.504,-122.855,24.863,0.0,0.0
204740,0.877,0.400,0.262,64.908,-83.794,62.542,0.0,0.0
204803,1.254,0.067,0.353,-52.901,7.977,68.817,0.0,140.0
204863,0.732,-0.012,0.437,-54.405,42.809,60.198,0.0,105.0
204921,0.407,2.000,0.152,89.748,82.710,169.038,0.0,72.0
204982,-1.687,2.000,-1.553,-216.786,166.656,250.130,0.0,96.0
205042,-1.266,1.444,-0.452,-121.397,141.214,244.069,0.0,108.0
205104,-0.426,0.162,-0.338,-49.718,137.130,56.389,0.0,118.0
205160,-0.725,-1.217,-0.473,-47.115,112.534,-61.809,33.0,123.0
205211,-0.516,-0.844,-0.324,86.962,31.985,-200.191,36.0,120.0
205273,-1.224,-0.347,-0.459,197.863,-52.038,-250.137,0.0,109.0
205334,-2.000,1.041,-0.569,130.679,-90.107,-241.511,0.0,118.0
205401,-2.000,2.000,-0.278,139.084,-113.756,-75.168,0.0,0.0
205463,-0.382,1.354,-0.215,61.038,-94.214,32.687,0.0,137.0
205523,0.247,0.680,0.054,85.435,-113.809,45.565,0.0,112.0
205585,1.007,0.086,0.240,21.244,-47.237,51.450,0.0,114.0
205649,1.312,0.131,0.414,-21.863,23.885,60.702,0.0,109.0
205758,0.247,2.000,-0.641,30.260,163.557,250.130,0.0,92.0
205817,-2.000,2.000,-1.505,-250.137,250.130,250.130,0.0,98.0
205869,-0.651,1.158,-0.491,-46.840,169.198,128.649,51.0,107.0
205920,-0.354,-0.120,-0.406,-66.618,151.878,-6.603,44.0,116.0
205980,-0.574,-1.290,-0.419,-28.450,128.382,-74.962,0.0,118.0
206040,-0.664,-0.791,-0.579,219.740,40.481,-212.153,0.0,111.0
206099,-1.346,-0.015,-0.604,197.710,-63.344,-250.137,0.0,99.0
206161,-2.000,2.000,-1.464,46.450,-183.779,-170.198,0.0,95.0
206221,-1.096,1.953,-0.403,129.511,-146.275,19.008,0.0,101.0
206280,0.165,1.062,-0.288,52.489,-194.969,6.137,0.0,107.0
206341,0.999,0.372,0.021,76.634,-142.038,13.718,0.0,112.0
206401,1.454,-0.118,0.282,-23.214,-42.916,50.985,0.0,113.0
206460,1.111,-0.042,0.428,-33.305,39.130,26.893,0.0,104.0
206518,0.384,1.602,0.568,163.725,84.015,153.931,0.0,65.0
206576,-1.292,2.000,-1.322,-198.924,199.496,250.130,0.0,94.0
206627,-1.421,2.000,-0.667,-133.122,159.298,242.405,51.0,103.0
206682,-0.460,0.723,-0.396,-99.550,128.664,76.985,51.0,111.0
206733,-0.578,-0.938,-0.198,-59.053,122.641,-26.038,36.0,117.0
206784,-0.459,-1.341,-0.533,66.924,115.176,-123.595,36.0,117.0
206843,-0.778,-0.540,-0.458,196.656,31.076,-250.137,0.0,109.0
206903,-1.691,0.045,-0.586,104.886,-55.305,-250.137,0.0,98.0
206968,-2.000,2.000,-0.767,159.870,-164.679,-164.252,0.0,0.0
207033,-0.669,1.555,-0.333,61.046,-102.221,4.985,0.0,0.0
207098,0.591,0.740,0.119,95.824,-146.947,-16.863,0.0,0.0
207166,1.131,0.248,0.261,19.214,-57.389,37.733,0.0,0.0
207232,1.180,0.114,0.444,-5.389,19.618,54.534,0.0,0.0
207291,0.448,0.892,0.274,-31.641,75.641,127.718,0.0,99.0
207348,-1.708,2.000,-0.817,5.038,116.511,173.519,184.0,91.0
207408,-1.946,2.000,-0.999,-151.588,202.634,227.397,0.0,97.0
207468,-0.733,0.836,-0.410,-151.435,204.580,76.534,0.0,108.0
207528,-0.174,-1.037,-0.071,-82.397,156.298,-74.344,0.0,115.0
207589,-0.400,-1.940,-0.569,126.427,59.435,-150.878,0.0,112.0
207648,-0.987,-0.132,-0.392,250.130,-109.298,-250.137,0.0,103.0
207713,-2.000,2.000,-0.580,53.809,-121.649,-86.786,0.0,119.0
207777,-2.000,1.703,-0.327,139.901,-151.260,66.779,0.0,0.0
207838,-0.544,1.344,-0.392,58.061,-117.031,96.519,0.0,106.0
207898,0.403,0.452,0.079,25.931,-135.481,21.550,0.0,112.0
207956,0.870,-0.235,0.247,5.573,-82.794,28.954,172.0,115.0
208017,1.300,-0.130,0.283,50.481,-33.466,33.023,0.0,112.0
208076,0.891,0.316,0.418,45.855,41.954,49.519,0.0,102.0
208136,0.465,2.000,0.019,147.053,127.550,194.458,0.0,92.0
208193,-1.426,2.000,-1.136,-201.496,250.130,250.130,148.0,58.0
208244,-1.099,1.760,-0.813,-107.328,200.725,160.076,52.0,105.0
208296,-0.466,0.273,-0.422,-78.305,155.420,28.298,51.0,115.0
208348,-0.809,-1.076,-0.632,-138.901,127.565,-76.679,36.0,121.0
208400,-0.512,-1.505,-0.523,11.000,76.794,-216.878,51.0,118.0
208451,-1.122,-0.605,-0.428,235.412,-20.977,-250.137,51.0,108.0
208510,-2.000,0.013,-0.423,250.130,-79.053,-250.137,0.0,97.0
208576,-2.000,2.000,-0.895,250.130,-152.542,-114.405,0.0,0.0
208645,-0.671,1.196,-0.181,-86.809,-58.374,-7.656,0.0,0.0
208753,0.885,0.195,0.212,138.435,-76.473,70.473,0.0,0.0
208819,1.363,0.273,0.352,-34.786,-5.580,70.046,0.0,0.0
208878,0.713,0.182,0.454,-2.176,34.336,94.420,0.0,101.0
208937,0.116,2.000,-0.632,81.771,101.702,245.557,0.0,91.0
208988,-1.933,2.000,-1.112,-228.229,210.611,250.130,48.0,95.0
209039,-1.223,1.750,-0.702,-130.595,155.595,226.435,42.0,107.0
209090,-0.525,-0.185,-0.386,-84.611,149.344,16.206,36.0,117.0
209142,-0.553,-1.194,-0.396,-36.466,137.748,-154.573,35.0,120.0
209206,-0.561,-1.259,-0.450,95.542,115.527,-250.137,0.0,115.0
209266,-1.024,-0.285,-0.409,212.832,11.885,-250.137,0.0,106.0
209327,-1.879,1.963,-0.184,213.092,-51.130,-132.290,0.0,121.0
209387,-2.000,2.000,-0.437,99.344,-173.687,96.305,0.0,99.0
209447,-0.418,1.044,-0.136,16.099,-135.695,146.557,0.0,105.0
209508,0.446,0.010,0.158,30.504,-157.809,24.046,0.0,112.0
209568,0.867,-0.210,0.121,73.298,-89.489,-0.702,0.0,114.0
209629,1.351,0.034,0.375,120.939,2.221,0.382,0.0,108.0
209689,0.613,0.974,0.182,-1.435,111.618,40.603,0.0,67.0
209748,0.114,2.000,-0.478,5.427,143.344,159.313,0.0,92.0
209808,-1.154,2.000,-0.975,-237.580,186.267,250.130,0.0,97.0
209869,-1.251,1.228,-0.316,-97.725,6.275,227.771,197.0,116.0
209930,-0.400,-0.235,-0.526,-137.214,119.069,7.443,194.0,120.0
209981,-0.705,-1.804,-0.594,-50.351,195.328,-215.405,36.0,120.0
210033,-1.041,-0.622,-0.737,250.130,145.023,-250.137,39.0,111.0
210093,-1.812,-0.214,-0.797,225.176,38.321,-250.137,0.0,99.0
210157,-2.000,2.000,-1.091,250.130,-129.229,-218.244,0.0,123.0
210220,-0.997,2.000,-0.098,87.015,-109.832,41.489,0.0,139.0
210283,0.188,0.780,0.202,73.649,-162.160,26.603,0.0,156.0
210349,1.021,0.255,0.205,88.351,-107.908,47.053,0.0,0.0
210414,1.344,0.114,0.344,-5.756,-18.588,59.534,0.0,0.0
210473,0.825,0.324,0.414,-2.679,64.489,93.626,0.0,100.0
210532,-0.773,2.000,-0.858,71.886,155.870,236.305,0.0,65.0
210591,-2.000,2.000,-1.002,-250.137,167.351,250.130,0.0,99.0
210642,-0.629,0.854,-0.353,-49.542,108.886,197.924,39.0,110.0
210699,-0.432,-0.017,-0.376,-25.824,104.901,24.107,51.0,118.0
210751,-0.637,-1.262,-0.583,-73.886,142.000,-95.611,45.0,120.0
210802,-0.803,-0.938,-0.671,137.763,82.489,-236.756,45.0,115.0
210854,-1.083,-0.096,-0.447,202.519,24.802,-250.137,44.0,105.0
210914,-2.000,0.828,-0.450,104.366,-24.099,-250.137,0.0,96.0
210979,-2.000,2.000,-0.275,208.008,-141.359,-20.443,0.0,0.0
211042,-0.161,1.337,-0.108,54.244,-141.275,45.740,0.0,146.0
211106,0.679,0.532,0.141,44.618,-114.374,25.832,0.0,164.0
211175,1.178,0.010,0.258,-50.626,-23.282,60.542,0.0,0.0
211236,1.084,-0.025,0.503,7.374,7.832,44.756,0.0,117.0
211296,0.354,1.852,0.291,60.031,51.237,161.305,0.0,95.0
211355,-1.465,2.000,-1.227,-110.435,143.916,250.130,0.0,94.0
211406,-1.732,1.979,-0.646,-134.496,139.298,250.130,44.0,104.0
211460,-0.499,0.496,-0.400,-82.328,142.122,113.931,52.0,115.0
211512,-0.501,-1.109,-0.135,-57.389,133.336,-76.145,41.0,121.0
211563,-0.704,-1.505,-0.463,74.947,114.687,-184.939,38.0,119.0
211615,-1.092,-0.433,-0.583,207.924,17.084,-250.137,41.0,112.0
211728,-2.000,2.000,-0.721,189.344,-114.260,-250.137,0.0,0.0
211793,-1.483,2.000,-0.446,104.901,-51.985,0.351,0.0,0.0
211859,-0.249,0.797,0.142,67.496,-85.046,49.053,0.0,0.0
211926,0.760,0.515,0.194,88.160,-66.046,87.763,0.0,0.0
211991,0.950,0.090,0.314,-50.908,-12.458,75.954,0.0,0.0
212051,0.509,0.205,0.455,-6.565,34.992,92.664,0.0,106.0
212111,0.273,2.000,0.225,63.183,82.282,153.985,0.0,94.0
212171,-1.517,2.000,-1.094,-225.183,210.053,250.130,0.0,94.0
212227,-1.228,1.399,-0.515,-81.870,123.053,160.244,54.0,103.0
212278,-0.525,0.417,-0.287,-27.420,120.046,26.176,44.0,112.0
212328,-0.483,-0.913,-0.313,-51.290,110.305,-80.725,38.0,81.0
212380,-0.437,-1.340,-0.370,4.405,73.985,-136.740,40.0,116.0
212431,-0.742,-0.451,-0.337,169.008,-9.771,-250.137,43.0,109.0
212498,-1.385,-0.079,-0.409,87.046,-53.290,-250.137,0.0,0.0
212563,-2.000,2.000,-0.653,250.130,-133.206,-156.832,0.0,0.0
212630,-0.779,1.597,-0.201,-30.229,-64.824,43.580,0.0,0.0
212696,0.262,0.330,0.323,94.206,-110.817,11.153,0.0,0.0
212765,0.902,0.357,0.220,78.557,-49.893,72.649,0.0,0.0
212826,0.967,0.125,0.516,-39.748,11.603,49.122,0.0,108.0
212885,0.463,0.341,0.612,11.740,58.580,99.321,0.0,75.0
212943,-0.987,2.000,-0.841,-25.130,121.870,202.672,0.0,72.0
212996,-2.000,2.000,-0.881,-180.618,135.794,250.130,58.0,96.0
213047,-0.898,1.188,-0.535,-111.557,105.000,218.130,40.0,107.0
213108,-0.667,-0.529,-0.398,-123.412,128.084,31.038,0.0,118.0
213170,-0.735,-1.788,-0.603,16.550,140.496,-151.870,0.0,117.0
213234,-1.183,-0.437,-0.697,232.351,38.740,-250.137,0.0,108.0
213300,-1.621,-0.187,-0.649,126.656,-69.359,-250.137,0.0,0.0
213372,-2.000,2.000,-0.869,250.130,-115.626,-62.176,0.0,0.0
213438,-0.418,1.355,-0.151,55.443,-71.672,65.702,0.0,0.0
213502,0.240,0.806,0.237,91.313,-101.916,73.679,0.0,0.0
213567,0.878,0.416,0.408,9.557,-33.557,99.779,0.0,0.0
213633,1.072,0.209,0.651,-87.573,11.092,91.427,0.0,0.0
213690,0.479,0.473,0.527,2.076,57.641,176.145,0.0,75.0
213748,-0.424,2.000,-0.639,-133.366,159.870,218.450,0.0,94.0
213803,-2.000,2.000,-0.739,-250.137,215.756,250.130,51.0,100.0
213854,-0.719,1.248,-0.514,-99.466,133.916,165.863,44.0,111.0
213905,-0.345,-0.440,-0.281,18.008,81.321,36.466,42.0,119.0
213956,-0.586,-1.214,-0.430,105.229,56.534,-70.359,37.0,121.0
214016,-0.369,-0.916,-0.419,132.504,44.344,-202.374,0.0,116.0
214076,-0.989,-0.151,-0.305,119.687,-11.908,-250.137,0.0,106.0
214135,-2.000,1.083,0.045,244.908,-61.908,-193.275,0.0,112.0
214197,-2.000,2.000,-0.916,125.840,-128.420,-9.863,0.0,127.0
214264,-0.433,1.190,0.007,6.679,-117.191,48.038,0.0,0.0
214330,0.641,0.478,0.250,45.351,-106.183,33.168,0.0,0.0
214390,1.005,-0.083,0.212,-22.603,-25.870,51.878,0.0,116.0
214450,1.002,-0.008,0.351,23.939,12.130,41.397,0.0,111.0
214509,0.419,0.352,0.415,86.710,47.443,84.275,0.0,100.0
214568,-0.310,2.000,-0.884,43.252,137.198,167.336,0.0,91.0
214627,-2.000,2.000,-1.028,-238.725,222.550,250.130,0.0,97.0
214679,-0.797,1.104,-0.508,-95.466,134.145,171.901,51.0,111.0
214782,-0.622,-1.409,-0.469,-72.740,110.542,-75.496,0.0,119.0
214837,-0.767,-1.043,-0.657,163.374,58.794,-244.290,38.0,113.0
214896,-1.417,-0.082,-0.620,175.573,-29.397,-250.137,0.0,103.0
214962,-2.000,2.000,-1.011,250.130,-138.084,-245.954,0.0,0.0
215027,-0.972,2.000,-0.577,55.069,-87.580,27.061,0.0,0.0
215092,-0.018,0.558,0.300,-10.275,-120.069,24.656,0.0,0.0
215157,0.743,0.361,0.134,170.038,-86.779,62.748,0.0,0.0
215217,1.187,0.311,0.265,-58.206,22.863,47.412,0.0,112.0
215277,0.680,-0.163,0.431,-133.420,63.382,21.344,0.0,105.0
215339,0.258,1.949,0.428,149.198,84.534,144.840,0.0,93.0
215398,-1.970,2.000,-1.334,-232.214,150.855,250.130,0.0,94.0
215449,-0.958,1.931,-0.621,-127.023,167.481,250.130,47.0,105.0
215500,-0.599,0.149,-0.361,-151.893,168.031,64.656,38.0,115.0
215552,-0.745,-1.332,-0.434,-65.405,143.031,-63.061,36.0,120.0
215603,-0.492,-1.541,-0.499,199.153,82.977,-192.122,37.0,117.0
215662,-1.087,-0.340,-0.632,250.130,-18.092,-250.137,0.0,105.0
215721,-2.000,1.328,-0.408,107.542,-74.168,-226.595,0.0,96.0
215790,-2.000,2.000,-0.910,185.450,-135.832,-31.809,0.0,0.0
215856,-0.688,1.492,-0.236,-2.405,-112.153,60.794,0.0,0.0
215916,0.435,0.595,0.102,117.160,-149.198,50.443,0.0,111.0
215976,0.995,0.187,0.264,21.031,-73.260,56.198,0.0,114.0
216036,1.167,-0.147,0.441,-60.153,7.588,40.916,0.0,112.0
216096,0.815,-0.062,0.544,-51.740,75.931,41.206,0.0,103.0
216156,-0.053,2.000,-0.414,110.527,140.198,167.069,0.0,94.0
216206,-1.722,2.000,-1.191,-250.137,189.756,250.130,45.0,98.0
216255,-0.911,1.238,-0.459,-93.740,113.313,182.130,40.0,71.0
216318,-0.445,0.157,-0.326,-56.214,80.473,41.771,0.0,117.0
216371,-0.406,-0.912,-0.291,2.779,76.886,-61.198,49.0,120.0
216422,-0.511,-0.813,-0.445,66.847,52.893,-146.351,37.0,118.0
216473,-1.069,-0.213,-0.485,149.664,-17.870,-250.137,42.0,110.0
216532,-1.879,0.282,-0.463,86.275,-55.489,-239.824,0.0,101.0
216593,-2.000,2.000,-0.124,141.191,-191.840,-142.641,0.0,101.0
216653,-0.449,1.802,-0.217,105.313,-117.405,17.290,0.0,105.0
216714,0.134,0.909,-0.077,-1.298,-127.924,0.366,0.0,112.0
216778,0.571,0.123,0.008,20.504,-90.092,29.992,0.0,128.0
216839,1.186,-0.103,0.230,29.947,-18.847,47.573,0.0,114.0
216898,0.797,-0.087,0.367,41.832,47.008,54.870,0.0,106.0
216955,0.739,2.000,0.207,182.099,115.924,154.481,0.0,61.0
217015,-1.468,2.000,-1.047,-193.817,218.901,250.130,0.0,94.0
217066,-1.383,1.845,-0.585,-107.992,164.046,156.427,51.0,102.0
217118,-0.541,0.653,-0.462,-84.878,131.038,22.565,41.0,111.0
217169,-0.454,-0.718,-0.439,-110.221,112.046,-79.382,39.0,116.0
217224,-0.466,-1.400,-0.468,10.305,80.435,-126.519,37.0,116.0
217275,-0.746,-0.537,-0.477,174.573,-2.901,-248.786,42.0,110.0
217335,-1.584,-0.027,-0.512,140.366,-66.023,-250.137,0.0,101.0
217401,-2.000,2.000,-0.652,236.817,-124.053,-115.260,0.0,0.0
217466,-0.794,1.150,-0.021,-15.298,-78.740,30.496,0.0,0.0
217532,0.182,0.582,0.188,127.763,-128.443,12.069,0.0,0.0
217597,0.909,0.299,0.252,68.198,-65.382,30.099,0.0,0.0
217663,1.140,0.215,0.427,-44.221,12.000,37.977,0.0,0.0
217765,0.175,2.000,-0.222,70.321,119.580,191.802,0.0,94.0
217829,-2.000,2.000,-1.072,-250.137,143.618,250.130,0.0,98.0
217886,-0.804,1.379,-0.443,-11.870,80.466,196.122,0.0,59.0
217937,-0.347,-0.183,-0.487,-40.527,136.481,16.725,38.0,117.0
217989,-0.109,-1.509,-0.968,-67.267,245.794,-98.160,35.0,119.0
218041,-0.707,-0.863,-0.705,100.053,169.863,-214.107,36.0,114.0
218100,-1.345,-0.171,-0.043,105.137,19.573,-250.137,0.0,104.0
218161,-2.000,1.883,-0.278,250.130,-130.542,-128.695,0.0,96.0
218221,-2.000,2.000,-1.236,47.191,-169.328,26.183,0.0,99.0
218276,-0.111,0.628,-0.117,10.237,-181.733,21.267,57.0,107.0
218337,0.608,0.537,-0.087,154.985,-179.489,6.672,0.0,113.0
218398,0.973,0.131,0.073,74.466,-87.550,36.496,0.0,116.0
218459,1.197,-0.003,0.426,-10.053,-8.206,26.992,0.0,114.0
218517,0.623,0.099,0.579,22.718,62.511,40.824,0.0,71.0
218585,0.007,2.000,-0.441,134.504,182.519,101.000,0.0,94.0
218636,-2.000,2.000,-1.475,-250.137,228.031,203.679,57.0,97.0
218695,-0.880,1.013,-0.290,-103.855,128.962,172.435,0.0,108.0
218746,-0.275,-0.142,-0.095,-43.458,104.298,36.939,38.0,115.0
218801,-0.445,-1.182,-0.484,-130.656,99.985,-74.305,34.0,118.0
218851,-0.627,-1.250,-0.453,73.366,38.733,-212.573,36.0,115.0
218911,-1.319,-0.197,-0.569,190.008,-43.695,-250.137,0.0,104.0
218970,-2.000,2.000,-0.504,248.481,-128.466,-211.588,0.0,97.0
219032,-1.694,2.000,-0.475,86.962,-124.634,-12.740,0.0,145.0
219098,-0.314,0.972,0.140,-6.076,-95.160,10.290,0.0,0.0
219162,0.444,0.530,0.187,145.061,-101.183,27.595,0.0,0.0
219222,0.980,0.255,0.162,31.580,-45.427,82.855,0.0,111.0
219284,1.109,0.286,0.377,-54.809,-9.626,54.916,0.0,105.0
219343,0.353,1.655,0.358,-30.985,9.099,166.863,0.0,96.0
219394,-0.497,2.000,-0.026,-4.053,12.756,226.458,59.0,92.0
219453,-1.550,2.000,-0.365,-183.198,50.878,232.450,0.0,99.0
219504,-0.900,1.492,-0.115,-250.137,31.893,97.053,50.0,112.0
219570,-0.289,-0.543,-0.255,-250.137,7.878,-21.076,0.0,0.0
219634,-0.474,-0.707,0.036,-212.695,-25.496,20.908,0.0,0.0
219700,-0.883,0.177,0.389,-209.412,-88.878,3.740,0.0,0.0
219765,-0.283,-0.570,1.282,-179.191,-115.740,-44.947,0.0,0.0
219825,0.560,-0.256,1.572,-13.908,6.336,-45.260,57.0,0.0
219889,0.322,-0.511,1.453,10.679,34.305,-17.618,0.0,0.0
219955,0.313,0.064,0.492,-16.931,57.656,32.672,0.0,0.0
220020,0.550,0.189,0.074,57.832,-2.359,32.969,0.0,0.0
220085,0.503,0.011,0.221,40.252,-26.359,38.977,0.0,0.0
220150,1.000,0.368,0.939,-6.992,-41.351,110.565,0.0,0.0
220215,0.271,0.001,1.868,77.336,-45.962,134.511,0.0,0.0
220280,-0.228,-0.898,1.854,-3.847,-19.924,118.733,0.0,0.0
220348,0.207,-0.255,0.917,-18.603,34.695,57.435,0.0,0.0
220413,-0.149,-0.311,0.465,-8.359,15.397,26.603,0.0,0.0
220479,-0.293,-0.328,0.405,-78.229,-22.542,-50.679,0.0,0.0
220544,-0.437,-0.550,0.902,-36.015,-24.260,-118.420,0.0,0.0
220609,0.302,-0.867,1.807,-60.771,61.519,-123.802,195.0,0.0
220674,0.327,-0.480,1.517,-25.031,37.412,-87.710,0.0,0.0
220739,0.479,-0.128,0.695,-11.427,48.069,-55.740,0.0,0.0
220848,0.274,0.269,0.204,16.542,-11.206,-34.908,194.0,0.0
220910,0.370,0.191,0.460,47.153,-50.130,11.710,159.0,0.0
220979,0.176,-0.064,1.794,56.794,-33.130,36.145,0.0,0.0
221041,0.677,-0.108,1.914,67.405,-19.466,73.481,165.0,0.0
221106,0.200,-0.321,1.301,26.389,37.290,80.656,170.0,0.0
221170,0.070,-0.468,0.574,8.962,64.641,85.588,0.0,0.0
221236,-0.008,-0.343,0.244,-39.595,16.931,32.725,0.0,0.0
221301,-0.572,-0.630,0.651,-40.573,9.153,-39.794,0.0,0.0
221365,-0.375,-0.802,1.249,-72.244,8.756,-95.450,184.0,0.0
221429,-0.471,-0.535,1.606,52.794,63.061,-67.756,183.0,0.0
221485,-0.385,-0.095,1.323,112.725,114.328,-4.183,16.0,0.0
221542,0.370,0.877,0.324,236.748,148.130,-60.107,17.0,0.0
221597,0.437,0.224,0.072,250.130,105.092,-71.649,16.0,0.0
221659,0.922,-0.292,0.045,250.130,145.878,16.076,0.0,150.0
221719,0.684,0.404,1.026,250.130,146.282,35.305,0.0,99.0
221777,-0.627,2.000,1.354,232.832,32.954,133.672,0.0,92.0
221837,-0.626,2.000,0.108,-152.954,49.160,221.427,0.0,97.0
221888,-0.552,0.750,0.168,-81.794,11.389,119.847,36.0,107.0
221948,-0.199,-0.499,-0.125,100.863,55.863,18.122,0.0,114.0
222009,-0.438,-1.019,-0.610,49.275,124.244,-87.947,0.0,113.0
222063,-0.885,-0.765,-0.472,125.908,73.008,-250.137,40.0,106.0
222123,-1.921,0.308,-0.415,102.153,-3.580,-250.137,0.0,96.0
222188,-2.000,2.000,-0.462,198.626,-125.611,-114.496,0.0,0.0
222254,-0.616,1.479,0.068,39.496,-131.557,9.817,0.0,0.0
222319,0.664,0.667,0.167,120.290,-143.313,-6.122,0.0,0.0
222385,1.024,0.352,0.174,39.443,-55.595,28.840,0.0,0.0
222449,1.003,0.173,0.421,-27.084,4.069,46.740,0.0,0.0
222510,0.355,0.493,0.545,-13.740,63.954,102.939,0.0,98.0
222571,-1.142,2.000,-0.288,1.221,134.489,193.519,0.0,89.0
222630,-2.000,2.000,-0.955,-250.137,175.779,250.130,0.0,96.0
222682,-0.683,0.920,-0.414,-56.481,85.473,126.519,37.0,106.0
222731,-0.346,-0.172,-0.373,-91.595,81.855,3.763,37.0,76.0
222782,-0.692,-1.550,-0.482,-58.374,91.313,-39.847,42.0,116.0
222833,-0.531,-0.815,-0.438,147.878,48.656,-136.649,36.0,113.0
222884,-1.196,-0.090,-0.425,165.634,-35.786,-250.137,41.0,105.0
222937,-2.000,2.000,-0.034,121.252,-70.153,-193.947,57.0,98.0
223005,-2.000,2.000,0.177,77.534,-114.450,-85.886,0.0,0.0
223071,-0.285,1.113,0.203,-7.550,-110.687,-36.023,0.0,0.0
223128,0.572,0.414,0.258,104.366,-110.420,-27.351,58.0,0.0
223194,0.965,0.142,0.162,38.802,-38.435,14.420,0.0,0.0
223254,0.991,0.122,0.383,-21.992,29.580,29.901,0.0,110.0
223313,0.293,0.865,0.632,28.137,70.687,136.710,0.0,98.0
223373,-1.040,2.000,-0.027,41.870,123.183,198.511,0.0,92.0
223424,-1.765,2.000,-0.876,-235.305,145.832,208.244,51.0,98.0
223475,-0.946,0.942,-0.340,-132.443,103.832,110.015,37.0,107.0
223531,-0.401,0.028,-0.329,-39.893,74.489,17.527,42.0,114.0
223582,-0.594,-1.135,-0.557,-58.443,82.160,-44.511,43.0,118.0
223634,-0.447,-0.723,-0.446,93.290,73.634,-128.626,37.0,115.0
223685,-1.184,0.125,-0.395,108.481,3.557,-243.840,40.0,108.0
223736,-1.670,1.600,0.413,83.191,-51.595,-189.221,58.0,101.0
223832,-1.007,2.000,-0.486,250.130,-117.420,46.618,50.0,104.0
223884,0.031,1.361,-0.177,-76.733,-118.115,8.489,47.0,113.0
223940,0.596,0.217,0.368,-43.947,-74.748,5.382,46.0,0.0
223996,1.008,-0.243,0.375,-22.481,-21.321,38.176,58.0,119.0
224047,1.105,-0.208,0.514,37.580,13.458,23.679,16.0,113.0
224106,0.700,-0.052,0.581,82.985,50.305,34.634,0.0,102.0
224166,0.253,2.000,-0.500,158.420,129.695,132.176,0.0,91.0
224217,-1.872,2.000,-1.121,-250.137,241.863,250.130,45.0,92.0
224266,-1.191,1.247,-0.731,-113.565,127.160,171.145,41.0,63.0
224315,-0.415,0.019,-0.592,-83.046,134.412,10.420,36.0,74.0
224366,-0.349,-0.994,-0.414,-92.962,126.504,-121.359,33.0,112.0
224417,-0.530,-1.166,-0.277,25.351,97.817,-150.802,36.0,110.0
224472,-1.673,-0.123,-0.401,146.908,-54.779,-250.137,42.0,103.0
224524,-2.000,1.230,0.496,196.038,-186.847,-186.748,51.0,115.0
224577,-2.000,2.000,-0.332,170.695,-66.771,-80.847,53.0,113.0
224643,-0.648,1.129,0.089,-117.886,-50.107,-69.000,0.0,0.0
224708,-0.145,0.620,0.175,243.069,-94.168,-15.412,0.0,0.0
224775,0.950,0.737,0.119,4.298,-60.145,34.282,0.0,0.0
224840,1.112,-0.126,0.640,-16.809,-29.924,58.519,0.0,0.0
224901,0.727,0.609,0.534,69.931,26.237,153.504,0.0,101.0
224955,-0.957,2.000,0.172,41.840,129.137,224.863,55.0,94.0
225006,-2.000,2.000,-0.805,-141.924,161.565,241.046,51.0,97.0
225058,-0.832,1.163,-0.378,-105.626,165.405,107.397,48.0,106.0
225111,-0.147,-0.216,-0.093,-75.710,159.977,-32.214,45.0,113.0
225163,-0.200,-0.988,-0.243,-49.313,176.916,-99.740,45.0,116.0
225215,-0.487,-0.910,-0.348,39.855,107.626,-158.122,57.0,113.0
225275,-1.173,-0.033,-0.433,134.489,-26.656,-230.992,0.0,105.0
225336,-2.000,1.638,-0.191,164.168,-144.237,-95.496,0.0,99.0
225405,-1.928,2.000,-0.369,154.099,-121.298,-5.634,0.0,0.0
225471,-0.460,1.201,-0.013,-4.634,-79.389,-0.382,0.0,0.0
225538,0.219,0.528,0.314,39.885,-68.802,5.794,0.0,0.0
225601,0.948,-0.028,0.332,-39.687,-6.565,67.298,0.0,157.0
225661,0.718,0.047,0.454,-77.267,23.519,79.664,0.0,110.0
225722,0.590,0.421,0.553,-4.221,40.992,143.534,0.0,100.0
225782,-1.015,2.000,-0.680,24.198,161.031,188.809,0.0,96.0
225835,-1.329,2.000,-0.361,-204.718,175.588,201.031,57.0,102.0
225886,-0.732,0.844,-0.449,-47.832,124.870,61.260,37.0,109.0
225941,-0.440,-0.114,-0.354,-83.588,115.290,-41.588,39.0,115.0
225993,-0.543,-0.948,-0.410,-123.305,86.924,-52.092,39.0,118.0
226051,-0.410,-0.702,-0.187,76.069,47.015,-117.786,51.0,0.0
226116,-0.801,-0.151,-0.123,166.176,2.092,-178.000,0.0,0.0
226188,-2.000,2.000,-0.660,190.130,-126.969,-161.427,0.0,0.0
226253,-0.704,2.000,-0.288,-12.969,-38.366,15.656,0.0,0.0
226318,-0.251,1.018,0.051,-32.710,-82.435,-6.924,0.0,0.0
226377,0.744,0.574,0.318,3.229,-53.275,0.267,0.0,113.0
226441,1.191,0.087,0.484,-106.160,59.870,36.908,0.0,114.0
226500,0.872,0.386,0.388,-130.008,140.359,61.954,0.0,111.0
226560,0.389,1.828,-0.044,-57.061,191.389,161.198,0.0,109.0
226619,-1.715,2.000,-1.693,-167.382,166.519,144.565,0.0,101.0
226670,-0.869,1.605,-0.821,-57.832,160.786,139.023,45.0,106.0
226764,-0.489,-0.386,-0.177,-71.405,119.603,-35.626,44.0,112.0
226816,-0.683,-1.080,-0.235,-36.267,111.649,-93.298,38.0,114.0
226866,-0.940,-0.503,-0.181,69.000,39.725,-166.267,39.0,109.0
226918,-1.703,0.615,0.016,137.802,-72.267,-146.015,44.0,125.0
226971,-1.987,2.000,-0.441,201.153,-128.786,-81.534,51.0,101.0
227023,-1.203,1.889,0.131,-49.313,-96.107,0.573,50.0,127.0
227080,0.056,0.659,0.525,12.183,-78.198,-21.237,51.0,0.0
227140,0.421,0.610,0.374,80.366,-56.031,-5.748,0.0,116.0
227206,0.925,0.367,0.259,-16.290,2.916,18.298,0.0,0.0
227270,0.842,0.320,0.182,-67.328,81.275,105.908,0.0,0.0
227330,0.539,0.638,0.049,-28.947,144.886,146.649,0.0,107.0
227389,-0.232,2.000,-0.753,-30.382,216.084,139.840,0.0,100.0
227451,-1.466,2.000,-0.641,-125.198,184.962,177.275,0.0,103.0
227504,-0.873,1.468,-0.597,-74.038,142.061,65.740,57.0,109.0
227564,-0.405,0.261,-0.097,-34.824,75.084,-19.107,0.0,116.0
227615,-0.698,-0.785,-0.328,-90.817,56.313,-42.466,40.0,119.0
227676,-0.529,-0.841,-0.174,-4.664,23.588,-85.611,0.0,119.0
227736,-0.805,-0.137,-0.137,115.855,-35.519,-167.137,0.0,110.0
227795,-1.415,2.000,-0.372,152.023,-87.870,-53.313,0.0,102.0
227855,-1.716,2.000,-0.539,97.321,-121.886,-21.496,0.0,101.0
227928,-0.357,1.120,0.125,-4.496,-113.130,4.092,0.0,108.0
227988,0.365,0.463,0.249,59.939,-125.435,-9.076,0.0,114.0
228048,0.830,-0.057,0.202,20.893,-70.886,-3.977,0.0,115.0
228108,1.003,-0.117,0.267,3.504,-7.290,7.840,0.0,111.0
228168,0.509,0.385,0.354,56.076,57.664,74.504,0.0,103.0
228228,-0.365,2.000,-0.566,91.260,157.137,108.824,0.0,99.0
228287,-1.776,2.000,-0.691,-143.382,205.634,126.893,0.0,103.0
228339,-0.674,1.047,-0.293,-70.649,124.840,14.397,58.0,110.0
228391,-0.211,0.113,-0.102,-57.489,70.176,-43.908,58.0,116.0
228446,-0.122,-0.821,-0.182,-87.886,65.191,-39.336,43.0,119.0
228506,-0.211,-0.680,-0.366,39.740,43.656,-81.901,0.0,117.0
228567,-0.904,-0.019,-0.396,60.863,2.405,-126.160,0.0,109.0
228626,-1.717,2.000,-0.505,141.405,-84.374,17.229,0.0,102.0
228686,-2.000,2.000,-0.018,57.473,-111.290,44.374,0.0,104.0
228747,-0.479,0.869,0.118,-46.947,-121.351,7.237,0.0,112.0
228807,0.429,0.381,0.055,99.008,-150.458,-14.611,0.0,116.0
228868,0.722,0.008,0.018,-16.305,-80.344,-26.275,0.0,116.0
228931,0.932,-0.375,0.210,23.137,-9.344,-23.244,0.0,115.0
228992,0.642,0.043,0.251,75.687,56.672,19.786,0.0,105.0
229051,0.688,2.000,0.138,58.885,141.191,124.275,0.0,96.0
229110,-1.907,2.000,-1.430,-63.939,240.901,188.969,0.0,97.0
229170,-1.050,1.202,-0.598,-110.664,187.557,115.427,0.0,106.0
229230,-0.387,0.384,-0.211,-34.244,127.389,27.069,0.0,114.0
229292,-0.399,-0.490,-0.235,-174.878,110.084,5.374,0.0,119.0
229343,-0.211,-0.961,-0.178,-12.206,15.267,-70.672,39.0,118.0
229403,-0.568,-0.386,-0.310,142.008,-29.908,-141.748,0.0,108.0
229466,-1.999,2.000,-0.547,153.542,-129.260,-40.496,0.0,98.0
229526,-1.960,2.000,-0.286,-18.221,-195.229,25.733,0.0,101.0
229586,-0.094,0.719,0.030,-72.534,-197.313,-76.603,0.0,108.0
229647,0.715,0.407,-0.290,32.099,-145.412,-101.221,0.0,116.0
229751,1.103,-0.261,0.180,77.275,12.855,-62.427,0.0,117.0
229812,0.824,0.310,0.294,67.504,36.321,-10.351,0.0,109.0
229871,0.271,1.173,0.392,55.687,63.122,104.481,0.0,99.0
229931,-0.031,2.000,-0.419,45.107,163.496,156.412,0.0,94.0
229993,-1.780,2.000,-0.560,-178.588,169.557,250.130,0.0,103.0
230045,-0.562,1.017,-0.314,-137.313,86.786,143.489,41.0,114.0
230096,-0.477,-0.232,-0.197,-88.130,51.740,64.870,37.0,123.0
230150,-0.481,-0.675,-0.428,-93.389,67.351,48.260,50.0,128.0
230202,-0.385,-0.448,-0.535,0.336,41.481,-94.290,36.0,128.0
230253,-0.535,-0.411,-0.395,90.412,33.832,-181.557,36.0,120.0
230304,-0.868,-0.321,-0.158,179.809,32.489,-205.244,48.0,108.0
230365,-2.000,2.000,-0.887,242.534,-141.863,-250.137,0.0,98.0
230417,-1.607,2.000,-0.342,-90.580,-104.099,-18.588,58.0,103.0
230480,0.159,0.368,-0.069,-24.664,-200.313,-69.076,0.0,109.0
230541,0.971,0.292,-0.181,108.511,-127.824,-38.397,0.0,113.0
230602,1.010,-0.143,0.058,12.603,-50.901,-20.595,0.0,115.0
230662,1.086,-0.218,0.240,15.443,-32.397,-24.641,0.0,106.0
230722,0.648,0.099,0.205,56.893,-7.618,8.153,0.0,100.0
230781,0.979,2.000,0.441,172.618,76.748,84.053,0.0,94.0
230841,-2.000,2.000,-1.453,-140.710,250.130,250.130,0.0,97.0
230893,-1.360,1.320,-0.557,-219.893,184.939,226.237,58.0,109.0
230948,-0.777,0.023,-0.397,-153.191,94.725,89.870,38.0,121.0
231001,-0.978,-1.037,-0.636,-199.359,76.183,50.710,44.0,127.0
231053,-0.512,-0.781,-0.535,60.573,14.053,-68.710,31.0,126.0
231104,-0.709,-0.091,-0.524,168.733,-37.282,-206.550,37.0,119.0
231164,-1.191,0.078,-0.061,163.038,-63.084,-250.137,0.0,106.0
231225,-2.000,2.000,-0.919,250.130,-219.321,-225.672,0.0,98.0
231285,-0.349,2.000,-0.116,-213.336,-139.855,-26.809,0.0,106.0
231347,0.895,0.236,0.281,109.122,-99.290,-57.031,0.0,114.0
231410,0.766,0.297,-0.049,-36.412,11.931,12.412,0.0,117.0
231472,0.964,-0.305,0.527,-0.870,37.023,66.794,0.0,114.0
231532,0.734,0.042,0.494,88.450,52.618,61.305,0.0,107.0
231591,0.151,2.000,0.121,-47.420,146.267,193.786,0.0,97.0
231652,-2.000,2.000,-1.780,-198.863,197.412,215.901,0.0,99.0
231712,-0.806,1.447,-0.605,-65.802,163.008,154.130,0.0,109.0
231774,-0.341,0.086,-0.214,-161.595,104.489,8.282,0.0,126.0
231835,-0.573,-1.284,-0.541,-119.076,81.130,1.252,0.0,124.0
231888,-0.449,-0.395,-0.636,145.122,22.153,-133.718,52.0,119.0
231944,-1.196,0.586,-0.362,136.947,-20.405,-165.817,58.0,109.0
232004,-1.325,2.000,-0.431,122.863,-103.069,-81.298,0.0,100.0
232065,-1.352,2.000,0.095,186.985,-169.466,-37.679,0.0,101.0
232125,-0.220,1.627,-0.165,-39.374,-140.962,-59.939,0.0,106.0
232186,0.232,0.525,0.175,-36.969,-144.527,-107.748,0.0,119.0
232248,0.285,-0.021,0.065,29.969,-98.237,-44.183,0.0,114.0
232308,0.688,0.151,0.052,6.534,-35.290,-2.603,0.0,112.0
232369,1.148,-0.052,0.166,-35.786,23.084,26.977,0.0,106.0
232432,1.000,0.439,0.340,99.115,71.366,113.015,0.0,96.0
232492,-2.000,2.000,-0.997,35.588,113.122,127.344,0.0,95.0
232544,-1.295,1.546,-0.237,-167.672,159.931,183.153,56.0,104.0
232597,-0.580,0.169,-0.089,-94.176,105.382,39.695,53.0,113.0
232692,-0.497,-0.428,-0.339,-87.366,71.771,-50.489,41.0,119.0
232754,-0.301,-0.561,-0.139,-7.908,49.267,-85.695,0.0,118.0
232807,-0.530,-0.183,-0.106,99.992,-6.710,-143.649,57.0,111.0
232866,-1.596,0.911,-0.066,157.824,-93.374,-58.733,0.0,101.0
232931,-2.000,2.000,-0.141,234.305,-150.313,-8.679,0.0,99.0
232991,-0.490,1.093,-0.019,-142.947,-82.901,-1.634,0.0,105.0
233052,0.293,0.152,0.240,-19.298,-118.359,-59.420,0.0,109.0
233113,0.760,0.201,0.186,31.557,-80.053,-18.779,0.0,111.0
233174,1.189,0.091,0.241,5.763,5.565,22.450,0.0,108.0
233234,0.875,0.598,0.270,17.031,82.237,103.038,0.0,100.0
233294,-0.874,2.000,-0.590,112.649,186.267,155.664,0.0,96.0
233347,-1.572,2.000,-0.430,-181.672,207.069,210.496,60.0,103.0
233398,-0.707,0.993,-0.114,-49.137,138.771,96.809,37.0,108.0
233462,-0.429,0.228,-0.160,-76.878,101.191,13.031,0.0,114.0
233524,-0.767,-1.132,-0.556,-159.473,57.542,-24.076,0.0,113.0
233584,-0.565,-0.643,-0.331,145.290,-9.794,-182.664,0.0,104.0
233651,-2.000,2.000,-0.680,250.130,-98.305,-139.977,0.0,92.0
233710,-1.545,2.000,-0.303,-41.176,-161.763,7.511,0.0,97.0
233769,0.146,0.593,0.200,-1.397,-162.588,-51.000,0.0,106.0
233830,0.881,0.559,0.059,88.489,-113.817,-63.656,0.0,114.0
233889,1.108,0.154,0.270,-77.618,-32.130,-5.275,0.0,114.0
233953,0.941,0.028,0.559,-28.053,24.313,63.321,0.0,114.0
234012,0.316,1.380,0.531,44.023,91.618,176.008,0.0,103.0
234072,-1.800,2.000,-0.933,-100.504,124.687,110.397,0.0,106.0
234123,-0.684,1.232,-0.171,-74.710,106.588,111.275,51.0,109.0
234174,-0.612,0.959,-0.170,-49.595,106.344,12.069,43.0,112.0
234225,-0.692,-0.180,-0.312,-159.702,121.718,-15.359,41.0,118.0
234276,-0.478,-1.006,-0.327,-136.924,81.519,-37.366,45.0,121.0
234337,-0.613,-0.660,-0.274,89.160,25.198,-154.107,0.0,112.0
234399,-1.520,0.406,-0.087,196.069,-84.099,-151.496,0.0,102.0
234459,-1.869,2.000,-0.291,250.130,-162.321,-89.740,0.0,99.0
234518,-0.544,1.672,-0.362,-63.908,-81.031,-0.092,0.0,105.0
234578,-0.040,0.656,0.093,22.611,-111.687,-35.916,0.0,110.0
234640,0.961,0.349,0.154,74.878,-82.145,3.878,0.0,132.0
234699,1.262,0.158,0.385,-44.466,-11.603,37.885,0.0,110.0
234759,0.571,0.500,0.685,48.084,73.565,92.145,0.0,102.0
234818,-0.377,2.000,-0.486,14.824,145.344,191.145,0.0,95.0
234869,-1.530,2.000,-0.845,-108.168,155.374,175.794,57.0,107.0
234933,-0.603,0.919,-0.413,-58.183,151.611,93.252,0.0,116.0
234993,-0.306,-0.584,-0.122,-78.779,135.206,-61.221,0.0,123.0
235054,-0.570,-1.129,-0.303,-51.962,127.252,-146.794,0.0,120.0
235107,-0.811,-0.439,-0.199,107.550,45.656,-238.802,53.0,123.0
235166,-2.000,1.234,-0.059,152.214,-97.023,-156.496,0.0,110.0
235227,-2.000,2.000,0.019,250.130,-136.489,-62.626,0.0,112.0
235287,-0.877,1.759,-0.328,15.962,-76.679,-4.450,0.0,112.0
235347,0.060,0.751,0.229,17.924,-115.840,-21.336,0.0,125.0
235412,0.884,0.204,0.316,60.519,-56.481,33.901,0.0,123.0
235472,1.405,0.046,0.385,-25.840,66.198,71.145,0.0,125.0
235533,0.787,-0.109,0.370,-9.802,136.336,60.092,0.0,110.0
235591,-0.038,2.000,-0.740,60.397,145.656,110.061,0.0,91.0
235695,-1.930,1.903,-1.004,-206.137,126.489,250.130,0.0,102.0
235755,-0.598,0.344,-0.386,-61.244,81.015,119.870,0.0,114.0
235807,-0.633,-0.995,-0.285,-120.099,78.603,-50.389,51.0,120.0
235868,-0.620,-1.267,-0.301,-19.824,82.328,-148.603,0.0,118.0
235928,-1.118,-0.293,-0.362,173.435,10.687,-250.137,0.0,109.0
235991,-2.000,0.844,-0.443,172.435,-111.840,-169.855,0.0,100.0
236051,-2.000,2.000,-0.690,232.664,-179.786,-66.679,0.0,113.0
236111,-0.359,1.481,-0.306,-9.489,-121.115,38.687,0.0,116.0
236172,0.303,0.677,0.190,30.710,-156.718,31.160,0.0,115.0
236232,0.889,-0.014,0.210,31.435,-103.038,58.863,0.0,114.0
236293,1.503,-0.036,0.380,-1.427,-12.374,59.206,0.0,112.0
236352,0.883,0.136,0.411,9.145,86.053,59.687,0.0,102.0
236410,-0.110,2.000,-0.417,130.595,148.412,180.626,0.0,70.0
236473,-1.893,2.000,-0.958,-218.305,217.191,250.130,0.0,98.0
236522,-0.936,1.071,-0.360,-47.198,135.687,106.023,58.0,57.0
236574,-0.398,-0.103,-0.089,0.221,108.183,-44.618,58.0,113.0
236635,-0.708,-0.800,-0.389,-63.282,123.771,-115.710,0.0,115.0
236695,-0.656,-0.795,-0.265,49.366,61.160,-238.542,0.0,110.0
236754,-1.453,-0.233,-0.472,130.931,-61.198,-250.137,0.0,103.0
236816,-2.000,2.000,-1.274,250.130,-175.069,-177.473,0.0,122.0
236877,-0.953,2.000,-0.379,26.695,-88.221,34.046,0.0,126.0
236944,0.344,0.553,0.225,22.954,-102.321,20.626,0.0,166.0
237004,0.733,0.125,0.263,65.886,-59.977,50.527,0.0,116.0
237065,1.191,0.014,0.310,1.214,-4.107,70.000,0.0,117.0
237125,0.950,-0.069,0.416,-18.519,51.511,30.489,0.0,104.0
237185,0.341,2.000,-0.235,142.908,120.794,179.191,0.0,93.0
237244,-1.606,2.000,-0.981,-209.901,201.267,250.130,0.0,95.0
237295,-1.520,1.861,-0.751,-143.435,142.855,200.275,58.0,104.0
237347,-0.443,0.220,-0.292,-67.756,107.603,38.542,51.0,114.0
237400,-0.448,-0.947,-0.304,-97.542,109.267,-79.786,38.0,119.0
237463,-0.438,-1.311,-0.428,32.389,98.763,-161.901,0.0,116.0
237523,-1.044,-0.303,-0.487,219.496,11.069,-250.137,0.0,107.0
237585,-2.000,0.760,-0.550,172.664,-93.603,-238.237,0.0,134.0
237648,-2.000,2.000,-0.477,250.130,-161.023,-41.481,0.0,149.0
237714,-0.222,1.703,-0.314,42.206,-117.137,50.115,0.0,0.0
237779,0.598,0.412,0.229,24.779,-126.252,54.321,0.0,0.0
237840,1.306,-0.188,0.242,-8.672,-55.763,76.733,0.0,117.0
237900,1.249,-0.080,0.301,4.992,19.321,51.962,0.0,111.0
237963,0.641,0.702,0.564,78.435,83.405,115.076,0.0,96.0
238022,-1.041,2.000,-1.614,-76.649,213.557,250.130,0.0,91.0
238083,-2.000,2.000,-0.567,-205.611,139.565,250.130,0.0,102.0
238140,-0.381,0.175,-0.203,3.015,84.863,91.359,0.0,58.0
238200,-0.472,-0.925,-0.219,-41.435,120.527,-98.397,0.0,117.0
238261,-0.709,-1.063,-0.390,35.359,119.511,-250.137,195.0,113.0
238321,-1.528,-0.302,-0.533,158.038,24.679,-250.137,0.0,103.0
238383,-2.000,2.000,-0.376,188.221,-90.092,-232.359,0.0,111.0
238444,-1.932,2.000,-0.037,105.977,-130.298,-28.115,0.0,129.0
238510,-0.141,1.203,0.150,43.557,-133.878,23.603,0.0,133.0
238570,0.748,0.620,0.297,32.992,-124.931,69.702,0.0,118.0
238630,1.265,0.322,0.339,-92.679,-84.817,114.802,0.0,110.0
