Timestamp(ms),AccelX(g),AccelY(g),AccelZ(g),GyroX(deg/s),GyroY(deg/s),GyroZ(deg/s),DistanceLeft(cm),DistanceRight(cm)
275244,-0.610,-0.631,-0.126,-215.840,94.328,-61.321,0.0,113.0
275304,-0.445,-0.850,0.093,-73.260,36.771,-107.771,0.0,111.0
275364,-0.983,0.168,0.051,83.511,-49.794,-150.725,0.0,103.0
275424,-2.000,2.000,-0.117,225.267,-121.878,-111.420,0.0,98.0
275484,-0.715,2.000,-0.295,39.244,-51.588,29.855,0.0,109.0
275548,-0.111,1.120,0.122,-85.908,-32.092,-9.214,0.0,112.0
275608,0.252,0.532,0.271,32.931,-7.412,10.695,0.0,116.0
275670,0.645,0.373,0.231,-35.771,67.099,55.527,0.0,117.0
275730,0.638,0.124,0.202,-124.427,129.198,70.321,0.0,115.0
275790,0.630,0.491,0.188,-81.099,170.840,65.344,0.0,112.0
275850,-0.796,2.000,-1.307,73.931,198.802,69.122,0.0,103.0
275910,-1.160,2.000,-1.473,-137.290,203.870,181.366,0.0,105.0
275971,-0.779,0.987,-0.786,-90.542,192.443,96.863,0.0,111.0
276034,-0.748,-0.161,-0.349,-133.511,184.031,-43.160,0.0,116.0
276096,-0.733,-0.904,-0.221,-140.397,138.305,-92.618,0.0,118.0
276156,-0.588,-0.648,0.026,36.664,28.908,-153.176,0.0,113.0
276218,-1.218,0.377,-0.049,163.145,-84.725,-161.588,0.0,129.0
276279,-2.000,2.000,-0.335,250.130,-123.031,-28.496,0.0,112.0
276339,-0.682,1.861,-0.261,-83.107,-20.885,50.527,0.0,114.0
276401,-0.049,0.559,0.191,-92.008,-21.115,6.176,0.0,128.0
276463,0.422,0.199,0.313,6.802,19.046,23.947,0.0,132.0
276524,0.724,0.140,0.281,-70.290,112.267,56.504,0.0,123.0
276588,0.707,0.117,0.155,-129.397,172.008,52.069,0.0,121.0
276648,0.397,2.000,-0.327,-50.061,181.237,49.832,0.0,109.0
276708,-0.885,2.000,-1.919,-170.206,164.641,235.809,0.0,100.0
276760,-1.417,1.515,-0.747,-74.992,119.908,250.130,51.0,107.0
276812,-1.037,0.456,-0.616,-38.656,142.985,134.092,51.0,115.0
276873,-1.020,-0.653,-0.338,-91.748,143.008,-73.244,0.0,115.0
276934,-0.675,-1.053,-0.144,2.130,84.313,-206.450,0.0,114.0
276995,-0.862,-0.211,-0.169,145.229,-3.206,-250.137,0.0,112.0
277061,-2.000,2.000,-0.146,250.130,-136.542,-194.954,0.0,144.0
277125,-1.341,2.000,-0.604,168.924,-123.634,32.832,0.0,157.0
277186,-0.099,1.060,0.088,-45.771,-65.794,10.305,0.0,126.0
277252,0.228,0.513,0.273,38.641,-36.924,9.015,0.0,0.0
277314,0.614,0.285,0.304,8.611,25.977,27.458,0.0,146.0
277376,0.542,0.042,0.428,-35.137,79.267,64.092,0.0,120.0
277436,0.265,0.850,0.168,-46.145,117.298,91.435,0.0,109.0
277506,-1.565,2.000,-1.422,-155.611,168.145,165.550,0.0,103.0
277568,-1.191,1.325,-0.561,-152.153,108.153,165.527,0.0,105.0
277627,-0.508,0.755,-0.440,-26.298,148.374,68.664,0.0,116.0
277688,-0.361,-0.261,-0.197,-85.924,153.115,-42.847,0.0,119.0
277748,-0.473,-1.000,-0.321,-71.840,99.321,-75.832,0.0,118.0
277809,-0.461,-0.515,-0.357,115.794,-10.565,-140.771,0.0,112.0
277869,-1.257,0.108,-0.536,133.756,-103.130,-195.916,0.0,121.0
277931,-2.000,2.000,-0.658,193.771,-168.359,-132.847,0.0,124.0
277995,-0.820,1.852,-0.161,122.290,-59.481,62.420,0.0,0.0
278056,0.198,0.769,0.164,-23.351,-51.519,62.122,0.0,133.0
278120,0.693,0.173,0.360,-29.130,-22.534,56.969,0.0,120.0
278180,0.759,-0.094,0.393,-70.771,18.641,76.061,0.0,121.0
278240,0.937,-0.101,0.465,-27.405,94.191,51.855,0.0,109.0
278342,-2.000,2.000,-2.000,-250.137,188.771,182.740,0.0,96.0
278393,-1.218,0.814,-0.443,-93.817,69.893,179.985,39.0,104.0
278444,-0.635,0.452,-0.618,19.779,75.267,52.794,39.0,111.0
278495,-0.476,-0.416,-0.218,-18.176,66.191,-97.412,37.0,113.0
278545,-0.477,-0.880,-0.239,-42.885,67.748,-150.534,37.0,114.0
278599,-0.492,-0.437,-0.126,47.664,32.405,-211.649,45.0,112.0
278661,-1.311,-0.119,-0.388,65.679,-48.931,-234.382,0.0,132.0
278721,-2.000,2.000,-0.599,250.130,-121.763,-87.168,0.0,115.0
278784,-1.032,2.000,-0.426,18.809,-86.695,66.275,0.0,156.0
278844,-0.085,0.774,0.138,-11.214,-83.489,51.290,0.0,127.0
278905,0.456,0.490,0.289,22.214,-35.237,76.824,0.0,121.0
278966,0.626,0.085,0.283,-51.595,36.756,107.511,0.0,132.0
279026,0.681,-0.294,0.365,-80.313,109.504,140.924,0.0,114.0
279080,0.880,-0.003,0.424,13.687,181.168,67.389,52.0,105.0
279131,-1.278,2.000,-0.911,123.756,185.756,12.435,44.0,97.0
279181,-1.397,2.000,-1.132,-223.153,98.237,173.527,41.0,99.0
279231,-0.449,0.815,-0.453,-20.542,79.198,135.763,37.0,105.0
279282,-0.272,0.315,-0.469,9.389,77.886,16.855,36.0,110.0
279332,-0.429,-0.576,-0.301,-12.931,93.886,-79.092,38.0,113.0
279384,-0.356,-0.827,-0.269,-10.702,82.168,-141.817,36.0,111.0
279434,-0.598,-0.447,-0.159,48.115,33.405,-243.489,37.0,105.0
279494,-1.124,0.045,-0.050,62.901,-49.076,-250.137,0.0,111.0
279563,-2.000,2.000,-1.668,250.130,-183.038,66.000,0.0,0.0
279623,-0.542,1.118,-0.507,-93.206,-112.511,121.740,0.0,114.0
279685,0.535,-0.093,0.128,32.840,-99.336,26.863,0.0,137.0
279747,0.799,0.097,0.184,103.916,-4.863,3.405,0.0,143.0
279806,0.635,0.078,0.318,-35.557,33.206,22.832,0.0,112.0
279867,0.712,0.016,0.415,4.878,79.046,21.969,0.0,102.0
279925,-0.737,2.000,-0.862,88.160,150.351,71.618,0.0,92.0
279985,-2.000,2.000,-1.477,-183.046,188.969,250.130,0.0,95.0
280048,-0.873,1.085,-0.834,-120.298,137.183,170.046,0.0,105.0
280109,-0.538,-0.191,-0.277,-113.847,144.000,5.076,0.0,113.0
280169,-0.593,-0.891,-0.311,-78.481,137.504,-70.221,0.0,116.0
280229,-0.613,-0.761,-0.403,106.878,42.153,-174.496,0.0,110.0
280289,-1.094,-0.088,-0.479,171.344,-88.397,-250.137,0.0,102.0
280349,-2.000,2.000,-0.895,188.473,-185.168,-206.366,0.0,114.0
280415,-0.684,2.000,-0.306,48.565,-97.466,71.229,0.0,0.0
280475,0.264,0.563,0.133,42.405,-119.336,53.252,0.0,114.0
280537,0.750,0.066,0.415,76.588,-90.221,27.718,0.0,118.0
280600,0.658,-0.094,0.340,-13.649,-22.458,48.099,0.0,115.0
280659,0.982,-0.142,0.480,-29.481,55.145,42.137,0.0,107.0
280719,0.288,1.723,0.468,179.137,130.542,59.870,0.0,95.0
280778,-0.938,2.000,-1.767,-146.412,190.153,248.237,0.0,94.0
280839,-0.988,1.329,-0.459,-156.160,77.443,200.084,0.0,103.0
280890,-0.521,0.593,-0.419,11.786,94.489,71.489,46.0,110.0
280950,-0.549,-0.594,-0.280,-40.611,114.573,-25.611,0.0,115.0
281012,-0.655,-1.098,-0.467,-1.275,96.595,-168.992,0.0,112.0
281074,-1.006,-0.300,-0.375,110.863,-6.962,-250.137,0.0,104.0
281135,-2.000,2.000,-0.417,237.580,-164.412,-196.092,0.0,97.0
281200,-0.994,2.000,-0.664,192.756,-149.084,48.534,0.0,0.0
281304,0.447,0.326,0.246,3.267,-112.191,18.603,0.0,113.0
281364,0.832,-0.036,0.235,17.817,-57.618,40.313,0.0,115.0
281425,1.024,-0.146,0.306,-47.840,17.046,51.893,0.0,112.0
281485,0.721,0.086,0.419,-33.450,89.397,50.153,0.0,104.0
281544,-0.427,2.000,0.087,89.916,117.321,127.221,0.0,95.0
281605,-1.265,2.000,-1.010,-201.550,152.786,237.656,0.0,100.0
281659,-0.615,0.805,-0.088,-74.084,98.550,114.008,43.0,108.0
281710,-0.442,0.101,-0.179,46.107,108.580,20.176,38.0,114.0
281761,-0.567,-0.393,-0.364,-6.260,124.015,-33.237,40.0,111.0
281812,-0.687,-0.786,-0.475,-34.931,68.511,-75.664,39.0,107.0
281864,-0.821,-0.347,-0.365,143.252,-24.046,-226.382,42.0,108.0
281923,-1.998,1.275,-0.681,144.061,-120.924,-204.954,0.0,99.0
281984,-1.776,2.000,-0.056,137.679,-175.382,-88.038,0.0,99.0
282044,-0.227,1.759,-0.216,108.817,-137.794,-7.038,0.0,106.0
282107,0.569,0.747,0.090,32.137,-141.443,-5.374,0.0,113.0
282169,0.880,0.147,0.222,3.435,-69.886,15.840,0.0,115.0
282229,1.104,-0.204,0.426,-68.160,17.084,56.267,0.0,111.0
282289,0.850,0.118,0.568,16.183,106.489,43.282,0.0,102.0
282349,-0.270,2.000,-0.390,41.450,162.359,137.725,0.0,94.0
282408,-1.449,2.000,-0.817,-250.137,183.145,230.237,0.0,98.0
282469,-0.995,1.042,-0.415,-23.878,56.176,120.603,0.0,107.0
282530,-0.372,0.193,-0.378,17.763,72.031,9.733,0.0,115.0
282585,-0.583,-0.828,-0.469,-78.725,73.679,-87.252,37.0,117.0
282645,-0.488,-0.904,-0.386,57.061,31.901,-147.672,0.0,112.0
282705,-0.964,-0.005,-0.402,172.626,-46.046,-250.137,0.0,103.0
282766,-2.000,2.000,-0.730,154.947,-140.519,-169.130,0.0,98.0
282826,-0.955,2.000,-0.124,95.183,-130.771,16.542,0.0,103.0
282887,-0.125,1.195,0.074,38.832,-135.458,15.817,0.0,109.0
282947,0.579,0.471,0.275,46.542,-121.237,9.153,0.0,115.0
283009,0.851,-0.011,0.237,-8.107,-31.786,44.947,0.0,115.0
283069,0.990,-0.175,0.302,-35.282,52.939,59.695,0.0,111.0
283132,0.448,0.738,0.348,32.908,134.191,82.145,0.0,100.0
283192,-0.702,2.000,-0.768,-12.595,190.481,169.458,0.0,95.0
283244,-1.324,1.957,-0.580,-182.435,98.267,166.832,58.0,101.0
283296,-0.643,0.789,-0.280,14.031,93.771,82.038,52.0,108.0
283348,-0.639,0.026,-0.372,-29.328,103.916,-22.382,51.0,114.0
283401,-0.560,-0.960,-0.465,-104.092,103.313,-81.779,51.0,116.0
283462,-0.401,-0.778,-0.311,66.084,24.023,-169.817,0.0,111.0
283523,-1.322,-0.062,-0.670,154.977,-104.687,-248.244,0.0,103.0
283586,-2.000,2.000,-0.640,205.870,-250.137,-132.878,0.0,101.0
283646,-0.365,2.000,-0.213,112.481,-126.573,22.748,0.0,106.0
283713,0.237,0.874,0.128,-8.519,-110.710,15.053,0.0,0.0
283773,0.665,0.077,0.288,48.847,-84.931,28.366,0.0,117.0
283835,0.888,-0.055,0.257,24.183,-10.733,46.053,0.0,115.0
283895,0.768,-0.019,0.278,-0.267,82.832,35.366,0.0,107.0
283956,0.370,2.000,-0.072,88.634,165.702,119.053,0.0,98.0
284015,-1.346,2.000,-1.471,-140.794,201.886,173.908,0.0,97.0
284077,-0.779,1.438,-0.479,-42.053,130.664,112.084,0.0,105.0
284141,-0.558,0.597,-0.431,-39.252,144.763,6.656,0.0,114.0
284201,-0.513,-0.805,-0.414,-129.275,156.427,-51.076,0.0,118.0
284306,-0.769,-0.478,-0.418,154.229,-17.939,-227.336,0.0,107.0
284366,-2.000,2.000,-0.314,121.588,-162.542,-136.008,0.0,99.0
284427,-1.571,2.000,-0.146,176.672,-224.748,-10.634,0.0,99.0
284487,-0.404,1.772,-0.297,75.802,-146.992,45.153,0.0,105.0
284549,0.200,0.797,0.017,-21.061,-141.099,22.366,0.0,114.0
284602,0.786,-0.050,0.209,34.122,-95.000,30.504,58.0,115.0
284666,0.942,-0.142,0.250,8.901,-21.618,62.931,0.0,113.0
284727,0.924,-0.022,0.340,0.137,73.901,31.290,0.0,106.0
284778,0.077,2.000,0.010,142.511,159.656,73.466,51.0,97.0
284830,-1.794,2.000,-1.425,-190.137,175.756,171.305,58.0,96.0
284881,-0.973,1.207,-0.073,-194.802,96.595,123.969,44.0,103.0
284934,-0.313,0.548,-0.138,-1.130,106.405,65.168,37.0,110.0
284985,-0.330,-0.135,-0.353,23.130,123.954,-7.855,37.0,115.0
285037,-0.619,-0.846,-0.693,-78.298,102.855,-13.244,37.0,116.0
285096,-0.810,-0.410,-0.501,111.366,-21.595,-196.221,39.0,111.0
285148,-1.263,0.377,-0.372,53.763,-111.565,-231.420,44.0,105.0
285207,-2.000,2.000,0.374,112.565,-167.863,-122.420,0.0,102.0
285266,-0.652,1.844,-0.018,122.740,-123.420,27.206,0.0,106.0
285327,0.135,0.890,-0.088,5.771,-123.092,-6.550,0.0,112.0
285391,0.621,0.244,0.147,35.496,-92.221,-22.107,0.0,0.0
285452,0.821,0.077,0.260,-1.695,-12.008,24.176,0.0,115.0
285511,0.977,0.048,0.337,-20.069,55.840,62.557,0.0,109.0
285571,0.380,1.183,0.189,30.069,115.191,134.481,0.0,99.0
285632,-1.146,2.000,-1.277,36.168,194.359,210.550,0.0,97.0
285683,-1.166,1.648,-0.571,-154.771,182.481,165.458,51.0,104.0
285734,-0.585,0.580,-0.291,-27.115,163.489,48.489,47.0,111.0
285786,-0.454,-0.082,-0.205,2.626,141.328,-52.893,51.0,116.0
285846,-0.527,-0.727,-0.281,-45.412,122.832,-53.756,0.0,117.0
285906,-0.396,-0.647,-0.324,40.084,35.221,-108.840,0.0,111.0
285966,-1.103,-0.137,-0.449,135.687,-91.840,-226.603,0.0,101.0
286025,-2.000,2.000,-0.954,206.458,-208.771,-127.718,0.0,96.0
286088,-0.650,2.000,-0.300,49.061,-145.145,29.305,0.0,102.0
286148,0.108,0.948,0.098,-19.168,-145.702,-7.374,0.0,109.0
286208,0.710,0.329,0.208,62.137,-106.313,-17.611,0.0,113.0
286268,0.836,0.024,0.196,-19.618,-14.962,36.420,0.0,113.0
286328,0.830,-0.058,0.352,-51.687,65.908,43.137,0.0,109.0
286387,0.389,0.700,0.437,5.344,127.092,81.031,0.0,98.0
286446,-0.250,2.000,-0.355,54.046,170.015,159.626,0.0,94.0
286505,-1.055,2.000,-1.096,-134.176,169.275,163.061,0.0,99.0
286565,-0.318,0.976,-0.830,17.420,234.779,69.031,0.0,107.0
286628,-0.434,-0.198,-0.476,-94.038,244.397,-53.145,0.0,108.0
286689,-0.735,-1.079,-0.411,-92.389,161.886,-77.374,0.0,112.0
286748,-0.658,-0.557,-0.306,131.366,7.656,-167.527,0.0,105.0
286808,-1.944,0.513,-0.718,250.130,-167.908,-184.992,0.0,95.0
286867,-2.000,2.000,-1.254,85.618,-211.351,-28.427,0.0,94.0
286926,-0.663,1.120,-0.210,-40.511,-174.412,12.794,0.0,102.0
286987,0.380,0.560,0.149,166.939,-182.382,-21.466,0.0,108.0
287047,0.756,0.329,0.200,172.809,-84.481,11.198,0.0,111.0
287110,0.876,0.205,0.286,-53.695,-11.061,47.924,0.0,109.0
287170,0.779,0.199,0.451,-59.092,43.748,29.328,0.0,102.0
287272,-1.063,2.000,-1.155,-77.527,155.771,194.298,0.0,94.0
287324,-1.221,1.428,-0.511,-182.687,85.321,118.389,51.0,100.0
287375,-0.659,0.640,-0.242,-27.863,76.076,55.328,47.0,107.0
287426,-0.634,-0.220,-0.260,-17.183,62.076,-16.206,44.0,112.0
287477,-0.449,-0.831,-0.400,-51.672,63.221,-63.046,46.0,113.0
287528,-0.310,-0.664,-0.269,52.634,17.191,-160.015,46.0,110.0
287591,-1.048,-0.038,-0.447,119.076,-60.389,-243.214,0.0,101.0
287656,-2.000,2.000,-0.658,245.092,-165.000,-115.099,0.0,0.0
287717,-0.589,1.993,-0.185,33.832,-109.107,66.069,0.0,103.0
287776,0.115,0.708,0.180,-33.924,-100.176,24.389,0.0,109.0
287837,0.642,0.108,0.355,37.901,-59.023,16.702,0.0,113.0
287897,0.696,-0.073,0.247,8.908,9.000,45.046,0.0,111.0
287958,0.725,0.010,0.331,-18.145,81.435,34.832,0.0,105.0
288017,0.250,1.349,0.412,27.977,145.130,61.458,0.0,95.0
288075,-1.290,2.000,-1.100,-54.794,156.748,150.832,0.0,93.0
288139,-0.981,1.355,-0.392,-174.565,62.687,131.748,0.0,101.0
288190,-0.448,0.593,-0.305,-8.130,54.298,43.336,43.0,108.0
288241,-0.585,-0.219,-0.420,-26.198,67.992,-4.672,39.0,113.0
288292,-0.496,-0.823,-0.502,-89.069,55.740,-30.977,37.0,114.0
288344,-0.489,-0.673,-0.380,60.687,-5.061,-154.305,39.0,111.0
288403,-1.077,-0.127,-0.379,141.038,-74.229,-244.702,0.0,101.0
288462,-2.000,2.000,-0.753,180.855,-199.534,-120.374,0.0,97.0
288523,-0.480,2.000,-0.090,117.084,-156.069,2.115,0.0,102.0
288586,0.269,1.069,0.050,27.061,-146.740,-5.618,0.0,109.0
288647,0.752,0.271,0.209,27.641,-113.336,9.611,0.0,114.0
288707,0.836,-0.063,0.183,-8.580,-32.321,38.305,0.0,112.0
288768,0.931,-0.054,0.335,-7.565,48.870,29.382,0.0,105.0
288819,0.137,1.775,0.202,86.466,138.649,65.145,58.0,97.0
288878,-1.444,2.000,-1.469,79.870,203.649,142.588,0.0,93.0
288929,-1.222,1.846,-0.774,-186.206,191.908,129.992,58.0,99.0
288980,-0.624,0.732,-0.337,-83.855,154.649,27.664,40.0,105.0
289032,-0.445,-0.122,-0.169,-37.565,130.786,-46.176,37.0,110.0
289086,-0.657,-1.047,-0.405,-70.718,104.603,-35.053,37.0,113.0
289137,-0.346,-0.708,-0.300,62.893,20.542,-127.458,40.0,110.0
289197,-1.017,-0.223,-0.469,134.084,-87.023,-242.763,0.0,102.0
289263,-2.000,2.000,-0.819,250.130,-200.321,-165.565,0.0,0.0
289329,-0.824,1.985,-0.499,95.229,-142.420,53.206,0.0,0.0
289389,0.126,0.806,-0.021,19.420,-137.649,28.031,0.0,112.0
289451,0.671,0.221,0.191,77.779,-106.863,21.084,0.0,129.0
289511,0.792,0.075,0.168,18.092,-23.794,52.885,0.0,115.0
289574,0.814,0.048,0.331,-26.695,47.893,48.489,0.0,107.0
289635,0.488,1.176,0.578,63.130,126.275,96.527,0.0,97.0
289694,-0.870,2.000,-1.510,-91.687,224.985,250.130,0.0,95.0
289755,-1.414,1.515,-0.464,-204.420,137.550,249.664,0.0,106.0
289815,-0.356,0.257,-0.151,-10.954,132.748,61.069,0.0,115.0
289867,-0.404,-0.536,-0.250,32.580,151.290,-73.511,38.0,115.0
289928,-0.845,-0.780,-0.706,-25.847,129.069,-143.748,0.0,107.0
289988,-0.722,-0.352,-0.639,71.802,9.756,-250.137,0.0,108.0
290052,-2.000,1.298,-0.495,146.550,-95.794,-250.137,0.0,99.0
290112,-2.000,2.000,-0.528,193.687,-97.298,-14.962,0.0,116.0
290217,0.116,0.805,0.244,66.908,-144.397,26.176,0.0,125.0
290283,0.693,0.337,0.378,100.809,-85.420,15.885,0.0,0.0
290343,0.743,0.103,0.281,-25.321,5.603,52.481,0.0,113.0
290404,0.625,0.097,0.404,-66.519,63.679,50.763,0.0,106.0
290463,0.331,0.937,0.498,5.817,113.550,134.954,0.0,96.0
290524,-0.318,2.000,-0.898,55.687,186.466,198.458,0.0,91.0
290583,-1.650,2.000,-1.180,-250.137,122.473,221.863,0.0,100.0
290636,-0.457,0.529,-0.491,26.412,78.008,131.313,51.0,57.0
290688,-0.674,-0.185,-0.511,-2.099,81.542,7.244,37.0,114.0
290739,-0.760,-0.951,-0.551,-81.611,84.557,-92.405,35.0,119.0
290791,-0.537,-0.861,-0.321,47.664,31.519,-223.901,51.0,114.0
290851,-1.135,-0.229,-0.378,172.427,-43.702,-250.137,0.0,103.0
290912,-2.000,2.000,-1.197,216.389,-157.214,-221.786,0.0,99.0
290972,-0.873,2.000,-0.244,96.366,-141.870,-7.664,0.0,107.0
291033,-0.059,1.241,0.097,38.863,-137.130,20.771,0.0,107.0
291097,0.424,0.516,0.257,29.802,-128.802,7.832,0.0,115.0
291159,0.758,-0.100,0.285,-8.260,-47.038,46.656,0.0,114.0
291219,1.016,-0.153,0.333,-12.710,31.863,62.840,0.0,109.0
291279,0.624,0.252,0.355,7.107,108.160,41.176,0.0,98.0
291339,-1.549,2.000,-0.472,-31.489,131.282,127.733,0.0,91.0
291398,-1.585,2.000,-0.327,-205.527,107.702,209.519,0.0,96.0
291460,-0.604,1.047,-0.203,-19.527,56.137,67.282,0.0,106.0
291511,-0.562,-0.021,-0.431,-6.229,79.878,-27.733,39.0,112.0
291563,-0.359,-1.156,-0.431,-70.122,58.847,-78.977,36.0,115.0
291617,-0.276,-0.970,-0.322,118.679,5.893,-202.519,39.0,111.0
291678,-1.105,-0.075,-0.357,181.519,-59.908,-250.137,0.0,103.0
291744,-2.000,2.000,-0.290,151.847,-117.565,-192.038,0.0,0.0
291810,-1.505,2.000,-0.234,124.756,-92.298,45.412,0.0,0.0
291876,-0.045,1.193,0.137,36.916,-123.344,74.595,0.0,0.0
291938,0.557,0.346,0.358,2.000,-103.748,69.298,0.0,114.0
291998,0.841,-0.218,0.343,-22.977,-40.756,95.313,0.0,114.0
292059,1.049,-0.108,0.406,12.702,42.321,69.679,0.0,108.0
292122,0.457,0.423,0.688,72.595,135.863,72.939,0.0,96.0
292183,-1.437,2.000,-1.334,-63.649,218.321,192.473,0.0,94.0
292235,-1.385,1.502,-0.426,-170.672,125.710,197.489,58.0,102.0
292287,-0.344,0.428,-0.329,6.305,103.389,82.527,39.0,111.0
292338,-0.414,-0.236,-0.355,7.137,97.053,-31.305,35.0,117.0
292390,-0.718,-0.933,-0.486,-74.695,93.779,-56.359,35.0,118.0
292442,-0.402,-0.849,-0.302,55.527,15.595,-151.405,37.0,114.0
292503,-0.807,-0.206,-0.298,170.595,-59.649,-250.137,0.0,104.0
292563,-2.000,2.000,-0.561,224.931,-133.954,-185.198,0.0,97.0
292632,-1.037,2.000,-0.338,85.924,-107.626,37.885,0.0,99.0
292691,-0.082,1.120,0.054,9.107,-113.305,39.550,0.0,105.0
292751,0.302,0.545,0.222,36.237,-121.198,5.702,0.0,111.0
292811,0.646,0.074,0.313,12.534,-60.802,25.351,0.0,113.0
292871,0.879,-0.067,0.360,-47.260,19.115,40.924,0.0,109.0
292930,0.715,-0.031,0.428,-2.084,99.176,15.725,0.0,101.0
292988,-0.325,2.000,-0.437,128.374,160.771,98.802,0.0,93.0
293048,-1.963,2.000,-1.373,-250.137,160.573,231.740,0.0,97.0
293110,-0.545,0.793,-0.335,-34.847,81.550,140.916,53.0,108.0
293215,-0.509,-0.812,-0.434,-58.771,118.802,-63.695,0.0,118.0
293274,-0.451,-0.961,-0.449,57.504,90.153,-162.511,0.0,113.0
293335,-1.095,-0.171,-0.476,149.901,-13.435,-250.137,0.0,104.0
293399,-2.000,2.000,-0.300,189.115,-132.748,-220.137,0.0,0.0
293465,-1.154,2.000,-0.403,115.832,-94.542,51.450,0.0,0.0
293525,-0.063,1.014,0.006,47.847,-130.748,32.237,0.0,110.0
293585,0.533,0.474,0.289,76.557,-115.053,1.130,0.0,117.0
293650,0.640,0.115,0.275,-17.023,-23.641,50.939,0.0,0.0
293719,0.933,-0.043,0.484,-85.321,54.137,47.527,0.0,0.0
293777,0.480,0.278,0.615,4.466,116.985,83.664,0.0,99.0
293836,-0.420,2.000,-1.232,1.374,172.221,194.313,0.0,93.0
293886,-2.000,2.000,-0.671,-250.137,125.145,250.130,36.0,100.0
293946,-0.719,0.888,-0.630,19.771,93.168,195.107,0.0,111.0
293995,-0.584,-0.737,-0.440,-21.000,90.908,-29.779,36.0,79.0
294044,-0.667,-1.316,-0.439,30.634,71.153,-135.405,35.0,80.0
294094,-0.533,-0.759,-0.424,180.702,21.840,-241.542,40.0,110.0
294157,-0.919,0.084,-0.387,208.069,-52.611,-250.137,0.0,100.0
294216,-2.000,2.000,-1.622,165.290,-108.931,-158.000,0.0,97.0
294278,-1.488,1.791,-0.302,112.534,-109.931,108.237,0.0,116.0
294337,0.127,0.960,0.014,83.634,-140.786,54.527,0.0,107.0
294397,0.716,0.364,0.282,55.130,-130.420,3.618,0.0,114.0
294458,0.951,-0.094,0.273,0.855,-42.695,26.931,0.0,113.0
294518,0.926,0.077,0.384,-25.321,41.527,3.450,0.0,112.0
294577,0.134,0.373,0.428,-9.130,108.847,31.229,0.0,97.0
294636,-1.386,2.000,-1.082,10.321,191.466,154.519,0.0,90.0
294699,-1.902,1.654,-0.539,-250.137,60.962,167.710,0.0,97.0
294749,-0.540,0.631,-0.312,14.969,20.374,89.649,39.0,105.0
294809,-0.348,-0.145,-0.401,-40.023,45.427,9.779,0.0,111.0
294860,-0.276,-0.993,-0.509,-97.198,102.076,-70.985,39.0,112.0
294912,-0.431,-0.693,-0.493,44.061,72.611,-150.962,41.0,108.0
294971,-1.076,-0.176,-0.368,129.290,11.840,-234.344,0.0,99.0
295030,-2.000,2.000,-0.825,250.130,-126.313,-99.290,0.0,94.0
295090,-1.143,2.000,-0.116,64.153,-124.725,49.221,0.0,99.0
295152,0.315,0.834,0.131,17.908,-137.298,-1.267,0.0,105.0
295213,0.562,0.247,0.141,93.458,-102.550,25.931,0.0,109.0
295273,0.814,0.114,0.224,25.618,-38.893,91.542,0.0,108.0
295332,0.500,0.096,0.346,-32.450,6.603,49.336,0.0,102.0
295392,-0.104,0.663,0.655,-10.237,30.802,80.137,0.0,93.0
295451,-1.280,2.000,-0.331,195.336,30.863,171.588,0.0,89.0
295501,-0.968,2.000,-0.383,-230.191,91.656,151.382,49.0,94.0
295552,-0.394,1.020,0.092,-107.573,97.099,95.015,38.0,103.0
295603,-0.167,0.075,0.000,-48.427,124.115,58.763,38.0,110.0
295657,-0.789,-0.669,-0.583,-93.878,113.130,18.863,35.0,113.0
295708,-0.713,-0.883,-0.554,-5.053,20.649,-85.122,38.0,112.0
295758,-1.187,-0.260,-0.464,163.160,-71.122,-232.435,41.0,103.0
295818,-1.868,2.000,0.062,194.359,-149.153,-177.809,0.0,94.0
295878,-1.314,2.000,-0.481,193.198,-138.305,-20.695,0.0,96.0
295929,-0.356,1.423,-0.179,-51.725,-152.656,-26.466,57.0,100.0
295990,0.227,0.603,0.122,83.214,-178.053,-42.244,0.0,106.0
296050,0.573,0.148,0.016,132.412,-130.473,-2.336,0.0,110.0
296157,0.861,-0.040,0.353,9.260,-5.527,-4.954,0.0,103.0
296216,0.344,0.642,0.549,69.420,65.122,30.107,0.0,93.0
296274,-1.442,2.000,-0.711,13.504,152.031,143.618,0.0,89.0
296326,-1.741,2.000,-0.590,-242.908,130.168,180.000,51.0,101.0
296377,-0.726,0.689,-0.165,-90.206,69.389,88.565,39.0,105.0
296428,-0.607,-0.021,-0.314,-38.313,37.916,4.824,37.0,112.0
296479,-0.616,-0.870,-0.496,-122.656,42.382,-30.298,37.0,117.0
296530,-0.258,-0.884,-0.235,21.450,-0.855,-131.496,37.0,115.0
296585,-0.589,-0.277,-0.251,131.992,-60.786,-231.359,43.0,107.0
296645,-1.880,1.228,-0.208,142.710,-131.656,-171.855,0.0,98.0
296705,-1.760,2.000,-0.292,207.206,-127.718,-13.008,0.0,98.0
296765,-0.728,1.364,-0.018,-47.206,-78.481,29.771,0.0,103.0
296825,-0.018,0.393,0.292,10.489,-112.145,-27.382,0.0,109.0
296879,0.490,0.071,0.204,93.687,-91.489,-26.740,60.0,115.0
296939,0.754,0.080,0.208,47.374,-41.756,4.130,0.0,109.0
296998,0.689,0.241,0.266,8.511,21.618,-3.244,0.0,105.0
297058,0.046,1.056,0.386,14.153,74.244,56.244,0.0,95.0
297121,-2.000,2.000,-1.049,-25.626,138.191,133.031,0.0,91.0
297181,-1.531,1.516,-0.342,-150.618,78.427,158.580,0.0,98.0
297232,-0.559,0.845,-0.170,-69.603,60.893,82.992,42.0,105.0
297283,-0.477,0.251,-0.252,-86.206,24.145,21.229,41.0,111.0
297334,-0.492,-0.506,-0.348,-96.076,5.977,-3.313,37.0,115.0
297387,-0.198,-0.698,-0.221,-37.504,-35.305,-35.756,37.0,114.0
297438,-0.487,-0.351,-0.207,78.718,-65.954,-133.244,38.0,108.0
297489,-1.250,0.838,0.172,174.053,-100.916,-222.756,44.0,100.0
297551,-2.000,2.000,0.129,242.672,-132.649,-127.634,0.0,95.0
297612,-1.125,2.000,-0.170,42.328,-93.313,-56.885,0.0,98.0
297672,-0.147,0.785,0.126,50.405,-88.321,-54.863,0.0,103.0
297730,0.531,0.547,0.143,109.550,-49.893,-20.107,58.0,0.0
297790,0.723,0.415,0.204,-3.176,-0.435,4.122,0.0,107.0
297847,0.535,0.107,0.294,-55.489,35.855,8.366,58.0,0.0
297905,-0.153,0.609,0.356,28.443,49.351,10.397,60.0,0.0
297964,-2.000,2.000,-0.688,57.878,53.496,18.542,0.0,88.0
298015,-1.954,1.581,-0.538,-179.397,46.863,82.985,58.0,90.0
298070,-0.916,0.963,-0.296,-63.748,39.183,79.519,51.0,96.0
298122,-0.464,0.468,-0.243,-80.305,19.397,26.092,51.0,104.0
298174,-0.298,-0.108,-0.177,-140.527,15.046,6.580,41.0,120.0
298225,-0.003,-0.580,-0.064,-105.725,0.763,-0.626,37.0,114.0
298277,-0.174,-0.447,-0.229,40.550,-33.573,-44.450,38.0,119.0
298329,-0.118,-0.073,-0.243,91.893,-76.321,-77.992,38.0,110.0
298380,-0.056,-0.027,0.046,71.855,-94.069,-103.191,48.0,101.0
298431,-0.574,0.261,0.501,114.756,-97.145,-124.916,49.0,93.0
298493,-2.000,2.000,0.481,250.130,-119.214,-118.450,0.0,88.0
298554,-0.094,1.290,0.486,-189.504,38.832,49.672,0.0,94.0
298613,0.090,0.124,0.331,-77.092,10.076,72.763,0.0,95.0
298674,0.306,0.030,0.043,-31.511,39.160,121.916,0.0,97.0
298725,0.464,-0.093,0.066,-51.840,60.611,119.092,43.0,96.0
298775,0.692,2.000,0.127,66.046,98.336,18.908,46.0,92.0
298826,-1.921,2.000,-0.475,-3.809,102.466,125.145,50.0,94.0
298877,-0.922,1.915,0.020,14.260,99.176,107.580,44.0,101.0
298973,-0.053,0.272,0.187,-43.870,67.748,37.160,43.0,115.0
299029,-0.203,-0.257,0.103,-109.908,68.328,-10.916,38.0,119.0
299080,-0.458,-0.739,-0.032,-109.115,18.794,-71.397,39.0,116.0
299142,-0.688,-0.696,-0.023,118.122,-32.908,-145.397,0.0,107.0
299201,-1.706,0.462,-0.031,250.130,-104.496,-232.710,0.0,96.0
299261,-2.000,2.000,-0.891,211.534,-159.595,2.435,0.0,95.0
299322,-0.773,1.634,-0.195,-128.534,-88.389,18.008,0.0,101.0
299383,0.241,0.421,0.221,-11.626,-110.107,-19.679,0.0,108.0
299447,0.669,0.151,0.287,78.519,-69.542,-21.282,0.0,169.0
299512,0.831,-0.011,0.373,-38.000,-12.420,19.802,0.0,116.0
299573,0.916,0.034,0.375,-35.626,61.718,26.664,0.0,104.0
299632,-0.878,2.000,-0.677,43.580,181.618,89.038,0.0,94.0
299693,-2.000,2.000,-0.909,-243.489,135.122,203.992,0.0,97.0
299753,-0.830,1.281,-0.496,-1.366,124.359,147.748,0.0,104.0
299814,-0.505,0.257,-0.278,-66.427,92.817,1.084,0.0,111.0
299876,-0.558,-0.717,-0.260,-97.550,91.092,-24.344,0.0,114.0
299942,-0.304,-0.623,-0.102,37.122,40.435,-98.542,0.0,110.0
300005,-0.707,-0.115,-0.045,100.328,-20.504,-204.740,0.0,102.0
300064,-2.000,2.000,-0.632,218.420,-95.794,-134.130,0.0,98.0
300124,-1.032,2.000,-0.373,70.519,-92.015,64.878,0.0,102.0
300184,0.009,0.689,-0.035,-48.061,-104.886,39.130,0.0,108.0
300243,0.371,0.121,0.165,-13.053,-101.023,11.328,0.0,113.0
300304,0.769,-0.167,0.271,-11.198,-59.992,36.366,0.0,111.0
300363,0.865,-0.046,0.328,35.366,-10.267,11.435,0.0,106.0
300423,0.459,0.898,0.580,109.076,49.053,21.550,0.0,96.0
300481,-1.531,2.000,-1.267,-11.130,162.031,211.275,0.0,94.0
300544,-1.574,1.694,-0.673,-164.008,169.977,206.282,0.0,103.0
300596,-0.676,0.572,-0.314,-57.817,144.527,80.763,58.0,112.0
300656,-0.531,-0.578,-0.130,-61.687,106.626,-58.725,0.0,118.0
300717,-0.507,-1.095,-0.249,-61.855,76.290,-115.000,0.0,116.0
300776,-0.540,-0.463,-0.186,100.160,0.031,-224.122,0.0,110.0
300841,-1.492,0.039,-0.319,147.321,-85.870,-238.519,0.0,0.0
300906,-2.000,2.000,-0.937,244.718,-108.489,5.939,0.0,0.0
300972,-0.840,1.506,-0.205,-66.321,-78.489,45.748,0.0,0.0
301035,0.123,0.426,0.278,57.443,-109.229,16.275,0.0,128.0
301095,1.079,0.169,0.343,65.893,-49.420,41.527,0.0,116.0
301156,1.204,-0.003,0.460,-51.863,22.565,55.473,0.0,110.0
301215,0.601,0.056,0.418,-13.237,80.237,22.550,0.0,106.0
301275,-2.000,2.000,-1.227,44.031,132.328,121.313,0.0,93.0
301333,-1.650,1.814,-0.691,-173.695,117.008,194.305,0.0,97.0
301393,-0.489,0.944,-0.436,-50.053,154.916,94.718,0.0,105.0
301445,-0.444,-0.481,-0.238,-121.046,138.977,-24.405,44.0,111.0
301505,-0.579,-1.313,-0.432,-76.763,97.130,-66.931,0.0,110.0
301568,-1.063,-0.574,-0.440,155.947,24.534,-209.679,0.0,103.0
301627,-2.000,1.081,-0.321,225.137,-130.137,-182.840,0.0,99.0
301687,-2.000,2.000,-0.803,152.267,-125.954,-2.244,0.0,121.0
301753,-0.491,0.910,-0.135,12.771,-79.763,46.351,0.0,0.0
301814,0.307,0.495,0.093,92.511,-87.664,33.802,0.0,131.0
301875,0.620,0.268,0.224,10.626,-59.000,31.092,0.0,122.0
301934,0.883,0.011,0.584,-0.527,-36.366,29.298,0.0,106.0
302036,-0.179,2.000,-0.256,55.084,72.962,108.626,0.0,92.0
302099,-1.972,2.000,-1.061,-181.992,171.092,173.031,0.0,93.0
302150,-0.997,1.373,-0.460,-80.481,159.260,148.626,58.0,100.0
302201,-0.470,0.401,-0.177,-113.221,132.771,72.710,41.0,107.0
302253,-0.439,-0.694,-0.166,-157.198,125.237,26.916,37.0,112.0
302303,-0.341,-1.144,-0.253,-82.573,71.290,-0.611,35.0,111.0
302354,-0.531,-0.772,-0.296,136.618,-11.473,-97.916,37.0,105.0
302413,-1.490,1.258,-0.684,228.718,-57.412,-183.015,0.0,94.0
302472,-2.000,2.000,-0.936,61.298,-156.802,-28.328,0.0,92.0
302527,-0.615,1.167,-0.147,119.687,-187.634,11.634,57.0,99.0
302578,0.163,0.995,-0.083,76.733,-172.611,-65.405,62.0,104.0
302639,0.353,0.448,0.031,38.786,-107.756,-75.229,0.0,109.0
302699,0.690,0.124,0.275,-2.160,-34.244,13.542,0.0,111.0
302759,0.933,0.018,0.329,-30.779,-1.176,51.519,0.0,108.0
302819,0.521,0.115,0.366,11.733,19.450,63.519,0.0,100.0
302878,-0.726,2.000,-0.403,108.130,66.069,58.336,0.0,91.0
302928,-1.543,2.000,-0.543,-178.313,139.420,250.130,48.0,94.0
302980,-1.113,1.473,-0.138,-102.214,161.412,182.863,43.0,102.0
303034,-0.916,0.663,-0.270,-100.595,163.336,53.458,42.0,111.0
303085,-1.093,-0.233,-0.535,-86.313,95.954,-61.847,38.0,117.0
303136,-0.721,-0.811,-0.361,-39.519,0.641,-86.374,37.0,118.0
303187,-0.466,-0.476,-0.208,135.588,-75.489,-151.634,38.0,114.0
303239,-0.422,-0.052,-0.168,198.153,-139.008,-191.046,44.0,107.0
303298,-1.292,1.102,-0.180,196.405,-187.802,-204.649,0.0,97.0
303361,-1.692,2.000,-0.534,218.489,-164.260,-66.130,0.0,132.0
303420,-0.551,2.000,-0.228,18.031,-63.366,-15.580,0.0,101.0
303483,0.123,0.783,0.357,5.435,-63.275,-14.420,0.0,106.0
303544,0.677,0.233,0.559,2.855,-69.115,-4.977,0.0,109.0
303603,0.673,0.061,0.563,16.771,-36.603,46.260,0.0,106.0
303664,0.519,0.680,0.250,-13.183,21.321,72.641,0.0,99.0
303723,-1.174,2.000,-0.665,-15.908,101.053,115.527,0.0,95.0
303774,-1.270,2.000,-0.808,-139.588,113.634,160.756,47.0,98.0
303825,-0.339,1.041,-0.330,-59.412,136.382,104.214,44.0,103.0
303876,-0.213,0.254,-0.267,-82.634,126.397,28.237,41.0,107.0
303927,-0.224,-0.683,-0.100,-52.573,111.160,-29.702,39.0,108.0
303981,-0.335,-0.647,-0.113,9.939,80.122,-61.305,42.0,105.0
304032,-0.911,-0.043,-0.272,75.313,1.382,-162.069,43.0,98.0
304092,-2.000,2.000,-0.595,227.298,-95.878,-140.710,0.0,92.0
304151,-1.383,2.000,-0.390,48.275,-82.015,-0.389,0.0,93.0
304211,-0.404,1.110,-0.159,-36.786,-73.679,0.344,0.0,100.0
304271,0.357,0.577,0.277,32.275,-83.840,-14.145,0.0,106.0
304331,0.843,0.184,0.434,-42.962,-51.756,11.595,0.0,106.0
304384,1.019,-0.084,0.479,-69.886,-3.977,26.962,60.0,98.0
304438,0.660,0.525,0.231,9.366,52.855,-2.366,61.0,86.0
304488,-1.082,2.000,-0.984,-30.824,119.389,79.863,58.0,81.0
304546,-1.287,2.000,-1.400,-148.435,149.779,226.336,0.0,82.0
304598,-0.795,1.683,-0.725,-37.916,176.031,198.664,48.0,86.0
304648,-0.771,0.845,-0.423,-63.473,156.595,108.183,44.0,90.0
304699,-0.907,-0.251,-0.064,-92.206,131.130,27.336,43.0,98.0
304758,-0.760,-0.910,0.027,-50.389,87.336,-11.695,0.0,97.0
304852,-1.190,0.138,0.235,108.901,-73.634,-197.458,45.0,86.0
304906,-2.000,2.000,-0.614,236.237,-171.473,-101.168,50.0,79.0
304956,-0.844,2.000,-0.625,-101.046,-155.336,-14.802,50.0,83.0
305007,0.000,0.888,-0.107,57.328,-123.756,-22.809,48.0,89.0
305067,0.583,0.660,-0.085,141.740,-95.496,-29.611,0.0,95.0
305126,1.245,0.126,0.417,28.107,-28.374,4.389,0.0,95.0
305186,1.253,-0.260,0.634,-52.748,7.733,11.366,0.0,93.0
305245,0.727,-0.112,0.438,54.626,62.611,10.580,0.0,84.0
305304,-1.650,2.000,-1.528,3.115,163.718,138.733,0.0,78.0
305363,-1.918,2.000,-0.756,-190.351,165.786,250.130,0.0,89.0
305427,-0.537,0.827,-0.381,-39.504,129.000,149.740,0.0,101.0
305487,-0.438,-0.908,-0.183,-87.527,120.328,2.786,0.0,104.0
305548,-0.687,-1.472,-0.464,23.542,85.443,-95.748,0.0,101.0
305599,-0.992,-0.259,-0.411,206.198,-21.878,-250.137,58.0,93.0
305658,-2.000,0.622,-0.499,158.275,-116.977,-250.137,0.0,78.0
305717,-2.000,2.000,-0.890,211.481,-142.977,-27.611,0.0,76.0
305776,-0.664,1.630,-0.384,-41.504,-89.802,52.275,0.0,84.0
305836,0.369,0.383,0.274,34.069,-117.344,-2.420,0.0,91.0
305899,0.701,0.187,0.358,48.740,-73.023,33.130,0.0,97.0
305958,1.097,-0.053,0.517,-64.931,-32.481,41.328,0.0,94.0
306019,0.763,-0.158,0.469,-26.061,5.817,0.580,0.0,89.0
306077,-0.093,2.000,0.260,186.519,40.924,23.198,0.0,79.0
306137,-2.000,2.000,-1.250,-250.137,155.450,226.328,0.0,76.0
306187,-1.014,1.257,-0.341,-102.137,156.710,200.550,46.0,81.0
306238,-0.325,0.684,-0.349,-91.672,131.466,108.595,49.0,93.0
306288,-0.158,-0.207,-0.133,-99.389,89.939,50.420,38.0,99.0
306339,-0.531,-0.766,-0.282,-47.542,71.557,50.710,42.0,99.0
306394,-0.616,-0.636,-0.606,106.458,29.069,-31.038,39.0,98.0
306445,-1.691,0.103,-0.705,105.115,-28.412,-138.053,41.0,96.0
306504,-2.000,2.000,-0.600,250.130,-112.099,-168.015,0.0,86.0
306564,-1.115,2.000,-0.467,-13.893,-111.893,-60.229,0.0,84.0
306616,0.072,0.773,-0.028,55.275,-151.290,-69.160,58.0,90.0
306675,0.430,0.754,-0.308,164.702,-153.290,-35.107,0.0,97.0
306736,0.603,0.144,-0.099,35.679,-109.977,11.374,0.0,103.0
306796,0.947,-0.125,0.289,59.847,-75.435,7.740,0.0,104.0
306860,0.688,0.087,0.453,45.252,-6.840,11.321,0.0,96.0
306919,-0.970,2.000,0.045,177.626,56.260,69.061,0.0,86.0
306979,-1.925,2.000,-0.673,-205.412,147.550,238.122,0.0,88.0
307031,-1.241,1.432,-0.206,-174.359,100.802,170.229,51.0,97.0
307083,-0.713,0.516,-0.126,-52.908,38.679,83.504,39.0,106.0
307134,-0.719,-0.441,-0.483,-122.458,32.756,56.702,36.0,113.0
307186,-0.250,-1.113,-0.425,-41.145,-41.634,-33.733,39.0,115.0
307237,-0.522,-0.570,-0.468,148.786,-103.855,-183.313,37.0,109.0
307295,-0.982,0.046,-0.264,138.443,-148.580,-250.137,43.0,98.0
307348,-2.000,2.000,-0.660,250.130,-250.137,-250.137,51.0,89.0
307406,-1.431,2.000,-0.912,250.130,-163.374,14.206,0.0,91.0
307466,-0.167,1.393,-0.253,-133.794,-113.092,-39.198,0.0,99.0
307531,0.927,0.310,0.368,59.473,-104.817,-42.458,0.0,0.0
307591,1.047,0.147,0.334,35.534,-60.649,34.046,0.0,106.0
307650,0.962,-0.039,0.584,-30.412,-23.588,42.015,0.0,109.0
307752,-1.163,2.000,-0.255,72.618,62.092,155.588,0.0,86.0
307811,-2.000,2.000,-0.099,-249.771,29.611,209.260,0.0,91.0
307873,-0.755,1.282,0.295,-191.351,-27.687,95.489,0.0,103.0
307924,-0.094,0.333,0.064,-250.137,-72.321,36.176,44.0,115.0
307989,0.132,-0.263,-0.240,-250.137,-118.282,4.992,0.0,0.0
308055,-0.157,0.392,0.182,-250.137,-108.038,-52.763,0.0,0.0
308120,-0.774,0.100,1.204,-250.137,-105.802,-84.107,0.0,0.0
308185,-0.240,-0.630,1.533,-28.534,-102.053,-37.267,194.0,0.0
308247,0.380,-0.642,1.137,-61.305,-22.947,22.412,150.0,0.0
308302,0.333,-0.240,0.428,-36.244,39.389,41.725,38.0,0.0
308370,0.531,-0.093,0.203,23.954,2.206,-19.672,0.0,0.0
308434,0.199,0.064,0.036,-30.809,-31.725,-8.053,185.0,192.0
308499,0.789,-0.063,0.472,24.672,-44.588,17.771,0.0,189.0
308562,0.511,-0.510,1.771,-63.481,-47.168,46.519,177.0,0.0
308626,1.092,-0.370,1.639,-23.130,6.649,68.336,166.0,0.0
308690,-0.159,-0.820,1.067,59.550,6.374,41.130,192.0,0.0
308755,-0.053,-0.615,0.506,-24.374,7.664,23.267,190.0,0.0
308819,-0.182,-0.298,0.285,-40.718,-24.969,-27.015,192.0,0.0
308885,-0.575,-0.245,0.408,-71.359,-19.336,-43.634,0.0,0.0
308953,0.055,-1.018,0.883,-146.107,53.160,-21.420,0.0,0.0
309010,0.656,-1.288,1.091,16.702,180.260,13.405,63.0,0.0
309075,-0.733,-0.477,1.155,77.313,219.405,95.122,0.0,0.0
309132,0.223,0.272,0.491,250.130,250.130,94.542,43.0,0.0
309185,0.203,0.097,-0.123,250.130,227.168,-6.336,37.0,165.0
309235,0.555,0.623,0.044,250.130,119.718,-51.710,20.0,109.0
309288,1.092,0.653,0.622,250.130,80.260,-113.412,40.0,151.0
309344,-0.298,1.037,1.584,61.122,48.611,-41.557,38.0,0.0
309403,-2.000,2.000,2.000,250.130,-15.168,218.450,0.0,88.0
309465,-2.000,2.000,0.989,13.084,43.687,250.130,0.0,92.0
309525,-0.922,0.972,0.064,6.733,54.672,163.298,0.0,103.0
309584,-0.452,-0.464,-0.498,-88.046,92.672,-6.435,0.0,111.0
309645,-0.209,-1.668,-0.659,-124.130,90.382,-159.115,0.0,111.0
309705,-0.968,-1.054,-0.544,250.130,52.534,-250.137,0.0,102.0
309771,-1.843,0.054,-0.630,222.840,-33.053,-250.137,0.0,0.0
309835,-2.000,1.698,-0.141,167.038,-17.481,-170.107,0.0,0.0
309901,-0.928,1.329,-0.042,135.771,-64.107,77.611,0.0,0.0
309969,0.447,0.733,0.120,200.580,-81.939,75.718,0.0,0.0
310035,0.793,0.482,0.197,68.344,-33.901,106.542,0.0,0.0
310100,0.842,0.448,0.473,-71.863,-26.389,103.038,0.0,0.0
310158,0.555,0.470,0.557,98.061,-13.229,172.725,0.0,66.0
310215,-1.489,2.000,-0.902,20.313,120.870,250.130,0.0,65.0
310275,-2.000,2.000,-0.825,-201.435,218.015,250.130,0.0,91.0
310326,-1.059,0.895,-0.284,-113.977,159.656,199.634,44.0,104.0
310377,-0.457,-0.647,-0.577,-250.137,174.229,13.466,33.0,115.0
310428,-0.401,-2.000,-0.841,-186.008,179.351,-154.771,32.0,118.0
310482,-0.675,-1.392,-0.843,250.130,141.802,-250.137,39.0,110.0
310542,-1.549,-0.401,-0.997,250.130,26.626,-250.137,0.0,97.0
310607,-2.000,1.067,-1.546,250.130,-115.305,-250.137,0.0,0.0
310665,-2.000,1.587,-0.382,162.092,16.321,14.748,54.0,0.0
310729,-0.748,1.652,-0.427,205.626,-50.740,105.916,0.0,0.0
