Timestamp(ms),AccelX(g),AccelY(g),AccelZ(g),GyroX(deg/s),GyroY(deg/s),GyroZ(deg/s),DistanceLeft(cm),DistanceRight(cm)
453175,-1.503,2.000,-0.452,-109.260,84.061,250.130,57.0,102.0
453227,-0.701,1.351,-0.366,55.282,66.443,149.954,42.0,110.0
453287,-0.479,0.403,-0.262,-10.321,91.214,39.626,0.0,120.0
453349,-0.897,-0.630,-0.303,-94.634,159.580,-35.634,0.0,124.0
453403,-0.832,-0.584,-0.382,3.214,71.214,-182.092,37.0,120.0
453454,-0.940,-0.354,-0.111,128.359,4.191,-250.137,42.0,112.0
453515,-1.693,2.000,0.260,138.137,-47.206,-232.351,0.0,102.0
453574,-1.831,2.000,-0.509,96.092,-94.504,-67.977,0.0,104.0
453635,-0.232,1.250,0.056,77.763,-107.901,27.672,0.0,112.0
453696,0.424,0.587,0.118,71.962,-133.328,34.931,0.0,123.0
453757,0.781,0.123,0.289,18.046,-78.771,29.191,0.0,123.0
453818,1.169,-0.148,0.461,-42.489,-9.313,38.069,0.0,114.0
453878,0.812,0.100,0.515,19.634,69.137,51.885,0.0,112.0
453941,-0.240,2.000,-0.843,62.885,130.481,151.534,0.0,98.0
453993,-1.313,2.000,-1.021,-140.321,176.725,250.130,58.0,101.0
454050,-0.751,1.393,-0.580,-59.244,161.519,160.656,0.0,64.0
454103,-0.657,-0.081,-0.354,-93.183,140.725,38.733,37.0,119.0
454154,-0.839,-1.229,-0.583,-114.458,110.336,-51.015,36.0,123.0
454206,-0.648,-1.174,-0.509,138.168,70.015,-166.435,34.0,118.0
454257,-1.070,0.012,-0.523,221.000,-9.992,-250.137,42.0,108.0
454317,-2.000,1.311,-0.876,55.504,-77.695,-250.137,0.0,98.0
454380,-2.000,2.000,-0.592,154.611,-88.198,-56.588,0.0,100.0
454440,-0.748,1.376,-0.101,35.527,-118.519,46.840,0.0,111.0
454501,0.290,0.454,0.104,73.145,-178.229,40.374,0.0,114.0
454554,0.857,0.239,0.144,47.824,-123.702,45.519,59.0,119.0
454615,1.165,-0.044,0.257,-29.450,-54.282,70.305,0.0,117.0
454676,1.410,-0.075,0.432,14.405,38.092,65.519,0.0,110.0
454735,0.713,1.557,0.149,64.282,123.649,121.191,0.0,100.0
454787,-2.000,2.000,-1.702,-106.595,198.260,230.908,58.0,96.0
454841,-1.288,1.842,-0.545,-114.916,139.137,233.427,40.0,105.0
454894,-0.411,0.660,-0.222,-41.008,115.550,103.038,49.0,116.0
454946,-0.583,-0.334,-0.192,-56.718,106.481,10.809,43.0,123.0
454998,-0.825,-1.093,-0.518,-75.886,93.221,-34.183,33.0,123.0
455050,-0.725,-0.802,-0.472,125.534,14.733,-207.008,43.0,118.0
455101,-1.062,-0.068,-0.396,162.527,-64.832,-250.137,39.0,108.0
455161,-2.000,2.000,-0.807,211.160,-131.992,-250.137,0.0,100.0
455222,-2.000,2.000,-0.520,102.496,-92.489,-71.748,0.0,110.0
455286,-0.237,1.160,-0.006,80.702,-144.176,5.427,0.0,116.0
455348,0.635,0.752,0.010,125.878,-175.061,31.542,0.0,120.0
455408,1.170,0.277,0.369,-49.351,-49.397,59.687,0.0,120.0
455470,1.212,-0.130,0.524,-113.710,66.733,91.450,0.0,115.0
455530,0.747,0.182,0.364,-19.405,126.176,137.832,0.0,104.0
455589,-0.463,2.000,-0.778,16.351,152.840,160.107,0.0,96.0
455641,-1.642,2.000,-0.765,-205.122,149.237,250.130,37.0,102.0
455693,-0.921,1.159,-0.459,-17.977,100.573,164.855,52.0,112.0
455745,-0.708,0.219,-0.312,9.489,104.710,44.679,37.0,119.0
455800,-0.851,-0.688,-0.459,-47.267,101.008,-40.702,37.0,123.0
455853,-0.625,-0.837,-0.327,11.748,47.427,-153.191,37.0,121.0
455905,-0.838,-0.308,-0.276,126.802,-16.611,-250.137,62.0,117.0
455966,-1.529,0.435,-0.258,81.634,-71.084,-250.137,0.0,104.0
456070,-1.258,2.000,-0.127,110.267,-79.260,4.924,0.0,110.0
456131,-0.117,0.960,0.102,77.031,-141.756,39.771,0.0,112.0
456193,0.719,0.358,0.252,122.229,-133.168,20.809,0.0,119.0
456254,1.042,0.111,0.378,-13.321,-25.191,25.664,0.0,122.0
456318,0.942,-0.111,0.510,-105.328,84.672,47.496,0.0,119.0
456379,0.440,0.578,0.444,-8.969,125.298,106.122,0.0,101.0
456438,-0.945,2.000,-1.255,-10.977,131.977,211.809,0.0,97.0
456500,-1.412,1.902,-0.331,-140.641,29.809,250.130,0.0,106.0
456560,-0.513,0.736,-0.060,3.313,42.664,100.031,0.0,115.0
456612,-0.420,-0.450,-0.069,5.031,109.084,-33.458,40.0,120.0
456674,-0.637,-0.959,-0.581,-32.908,149.481,-100.382,0.0,111.0
456734,-0.750,-0.591,-0.555,128.031,47.573,-250.137,0.0,113.0
456796,-1.755,0.071,-0.688,116.977,-39.458,-250.137,0.0,104.0
456860,-2.000,2.000,-0.397,191.695,-113.466,-114.344,0.0,110.0
456922,-0.873,1.554,-0.133,108.618,-117.229,3.092,0.0,129.0
456984,0.126,1.022,0.057,108.824,-134.336,-3.206,0.0,137.0
457047,0.798,0.453,0.215,40.092,-71.252,47.649,0.0,135.0
457108,1.038,0.107,0.392,-59.298,2.962,95.573,0.0,124.0
457169,0.949,0.069,0.430,-32.641,50.893,108.893,0.0,109.0
457229,0.493,2.000,-0.017,56.947,99.450,188.260,0.0,97.0
457289,-2.000,2.000,-1.354,-185.611,161.977,250.130,0.0,99.0
457346,-0.722,1.522,-0.612,-43.664,171.084,187.061,47.0,109.0
457398,-0.337,0.302,-0.319,-56.443,169.473,64.145,43.0,117.0
457459,-0.517,-0.561,-0.236,-3.244,154.710,-27.107,0.0,121.0
457511,-0.773,-0.909,-0.420,-9.794,102.466,-76.260,45.0,108.0
457572,-0.797,-0.382,-0.399,119.878,16.420,-202.069,0.0,113.0
457632,-1.718,0.144,-0.483,124.954,-74.710,-243.931,0.0,99.0
457694,-2.000,2.000,-0.693,207.015,-160.740,-139.282,0.0,105.0
457754,-0.681,1.863,-0.245,100.015,-115.160,-27.359,0.0,107.0
457820,0.170,0.889,0.068,53.565,-110.771,-25.718,0.0,114.0
457882,0.776,0.203,0.337,-26.412,-71.374,18.366,0.0,132.0
457944,1.021,-0.127,0.408,-76.221,-32.573,50.977,0.0,118.0
458004,0.773,0.439,0.333,-14.878,-8.275,86.794,0.0,112.0
458062,0.256,2.000,-0.405,-34.008,60.237,188.176,58.0,99.0
458114,-1.424,2.000,-0.712,-147.886,161.977,250.130,55.0,101.0
458164,-1.504,2.000,-0.604,-84.206,156.084,217.908,51.0,105.0
458215,-0.720,0.829,-0.343,-12.313,147.656,100.733,45.0,115.0
458267,-0.710,-0.208,-0.265,17.107,106.000,-30.870,44.0,117.0
458320,-0.781,-0.881,-0.278,15.000,83.939,-102.779,38.0,118.0
458381,-0.691,-0.548,-0.270,94.160,32.252,-167.748,0.0,112.0
458440,-1.153,-0.037,-0.332,148.366,-70.626,-250.137,0.0,103.0
458501,-2.000,2.000,-1.043,197.122,-137.863,-183.275,0.0,106.0
458561,-1.127,2.000,-0.505,69.229,-109.916,-5.954,0.0,122.0
458627,-0.166,1.114,-0.064,78.649,-135.015,27.595,0.0,0.0
458687,0.546,0.423,0.211,102.939,-137.382,37.595,0.0,118.0
458747,1.033,0.049,0.319,-15.313,-55.336,57.573,0.0,119.0
458810,1.103,-0.186,0.504,-41.260,7.954,38.160,0.0,111.0
458869,0.516,0.470,0.406,79.412,67.557,77.962,0.0,102.0
458929,-1.034,2.000,-1.345,-27.649,142.557,195.313,0.0,95.0
458980,-1.424,1.980,-0.410,-124.282,131.794,250.130,51.0,101.0
459083,-0.456,-0.126,-0.120,-43.481,126.771,35.649,0.0,117.0
459134,-0.638,-0.913,-0.424,-71.840,127.214,-63.099,39.0,119.0
459187,-0.724,-0.861,-0.460,60.008,72.863,-168.962,44.0,115.0
459246,-0.877,-0.146,-0.406,127.611,0.519,-250.137,0.0,105.0
459309,-2.000,2.000,-0.702,160.389,-90.191,-231.275,0.0,96.0
459368,-1.775,2.000,-0.250,113.412,-78.427,-8.489,0.0,98.0
459428,-0.506,1.331,0.031,37.649,-77.611,17.237,0.0,112.0
459489,0.340,0.511,0.317,78.198,-104.733,-17.695,0.0,116.0
459549,0.864,0.417,0.472,-34.344,-50.382,7.802,0.0,127.0
459610,1.054,-0.103,0.633,-90.832,-14.786,37.794,0.0,116.0
459670,0.889,0.671,0.249,-35.374,46.397,79.939,0.0,107.0
459729,-0.380,2.000,-0.901,-111.611,111.000,144.985,0.0,101.0
459790,-1.478,2.000,-0.849,-111.015,111.947,250.130,0.0,107.0
459844,-0.856,1.060,-0.543,-5.229,115.817,141.183,45.0,112.0
459895,-0.584,-0.011,-0.196,-16.496,93.481,-1.832,45.0,117.0
459956,-0.848,-0.840,-0.109,-20.603,77.344,-97.992,0.0,111.0
460016,-0.678,-0.567,-0.039,38.130,58.679,-173.466,0.0,113.0
460077,-1.047,-0.027,-0.174,62.672,-6.214,-250.137,0.0,104.0
460136,-2.000,2.000,-0.996,175.863,-74.611,-156.771,0.0,102.0
460196,-1.395,2.000,-0.444,103.321,-91.656,-6.847,0.0,118.0
460257,-0.183,1.259,0.012,5.878,-77.756,39.794,0.0,114.0
460322,0.543,0.435,0.322,43.626,-76.115,26.466,0.0,138.0
460383,0.900,0.220,0.445,-29.130,1.496,52.313,0.0,118.0
460443,0.901,-0.023,0.447,-108.634,61.198,70.565,0.0,118.0
460504,0.567,0.634,0.224,-20.756,115.130,111.985,0.0,106.0
460563,-0.284,2.000,-0.779,-121.214,131.740,182.221,0.0,99.0
460614,-1.139,2.000,-0.899,-121.618,112.779,250.130,50.0,103.0
460675,-0.747,1.514,-0.611,-3.130,82.275,181.427,0.0,110.0
460726,-0.545,0.250,-0.237,49.687,83.649,27.466,41.0,115.0
460777,-0.802,-0.450,-0.124,5.382,121.878,-75.710,40.0,109.0
460831,-0.680,-0.695,-0.127,-28.046,145.573,-142.931,38.0,115.0
460882,-0.928,-0.354,-0.220,35.282,95.527,-238.756,42.0,108.0
460943,-1.333,0.213,-0.115,79.886,-11.282,-250.137,0.0,106.0
461003,-2.000,2.000,-0.531,188.740,-107.389,-131.176,0.0,112.0
461064,-0.931,1.889,-0.204,97.336,-85.321,26.321,0.0,112.0
461125,-0.139,1.075,0.000,51.756,-114.710,15.145,0.0,132.0
461187,0.626,0.456,0.331,65.542,-88.382,25.389,0.0,123.0
461247,0.939,0.148,0.419,-57.924,-12.947,31.573,0.0,119.0
461312,0.945,-0.109,0.459,-68.473,42.832,43.466,0.0,121.0
461372,0.543,0.874,0.026,1.389,91.038,90.519,0.0,104.0
461431,-1.153,2.000,-1.233,-125.725,139.458,194.878,0.0,97.0
461491,-1.570,1.973,-0.676,-70.397,107.847,233.931,0.0,103.0
461543,-0.832,0.833,-0.472,17.191,107.695,98.267,42.0,109.0
461603,-0.618,-0.372,-0.156,1.023,99.588,-46.153,0.0,113.0
461655,-0.774,-0.839,-0.128,-3.336,71.740,-159.313,43.0,112.0
461706,-0.954,-0.256,-0.140,27.473,15.168,-205.924,46.0,108.0
461769,-1.484,0.418,-0.102,91.595,-66.405,-211.298,0.0,103.0
461835,-1.899,2.000,-0.459,199.824,-92.763,-112.336,0.0,0.0
461897,-1.107,1.660,-0.056,20.031,-72.359,-8.237,0.0,131.0
461959,-0.264,0.843,0.165,88.947,-93.718,35.695,0.0,138.0
462065,0.609,0.292,0.278,-1.931,-51.511,58.519,0.0,142.0
462126,0.576,0.080,0.385,-64.053,13.672,82.588,0.0,115.0
462186,0.720,0.210,0.402,-54.496,54.405,112.985,0.0,108.0
462245,0.621,2.000,-0.044,20.267,66.374,87.794,0.0,100.0
462298,-1.409,2.000,-0.818,-127.260,116.137,217.092,58.0,99.0
462353,-0.985,1.798,-0.205,-83.076,142.008,236.573,57.0,108.0
462404,-0.680,0.931,-0.212,-32.763,141.771,130.481,41.0,118.0
462456,-0.641,-0.091,-0.188,-9.603,110.878,6.053,39.0,120.0
462509,-0.879,-0.800,-0.307,12.046,67.870,-80.023,38.0,123.0
462560,-0.789,-0.634,-0.346,53.290,14.702,-152.985,37.0,118.0
462612,-0.790,-0.168,-0.146,122.603,-61.344,-250.137,43.0,109.0
462671,-0.858,0.203,0.128,145.878,-98.458,-250.137,0.0,101.0
462733,-2.000,2.000,-0.044,250.130,-104.229,-154.542,0.0,109.0
462797,-0.955,2.000,-0.326,-59.099,-43.794,60.008,0.0,120.0
462859,0.092,0.527,0.316,-58.282,-77.305,38.580,0.0,126.0
462920,0.516,0.303,0.407,51.282,-42.000,32.962,0.0,126.0
462982,0.587,0.050,0.406,-52.336,-5.695,88.122,0.0,123.0
463042,0.835,0.161,0.326,-61.321,41.870,95.969,0.0,110.0
463102,-0.412,2.000,-0.408,38.481,62.870,86.382,0.0,101.0
463162,-1.724,2.000,-0.744,-141.908,93.397,250.130,0.0,101.0
463214,-0.694,0.975,-0.128,-43.061,114.099,195.366,44.0,108.0
463266,-0.638,0.358,-0.207,-20.649,136.458,99.985,51.0,114.0
463322,-0.792,-0.326,-0.341,-34.939,124.718,4.977,46.0,120.0
463374,-0.885,-0.627,-0.303,-15.115,70.878,-43.374,37.0,121.0
463425,-0.613,-0.289,-0.193,53.076,-16.069,-128.863,37.0,113.0
463477,-0.575,0.039,0.009,45.725,-71.710,-180.824,41.0,106.0
463538,-2.000,2.000,-0.339,202.313,-131.298,-233.351,0.0,107.0
463598,-0.809,2.000,-0.362,96.557,-78.305,4.122,0.0,100.0
463650,-0.240,1.185,0.048,-74.870,-59.229,25.305,62.0,107.0
463711,0.865,0.170,0.313,7.878,-35.023,10.397,0.0,101.0
463774,0.886,0.160,0.353,-41.053,46.061,35.473,0.0,99.0
463825,0.551,-0.170,0.369,-136.366,79.954,64.153,51.0,95.0
463877,0.303,-0.040,0.476,-11.107,78.863,75.198,50.0,104.0
463929,-2.000,2.000,-1.502,35.031,69.878,85.679,57.0,102.0
463989,-0.840,1.530,-0.244,-102.305,92.649,187.595,0.0,109.0
464041,-0.198,-0.033,-0.031,-80.878,100.756,93.366,35.0,127.0
464094,-0.366,-0.469,-0.033,-74.382,73.794,-16.534,34.0,120.0
464146,-0.186,-0.584,0.041,-38.031,8.107,-85.595,37.0,115.0
464201,-1.718,0.536,0.048,186.427,-59.763,-250.137,52.0,107.0
464253,-2.000,2.000,-0.166,109.366,-76.985,-96.389,54.0,104.0
464312,-0.983,2.000,0.187,8.336,-48.427,-18.519,0.0,71.0
464365,-0.019,0.862,0.114,4.298,-59.748,-44.954,58.0,117.0
464418,0.385,0.381,0.193,0.649,-37.389,-63.405,58.0,123.0
464484,0.619,0.067,0.220,-34.931,-9.725,-41.595,0.0,0.0
464547,0.606,0.162,0.244,-39.656,36.817,6.481,0.0,148.0
464609,0.392,2.000,-0.314,27.458,98.916,14.802,0.0,126.0
464669,-1.445,2.000,-0.973,-129.969,138.779,155.679,0.0,111.0
464734,-1.160,1.053,-0.682,-48.145,108.313,137.107,0.0,100.0
464784,-0.657,0.416,-0.470,-38.015,103.511,76.313,42.0,84.0
464834,-0.357,-0.146,-0.158,-23.649,87.969,17.198,41.0,85.0
464928,-0.852,-0.368,0.373,-250.137,12.725,-92.756,41.0,86.0
464979,-1.013,-0.455,1.296,-93.176,-54.992,-150.443,51.0,83.0
465039,-1.318,2.000,0.511,250.130,-97.298,-71.611,0.0,83.0
465098,-0.444,2.000,-0.434,-206.084,-42.046,-32.031,0.0,88.0
465159,0.018,0.909,0.098,-5.969,10.321,21.038,0.0,95.0
465214,0.397,1.070,0.002,2.779,55.435,73.344,58.0,97.0
465272,0.594,0.312,0.312,-58.267,60.916,104.939,0.0,72.0
465334,0.728,-0.067,0.512,53.237,96.168,115.542,0.0,103.0
465393,-0.150,0.738,0.109,101.641,180.405,53.511,0.0,87.0
465452,-2.000,2.000,-1.152,-60.168,129.321,-154.931,174.0,87.0
465512,-1.976,-0.223,0.192,-121.527,24.092,-142.389,108.0,99.0
465564,-1.178,-0.107,0.092,216.656,26.557,-40.779,67.0,105.0
465613,-0.569,0.552,-0.177,102.733,-25.420,-67.809,71.0,68.0
465679,-0.235,-0.132,0.167,29.160,-74.389,-84.916,0.0,0.0
465734,-0.759,-0.133,0.017,119.817,-157.588,0.550,58.0,125.0
465785,-2.000,0.255,-0.037,250.130,-162.702,5.718,61.0,98.0
465837,-2.000,1.409,-0.314,231.244,-108.916,27.328,67.0,89.0
465890,-1.311,0.944,0.173,-33.420,-95.977,-3.305,80.0,120.0
465944,-0.923,0.475,0.326,26.420,-67.092,-45.031,98.0,106.0
465998,-0.522,0.561,0.134,82.206,-41.855,-59.282,89.0,127.0
466052,-0.219,0.389,0.166,66.504,-35.916,-57.763,95.0,105.0
466106,-0.165,0.080,0.135,108.511,-25.450,-54.527,78.0,127.0
466161,-0.122,0.102,0.052,122.084,-23.466,-6.649,82.0,105.0
466214,-0.312,0.058,0.091,94.611,-53.023,34.092,63.0,128.0
466268,-0.631,0.759,0.213,102.275,-38.580,71.878,72.0,121.0
466319,-1.894,1.277,0.264,113.252,-56.840,45.008,63.0,96.0
466370,-1.841,1.526,0.121,79.076,-21.084,67.107,78.0,85.0
466420,-1.230,1.239,0.168,-2.053,21.573,-2.870,63.0,85.0
466470,-0.928,0.766,0.173,-72.481,30.504,-32.237,67.0,57.0
466519,-0.226,0.046,0.297,-55.359,5.489,-44.458,60.0,45.0
466575,-0.106,-0.375,0.152,-0.023,-6.435,-9.282,54.0,0.0
466626,-0.535,-0.268,-0.160,60.481,-93.244,-3.252,58.0,48.0
466674,-1.065,0.230,-0.177,129.359,-151.290,24.710,58.0,54.0
466732,-1.823,1.561,-0.192,172.298,-183.336,112.672,0.0,57.0
466789,-0.885,2.000,-0.341,120.031,-149.420,101.863,0.0,59.0
466845,-0.184,1.181,0.168,-52.641,-108.092,35.321,0.0,57.0
466903,0.239,0.447,0.295,19.008,-75.305,-23.786,0.0,57.0
466960,0.629,0.352,0.283,-9.191,-37.855,-49.733,0.0,57.0
467019,0.905,0.086,0.391,-66.718,32.702,-4.893,0.0,113.0
467080,0.799,0.656,0.272,-48.130,110.511,30.191,0.0,58.0
467139,-0.527,2.000,-0.265,36.550,162.832,99.359,0.0,98.0
467198,-1.341,2.000,-0.988,-220.145,191.122,153.733,0.0,100.0
467251,-0.504,0.901,-0.463,-79.886,169.924,110.855,58.0,110.0
467311,-0.386,0.134,-0.468,-59.450,135.626,16.214,0.0,116.0
467372,-0.597,-0.777,-0.394,-29.733,99.565,-65.015,0.0,118.0
467432,-0.682,-0.522,-0.265,56.321,50.992,-156.916,0.0,116.0
467493,-1.280,-0.167,-0.220,61.817,-20.321,-231.947,0.0,114.0
467554,-2.000,2.000,-0.365,200.924,-112.183,-127.580,0.0,123.0
467618,-1.293,2.000,-0.539,138.695,-81.969,55.870,0.0,127.0
467680,-0.226,0.760,0.054,-12.977,-92.450,43.794,0.0,132.0
467784,0.968,0.125,0.175,47.397,-22.878,68.672,0.0,122.0
467845,0.980,-0.046,0.274,0.443,31.305,65.000,0.0,121.0
467904,0.682,1.360,0.338,96.229,78.985,98.069,0.0,95.0
467963,-1.874,2.000,-0.615,-92.427,145.969,244.084,0.0,91.0
468023,-1.776,1.891,-0.503,-87.145,119.870,209.023,0.0,99.0
468075,-0.510,0.475,-0.429,-61.992,117.260,76.176,52.0,106.0
468129,-0.373,-0.986,-0.276,-60.725,93.031,-79.733,39.0,109.0
468179,-0.614,-1.092,-0.357,25.366,64.038,-170.405,39.0,106.0
468239,-1.154,-0.427,-0.430,149.985,-33.695,-250.137,0.0,100.0
468300,-2.000,1.022,-0.163,245.237,-158.344,-159.985,0.0,116.0
468362,-1.915,2.000,-1.106,176.153,-105.634,0.832,0.0,135.0
468427,-0.289,0.939,0.019,49.672,-55.908,21.397,0.0,0.0
468493,0.561,0.589,0.111,126.710,-57.779,90.656,0.0,0.0
468558,0.850,-0.066,0.333,23.275,-63.908,88.366,0.0,0.0
468619,0.818,-0.170,0.565,45.076,-60.244,63.374,0.0,109.0
468681,0.019,1.719,0.606,111.580,-23.015,95.977,0.0,95.0
468740,-1.679,2.000,-0.225,-79.672,65.809,250.130,0.0,80.0
468799,-2.000,2.000,-0.442,-106.649,99.954,250.130,0.0,87.0
468849,-0.366,0.381,-0.202,-82.817,115.931,58.382,36.0,96.0
468900,-0.527,-1.073,-0.296,-59.893,115.137,-75.504,36.0,101.0
468951,-0.480,-1.291,-0.352,21.618,67.702,-197.656,37.0,102.0
469002,-1.103,-0.670,-0.502,161.282,-54.802,-250.137,44.0,96.0
469061,-1.939,-0.152,-0.643,213.588,-177.053,-250.137,0.0,105.0
469131,-2.000,2.000,-0.731,250.130,-194.359,-93.664,0.0,0.0
469196,-0.348,1.359,-0.141,66.176,-58.191,32.664,0.0,0.0
469262,0.822,0.641,0.378,38.252,-64.107,68.992,0.0,0.0
469322,1.017,-0.150,0.571,50.962,-51.076,69.824,0.0,118.0
469384,0.959,0.139,0.564,3.908,-4.969,46.840,0.0,132.0
469443,-0.288,2.000,0.365,115.405,39.962,98.443,0.0,85.0
469501,-1.759,2.000,-0.650,-162.618,106.397,250.130,0.0,81.0
469562,-2.000,2.000,-1.116,-76.183,111.023,250.130,0.0,90.0
469612,-0.623,0.543,-0.401,-97.359,123.656,84.137,40.0,100.0
469666,-0.520,-1.269,-0.226,-180.313,113.420,-50.748,37.0,108.0
469718,-0.462,-1.572,-0.278,25.389,80.344,-194.542,36.0,107.0
469769,-1.099,-0.639,-0.499,241.802,-17.061,-250.137,46.0,102.0
469829,-1.960,0.085,-0.590,211.687,-140.886,-250.137,0.0,105.0
469891,-2.000,2.000,-1.297,197.893,-227.183,-72.420,0.0,121.0
469952,-0.377,1.833,-0.420,159.031,-135.794,136.557,0.0,113.0
470012,0.383,0.694,0.113,-11.015,-110.939,78.122,0.0,119.0
470075,0.693,-0.050,0.308,-11.725,-70.595,39.664,0.0,132.0
470139,1.016,-0.130,0.414,-30.779,-1.145,27.275,0.0,122.0
470200,0.684,-0.087,0.610,26.695,64.206,44.931,0.0,101.0
470259,-0.108,2.000,-0.432,74.656,126.763,154.504,0.0,91.0
470319,-1.838,2.000,-0.955,-250.137,161.840,250.130,0.0,94.0
470370,-1.177,1.282,-0.478,-35.542,56.458,160.359,45.0,104.0
470422,-0.502,-0.128,-0.289,-55.641,98.977,17.176,43.0,112.0
470473,-0.545,-1.218,-0.346,-59.489,154.229,-127.786,36.0,114.0
470525,-0.776,-1.083,-0.435,53.855,111.206,-242.351,39.0,111.0
470589,-1.422,-0.061,-0.462,129.344,-20.229,-250.137,0.0,103.0
470649,-2.000,2.000,-0.585,234.168,-129.229,-188.282,0.0,115.0
470755,-0.303,1.089,0.210,38.374,-93.122,60.252,0.0,124.0
470816,0.405,0.595,0.210,109.840,-88.282,73.366,0.0,129.0
470879,0.862,0.147,0.350,-7.206,-35.916,61.008,0.0,136.0
470940,1.157,-0.032,0.465,-93.595,23.527,41.992,0.0,116.0
471000,0.615,0.372,0.530,39.176,100.221,96.458,0.0,99.0
471060,-0.692,2.000,-0.719,-37.053,144.359,192.847,0.0,91.0
471111,-2.000,2.000,-0.850,-188.336,81.053,250.130,54.0,97.0
471175,-0.651,1.120,-0.497,-65.908,58.763,140.031,0.0,108.0
471236,-0.439,-0.614,-0.301,-30.519,122.611,6.214,0.0,115.0
471298,-0.766,-0.963,-0.523,14.397,166.420,-127.137,0.0,114.0
471358,-1.049,-0.293,-0.220,70.893,97.794,-250.137,0.0,107.0
471418,-1.565,0.213,0.331,80.771,-8.634,-220.000,0.0,100.0
471480,-2.000,2.000,-0.679,250.130,-167.366,-111.916,0.0,109.0
471540,-0.634,1.657,-0.181,-10.038,-102.588,-1.931,0.0,115.0
471603,0.300,0.892,0.330,133.718,-73.351,43.870,0.0,125.0
471667,0.995,0.159,0.502,-11.557,-25.107,75.687,0.0,119.0
471728,1.064,-0.160,0.505,-56.076,12.687,74.649,0.0,108.0
471788,0.526,0.330,0.558,4.573,35.542,98.664,0.0,97.0
471847,-0.882,2.000,-0.758,-56.015,72.389,200.496,0.0,91.0
471908,-1.719,2.000,-1.147,-131.084,187.924,250.130,0.0,97.0
471960,-0.673,0.877,-0.450,-36.992,139.023,126.954,48.0,107.0
472020,-0.337,-0.650,-0.194,-27.366,118.336,-34.084,0.0,114.0
472082,-0.581,-1.339,-0.147,-13.931,95.634,-157.527,0.0,106.0
472145,-1.247,-0.236,-0.363,148.847,0.061,-250.137,0.0,105.0
472207,-1.855,0.534,-0.119,146.771,-125.672,-194.015,0.0,105.0
472268,-1.985,2.000,-0.977,248.794,-158.145,-61.595,0.0,117.0
472330,-0.268,1.687,-0.375,44.649,-132.153,15.557,0.0,119.0
472391,0.277,0.909,0.139,44.687,-116.626,50.168,0.0,125.0
472454,0.769,0.178,0.362,19.695,-54.267,77.847,0.0,122.0
472514,0.989,-0.010,0.439,-50.702,-1.221,74.023,0.0,117.0
472576,0.497,-0.165,0.473,-38.565,48.603,55.954,0.0,103.0
472635,-0.632,2.000,-0.853,117.313,110.260,132.282,0.0,91.0
472698,-1.834,2.000,-1.335,-231.069,187.053,214.023,0.0,95.0
472751,-0.738,0.959,-0.657,-68.977,157.886,94.794,40.0,103.0
472802,-0.358,-0.693,0.039,-121.656,114.939,-38.687,39.0,109.0
472854,-0.233,-1.141,0.129,-115.618,81.344,-126.511,37.0,110.0
472905,-0.484,-0.269,0.268,-47.695,28.885,-161.252,41.0,109.0
472965,-1.511,1.537,0.643,-175.550,-145.534,-67.313,58.0,109.0
473024,-0.867,2.000,1.674,2.992,-196.809,-9.756,0.0,108.0
473090,-0.537,1.892,1.049,-250.137,-168.496,39.115,0.0,0.0
473157,0.106,-0.124,0.611,-124.450,-109.527,-19.229,0.0,0.0
473211,0.208,0.090,-0.195,-144.099,-27.092,-15.786,18.0,0.0
473277,0.257,-0.127,0.029,-132.908,-9.840,-11.740,0.0,0.0
473341,0.213,0.113,0.321,-82.160,-46.534,28.061,0.0,0.0
473407,0.482,0.425,1.918,-80.260,-69.351,56.122,0.0,0.0
473472,0.052,0.409,2.000,-29.389,-23.557,99.771,0.0,0.0
473537,-0.288,-0.371,1.335,20.863,-5.061,56.947,0.0,0.0
473602,0.097,-0.173,0.344,40.687,34.214,16.374,0.0,0.0
473667,-0.119,-0.110,0.226,11.878,18.725,13.389,0.0,0.0
473735,-0.524,-0.112,0.617,-38.969,5.031,-8.374,0.0,0.0
473833,-0.092,-0.536,2.000,-60.496,41.008,-70.802,30.0,0.0
473899,0.042,-0.217,1.612,47.206,12.099,-58.824,0.0,0.0
473963,0.249,-0.200,0.779,45.832,25.198,-43.107,0.0,0.0
474029,0.451,0.266,0.028,-20.237,0.649,3.382,0.0,0.0
474093,0.178,0.114,0.167,40.618,-22.618,18.328,0.0,0.0
474159,0.436,0.240,0.718,1.458,-45.641,74.557,0.0,0.0
474223,0.236,-0.003,1.839,87.763,-0.870,117.893,0.0,0.0
474289,-0.196,0.139,2.000,-28.405,49.405,97.000,0.0,0.0
474356,-0.222,0.057,0.939,51.740,33.176,41.557,0.0,0.0
474422,-0.402,-0.375,0.342,-46.328,40.023,23.328,0.0,0.0
474487,-0.229,-0.497,0.246,-98.626,-1.992,-54.229,0.0,0.0
474552,-0.242,-0.538,0.840,-76.763,-24.374,-92.656,0.0,0.0
474617,-0.375,-0.613,1.687,-45.389,42.191,-126.313,0.0,0.0
474683,0.033,-0.513,1.619,-4.534,13.214,-90.809,0.0,0.0
474747,0.204,-0.062,0.902,19.985,29.031,-35.809,0.0,0.0
474813,0.309,0.208,0.233,18.679,-6.389,-2.260,0.0,0.0
474878,0.076,0.128,0.336,8.153,-19.947,1.298,0.0,0.0
474946,0.409,0.054,0.940,13.023,-63.252,60.672,0.0,0.0
475012,0.014,-0.049,1.912,71.824,-36.733,72.511,0.0,0.0
475076,0.197,-0.256,1.818,16.069,-6.802,94.977,0.0,0.0
475142,-0.223,-0.333,1.010,35.260,35.672,74.366,0.0,0.0
475207,-0.073,-0.306,0.139,-6.427,29.084,48.267,0.0,0.0
475272,-0.253,-0.278,0.298,-14.954,37.885,-6.084,0.0,0.0
475337,-0.756,-0.415,0.963,-50.878,-16.626,-46.191,0.0,0.0
475403,-0.371,-0.645,1.796,-46.023,31.763,-69.206,0.0,0.0
475468,-0.194,-0.481,1.615,10.122,23.595,-73.405,0.0,0.0
475537,0.084,-0.105,0.955,23.069,45.557,-40.145,0.0,0.0
475601,0.373,0.231,0.308,11.779,23.481,1.351,0.0,0.0
475667,0.113,0.188,0.291,44.733,-5.855,27.252,0.0,0.0
475732,0.196,-0.317,0.674,31.580,-51.916,138.191,0.0,0.0
475798,-0.055,0.341,1.549,93.863,7.924,148.718,0.0,0.0
475863,-0.709,-0.191,1.725,-69.214,46.298,126.122,0.0,0.0
475928,-0.761,-0.707,0.776,249.382,103.321,46.802,0.0,0.0
475994,-0.795,0.174,-0.467,250.130,106.076,-13.947,0.0,0.0
476054,-0.654,-0.091,-0.539,250.130,115.099,-56.656,0.0,109.0
476118,-1.473,0.389,-0.431,250.130,90.160,-194.359,0.0,106.0
476178,-2.000,2.000,-0.318,203.122,-32.885,-160.382,0.0,113.0
476243,-1.767,2.000,-0.613,250.130,-100.389,-42.863,0.0,0.0
476309,-0.018,1.239,-0.153,87.817,-98.863,60.061,0.0,0.0
476371,0.995,0.528,0.112,129.672,-79.252,89.191,0.0,141.0
476433,0.919,0.218,0.348,-42.802,-26.084,106.031,0.0,127.0
476492,1.015,-0.114,0.616,-21.244,-5.168,72.748,0.0,107.0
476551,0.485,1.219,0.275,73.687,70.962,90.176,0.0,63.0
476612,-2.000,2.000,-1.488,-204.107,243.298,250.130,0.0,89.0
476673,-2.000,1.877,-0.921,-216.954,165.130,250.130,0.0,101.0
476724,-0.523,-0.148,-0.437,-75.183,123.664,141.038,34.0,111.0
476775,-0.740,-1.330,-0.507,-92.084,92.252,-37.641,34.0,117.0
476826,-0.631,-1.473,-0.393,81.489,84.672,-186.863,36.0,115.0
476877,-1.292,-0.291,-0.437,203.969,7.618,-250.137,46.0,107.0
476939,-1.947,0.626,-0.178,88.527,-68.038,-250.137,0.0,126.0
477048,-0.999,1.785,-0.253,101.206,-101.214,54.603,0.0,0.0
477114,0.270,0.804,-0.011,61.534,-102.847,79.397,0.0,139.0
477175,0.817,0.274,0.329,19.183,-59.756,57.298,0.0,136.0
477237,0.920,-0.043,0.417,-34.824,-18.458,53.740,0.0,120.0
477296,0.926,0.012,0.448,-9.015,44.534,13.252,0.0,103.0
477356,-0.548,2.000,-0.548,96.542,119.160,104.466,0.0,93.0
477407,-2.000,2.000,-0.905,-202.061,223.939,250.130,49.0,95.0
477459,-1.032,1.509,-0.729,-61.519,178.672,182.534,51.0,102.0
477510,-0.416,0.141,-0.378,-65.046,151.779,12.550,51.0,111.0
477562,-0.357,-0.950,-0.146,5.588,112.542,-65.313,38.0,115.0
477626,-0.420,-0.861,-0.263,63.450,60.221,-111.725,0.0,114.0
477686,-0.806,-0.111,-0.279,66.855,-37.290,-217.954,0.0,107.0
477748,-2.000,0.450,-0.046,114.336,-135.412,-188.420,0.0,120.0
477808,-2.000,2.000,-1.130,186.771,-137.893,25.023,0.0,109.0
477871,-0.211,1.094,-0.208,-18.023,-128.069,87.191,0.0,135.0
477932,0.798,0.381,0.285,7.527,-129.763,61.099,0.0,117.0
477992,0.799,-0.088,0.246,-58.053,-61.130,39.160,0.0,117.0
478043,1.018,-0.444,0.515,-26.878,14.985,22.908,19.0,114.0
478106,0.764,-0.176,0.420,52.893,80.756,9.977,0.0,105.0
478166,-0.996,2.000,-1.020,85.412,155.779,76.779,0.0,93.0
478226,-1.815,2.000,-1.038,-215.901,237.656,250.130,0.0,98.0
478274,-0.828,1.010,-0.567,-27.015,139.809,152.237,37.0,58.0
478324,-0.737,-0.315,-0.436,-16.664,113.855,25.733,36.0,78.0
478385,-0.648,-1.046,-0.343,-42.802,101.137,-83.412,0.0,117.0
478437,-0.655,-0.823,-0.300,105.794,52.573,-214.031,37.0,112.0
478489,-1.273,-0.090,-0.370,125.244,-27.832,-250.137,58.0,104.0
478553,-2.000,2.000,-0.769,250.130,-139.878,-230.977,0.0,114.0
478614,-1.205,2.000,-0.823,119.527,-120.420,37.763,0.0,113.0
478678,0.035,0.972,-0.039,23.702,-111.611,72.886,0.0,148.0
478738,0.574,0.320,0.301,51.137,-91.817,59.366,0.0,114.0
478799,0.735,0.027,0.351,-8.557,-41.748,51.458,0.0,115.0
478860,1.085,-0.048,0.544,-18.618,20.603,30.878,0.0,109.0
478919,0.363,0.319,0.427,37.534,74.847,34.160,0.0,96.0
478980,-2.000,2.000,-1.331,5.992,100.794,136.878,0.0,91.0
479031,-1.494,2.000,-0.810,-101.565,212.855,250.130,58.0,97.0
479084,-0.574,0.381,-0.293,-123.824,178.626,89.221,37.0,73.0
479135,-0.428,-0.840,-0.072,-100.740,141.481,-37.649,35.0,112.0
479186,-0.653,-1.349,-0.405,-27.786,105.000,-120.550,36.0,113.0
479239,-0.696,-0.713,-0.381,161.687,23.489,-236.870,39.0,108.0
479291,-1.797,-0.024,-0.664,178.405,-107.580,-250.137,58.0,100.0
479351,-2.000,2.000,-1.360,211.198,-166.443,-175.672,0.0,106.0
479413,-1.184,2.000,-0.409,60.702,-99.519,44.679,0.0,125.0
479475,-0.010,0.644,0.027,51.947,-130.229,61.580,0.0,132.0
479545,0.965,0.200,0.372,108.847,-102.145,33.840,0.0,0.0
479605,1.033,0.153,0.413,-15.489,-21.183,44.992,0.0,113.0
479667,1.167,0.031,0.606,-43.435,69.802,30.336,0.0,112.0
479726,0.096,2.000,-0.512,104.229,148.603,77.634,0.0,92.0
479787,-2.000,2.000,-1.478,-250.137,169.115,250.130,0.0,94.0
479847,-1.059,1.605,-0.741,-72.863,143.603,247.076,0.0,106.0
479908,-0.512,-0.520,-0.288,-154.557,111.718,27.466,0.0,117.0
480013,-0.632,-0.880,-0.401,141.802,61.885,-201.107,0.0,113.0
480077,-1.206,-0.100,-0.406,78.908,-33.023,-250.137,0.0,109.0
480139,-2.000,2.000,-0.879,189.473,-98.519,-231.656,0.0,109.0
480200,-1.236,2.000,-0.146,98.481,-92.122,108.183,0.0,117.0
480262,0.247,0.824,0.185,54.786,-92.947,128.855,0.0,111.0
480322,0.707,-0.046,0.529,5.389,-76.618,59.344,0.0,115.0
480384,0.883,-0.464,0.518,-3.573,-7.626,48.397,0.0,114.0
480444,0.968,-0.077,0.383,8.084,73.924,28.626,0.0,106.0
480504,0.525,2.000,0.002,56.802,165.427,106.450,0.0,97.0
480565,-0.853,2.000,-0.883,-154.908,169.954,240.458,0.0,97.0
480620,-0.646,2.000,-1.043,-57.924,163.092,145.260,51.0,106.0
480672,-0.493,0.385,-0.639,-67.305,144.435,46.855,42.0,114.0
480726,-0.590,-1.067,-0.374,-10.344,134.229,-27.145,40.0,120.0
480787,-0.637,-1.096,-0.514,99.817,89.718,-119.878,0.0,116.0
480852,-0.894,-0.139,-0.396,128.466,-32.122,-250.137,0.0,106.0
480912,-2.000,1.184,-0.233,65.916,-101.954,-209.504,0.0,98.0
480972,-2.000,2.000,-0.773,250.130,-157.542,-48.641,0.0,106.0
481033,-0.425,1.695,-0.353,66.260,-144.092,37.137,0.0,123.0
481100,0.456,0.755,0.046,61.771,-156.328,3.794,0.0,0.0
481166,0.896,0.129,0.369,-14.450,-78.595,14.603,0.0,0.0
481225,1.263,-0.134,0.663,-37.053,-8.275,52.313,0.0,112.0
481285,0.879,0.085,0.649,-2.824,40.634,75.878,0.0,103.0
481344,-0.396,2.000,-0.831,79.992,75.000,143.160,0.0,92.0
481403,-2.000,2.000,-0.975,-213.725,178.473,250.130,0.0,97.0
481455,-1.009,1.295,-0.636,-27.863,171.702,177.641,51.0,107.0
481505,-0.489,-0.493,-0.364,-80.992,173.519,6.382,36.0,115.0
481556,-0.547,-1.276,-0.209,-42.397,154.847,-95.023,35.0,119.0
481610,-0.750,-0.942,-0.385,136.740,78.962,-158.183,36.0,115.0
481670,-1.135,0.011,-0.471,188.824,-46.649,-250.137,0.0,107.0
481730,-1.833,0.390,-0.364,75.740,-150.489,-211.626,0.0,110.0
481790,-2.000,2.000,-0.983,250.130,-175.344,-52.565,0.0,112.0
481851,-0.399,1.561,-0.369,12.817,-96.718,67.931,0.0,117.0
481911,0.298,0.591,0.028,141.511,-100.969,80.985,0.0,114.0
481972,0.748,0.454,0.276,40.702,-48.366,110.313,0.0,116.0
482032,1.064,-0.197,0.560,-123.183,5.595,98.290,0.0,115.0
482095,1.045,-0.339,0.674,-170.489,77.863,56.786,0.0,108.0
482154,0.886,1.532,0.770,250.130,134.221,102.183,0.0,95.0
482213,-1.881,2.000,-1.573,-250.137,227.656,250.130,0.0,100.0
482274,-0.718,1.559,-0.911,-67.473,165.435,224.573,0.0,113.0
482335,-0.547,-0.653,-0.171,-4.397,125.168,-33.595,0.0,120.0
482396,-0.839,-1.136,-0.241,102.511,94.374,-133.198,0.0,119.0
482456,-0.915,-0.139,-0.519,174.061,-4.397,-245.763,0.0,111.0
482515,-1.418,0.131,-0.514,37.275,-89.656,-250.137,0.0,102.0
482579,-2.000,2.000,-1.022,234.069,-150.214,-139.198,0.0,104.0
482639,-1.161,2.000,-0.496,110.252,-114.260,26.443,0.0,111.0
482700,-0.101,1.309,-0.286,137.641,-124.824,88.649,0.0,109.0
482760,0.681,0.462,0.171,19.985,-99.244,75.672,0.0,126.0
482821,0.895,-0.348,0.415,-18.794,-40.847,40.092,0.0,116.0
482881,1.075,-0.004,0.365,23.252,30.420,7.695,0.0,108.0
482940,0.357,1.501,0.020,-142.374,121.298,50.695,0.0,98.0
483044,-2.000,2.000,-0.841,-247.534,137.496,222.756,0.0,100.0
483095,-0.691,0.554,-0.382,-76.168,140.977,83.153,50.0,109.0
483159,-0.546,-0.829,-0.301,87.740,136.687,-58.198,0.0,114.0
483219,-0.521,-0.853,-0.387,-26.878,92.153,-181.954,0.0,113.0
483279,-0.935,-0.511,-0.254,117.771,-5.275,-250.137,0.0,107.0
483341,-1.860,0.730,-0.183,179.038,-107.450,-162.061,0.0,117.0
483401,-2.000,2.000,-0.714,121.344,-165.237,-70.527,0.0,124.0
483464,-0.733,1.286,-0.113,60.153,-99.061,50.824,0.0,147.0
483529,0.156,0.748,0.063,70.840,-86.718,51.733,0.0,0.0
483592,0.653,0.146,0.243,49.718,-37.115,60.229,0.0,152.0
483655,0.926,-0.033,0.375,10.298,9.008,57.069,0.0,111.0
483716,0.758,0.586,0.256,18.947,88.412,85.886,0.0,103.0
483775,0.236,2.000,-0.621,0.260,149.015,157.863,0.0,93.0
483834,-2.000,2.000,-1.624,-227.275,209.183,228.595,0.0,97.0
483895,-1.026,1.089,-0.658,-18.679,128.664,108.855,0.0,106.0
483944,-0.401,-0.488,-0.144,7.641,119.405,-44.405,50.0,58.0
483995,-0.641,-0.982,-0.228,12.107,102.725,-119.015,39.0,112.0
484046,-0.673,-0.499,-0.261,43.298,33.496,-203.542,43.0,109.0
484106,-1.268,0.104,-0.300,64.786,-57.412,-229.847,0.0,102.0
484169,-2.000,2.000,-0.765,167.573,-128.176,-130.519,0.0,110.0
484236,-1.572,2.000,-0.701,36.893,-145.008,-2.824,0.0,0.0
484296,0.136,1.120,-0.087,109.519,-157.718,57.473,0.0,121.0
484358,0.812,0.555,0.136,10.107,-98.771,71.191,0.0,126.0
484418,0.967,-0.333,0.353,-24.832,-33.229,64.710,0.0,114.0
484478,1.027,0.010,0.356,1.824,31.573,29.985,0.0,106.0
484538,0.454,1.474,0.144,28.969,96.931,71.840,0.0,96.0
484595,-0.956,2.000,-0.787,-71.435,126.908,202.931,0.0,55.0
484659,-1.422,2.000,-0.624,-28.962,137.527,167.725,51.0,99.0
484710,-0.782,0.666,-0.434,-20.450,136.809,69.282,51.0,108.0
484771,-0.517,-0.567,-0.193,-63.198,149.763,-21.435,0.0,115.0
484823,-0.587,-1.166,-0.373,-6.260,118.924,-108.962,39.0,114.0
484875,-0.794,-0.500,-0.406,109.847,45.519,-250.137,51.0,109.0
484927,-1.622,0.040,-0.424,67.076,-42.863,-250.137,58.0,102.0
484987,-2.000,2.000,-0.662,149.267,-131.603,-125.344,0.0,114.0
485049,-0.807,1.730,-0.302,60.626,-90.389,49.489,0.0,113.0
485112,0.067,0.921,0.119,10.679,-114.763,56.702,0.0,111.0
485173,0.530,0.030,0.221,23.962,-134.305,73.718,0.0,115.0
485234,1.014,-0.246,0.433,-8.779,-62.252,61.794,0.0,113.0
485295,0.924,-0.119,0.436,-1.626,26.534,18.107,0.0,106.0
485354,0.536,2.000,0.367,126.305,113.008,77.748,0.0,94.0
485411,-1.299,2.000,-1.653,-180.931,214.130,215.565,0.0,57.0
485472,-1.087,1.391,-0.635,-93.397,146.580,184.252,0.0,103.0
485520,-0.538,-0.087,-0.447,-44.969,100.931,-1.893,39.0,57.0
485572,-0.570,-0.893,-0.270,-80.901,102.763,-103.344,36.0,114.0
485626,-0.451,-1.167,-0.326,47.229,98.359,-167.458,38.0,112.0
485687,-0.771,-0.251,-0.370,187.344,29.107,-250.137,0.0,104.0
485747,-2.000,2.000,-0.469,110.641,-60.282,-115.847,0.0,104.0
485808,-2.000,2.000,-0.394,211.046,-151.084,48.382,0.0,106.0
485869,-0.097,1.314,-0.167,-8.290,-141.153,49.244,0.0,109.0
485932,0.648,0.254,0.193,53.977,-143.649,8.061,0.0,141.0
486035,1.144,0.096,0.300,39.740,-24.924,30.313,0.0,113.0
486095,0.829,0.358,0.355,48.977,64.756,62.252,0.0,104.0
486159,0.283,2.000,-0.697,23.954,161.618,157.702,0.0,94.0
486209,-0.951,2.000,-1.272,-194.832,244.847,237.115,59.0,57.0
486261,-1.504,1.765,-1.080,-145.985,121.046,168.916,58.0,104.0
486322,-0.889,0.135,-0.775,-9.489,120.863,72.427,0.0,113.0
486383,-0.957,-1.174,-0.711,-178.038,144.863,-72.886,0.0,116.0
486434,-0.884,-0.959,-0.315,149.450,74.542,-245.198,37.0,111.0
486486,-1.607,0.715,-0.325,153.237,-25.763,-244.405,42.0,102.0
486546,-2.000,2.000,-0.441,176.611,-118.977,-164.153,0.0,97.0
486607,-1.265,2.000,-0.405,142.237,-156.359,-8.359,0.0,107.0
486672,0.015,1.287,-0.061,53.321,-129.886,23.282,0.0,117.0
486732,0.621,0.459,0.226,33.756,-99.710,39.191,0.0,112.0
486794,0.733,-0.085,0.239,-27.275,-48.809,52.511,0.0,114.0
486854,1.155,-0.264,0.464,-9.595,8.053,41.992,0.0,108.0
486915,0.525,0.860,0.213,93.183,87.817,78.641,0.0,98.0
486974,-0.663,2.000,-1.161,-22.573,165.634,153.618,0.0,93.0
487026,-1.788,1.958,-0.895,-133.847,133.725,149.267,58.0,99.0
487087,-0.770,0.739,-0.438,31.832,106.534,27.779,0.0,107.0
487151,-0.321,-0.292,-0.075,-23.046,111.267,-107.542,0.0,112.0
487213,-0.424,-0.787,-0.159,-95.031,111.878,-148.313,0.0,111.0
487273,-0.863,-0.501,-0.179,68.901,18.198,-224.878,0.0,106.0
487335,-1.879,0.385,-0.229,175.679,-118.679,-164.725,0.0,124.0
487397,-2.000,2.000,-1.026,184.550,-111.916,-17.931,0.0,118.0
487458,-0.500,1.393,-0.302,33.282,-72.053,43.290,0.0,113.0
487520,0.406,0.655,0.931,143.450,-163.282,93.664,0.0,128.0
487581,0.850,0.342,0.347,7.802,-98.405,103.290,0.0,115.0
487646,1.018,-0.264,0.485,-67.656,10.763,94.489,0.0,112.0
487706,0.740,0.057,0.462,31.802,97.061,71.916,0.0,102.0
487767,-0.097,2.000,-0.890,37.802,176.511,130.580,0.0,94.0
487827,-1.526,2.000,-1.402,-212.107,250.130,210.137,0.0,99.0
487879,-0.758,0.937,-0.493,-4.595,133.756,77.275,47.0,106.0
487940,-0.441,0.135,-0.355,-7.382,107.168,-29.466,0.0,113.0
487993,-0.579,-0.982,-0.220,-38.832,96.748,-115.405,49.0,114.0
488053,-0.767,-0.612,-0.236,72.557,38.534,-195.588,0.0,109.0
488115,-1.362,-0.092,-0.366,101.786,-75.313,-250.137,0.0,101.0
488179,-2.000,2.000,-0.779,173.962,-157.916,-162.443,0.0,111.0
488241,-0.756,1.811,-0.317,97.855,-110.092,-2.962,0.0,120.0
488302,0.068,1.196,0.007,66.000,-109.733,40.153,0.0,117.0
488375,0.730,0.406,0.336,4.641,-49.229,72.947,0.0,0.0
488434,0.992,-0.233,0.517,-86.626,14.901,74.924,0.0,110.0
488495,0.753,-0.167,0.467,-43.397,73.267,49.229,0.0,102.0
488553,-0.067,2.000,-0.593,126.573,122.832,133.336,0.0,93.0
488612,-1.589,2.000,-1.467,-250.137,187.947,236.618,0.0,95.0
488666,-0.988,1.186,-0.512,-21.573,99.458,136.679,38.0,104.0
488726,-0.604,0.298,-0.527,-55.977,107.901,23.046,0.0,112.0
488777,-0.528,-1.153,-0.312,-87.924,103.985,-84.534,50.0,116.0
488838,-0.421,-0.853,-0.191,118.191,61.221,-160.603,0.0,111.0
488897,-1.031,-0.043,-0.487,132.046,-15.802,-224.328,0.0,104.0
488957,-2.000,2.000,-0.616,160.420,-118.840,-166.229,0.0,106.0
