Timestamp(ms),AccelX(g),AccelY(g),AccelZ(g),GyroX(deg/s),GyroY(deg/s),GyroZ(deg/s),DistanceLeft(cm),DistanceRight(cm)
561464,-1.146,1.341,-0.445,-100.481,159.374,113.092,58.0,100.0
561525,-0.448,0.476,-0.326,-83.008,159.557,27.557,0.0,110.0
561576,-0.401,-0.757,-0.298,-120.794,144.649,-57.084,39.0,115.0
561638,-0.461,-1.172,-0.261,-32.985,82.794,-114.939,0.0,113.0
561699,-0.767,-0.185,-0.203,97.298,-17.466,-250.137,0.0,107.0
561761,-2.000,1.267,0.572,46.237,-73.405,-212.153,0.0,118.0
561826,-1.415,2.000,-0.922,220.328,-93.824,-3.481,0.0,122.0
561888,-0.240,0.934,-0.092,-138.840,-108.519,-0.473,0.0,122.0
561950,0.239,0.142,0.297,38.084,-105.015,-28.626,0.0,136.0
562013,0.634,0.220,0.273,128.099,-49.183,38.878,0.0,126.0
562074,1.000,0.327,0.421,13.901,32.603,74.473,0.0,120.0
562135,0.484,0.646,0.439,-74.687,101.702,122.886,0.0,103.0
562195,-0.859,2.000,-0.286,60.496,96.679,211.153,0.0,95.0
562255,-1.744,2.000,-1.167,-69.198,106.908,207.550,0.0,100.0
562312,-0.562,1.018,-0.291,-76.542,126.336,72.893,53.0,108.0
562370,-0.463,-0.363,-0.190,-106.473,120.313,-22.718,51.0,115.0
562421,-0.348,-1.240,-0.184,-48.649,119.527,-53.489,51.0,117.0
562482,-0.469,-0.751,-0.375,125.267,93.595,-148.084,0.0,112.0
562541,-0.910,0.035,-0.326,90.359,-15.527,-250.137,0.0,102.0
562600,-2.000,2.000,0.107,181.351,-157.450,-116.588,0.0,99.0
562660,-1.230,2.000,-0.178,140.534,-146.458,21.481,0.0,103.0
562721,-0.119,1.245,0.042,-3.534,-144.847,4.992,0.0,118.0
562784,0.533,0.376,0.206,51.267,-108.481,-5.733,0.0,114.0
562844,0.691,0.061,0.155,-34.046,-40.397,43.817,0.0,114.0
562905,0.856,-0.067,0.316,-78.527,8.321,48.160,0.0,116.0
562964,0.559,0.140,0.592,32.260,68.756,75.275,0.0,103.0
563023,-0.614,2.000,-0.861,250.130,141.794,157.466,0.0,92.0
563083,-1.507,2.000,-1.670,-250.137,250.130,211.489,0.0,99.0
563134,-0.921,0.512,-0.189,-184.786,145.809,103.557,58.0,108.0
563185,-0.664,-0.174,-0.123,-30.947,74.809,41.420,39.0,114.0
563236,-0.621,-0.697,-0.219,35.603,79.031,-4.290,35.0,117.0
563290,-0.561,-0.696,-0.400,15.427,74.244,-82.038,37.0,115.0
563350,-0.940,-0.242,-0.198,103.473,-11.000,-250.137,0.0,107.0
563410,-2.000,1.312,0.197,105.969,-138.420,-250.137,0.0,108.0
563470,-1.886,2.000,0.052,215.725,-191.947,-59.015,0.0,107.0
563530,-0.179,1.453,-0.200,93.023,-158.290,17.466,0.0,113.0
563592,0.490,0.701,0.088,-9.397,-135.580,3.450,0.0,125.0
563652,0.869,0.110,0.299,-44.740,-64.336,20.725,0.0,127.0
563713,0.851,-0.285,0.214,-86.641,-12.069,96.053,0.0,117.0
563776,0.834,0.032,0.160,7.046,42.679,89.305,0.0,106.0
563835,-0.319,2.000,-0.593,163.748,98.069,143.817,0.0,95.0
563887,-0.930,2.000,-1.008,-44.153,250.130,250.130,60.0,95.0
563946,-1.411,2.000,-0.448,-189.817,236.886,177.962,0.0,104.0
563998,-0.766,0.001,0.064,-54.038,150.710,38.504,51.0,112.0
564049,-0.750,-1.016,-0.214,1.527,111.099,-30.397,37.0,114.0
564101,-0.643,-1.137,-0.339,116.817,69.489,-150.565,41.0,111.0
564160,-0.672,-0.466,-0.133,217.351,35.863,-250.137,0.0,102.0
564222,-2.000,2.000,0.143,56.229,-76.198,-205.069,0.0,105.0
564283,-1.908,2.000,-0.172,187.023,-133.992,-27.313,0.0,108.0
564343,-0.720,1.516,-0.506,42.718,-127.473,51.817,0.0,114.0
564448,0.624,0.250,0.261,69.611,-91.115,30.344,0.0,121.0
564509,0.786,0.067,0.284,-1.809,-19.969,61.489,0.0,122.0
564570,0.858,-0.073,0.425,-108.954,-1.244,67.802,0.0,115.0
564629,0.598,-0.034,0.580,-38.802,35.405,61.336,0.0,100.0
564680,-0.899,2.000,-0.374,111.122,144.382,203.969,52.0,92.0
564730,-1.613,2.000,-0.699,-231.718,200.397,250.130,39.0,97.0
564785,-0.756,0.959,-0.140,-25.206,162.298,199.511,39.0,107.0
564835,-0.789,0.043,-0.202,-1.198,108.969,28.305,35.0,113.0
564886,-0.898,-0.923,-0.323,-78.076,85.573,-73.282,34.0,117.0
564937,-0.521,-1.180,-0.169,22.046,56.855,-161.359,37.0,114.0
564988,-1.024,-0.482,-0.322,181.863,-2.443,-250.137,44.0,105.0
565049,-2.000,-0.039,-0.577,119.924,-106.962,-250.137,0.0,102.0
565109,-2.000,2.000,0.110,129.664,-171.466,-184.702,0.0,116.0
565170,-0.945,1.490,-0.117,174.382,-92.718,19.702,0.0,116.0
565234,-0.027,1.008,-0.013,80.763,-104.336,31.290,0.0,123.0
565296,0.608,0.374,0.273,43.359,-71.237,37.397,0.0,130.0
565358,0.717,0.015,0.290,-19.344,-23.702,77.076,0.0,137.0
565420,0.944,0.078,0.339,-9.466,36.542,65.244,0.0,123.0
565479,0.399,1.154,0.543,-2.664,109.252,112.206,0.0,96.0
565538,-1.435,2.000,-1.292,-92.145,250.130,249.893,0.0,92.0
565588,-1.754,1.582,-0.575,-168.588,178.550,250.130,37.0,98.0
565640,-0.602,0.509,-0.161,-25.000,125.466,96.870,51.0,106.0
565691,-0.394,-0.349,-0.118,-30.275,89.374,-58.374,38.0,111.0
565746,-0.420,-0.785,-0.124,-30.107,106.481,-134.336,39.0,112.0
565797,-0.592,-0.776,-0.209,5.847,76.672,-146.992,44.0,109.0
565858,-1.016,-0.185,-0.236,118.046,-7.313,-239.260,0.0,104.0
565918,-2.000,2.000,-0.369,194.038,-169.939,-143.214,0.0,105.0
565979,-1.264,1.571,0.180,182.496,-156.481,22.626,0.0,108.0
566039,-0.574,1.603,-0.261,5.252,-131.725,50.031,0.0,114.0
566100,0.410,0.348,0.164,-8.725,-158.855,38.702,0.0,121.0
566161,0.648,-0.060,0.074,57.382,-99.878,65.824,0.0,115.0
566224,0.938,-0.082,0.051,-4.427,-18.855,85.565,0.0,112.0
566285,1.333,0.597,0.025,-19.053,136.321,85.382,0.0,103.0
566344,0.277,2.000,-1.259,210.802,244.046,216.221,0.0,95.0
566405,-1.283,2.000,-0.499,-184.359,250.130,250.130,0.0,101.0
566465,-0.815,0.783,-0.107,21.649,167.794,43.756,0.0,109.0
566526,-0.388,0.100,-0.108,49.695,102.916,-90.504,0.0,111.0
566577,-0.750,-0.418,-0.265,-80.679,82.107,-126.496,36.0,103.0
566637,-0.818,-0.394,-0.169,-17.664,65.229,-184.099,0.0,105.0
566701,-2.000,0.113,-0.424,107.282,-45.924,-210.542,0.0,97.0
566761,-2.000,2.000,-0.466,250.130,-214.092,-174.191,0.0,96.0
566821,-0.597,2.000,-0.742,118.115,-201.832,-42.160,0.0,108.0
566883,0.185,1.062,-0.113,0.855,-162.824,-16.969,0.0,121.0
566944,0.734,0.339,0.146,48.794,-102.855,34.122,0.0,129.0
567006,0.988,-0.079,0.183,-70.618,-11.443,81.359,0.0,120.0
567066,0.900,-0.266,0.375,8.817,44.053,76.504,0.0,108.0
567126,0.619,0.774,0.650,145.672,91.626,99.634,0.0,96.0
567186,-1.011,2.000,-0.648,-96.893,164.824,206.389,0.0,92.0
567249,-1.263,2.000,-0.369,-100.115,141.542,225.473,0.0,101.0
567310,-0.389,0.615,-0.319,-49.397,154.366,75.908,0.0,111.0
567405,-0.533,-1.085,-0.455,-12.031,141.489,-93.221,37.0,116.0
567467,-0.452,-0.698,-0.396,136.015,77.527,-192.145,0.0,108.0
567526,-1.418,-0.039,-0.499,165.160,-40.634,-250.137,0.0,98.0
567586,-2.000,2.000,-0.589,136.832,-208.160,-107.977,0.0,95.0
567656,-0.781,1.711,-0.366,87.183,-127.099,79.786,0.0,103.0
567715,-0.010,0.820,0.009,-32.458,-165.321,34.969,0.0,110.0
567779,0.580,-0.001,0.249,55.053,-137.229,13.794,0.0,121.0
567839,0.770,0.034,0.126,13.679,-47.885,45.847,0.0,114.0
567899,1.021,-0.128,0.383,-28.977,21.351,51.130,0.0,108.0
567958,0.722,0.647,0.597,55.496,76.237,100.382,0.0,98.0
568015,-0.306,2.000,-1.036,24.885,160.756,235.664,0.0,57.0
568066,-1.348,2.000,-0.436,-250.137,131.313,214.702,37.0,102.0
568125,-0.604,0.690,-0.080,-24.611,101.878,97.366,0.0,111.0
568176,-0.341,-0.161,-0.412,-3.939,138.511,-49.939,38.0,116.0
568230,-0.558,-1.140,-0.603,-99.191,170.931,-162.756,37.0,117.0
568291,-0.565,-1.034,-0.508,123.672,142.336,-250.137,0.0,109.0
568351,-1.409,-0.138,-0.532,166.695,21.267,-250.137,0.0,119.0
568412,-2.000,2.000,-0.392,61.557,-131.214,-86.718,0.0,118.0
568472,-1.299,2.000,0.077,22.313,-156.366,66.550,0.0,122.0
568534,0.156,0.136,0.349,-45.115,-194.565,25.664,0.0,133.0
568595,0.668,-0.091,0.053,179.771,-144.931,21.939,0.0,127.0
568655,0.901,0.012,0.098,133.275,-37.626,47.863,0.0,113.0
568715,0.926,0.145,0.329,38.443,53.450,30.305,0.0,106.0
568777,0.219,1.317,0.607,-10.450,122.534,114.092,0.0,96.0
568837,-0.428,2.000,-0.075,-143.863,190.977,223.008,0.0,94.0
568887,-1.033,1.982,-0.394,-59.939,185.565,223.809,38.0,101.0
568946,-0.318,0.737,-0.374,37.588,152.252,65.153,0.0,110.0
569008,-0.291,-0.210,-0.350,-26.084,105.702,-60.679,0.0,116.0
569068,-0.466,-1.028,-0.406,-113.847,88.450,-110.840,0.0,115.0
569127,-0.493,-0.593,-0.268,118.237,46.969,-224.542,0.0,107.0
569188,-1.542,-0.140,-0.488,160.786,-27.962,-250.137,0.0,98.0
569250,-2.000,2.000,-0.924,168.427,-216.489,-101.779,0.0,105.0
569311,-0.605,1.651,-0.122,144.435,-140.527,25.420,0.0,110.0
569372,0.251,1.124,0.005,33.328,-118.366,15.351,0.0,130.0
569434,0.780,0.339,0.416,9.069,-83.130,15.893,0.0,128.0
569494,0.861,-0.070,0.378,-53.069,-33.267,58.031,0.0,124.0
569554,1.038,-0.115,0.504,-23.160,8.817,47.145,0.0,107.0
569614,0.383,1.218,0.683,110.786,70.626,136.450,0.0,95.0
569672,-1.318,2.000,-0.972,-131.061,172.962,250.130,0.0,93.0
569723,-1.674,1.929,-0.611,-79.008,106.519,250.130,42.0,100.0
569787,-0.588,0.955,-0.491,-46.466,109.443,98.061,0.0,111.0
569838,-0.493,-0.689,-0.210,-124.191,107.275,-56.504,37.0,116.0
569889,-0.633,-1.331,-0.388,-11.763,121.809,-122.573,35.0,117.0
569940,-0.608,-0.625,-0.395,148.397,97.779,-230.603,38.0,110.0
569992,-1.512,-0.020,-0.425,166.092,15.351,-250.137,47.0,107.0
570054,-2.000,1.926,-0.368,213.496,-65.893,-250.137,0.0,148.0
570117,-2.000,2.000,-0.188,88.672,-52.863,-19.069,0.0,149.0
570174,-0.131,1.026,-0.049,202.847,-85.145,37.450,59.0,0.0
570234,0.511,1.010,0.168,72.725,-79.359,36.901,58.0,0.0
570289,0.707,0.271,0.448,-34.176,-50.313,45.954,58.0,152.0
570385,0.752,0.167,0.609,-18.214,41.351,95.282,52.0,131.0
570436,0.263,2.000,0.490,47.023,88.130,166.618,49.0,95.0
570486,-2.000,2.000,-1.327,-224.779,138.061,250.130,52.0,91.0
570536,-1.884,1.636,-0.405,-56.046,64.939,250.130,43.0,96.0
570588,-0.965,1.135,-0.517,-80.374,85.855,152.405,37.0,104.0
570639,-0.489,-0.211,-0.281,-160.382,90.313,13.405,43.0,111.0
570702,-0.091,-1.298,-0.194,-95.679,116.710,-96.679,0.0,114.0
570754,-0.338,-0.994,-0.320,177.053,133.305,-202.031,37.0,108.0
570805,-1.508,-0.219,-0.729,250.130,55.084,-250.137,58.0,99.0
570871,-2.000,2.000,-1.196,124.779,-116.702,-232.405,0.0,0.0
570934,-1.995,1.656,-0.050,139.588,-82.183,18.137,0.0,147.0
570996,-0.567,0.993,-0.138,182.824,-131.886,76.580,0.0,144.0
571058,0.255,0.761,0.000,157.611,-156.641,67.389,0.0,130.0
571123,0.887,0.440,0.276,25.901,-67.817,63.099,0.0,0.0
571184,0.927,-0.004,0.416,-107.748,36.107,78.260,0.0,119.0
571247,0.516,0.076,0.423,-58.809,98.664,97.641,0.0,103.0
571307,-0.652,2.000,-0.488,92.321,129.435,108.443,0.0,93.0
571366,-1.452,2.000,-1.078,-175.290,165.351,233.756,0.0,96.0
571426,-0.610,1.353,-0.337,-88.221,113.519,149.977,0.0,105.0
571488,-0.372,0.083,-0.178,-66.221,103.336,49.901,0.0,114.0
571539,-0.472,-1.514,-0.695,18.511,129.733,-62.802,39.0,116.0
571599,-0.809,-1.228,-0.936,193.870,113.053,-237.344,0.0,109.0
571660,-1.623,0.036,-0.435,31.672,34.046,-250.137,0.0,98.0
571723,-2.000,2.000,-0.027,104.313,-170.443,-220.412,0.0,104.0
571784,-1.791,1.629,-0.471,250.130,-216.672,29.313,0.0,115.0
571846,-0.404,1.418,-0.820,-4.847,-164.748,58.443,0.0,131.0
571908,0.361,0.238,-0.181,72.397,-99.550,44.511,0.0,126.0
571969,0.911,0.282,0.027,61.145,17.420,65.481,0.0,124.0
572029,1.020,0.141,0.339,-75.389,66.053,69.832,0.0,110.0
572089,0.646,0.013,0.530,4.305,89.351,87.290,0.0,100.0
572149,-0.899,2.000,-1.579,105.763,145.534,152.588,0.0,91.0
572212,-2.000,2.000,-0.942,-188.664,101.931,223.260,0.0,99.0
572270,-0.616,0.839,-0.331,-13.466,128.809,97.977,0.0,60.0
572331,-0.369,-0.438,-0.169,-117.916,147.053,-67.107,0.0,115.0
572383,-0.376,-1.397,-0.154,-53.962,125.351,-158.145,36.0,115.0
572435,-0.533,-0.787,-0.348,104.176,61.412,-249.565,51.0,109.0
572495,-1.086,-0.144,-0.340,112.053,-31.557,-250.137,0.0,110.0
572557,-2.000,2.000,-0.465,250.130,-122.687,-209.344,0.0,128.0
572620,-1.509,2.000,-1.007,90.489,-66.962,94.634,0.0,159.0
572683,-0.064,0.601,0.098,-15.603,-140.840,65.763,0.0,125.0
572748,0.792,0.335,0.342,157.733,-123.198,59.863,0.0,143.0
572810,0.876,0.213,0.298,2.565,-55.634,81.198,0.0,125.0
572870,0.993,0.130,0.401,-80.260,15.420,49.527,0.0,106.0
572931,0.130,0.864,0.532,-22.290,72.947,117.718,0.0,96.0
572990,-1.149,2.000,-1.137,19.779,166.977,243.061,0.0,93.0
573050,-1.417,1.919,-0.594,-128.107,157.924,218.450,0.0,101.0
573103,-0.500,0.726,-0.218,-27.260,160.069,68.832,58.0,110.0
573155,-0.524,-0.251,-0.155,-89.695,164.656,-2.519,40.0,117.0
573219,-0.739,-1.228,-0.474,-80.496,143.061,-26.962,0.0,118.0
573281,-0.670,-0.588,-0.450,186.519,5.298,-210.275,0.0,110.0
573384,-2.000,2.000,-0.589,159.511,-103.550,-190.740,0.0,100.0
573445,-1.357,2.000,-0.568,26.099,-59.115,36.176,0.0,106.0
573506,-0.340,0.827,-0.019,-2.168,-127.817,25.550,0.0,109.0
573566,0.352,0.227,0.207,94.573,-147.237,-25.718,0.0,115.0
573629,0.632,0.046,0.254,99.511,-73.107,-18.931,0.0,137.0
573692,0.767,0.238,0.350,-53.802,6.260,23.588,0.0,144.0
573754,0.474,0.386,0.511,-75.321,47.977,61.473,0.0,126.0
573817,-0.534,2.000,-0.256,148.374,80.809,186.481,0.0,96.0
573878,-1.724,2.000,-1.428,-175.450,145.794,184.893,0.0,99.0
573938,-0.921,0.817,-0.355,-88.130,128.947,84.901,0.0,108.0
574000,-0.676,-0.141,-0.292,-53.275,122.534,11.206,0.0,115.0
574061,-0.600,-1.128,-0.410,-99.603,96.847,-32.756,0.0,116.0
574121,-0.733,-0.594,-0.290,88.298,13.053,-218.069,0.0,109.0
574182,-1.852,-0.001,-0.433,121.405,-85.939,-250.137,0.0,100.0
574245,-2.000,2.000,-0.178,175.420,-150.099,-101.336,0.0,143.0
574310,-0.455,1.159,0.039,60.069,-103.107,15.282,0.0,121.0
574373,0.176,0.851,0.183,78.107,-118.786,-1.221,0.0,140.0
574435,0.537,0.372,0.357,38.550,-69.511,18.237,0.0,132.0
574496,0.776,-0.017,0.393,-53.641,-8.588,75.336,0.0,120.0
574557,0.857,0.051,0.399,-12.275,50.954,49.725,0.0,103.0
574617,0.116,2.000,0.483,104.924,101.634,118.412,0.0,91.0
574678,-2.000,2.000,-1.104,-238.954,122.015,250.130,0.0,92.0
574729,-1.284,1.583,0.000,-95.183,36.573,250.130,38.0,102.0
574793,-0.586,0.292,-0.166,-6.038,58.115,108.649,0.0,114.0
574845,-0.689,-0.733,-0.320,37.832,126.443,-50.107,38.0,119.0
574898,-0.735,-0.955,-0.453,24.084,134.443,-167.649,40.0,117.0
574958,-0.619,-0.447,-0.267,82.099,79.740,-250.137,0.0,109.0
575020,-1.414,-0.096,-0.031,54.756,1.206,-250.137,0.0,105.0
575080,-2.000,2.000,-0.594,247.947,-162.718,-70.336,0.0,106.0
575141,-1.059,1.593,-0.181,55.397,-151.847,102.985,0.0,107.0
575203,-0.054,0.772,0.058,32.924,-172.145,59.382,0.0,113.0
575269,0.724,0.264,0.266,61.260,-134.160,42.282,0.0,115.0
575333,1.196,0.006,0.171,-8.893,-34.237,88.618,0.0,112.0
575384,1.748,0.366,-0.027,-16.779,92.519,88.092,61.0,107.0
575443,0.708,1.236,-0.571,-1.351,180.527,110.588,0.0,97.0
575495,-0.853,2.000,-1.195,-89.000,182.153,157.740,60.0,93.0
575545,-1.132,2.000,-0.931,-2.473,239.351,160.603,45.0,95.0
575595,-1.143,1.019,-0.459,63.702,190.359,25.435,51.0,99.0
575646,-0.967,0.429,-0.101,29.107,105.588,-67.496,52.0,102.0
575706,-0.706,-0.154,0.216,11.710,66.748,-92.374,0.0,105.0
575768,-0.634,-0.176,0.172,-22.939,76.000,-48.725,0.0,102.0
575818,-1.700,0.551,0.038,-16.931,-45.252,-56.679,50.0,98.0
575869,-1.711,2.000,-0.243,121.504,-181.626,-36.061,53.0,94.0
575929,-1.283,2.000,-0.591,44.359,-250.137,-14.473,0.0,96.0
575980,-0.163,1.636,-0.599,19.221,-250.137,14.779,58.0,101.0
576039,0.500,1.020,-0.484,-3.252,-178.779,5.252,0.0,108.0
576092,0.764,-0.135,-0.109,-33.015,-93.565,-7.344,58.0,114.0
576144,0.771,-0.285,0.000,-16.901,-30.328,10.908,58.0,114.0
576204,0.904,-0.348,0.191,-23.015,26.191,2.794,0.0,110.0
576259,0.790,0.140,0.106,40.389,61.855,-15.405,58.0,101.0
576353,-0.762,2.000,-1.045,-83.427,250.130,217.786,58.0,94.0
576404,-1.082,1.925,-0.525,-32.366,250.130,163.550,52.0,100.0
576454,-0.861,0.813,-0.158,-64.359,250.130,56.832,36.0,108.0
576515,-0.771,-0.425,-0.109,-157.611,197.321,-28.107,0.0,114.0
576565,-0.569,-1.562,-0.087,-92.656,109.435,-85.527,32.0,106.0
576624,-0.744,-0.806,-0.293,205.954,39.336,-203.321,0.0,106.0
576685,-2.000,0.058,-0.549,250.130,-122.313,-250.137,0.0,100.0
576747,-2.000,2.000,-1.114,98.817,-201.847,-48.405,0.0,103.0
576807,-0.563,1.163,-0.144,-51.939,-148.748,2.786,0.0,114.0
576869,0.385,0.795,-0.031,65.756,-156.924,29.198,0.0,135.0
576930,0.783,0.310,0.198,-14.344,-88.420,36.313,0.0,127.0
576992,0.994,-0.506,0.366,-31.931,-44.458,64.679,0.0,121.0
577051,1.300,-0.103,0.167,57.672,33.817,91.954,0.0,107.0
577111,1.094,2.000,-0.281,110.939,129.779,167.397,0.0,96.0
577170,-0.124,2.000,-0.814,-32.122,205.931,250.130,0.0,96.0
577224,-1.526,1.551,-0.253,-21.527,131.725,216.160,38.0,104.0
577275,-0.787,0.455,0.014,88.534,89.878,19.397,51.0,110.0
577327,-0.690,-0.054,-0.036,-4.489,83.817,-115.214,41.0,112.0
577378,-0.807,-0.442,-0.004,-45.275,85.534,-116.206,42.0,111.0
577428,-1.062,0.188,-0.253,36.183,34.160,-99.305,39.0,98.0
577479,-1.253,0.602,0.090,31.313,-86.214,-99.191,43.0,98.0
577529,-1.679,2.000,-0.646,213.924,-242.481,-75.702,44.0,95.0
577581,-0.172,2.000,-0.561,-105.863,-194.023,45.992,51.0,99.0
577632,0.387,1.185,-0.182,-102.237,-163.947,52.137,51.0,106.0
577695,0.546,0.188,0.123,-10.687,-162.588,17.580,0.0,114.0
577756,0.510,-0.227,-0.083,-86.771,-139.573,-20.779,0.0,117.0
577817,0.629,-0.805,0.149,-41.504,-91.840,-27.527,0.0,115.0
577868,1.000,-0.281,0.138,92.626,18.366,-21.832,54.0,108.0
577928,1.322,1.691,0.131,164.756,112.489,-32.756,0.0,97.0
577987,-0.750,2.000,-1.153,136.756,223.840,93.473,0.0,93.0
578048,-0.643,1.833,-0.393,-230.351,237.779,90.328,0.0,101.0
578099,-0.335,0.239,0.132,-79.015,196.947,18.237,37.0,108.0
578153,-0.567,-0.494,-0.027,-30.901,165.107,-69.992,37.0,112.0
578204,-0.587,-0.901,-0.193,-24.389,116.511,-116.450,39.0,111.0
578264,-0.603,-0.476,-0.132,90.679,47.947,-204.092,0.0,104.0
578324,-1.627,-0.108,-0.486,110.962,-61.565,-250.137,0.0,108.0
578384,-2.000,2.000,-1.013,250.130,-187.756,-121.115,0.0,105.0
578446,-0.779,1.940,-0.515,115.282,-136.466,44.038,0.0,121.0
578507,0.041,0.940,0.002,24.908,-130.313,29.924,0.0,123.0
578568,0.576,0.291,0.221,98.802,-112.458,57.206,0.0,114.0
578632,0.856,0.038,0.222,19.679,-32.237,72.542,0.0,118.0
578693,1.077,-0.122,0.341,-62.824,47.427,84.802,0.0,109.0
578752,0.641,0.639,0.594,64.366,105.191,133.137,0.0,100.0
578811,0.119,2.000,-0.801,163.115,170.053,250.130,0.0,96.0
578870,-0.861,2.000,-0.938,-250.137,202.641,225.695,0.0,60.0
578930,-0.681,0.791,-0.333,-48.389,94.076,93.710,0.0,113.0
578981,-0.495,0.017,-0.314,-4.649,99.695,4.305,37.0,119.0
579034,-0.707,-0.751,-0.467,-82.771,108.954,-70.336,34.0,121.0
579085,-0.764,-0.917,-0.438,69.641,64.389,-198.718,37.0,116.0
579148,-1.355,-0.389,-0.473,198.947,-5.015,-250.137,0.0,103.0
579253,-1.309,2.000,-0.321,204.855,-191.496,-76.771,0.0,112.0
579315,0.054,1.608,-0.419,12.527,-93.687,-22.267,0.0,143.0
579377,0.431,0.593,0.048,63.824,-103.328,20.382,0.0,129.0
579439,0.713,0.115,0.281,35.221,-58.099,49.099,0.0,143.0
579500,0.938,-0.075,0.333,-19.214,-6.458,78.748,0.0,112.0
579560,0.700,0.062,0.372,28.878,40.389,71.405,0.0,102.0
579619,-0.371,2.000,-0.489,76.550,119.817,218.046,0.0,92.0
579683,-1.497,2.000,-0.921,-146.870,170.702,250.130,0.0,98.0
579743,-0.764,1.479,-0.436,-21.252,139.557,192.954,0.0,108.0
579795,-0.524,0.140,-0.137,-46.099,135.641,-5.771,51.0,117.0
579849,-0.771,-0.626,-0.133,-50.153,149.977,-121.000,51.0,119.0
579909,-0.835,-1.020,-0.330,9.489,116.115,-190.687,0.0,114.0
579970,-1.140,-0.285,-0.358,178.298,11.229,-250.137,0.0,103.0
580030,-2.000,2.000,0.115,206.924,-89.573,-250.137,0.0,106.0
580091,-1.429,2.000,-0.630,61.939,-49.580,-10.977,0.0,116.0
580156,-0.311,0.941,-0.026,55.794,-106.527,39.092,0.0,128.0
580217,0.154,0.312,0.286,120.679,-166.382,19.878,0.0,115.0
580279,0.675,0.176,0.388,96.168,-112.229,36.489,0.0,120.0
580341,1.120,0.107,0.390,9.885,-10.908,46.550,0.0,134.0
580402,0.766,0.392,0.403,27.832,62.924,49.840,0.0,110.0
580461,-0.053,2.000,-1.027,-91.519,118.504,207.282,0.0,95.0
580521,-1.566,2.000,-1.481,-78.061,250.130,250.130,0.0,100.0
580583,-1.544,1.067,-0.461,-76.603,201.244,160.489,0.0,110.0
580643,-0.649,-0.273,-0.019,-29.237,148.916,-37.160,0.0,118.0
580708,-0.542,-0.867,-0.103,3.779,119.298,-162.611,0.0,116.0
580769,-1.024,-0.562,-0.490,103.366,20.359,-220.748,0.0,110.0
580830,-1.172,-0.173,-0.432,170.595,-116.183,-250.137,0.0,104.0
580891,-2.000,2.000,-1.350,61.603,-204.397,-153.672,0.0,110.0
580952,-0.778,1.841,-0.157,120.160,-107.718,40.580,0.0,107.0
581013,0.036,0.666,-0.037,72.198,-122.267,68.405,0.0,110.0
581074,0.621,0.438,0.056,84.427,-142.511,33.901,0.0,125.0
581136,1.013,0.043,0.112,-32.084,-75.489,25.511,0.0,128.0
581200,1.117,-0.019,0.366,8.069,37.939,38.908,0.0,106.0
581260,0.310,1.137,0.393,66.855,130.817,110.702,0.0,95.0
581320,-0.876,2.000,-0.654,-9.771,169.992,208.969,0.0,90.0
581380,-1.708,2.000,-0.921,-172.901,141.763,250.130,0.0,97.0
581432,-0.490,0.913,-0.446,-21.519,116.344,117.695,39.0,107.0
581492,-0.428,-0.090,-0.289,-27.847,123.275,-9.748,0.0,115.0
581542,-0.911,-1.014,-0.511,-68.107,117.481,-110.710,47.0,70.0
581593,-0.544,-0.964,-0.233,54.122,61.847,-195.641,38.0,77.0
581644,-1.036,-0.237,-0.269,139.412,-27.237,-250.137,42.0,104.0
581718,-2.000,2.000,-0.082,250.130,-155.076,-250.137,0.0,101.0
581776,-1.477,2.000,-0.586,117.458,-125.061,37.817,0.0,66.0
581837,-0.106,0.971,-0.109,61.420,-125.267,53.618,0.0,126.0
581900,0.478,0.656,0.046,98.489,-118.802,28.252,0.0,129.0
581961,0.717,0.447,0.294,21.198,-33.008,41.687,0.0,114.0
582022,0.635,0.041,0.340,-99.817,43.786,102.527,0.0,110.0
582074,0.709,-0.021,0.461,-66.977,82.519,76.412,46.0,103.0
582125,0.569,2.000,-0.105,178.260,109.969,100.656,50.0,95.0
582180,-1.193,2.000,-0.457,-250.137,140.046,250.130,45.0,94.0
582276,-0.567,1.332,-0.142,-93.282,65.664,170.504,39.0,112.0
582328,-0.603,-0.289,-0.264,-62.679,83.947,31.099,40.0,120.0
582380,-0.795,-1.114,-0.747,16.542,110.107,-43.336,40.0,122.0
582432,-0.511,-0.848,-0.747,160.756,96.092,-181.725,37.0,116.0
582484,-0.876,-0.189,-0.486,230.985,18.679,-250.137,44.0,106.0
582536,-2.000,2.000,-0.350,197.282,-101.519,-250.137,49.0,96.0
582601,-2.000,2.000,-0.217,159.191,-134.374,-33.550,0.0,64.0
582669,-0.344,1.391,-0.073,140.626,-112.008,60.679,0.0,0.0
582730,0.333,0.825,0.001,52.992,-130.534,14.122,0.0,129.0
582791,0.788,0.362,0.302,40.878,-82.450,30.679,0.0,123.0
582851,0.938,0.041,0.426,-35.244,9.947,88.756,0.0,112.0
582902,0.864,0.115,0.418,-51.221,73.191,92.634,58.0,106.0
582962,0.385,1.245,0.441,38.924,101.634,94.771,0.0,95.0
583020,-1.474,2.000,-1.178,-13.847,162.122,250.130,0.0,94.0
583071,-1.058,1.609,-0.631,-114.771,130.038,208.382,42.0,102.0
583131,-0.361,0.620,-0.367,-62.344,136.374,63.618,0.0,111.0
583194,-0.422,-0.417,-0.238,-32.893,123.137,-92.832,0.0,116.0
583255,-0.571,-1.062,-0.333,-7.870,104.489,-148.710,0.0,115.0
583306,-0.674,-0.328,-0.264,94.221,28.740,-250.137,41.0,108.0
583365,-1.466,0.047,-0.363,74.382,-59.336,-250.137,0.0,110.0
583427,-2.000,2.000,-0.534,198.511,-111.374,-139.137,0.0,131.0
583489,-0.960,1.708,-0.309,155.046,-100.969,40.748,0.0,143.0
583552,0.074,0.976,-0.139,106.763,-133.527,69.168,0.0,155.0
583613,0.706,0.427,0.131,69.229,-102.191,67.366,0.0,125.0
583676,0.740,0.236,0.234,-52.748,-9.221,67.840,0.0,127.0
583737,0.694,-0.035,0.392,-95.939,68.000,50.466,0.0,105.0
583795,0.238,0.538,0.639,47.931,109.901,54.115,0.0,94.0
583855,-1.466,2.000,-1.560,-80.031,189.282,187.519,0.0,91.0
583914,-1.795,1.884,-0.555,-249.435,132.275,250.130,0.0,99.0
583974,-0.376,0.393,-0.169,52.977,123.023,140.191,0.0,108.0
584035,-0.341,-0.111,-0.353,-17.489,132.366,-13.878,0.0,115.0
584086,-0.626,-1.211,-0.467,-104.855,97.359,-115.969,38.0,115.0
584148,-0.637,-0.816,-0.437,94.817,39.137,-216.145,0.0,107.0
584209,-1.977,-0.020,-0.525,219.099,-69.504,-250.137,0.0,98.0
584268,-2.000,2.000,-1.467,250.130,-155.466,24.603,0.0,104.0
584329,-0.597,1.475,-0.347,-116.328,-96.275,55.710,0.0,109.0
584389,0.058,0.360,0.255,45.985,-141.817,7.397,0.0,114.0
584451,0.621,0.209,0.276,190.321,-109.634,-1.733,0.0,124.0
584511,0.701,0.372,0.196,-0.053,-16.290,17.611,0.0,113.0
584570,0.832,-0.007,0.400,-115.542,40.511,7.481,0.0,107.0
584630,0.345,0.801,0.595,63.344,75.916,52.046,0.0,95.0
584692,-1.136,2.000,-1.534,-250.137,117.153,250.130,0.0,91.0
584742,-1.750,1.673,0.153,-192.267,-31.687,250.130,37.0,100.0
584803,-0.397,0.713,-0.175,148.336,5.748,249.748,0.0,112.0
584854,-0.337,-0.012,-0.276,-84.679,122.511,-18.496,36.0,119.0
584905,-0.767,-1.001,-0.347,-91.649,186.886,-137.092,36.0,120.0
584956,-0.784,-0.729,-0.411,71.389,158.252,-196.229,37.0,115.0
585008,-0.931,0.130,-0.341,123.496,62.260,-250.137,44.0,106.0
585068,-2.000,1.771,-0.219,85.435,-55.038,-177.817,0.0,97.0
585131,-1.807,2.000,-0.201,207.405,-175.496,-68.771,0.0,96.0
585234,-0.061,1.410,-0.002,48.947,-137.443,8.053,0.0,111.0
585294,0.721,0.477,0.284,83.145,-116.702,-7.763,0.0,113.0
585356,0.892,0.137,0.284,30.901,-16.290,38.672,0.0,118.0
585415,0.857,0.019,0.321,-77.870,59.534,61.092,0.0,108.0
585476,0.435,0.169,0.427,-22.649,102.198,56.916,0.0,98.0
585535,-0.722,2.000,-0.742,53.855,137.947,153.130,0.0,92.0
585594,-1.327,2.000,-0.730,-181.137,133.802,219.511,0.0,98.0
585655,-0.557,0.865,-0.222,5.588,90.618,89.771,0.0,106.0
585718,-0.403,0.178,-0.293,-7.954,85.534,-21.809,0.0,113.0
585769,-0.832,-0.694,-0.504,-109.305,103.855,-81.695,39.0,113.0
585821,-0.723,-0.630,-0.352,-25.550,56.878,-148.756,41.0,110.0
585881,-1.262,-0.380,-0.315,98.336,-9.885,-250.137,0.0,102.0
585940,-2.000,2.000,-0.905,250.130,-144.489,-234.008,0.0,97.0
586002,-0.891,2.000,-0.420,136.573,-160.496,-37.550,0.0,129.0
586063,-0.042,1.490,-0.008,59.168,-172.702,-9.634,0.0,126.0
586126,0.654,0.636,0.316,84.740,-117.664,19.756,0.0,130.0
586189,0.755,0.091,0.273,-4.519,-2.252,67.267,0.0,114.0
586250,0.872,-0.048,0.314,-54.328,77.458,66.466,0.0,109.0
586309,0.438,0.212,0.279,-1.206,127.908,49.611,0.0,98.0
586369,-0.932,2.000,-0.681,-5.015,157.496,160.931,0.0,91.0
586429,-1.657,2.000,-0.783,-174.779,122.840,250.130,0.0,96.0
586480,-0.860,1.043,-0.307,-2.817,71.344,133.206,58.0,104.0
586532,-0.349,0.390,-0.336,5.130,99.122,33.802,41.0,111.0
586592,-0.545,-0.414,-0.293,-42.481,129.366,-40.359,0.0,107.0
586643,-0.624,-0.818,-0.414,-44.221,97.061,-86.496,38.0,99.0
586697,-0.883,-0.431,-0.344,96.321,17.939,-224.908,40.0,108.0
586757,-1.794,0.874,-0.385,121.886,-83.496,-245.634,0.0,99.0
586817,-2.000,2.000,-0.629,250.130,-130.565,-78.725,0.0,99.0
586877,-0.621,1.649,-0.321,-0.038,-105.634,33.069,0.0,105.0
586938,0.169,0.678,0.096,36.740,-142.992,21.557,0.0,111.0
586999,0.738,0.267,0.311,71.420,-87.481,16.260,0.0,114.0
587060,0.830,0.092,0.463,-72.824,-5.489,34.824,0.0,112.0
587121,0.827,-0.097,0.590,-158.076,12.634,13.183,0.0,116.0
587184,-0.119,2.000,0.411,158.122,26.160,97.405,0.0,93.0
587243,-1.476,2.000,-1.197,-150.412,122.183,244.977,0.0,92.0
587295,-1.421,1.407,-0.382,-96.870,82.344,217.374,61.0,99.0
587346,-0.710,0.347,-0.238,58.817,62.160,76.664,41.0,107.0
587397,-0.566,-0.243,-0.090,56.496,71.374,-47.374,41.0,75.0
587449,-0.573,-0.560,-0.070,-44.053,119.992,-129.947,57.0,111.0
587500,-0.578,-0.633,-0.164,-113.153,104.641,-215.489,43.0,107.0
587560,-1.037,-0.590,-0.102,22.840,41.672,-250.137,0.0,100.0
587630,-2.000,2.000,-0.402,221.252,-59.954,-202.847,0.0,0.0
587692,-1.365,1.904,-0.240,158.092,-82.038,38.695,0.0,134.0
587754,-0.363,1.118,0.025,47.458,-107.863,47.687,0.0,132.0
587816,0.263,0.579,0.321,98.328,-104.809,32.053,0.0,134.0
587878,0.741,0.291,0.368,52.122,-26.870,31.901,0.0,132.0
587939,0.630,-0.057,0.353,-70.969,44.198,64.466,0.0,114.0
587999,0.535,-0.060,0.325,-70.771,88.802,57.954,0.0,100.0
588059,-1.077,2.000,-0.567,140.687,108.809,126.321,0.0,90.0
588119,-2.000,2.000,-0.842,-202.573,83.412,250.130,0.0,94.0
588226,-0.381,0.252,-0.333,-17.786,116.443,39.847,0.0,111.0
588288,-0.583,-0.775,-0.112,-82.756,130.198,-131.985,0.0,114.0
588340,-0.551,-0.921,-0.156,-78.863,69.802,-211.679,51.0,110.0
588400,-1.027,-0.479,-0.205,87.389,-32.885,-250.137,0.0,102.0
588461,-2.000,2.000,-0.500,250.130,-157.908,-194.038,0.0,105.0
588524,-1.408,2.000,-0.712,99.389,-135.221,5.076,0.0,149.0
588585,-0.197,1.217,-0.001,41.061,-107.305,46.145,0.0,126.0
588647,0.399,0.573,0.162,62.099,-96.977,47.282,0.0,111.0
588711,0.694,0.110,0.255,4.389,-41.206,38.740,0.0,113.0
588772,0.792,-0.084,0.327,-40.580,25.863,49.137,0.0,110.0
588832,0.528,0.216,0.284,0.855,77.321,21.252,0.0,99.0
588892,-1.368,2.000,-1.009,11.748,158.939,145.305,0.0,92.0
588952,-1.287,1.930,-0.645,-120.389,138.779,208.374,0.0,96.0
589004,-0.510,1.075,-0.462,-13.863,136.122,79.328,55.0,102.0
589065,-0.441,0.171,-0.273,-37.489,114.466,-23.557,0.0,108.0
589118,-0.648,-0.720,-0.342,-98.985,102.878,-48.489,53.0,110.0
589170,-0.412,-0.760,-0.193,-31.847,84.847,-77.527,58.0,107.0
589234,-1.458,-0.230,-0.382,104.382,2.046,-231.061,0.0,99.0
589295,-2.000,2.000,-0.583,225.954,-108.298,-217.282,0.0,112.0
589356,-1.209,2.000,-1.051,199.374,-150.076,3.679,0.0,106.0
589418,-0.147,1.166,-0.313,-22.183,-162.458,17.977,0.0,132.0
589481,0.707,0.454,0.164,95.939,-137.351,-0.725,0.0,151.0
589548,0.864,0.220,0.204,48.656,-35.687,28.252,0.0,0.0
589609,0.741,0.018,0.312,-69.672,33.405,51.427,0.0,114.0
589669,0.387,0.296,0.459,-6.588,69.107,46.756,0.0,96.0
589732,-1.578,2.000,-1.091,10.046,167.351,204.534,0.0,89.0
589793,-1.622,1.837,-0.597,-165.901,139.183,237.405,0.0,96.0
589853,-0.610,0.541,-0.347,-51.321,123.481,94.061,0.0,105.0
589915,-0.346,-0.342,-0.184,-55.901,91.924,-46.763,0.0,111.0
589967,-0.590,-0.910,-0.279,-41.580,70.275,-81.237,43.0,111.0
590027,-0.623,-0.394,-0.380,72.733,15.771,-165.053,0.0,105.0
590089,-1.692,0.058,-0.564,122.122,-82.137,-250.137,0.0,98.0
590149,-2.000,2.000,-0.622,141.847,-115.916,-107.260,0.0,106.0
590222,-0.569,1.258,-0.091,13.206,-104.046,14.855,0.0,0.0
590280,0.086,0.747,0.145,93.382,-156.954,-12.496,0.0,137.0
590342,0.417,0.449,0.218,147.740,-130.557,-2.519,0.0,128.0
590403,0.692,0.286,0.211,33.634,-29.557,48.885,0.0,128.0
590462,0.692,0.290,0.340,-32.595,64.626,60.252,0.0,103.0
590521,0.253,1.878,0.283,7.809,135.450,94.702,0.0,94.0
590580,-0.879,2.000,-0.683,-115.023,176.985,204.435,0.0,91.0
590640,-1.477,1.738,-0.748,-129.718,79.344,199.924,0.0,98.0
590691,-0.548,0.740,-0.565,38.252,97.275,108.656,58.0,106.0
590745,-0.556,0.055,-0.462,-74.252,104.763,-1.389,43.0,112.0
590796,-0.693,-0.723,-0.414,-137.046,113.794,-44.099,42.0,114.0
590846,-0.515,-0.597,-0.194,-54.817,77.565,-106.504,38.0,112.0
590898,-1.094,-0.037,-0.228,40.168,-6.496,-194.718,41.0,106.0
590957,-1.742,2.000,0.072,142.206,-102.817,-193.557,0.0,99.0
591016,-1.188,2.000,0.075,145.802,-123.015,-52.626,0.0,100.0
591076,-0.224,1.498,0.120,74.137,-122.427,-23.237,0.0,106.0
591136,0.262,0.842,0.207,52.443,-124.962,-21.885,0.0,110.0
591235,0.634,-0.030,0.262,-62.076,-27.237,41.687,58.0,114.0
591295,0.857,-0.139,0.398,-76.840,11.519,56.053,0.0,108.0
591346,0.617,1.163,0.658,-5.939,65.168,81.031,51.0,101.0
591396,-0.392,2.000,0.432,-92.824,61.008,176.847,46.0,96.0
591447,-0.867,2.000,0.030,-141.260,30.618,250.130,47.0,99.0
591498,-0.576,1.804,0.029,-164.740,12.282,170.168,37.0,107.0
591558,-0.177,-0.032,0.114,-128.435,43.389,76.519,0.0,117.0
591624,-0.183,-0.267,-0.198,-177.908,143.756,-19.160,0.0,0.0
591688,-0.911,0.535,0.042,-250.137,127.313,17.634,0.0,0.0
591757,-1.152,-0.150,1.187,-198.053,-28.153,42.580,0.0,0.0
591813,-0.797,0.198,1.674,-5.962,-33.504,-84.580,46.0,0.0
591879,-0.549,-0.206,1.683,19.038,-37.321,-91.237,0.0,0.0
591935,-0.099,0.191,1.035,5.221,-3.305,-67.664,38.0,0.0
592000,0.274,-0.094,0.572,-43.137,20.641,-46.977,0.0,0.0
592065,0.302,0.330,0.195,-11.107,7.031,-20.336,0.0,0.0
592131,-0.075,0.304,0.393,-66.809,-27.504,37.427,0.0,0.0
592195,0.343,0.028,1.264,19.168,-23.702,56.595,0.0,0.0
592261,-0.250,0.337,1.694,12.244,27.176,44.649,0.0,0.0
592329,-0.236,0.066,1.505,-27.427,31.992,50.084,0.0,0.0
592395,-0.386,-0.278,0.807,4.321,0.313,-3.191,0.0,0.0
592459,-0.104,-0.180,0.409,-20.802,-11.908,-76.183,0.0,0.0
592525,-0.259,-0.214,0.527,-37.962,-24.756,-97.435,0.0,0.0
592590,-0.462,-0.392,1.249,-67.069,25.115,-106.107,0.0,0.0
592656,-0.585,-0.414,1.624,-22.893,62.221,-73.687,0.0,0.0
592721,-0.170,-0.340,1.495,-7.855,38.504,-57.542,0.0,0.0
592787,0.005,-0.137,0.981,16.275,42.511,-43.061,0.0,0.0
592856,0.299,0.168,0.412,21.634,6.382,-18.519,0.0,0.0
592920,0.067,0.142,0.530,-13.565,-25.015,10.122,0.0,0.0
592986,0.030,0.055,0.965,-3.550,-76.748,25.885,0.0,0.0
593051,-0.314,-0.062,1.660,24.473,-14.939,61.191,0.0,0.0
593117,-0.126,-0.314,1.571,5.076,-17.458,83.038,0.0,0.0
593182,-0.162,-0.300,1.036,18.550,19.992,77.008,0.0,0.0
593248,-0.173,-0.289,0.476,3.779,33.198,59.809,0.0,0.0
593313,-0.112,-0.318,0.322,-41.634,4.443,36.992,0.0,0.0
593379,-0.502,-0.407,0.779,-55.771,-23.832,-19.092,0.0,0.0
593447,-1.067,-0.954,1.570,-38.786,20.947,-84.466,0.0,0.0
593513,-0.604,-0.821,1.593,1.099,12.550,-79.565,0.0,0.0
593579,-0.300,-0.017,1.164,118.832,45.237,-54.802,0.0,0.0
593633,0.056,0.280,0.118,250.130,43.412,-0.748,17.0,0.0
593698,0.270,0.442,-0.224,217.397,34.771,-0.557,0.0,0.0
593764,0.242,-0.007,0.227,148.427,40.840,34.771,0.0,0.0
593825,0.119,0.333,1.037,177.504,26.229,125.206,0.0,124.0
593875,-0.056,1.691,0.850,250.130,29.443,119.420,36.0,98.0
593927,-0.258,2.000,-0.294,250.130,65.511,54.160,50.0,95.0
593980,-0.031,1.949,-0.053,-108.870,79.962,-33.351,38.0,99.0
594031,0.172,0.610,0.241,-119.901,109.527,-66.267,37.0,105.0
594081,0.013,-0.348,0.080,-76.420,140.031,-83.947,37.0,108.0
594132,-0.356,-0.734,-0.176,-39.183,140.168,-71.389,37.0,109.0
594184,-0.622,-0.688,-0.356,75.038,81.496,-119.435,40.0,105.0
594235,-1.670,-0.128,-0.594,167.557,-27.870,-250.137,44.0,103.0
594340,-1.823,2.000,-0.116,77.542,-123.061,-25.420,0.0,127.0
594402,-0.344,1.113,-0.040,124.069,-142.481,9.603,0.0,124.0
594470,0.552,0.647,0.169,110.260,-118.947,13.031,0.0,0.0
594534,0.788,0.274,0.247,1.977,-52.053,32.931,0.0,161.0
594596,0.816,-0.061,0.395,-80.328,-5.550,65.290,0.0,142.0
594657,0.589,-0.105,0.513,40.489,56.893,49.855,0.0,110.0
594716,-1.922,2.000,-0.482,-78.290,113.710,167.794,0.0,92.0
594777,-2.000,2.000,-0.459,-58.748,92.298,250.130,0.0,96.0
594828,-0.709,1.127,-0.399,-36.626,136.275,149.206,43.0,103.0
594877,-0.458,-0.078,-0.279,-106.748,139.061,15.771,40.0,75.0
594937,-0.309,-1.036,-0.167,-85.840,140.244,-88.275,0.0,112.0
594993,-0.460,-1.189,-0.263,98.985,115.115,-200.817,42.0,107.0
595052,-1.601,-0.387,-0.590,156.870,-2.244,-250.137,0.0,99.0
595113,-2.000,2.000,-0.896,172.168,-106.122,-199.557,0.0,122.0
595176,-1.501,2.000,-0.431,102.427,-88.198,32.649,0.0,134.0
595237,-0.292,0.959,0.083,39.763,-119.908,52.458,0.0,121.0
595291,0.092,0.607,0.233,142.450,-132.809,64.008,39.0,131.0
595352,0.575,0.390,0.284,58.641,-101.122,89.000,0.0,126.0
595412,0.807,-0.131,0.411,-86.939,-61.374,103.374,0.0,114.0
595476,0.899,-0.219,0.466,-36.443,18.855,81.702,0.0,105.0
595536,-0.731,2.000,0.107,250.130,94.847,89.237,0.0,94.0
595588,-1.565,2.000,-0.791,-181.771,169.008,242.565,51.0,95.0
595637,-0.786,0.802,-0.051,-113.260,131.511,140.824,37.0,69.0
595688,-0.212,0.331,-0.171,7.427,138.412,27.046,38.0,109.0
595740,-0.240,-0.215,-0.227,13.275,123.069,-90.954,44.0,112.0
595791,-0.534,-0.876,-0.419,-33.435,111.733,-127.099,37.0,112.0
595843,-0.650,-0.753,-0.506,38.947,70.290,-161.542,38.0,107.0
595895,-1.536,-0.247,-0.471,164.794,-46.519,-250.137,51.0,101.0
595959,-2.000,2.000,-0.847,212.298,-129.427,-250.137,0.0,119.0
596023,-0.981,1.528,-0.257,132.084,-66.756,69.641,0.0,163.0
596089,0.126,0.832,-0.122,121.901,-84.527,51.931,0.0,0.0
596147,0.380,0.477,0.379,43.137,-83.481,44.718,58.0,0.0
596200,0.648,0.270,0.317,-35.305,-59.565,51.015,55.0,130.0
596261,0.628,-0.079,0.403,-98.573,-19.191,79.542,0.0,124.0
596314,0.467,0.049,0.475,35.427,46.916,74.321,48.0,99.0
596365,-1.638,2.000,-0.966,48.145,154.779,113.603,57.0,90.0
596419,-2.000,2.000,-0.720,-221.443,164.000,235.954,49.0,92.0
596470,-0.872,1.011,-0.328,-9.023,136.168,158.061,46.0,99.0
596521,-0.453,0.662,-0.453,-48.130,135.786,40.687,37.0,106.0
596574,-0.381,-0.221,-0.238,-110.847,105.908,-22.779,35.0,110.0
596625,-0.418,-1.037,-0.199,-9.626,79.870,-36.191,37.0,111.0
596676,-0.376,-0.511,-0.323,121.664,28.298,-90.847,37.0,107.0
596727,-0.965,0.081,-0.403,91.542,-55.748,-214.557,44.0,100.0
596780,-2.000,2.000,-0.724,113.084,-89.557,-250.137,51.0,97.0
596836,-1.900,2.000,-0.167,-5.863,-42.947,-47.924,58.0,107.0
596896,-0.562,1.019,-0.055,147.534,-107.725,7.122,0.0,111.0
596959,0.271,0.799,-0.015,157.450,-168.313,-0.870,0.0,129.0
597013,0.807,0.495,0.284,73.061,-112.557,10.794,58.0,130.0
597074,0.869,0.049,0.397,-70.908,-34.038,86.435,0.0,128.0
597135,0.996,0.185,0.530,-24.153,34.534,100.328,0.0,103.0
