Timestamp(ms),AccelX(g),AccelY(g),AccelZ(g),GyroX(deg/s),GyroY(deg/s),GyroZ(deg/s),DistanceLeft(cm),DistanceRight(cm)
597238,-1.627,2.000,-1.130,-90.038,160.748,238.305,0.0,92.0
597289,-1.527,1.361,-0.244,-147.122,63.809,205.672,41.0,99.0
597342,-0.512,0.571,-0.179,9.176,94.275,91.481,46.0,107.0
597398,-0.348,-0.051,-0.351,-21.359,108.473,-54.000,51.0,112.0
597449,-0.431,-0.682,-0.487,-118.321,147.588,-134.427,37.0,113.0
597501,-0.440,-0.866,-0.343,19.351,130.817,-179.901,40.0,110.0
597554,-0.967,-0.341,-0.427,132.542,59.191,-250.137,45.0,102.0
597615,-2.000,2.000,-0.361,202.580,-70.435,-234.206,0.0,119.0
597677,-1.903,2.000,-0.067,139.687,-118.679,26.672,0.0,120.0
597738,-0.415,1.134,0.002,98.695,-127.534,81.359,0.0,118.0
597806,0.583,0.377,0.244,104.771,-106.649,61.473,0.0,116.0
597869,0.785,0.151,0.241,2.855,-25.863,37.931,0.0,126.0
597929,0.749,-0.207,0.340,-97.924,18.710,41.221,0.0,107.0
597989,0.396,-0.019,0.427,23.229,56.351,30.046,0.0,97.0
598047,-0.794,2.000,-1.487,-75.130,172.557,171.252,0.0,90.0
598107,-1.406,2.000,-0.799,-150.145,250.130,250.130,0.0,96.0
598158,-0.917,1.221,-0.642,-66.382,239.527,131.863,53.0,104.0
598217,-0.748,0.067,-0.251,-53.672,158.237,-30.092,0.0,111.0
598278,-0.809,-0.633,-0.087,50.870,65.840,-105.687,0.0,114.0
598341,-0.358,-0.448,-0.207,90.725,-25.130,-102.366,0.0,110.0
598401,-0.646,-0.065,-0.403,135.130,-117.344,-185.580,0.0,103.0
598460,-2.000,2.000,-0.986,186.725,-218.931,-192.458,0.0,97.0
598520,-1.898,2.000,-0.760,52.916,-162.687,14.450,0.0,104.0
598580,0.051,1.313,-0.126,71.489,-123.466,116.198,0.0,108.0
598640,0.535,0.320,0.102,58.412,-139.260,60.527,0.0,113.0
598701,0.573,-0.195,0.257,65.908,-94.198,26.771,0.0,116.0
598761,0.813,-0.259,0.375,9.305,-17.412,11.405,0.0,113.0
598820,0.758,0.035,0.372,-17.405,71.779,-43.672,0.0,103.0
598883,-0.860,2.000,-0.299,142.817,133.878,38.710,0.0,98.0
598942,-1.308,2.000,-1.381,-136.687,166.550,250.130,0.0,95.0
599002,-0.463,1.203,-0.526,-79.588,152.237,170.496,0.0,104.0
599053,-0.457,0.393,-0.472,-65.420,121.695,6.031,38.0,112.0
599104,-0.585,-0.559,-0.389,-125.214,114.153,-61.366,35.0,115.0
599155,-0.659,-1.030,-0.396,-69.000,92.053,-77.137,37.0,114.0
599205,-0.888,-0.433,-0.498,110.053,9.473,-215.031,36.0,108.0
599265,-1.542,0.078,-0.609,155.580,-82.565,-250.137,0.0,98.0
599329,-2.000,2.000,-0.551,71.832,-147.916,-126.504,0.0,124.0
599383,-0.495,1.236,0.143,82.656,-122.511,5.122,58.0,127.0
599435,0.147,0.863,0.119,111.931,-134.855,5.786,58.0,126.0
599496,0.595,0.420,0.246,113.664,-106.725,-6.763,0.0,135.0
599549,0.577,0.207,0.225,15.679,-31.000,17.977,58.0,122.0
599602,0.699,0.140,0.405,-66.870,23.733,43.328,58.0,113.0
599653,0.457,0.324,0.508,-40.321,79.382,50.122,58.0,103.0
599704,-0.401,2.000,-0.195,37.084,129.603,137.733,57.0,95.0
599757,-1.839,2.000,-0.986,-250.137,133.626,250.130,42.0,96.0
599808,-1.277,1.234,-0.215,-127.672,58.550,232.458,36.0,104.0
599859,-0.482,0.498,-0.333,-6.321,90.267,119.824,45.0,112.0
599911,-0.341,-0.446,-0.205,9.313,108.137,-12.939,43.0,116.0
599962,-0.553,-1.023,-0.437,6.962,112.977,-67.000,37.0,117.0
600013,-0.632,-0.580,-0.550,116.237,67.076,-169.504,35.0,111.0
600109,-2.000,2.000,-0.754,150.145,-124.298,-250.137,58.0,106.0
600169,-2.000,2.000,-0.123,54.786,-113.000,-52.840,0.0,119.0
600230,-0.498,1.078,-0.068,132.290,-130.931,54.649,0.0,116.0
600287,0.261,0.765,0.045,114.466,-146.160,28.252,52.0,133.0
600347,0.626,0.403,0.257,49.687,-91.626,30.107,0.0,124.0
600399,0.766,-0.046,0.369,-58.969,4.183,69.458,52.0,119.0
600452,0.746,-0.156,0.466,-86.977,51.580,94.618,53.0,114.0
600503,0.619,-0.061,0.568,6.115,90.046,114.725,50.0,102.0
600553,-0.101,2.000,-0.494,202.962,114.252,122.748,45.0,94.0
600604,-1.374,2.000,-1.540,-250.137,191.817,243.092,44.0,94.0
600664,-1.033,1.289,-0.330,-59.328,155.710,195.153,0.0,104.0
600728,-0.709,0.640,-0.416,-70.840,154.794,39.725,0.0,113.0
600788,-0.829,-0.862,-0.386,-25.015,102.160,-40.695,0.0,117.0
600840,-0.342,-0.728,-0.357,85.443,35.702,-122.809,32.0,114.0
600891,-0.789,-0.175,-0.429,116.618,-38.992,-250.137,37.0,107.0
600941,-1.914,0.445,-0.368,96.176,-118.099,-250.137,45.0,98.0
600992,-2.000,2.000,-0.637,250.130,-197.137,-89.832,51.0,96.0
601044,-0.733,2.000,-0.491,86.076,-154.374,36.183,58.0,103.0
601097,0.058,1.004,-0.026,26.695,-148.550,34.198,54.0,115.0
601160,0.524,0.528,0.172,89.641,-125.519,11.069,0.0,114.0
601222,0.663,0.250,0.275,37.221,-53.183,-15.443,0.0,116.0
601274,0.626,-0.026,0.431,-47.328,17.985,-8.710,58.0,116.0
601335,0.529,-0.124,0.481,-43.466,86.137,32.420,0.0,121.0
601387,0.441,1.800,0.272,62.992,133.664,81.641,58.0,99.0
601446,-1.421,2.000,-1.237,-127.336,138.412,147.603,0.0,94.0
601497,-1.202,1.473,-0.253,-141.481,41.679,203.618,40.0,99.0
601545,-0.570,0.789,-0.244,68.786,63.115,140.786,45.0,57.0
601597,-0.714,0.545,-0.530,-38.802,74.023,38.290,43.0,111.0
601652,-0.754,-0.838,-0.448,-175.435,98.176,-31.985,38.0,107.0
601703,-0.501,-0.915,-0.237,-18.542,80.832,-118.840,42.0,112.0
601763,-0.895,-0.443,-0.284,149.786,34.664,-244.313,0.0,102.0
601815,-2.000,2.000,-0.419,224.573,-106.901,-250.137,51.0,100.0
601875,-2.000,2.000,0.114,32.771,-112.473,-36.962,0.0,109.0
601936,-0.531,1.012,0.094,104.916,-111.901,29.618,0.0,115.0
601990,0.366,0.704,0.072,105.450,-117.992,2.496,57.0,122.0
602044,0.652,0.484,0.258,76.931,-63.748,5.450,54.0,143.0
602100,0.592,0.297,0.202,-90.634,-12.229,58.901,52.0,127.0
602151,0.624,-0.118,0.381,-136.122,9.656,87.267,44.0,112.0
602204,0.566,-0.102,0.417,24.740,39.084,76.183,44.0,114.0
602254,-1.348,2.000,-0.513,150.275,105.550,118.321,50.0,92.0
602305,-1.682,2.000,-0.607,-200.427,151.267,250.130,46.0,94.0
602356,-0.905,1.262,-0.136,-64.405,127.756,187.931,37.0,101.0
602407,-0.529,0.590,-0.227,-33.863,117.122,72.229,37.0,108.0
602459,-0.575,-0.262,-0.223,-22.008,89.542,-4.870,34.0,113.0
602514,-0.510,-0.741,-0.415,24.977,78.733,-41.511,43.0,114.0
602565,-0.604,-0.406,-0.409,87.511,38.092,-143.252,37.0,109.0
602616,-1.232,-0.096,-0.472,60.023,-34.496,-243.855,51.0,102.0
602668,-2.000,2.000,-0.482,90.000,-124.008,-223.511,46.0,99.0
602728,-1.054,2.000,-0.033,118.298,-123.977,0.076,0.0,101.0
602789,-0.111,1.151,0.026,78.130,-137.504,15.130,0.0,115.0
602886,0.675,0.245,0.260,28.427,-72.160,-17.573,58.0,121.0
602939,0.681,-0.008,0.331,-67.366,-19.954,21.924,58.0,117.0
602992,0.739,-0.134,0.441,-54.450,32.924,29.290,58.0,120.0
603047,0.204,0.316,0.734,87.382,77.748,52.412,50.0,100.0
603098,-1.434,2.000,-1.314,89.756,152.931,178.176,52.0,90.0
603149,-1.629,2.000,-0.618,-250.137,132.763,235.328,44.0,94.0
603200,-0.749,0.862,-0.111,-39.244,86.038,144.840,38.0,102.0
603251,-0.372,0.380,-0.251,6.786,93.450,41.206,37.0,108.0
603303,-0.523,-0.367,-0.284,-5.496,93.931,-23.901,44.0,112.0
603355,-0.509,-0.734,-0.370,-9.641,92.687,-35.863,39.0,111.0
603406,-0.660,-0.301,-0.421,65.786,32.863,-161.153,37.0,107.0
603461,-1.809,0.083,-0.516,115.863,-71.718,-250.137,42.0,99.0
603522,-2.000,2.000,-0.711,148.344,-124.962,-145.595,0.0,102.0
603582,-0.676,1.668,-0.231,71.046,-92.626,24.344,0.0,114.0
603643,0.216,0.765,0.050,78.130,-141.374,-1.687,0.0,116.0
603705,0.660,0.420,0.284,93.466,-118.473,-31.855,0.0,117.0
603766,0.623,0.310,0.385,-38.305,-58.725,27.511,0.0,120.0
603820,0.904,0.023,0.566,-77.947,5.702,67.794,58.0,122.0
603880,0.541,0.426,0.505,27.046,53.977,67.145,0.0,99.0
603940,-1.426,2.000,-1.211,-15.664,143.618,191.687,0.0,94.0
603995,-1.535,1.798,-0.489,-150.847,115.641,212.893,44.0,98.0
604045,-0.670,0.943,-0.321,10.664,128.588,112.282,41.0,71.0
604096,-0.357,0.248,-0.291,-24.939,123.710,-5.183,37.0,110.0
604148,-0.524,-0.683,-0.203,-48.878,119.275,-62.687,37.0,114.0
604200,-0.426,-0.875,-0.274,13.374,72.305,-94.580,45.0,112.0
604252,-0.977,-0.331,-0.365,132.702,-14.427,-224.687,39.0,106.0
604312,-2.000,0.518,-0.689,135.725,-118.977,-250.137,0.0,99.0
604374,-2.000,2.000,-0.368,135.924,-149.328,-57.092,0.0,109.0
604439,-0.362,1.410,0.032,72.802,-117.366,11.260,0.0,123.0
604500,0.302,0.778,0.256,69.878,-85.198,16.191,0.0,124.0
604562,0.611,0.326,0.279,-0.214,-20.107,20.565,0.0,118.0
604623,0.577,-0.051,0.325,-109.840,22.618,56.550,0.0,115.0
604684,0.525,-0.233,0.434,-54.015,48.901,56.336,0.0,103.0
604744,-1.011,2.000,-0.464,92.137,88.901,89.527,0.0,93.0
604796,-1.707,2.000,-0.766,-155.702,117.282,234.458,58.0,95.0
604848,-0.835,1.182,-0.234,-63.527,96.389,159.351,37.0,101.0
604912,-0.382,0.469,-0.204,-29.267,99.672,35.420,0.0,109.0
604971,-0.412,-0.623,-0.118,-44.802,101.725,-24.565,37.0,113.0
605022,-0.469,-0.895,-0.236,22.977,78.947,-14.969,51.0,112.0
605081,-0.959,-0.199,-0.550,132.046,-15.992,-176.344,0.0,104.0
605142,-2.000,0.370,-0.883,124.794,-118.405,-236.870,0.0,103.0
605201,-2.000,2.000,-0.384,96.947,-150.206,-89.076,0.0,108.0
605261,-0.365,1.405,-0.009,155.427,-166.641,4.176,0.0,122.0
605322,0.448,0.957,-0.033,140.672,-160.718,44.931,0.0,113.0
605382,0.812,0.345,0.165,47.176,-69.137,49.252,0.0,117.0
605446,0.698,-0.066,0.191,-34.076,19.229,70.725,0.0,120.0
605505,0.694,0.017,0.265,-3.565,68.198,29.786,0.0,102.0
605564,-0.400,2.000,-0.579,21.328,137.137,73.977,0.0,93.0
605624,-2.000,2.000,-0.966,-187.053,162.634,148.725,0.0,94.0
605683,-0.883,1.438,-0.408,-81.824,150.038,74.412,0.0,101.0
605777,-0.372,-0.501,-0.221,-49.130,113.458,-45.214,44.0,111.0
605838,-0.461,-0.896,-0.348,5.252,61.924,-29.229,0.0,112.0
605898,-0.428,-0.479,-0.402,73.618,-41.282,-127.099,0.0,108.0
605961,-1.911,0.306,-0.678,123.649,-133.924,-197.977,0.0,107.0
606021,-2.000,2.000,-0.367,144.397,-145.878,-53.985,0.0,111.0
606082,-0.616,1.402,-0.072,65.893,-122.130,22.588,0.0,117.0
606142,0.094,0.895,0.035,74.183,-138.565,10.626,0.0,113.0
606202,0.633,0.321,0.182,45.618,-99.290,6.779,0.0,117.0
606264,0.728,-0.055,0.232,-40.229,-17.290,50.382,0.0,121.0
606323,0.807,-0.055,0.332,-12.214,61.389,44.458,0.0,107.0
606383,0.449,1.837,0.603,93.389,126.489,115.626,0.0,96.0
606442,-1.744,2.000,-1.449,-86.725,194.466,206.931,0.0,93.0
606504,-1.089,1.265,-0.320,-45.153,121.046,137.931,0.0,100.0
606563,-0.396,0.586,-0.313,0.763,154.763,1.366,0.0,67.0
606613,-0.268,-0.417,-0.187,-57.557,152.634,-86.947,42.0,111.0
606665,-0.536,-0.856,-0.272,-91.832,108.969,-89.527,42.0,111.0
606725,-0.562,-0.633,-0.249,0.893,8.153,-150.260,0.0,106.0
606784,-1.948,0.141,-0.468,163.130,-128.573,-193.000,0.0,98.0
606844,-2.000,2.000,-0.865,249.489,-171.336,-17.351,0.0,100.0
606904,-0.745,1.348,-0.257,-34.527,-120.969,58.916,0.0,106.0
606967,0.146,0.636,0.013,63.534,-135.916,49.183,0.0,112.0
607029,0.703,0.104,0.222,26.137,-81.153,16.450,0.0,120.0
607089,0.705,-0.307,0.295,-20.931,-4.244,16.863,0.0,121.0
607150,0.749,-0.201,0.334,9.756,64.092,-8.374,0.0,117.0
607209,0.477,2.000,0.080,71.893,138.618,62.496,0.0,96.0
607268,-0.961,2.000,-1.166,-164.237,201.641,212.137,0.0,92.0
607328,-0.734,2.000,-0.461,-173.122,155.947,246.954,0.0,99.0
607388,-0.531,0.872,-0.589,-14.992,114.527,110.595,0.0,109.0
607443,-0.955,-0.497,-0.661,-96.130,108.397,-17.786,40.0,111.0
607495,-0.913,-1.015,-0.566,-2.573,90.344,-82.573,39.0,115.0
607554,-0.841,-0.432,-0.472,133.374,13.962,-214.511,0.0,107.0
607614,-1.685,0.175,-0.454,153.519,-73.962,-250.137,0.0,97.0
607674,-2.000,2.000,-0.762,198.954,-167.824,-113.725,0.0,99.0
607734,-0.562,1.794,-0.227,87.794,-118.565,28.847,0.0,101.0
607795,0.091,0.987,0.076,36.214,-129.328,23.344,0.0,108.0
607855,0.604,0.203,0.293,47.229,-97.809,17.084,0.0,114.0
607916,0.717,-0.103,0.334,-13.664,-20.519,44.237,0.0,115.0
607979,0.900,-0.131,0.417,-36.580,40.397,32.282,0.0,107.0
608038,0.052,1.010,0.340,75.489,90.641,59.611,0.0,96.0
608098,-1.272,2.000,-1.380,-97.916,149.107,183.084,0.0,94.0
608158,-1.041,1.596,-0.567,-92.855,116.214,194.908,0.0,101.0
608219,-0.389,0.640,-0.462,-47.649,113.817,67.679,0.0,110.0
608279,-0.536,-0.527,-0.263,-35.153,106.191,-26.153,0.0,115.0
608340,-0.552,-0.793,-0.365,26.069,71.275,-50.176,0.0,113.0
608401,-0.890,-0.082,-0.361,63.107,-36.794,-206.786,0.0,106.0
608463,-2.000,1.400,-0.178,86.863,-149.076,-191.489,0.0,99.0
608522,-1.625,2.000,-0.570,200.221,-142.595,-33.901,0.0,69.0
608582,-0.213,1.483,-0.124,-22.870,-122.137,11.260,0.0,106.0
608643,0.417,0.655,0.198,19.809,-141.176,2.779,0.0,112.0
608704,0.750,0.090,0.314,32.244,-81.069,25.618,0.0,115.0
608807,0.877,-0.134,0.366,-28.214,44.718,63.366,0.0,107.0
608867,0.433,1.505,0.457,119.886,95.435,77.221,0.0,96.0
608927,-0.270,2.000,-2.000,169.435,239.870,215.069,0.0,93.0
608987,-1.159,1.328,-0.637,-250.137,216.130,211.321,0.0,103.0
609051,-0.689,0.207,-0.241,44.840,121.504,83.191,0.0,112.0
609112,-0.607,-0.323,-0.264,12.275,89.985,-45.756,0.0,115.0
609172,-0.616,-0.771,-0.266,-52.130,60.901,-139.580,0.0,106.0
609232,-1.179,-0.333,-0.351,84.176,-30.481,-250.137,0.0,102.0
609293,-2.000,2.000,-0.821,250.130,-190.565,-250.137,0.0,95.0
609352,-0.798,2.000,-0.592,144.053,-126.886,-32.519,0.0,101.0
609414,0.051,1.288,-0.094,-29.313,-103.748,-20.626,0.0,120.0
609475,0.311,0.414,0.266,38.115,-100.802,-16.122,0.0,126.0
609540,0.621,0.068,0.335,-21.214,-43.382,37.328,0.0,120.0
609601,0.789,-0.073,0.387,-61.786,1.595,43.237,0.0,116.0
609661,0.473,0.132,0.396,-0.885,55.183,46.084,0.0,103.0
609721,-0.791,2.000,-0.381,94.893,106.534,114.099,0.0,95.0
609781,-1.605,2.000,-1.075,-191.969,198.809,232.931,0.0,97.0
609842,-0.932,0.832,-0.277,-17.290,133.015,137.130,0.0,105.0
609902,-0.613,0.176,-0.285,19.901,123.412,15.206,0.0,112.0
609964,-0.628,-0.633,-0.167,-94.305,89.092,-90.412,0.0,114.0
610027,-0.525,-0.805,-0.198,-22.924,-17.206,-187.122,0.0,109.0
610087,-1.288,-0.355,-0.303,163.137,-121.985,-250.137,0.0,102.0
610148,-2.000,2.000,-1.392,250.130,-167.763,-122.985,0.0,99.0
610209,-0.742,1.667,-0.287,51.611,-115.260,23.740,0.0,114.0
610271,0.135,0.942,0.196,93.420,-131.321,29.290,0.0,124.0
610332,0.677,0.513,0.308,94.099,-100.260,38.496,0.0,123.0
610394,0.721,0.153,0.274,-20.725,-11.168,57.740,0.0,114.0
610454,0.820,0.010,0.363,-44.252,67.924,45.221,0.0,107.0
610513,0.303,0.651,0.366,-4.733,134.992,44.038,0.0,97.0
610577,-0.787,2.000,-1.006,-129.267,190.351,137.206,0.0,90.0
610637,-1.137,1.597,-0.617,-129.878,134.740,202.092,0.0,96.0
610698,-0.855,1.017,-0.709,34.924,130.427,74.649,0.0,104.0
610758,-0.662,-0.098,-0.349,-62.626,136.641,-9.344,0.0,109.0
610820,-0.616,-0.841,-0.204,-106.947,116.267,-72.412,0.0,111.0
610880,-0.642,-0.746,-0.149,31.519,46.740,-164.183,0.0,105.0
610940,-1.845,-0.149,-0.736,177.176,-75.008,-220.382,0.0,104.0
611002,-2.000,2.000,-0.837,250.130,-250.137,-82.359,0.0,105.0
611065,-0.214,2.000,-0.404,104.824,-195.191,75.160,0.0,110.0
611128,0.435,0.737,0.120,8.779,-133.473,41.183,0.0,123.0
611188,0.682,0.217,0.116,16.244,-38.679,42.634,0.0,113.0
611250,0.685,0.021,0.158,-88.832,50.740,58.756,0.0,112.0
611310,0.612,-0.080,0.300,-81.359,113.237,30.412,0.0,106.0
611371,0.175,1.405,0.450,39.366,172.458,53.626,0.0,95.0
611430,-1.359,2.000,-0.649,-166.420,186.107,154.893,0.0,93.0
611482,-1.401,1.728,-0.360,-158.519,64.786,166.939,59.0,98.0
611534,-0.520,0.792,-0.325,34.885,54.191,103.992,58.0,106.0
611590,-0.388,0.124,-0.394,39.053,62.679,9.992,39.0,112.0
611642,-0.555,-0.688,-0.333,-1.366,73.160,-45.382,40.0,115.0
611694,-0.389,-0.665,-0.303,24.847,62.947,-97.313,41.0,112.0
611755,-0.745,-0.226,-0.196,68.008,6.473,-242.076,0.0,106.0
611859,-2.000,2.000,-0.484,182.206,-122.832,-33.931,0.0,108.0
611920,-0.766,1.567,-0.107,0.588,-78.351,80.420,0.0,109.0
611982,0.168,0.427,0.089,30.664,-118.298,54.924,0.0,118.0
612043,0.704,0.119,0.281,60.336,-79.573,26.779,0.0,123.0
612108,0.672,-0.083,0.366,-51.847,-25.924,60.031,0.0,116.0
612168,0.620,-0.199,0.398,15.191,31.473,56.771,0.0,104.0
612229,0.011,2.000,-0.834,172.886,99.260,88.733,0.0,94.0
612289,-1.325,2.000,-1.006,-250.137,159.489,208.802,0.0,95.0
612349,-0.745,1.755,-0.545,-3.763,146.786,189.840,0.0,103.0
612402,-0.723,0.477,-0.450,-71.290,132.641,36.328,38.0,113.0
612454,-0.777,-0.633,-0.283,-25.733,112.992,-40.626,37.0,116.0
612506,-0.656,-0.800,-0.363,-21.832,78.939,-102.626,38.0,116.0
612558,-0.894,-0.448,-0.303,17.053,6.840,-250.137,39.0,110.0
612622,-1.886,0.207,-0.243,62.145,-80.595,-250.137,0.0,105.0
612689,-2.000,2.000,0.139,128.542,-132.511,-166.664,0.0,115.0
612751,-0.732,1.391,0.075,110.290,-111.053,-29.015,0.0,122.0
612811,-0.192,0.975,0.101,128.954,-106.305,4.496,0.0,133.0
612873,0.347,0.455,0.307,88.092,-72.939,2.183,0.0,132.0
612934,0.777,0.040,0.267,-0.458,-7.168,20.985,0.0,135.0
612995,0.875,-0.086,0.302,-42.939,55.916,59.000,0.0,122.0
613054,0.357,0.702,0.281,11.229,89.962,94.069,0.0,102.0
613116,-0.801,2.000,-0.690,94.023,182.870,205.611,0.0,98.0
613176,-1.778,2.000,-0.975,-197.611,199.275,250.130,0.0,98.0
613226,-0.873,0.603,-0.266,-58.771,143.908,132.534,36.0,106.0
613277,-0.586,-0.256,-0.136,-41.618,99.969,12.641,37.0,111.0
613327,-0.611,-0.792,-0.236,-53.702,83.397,-54.374,34.0,107.0
613379,-0.449,-0.780,-0.220,47.336,53.550,-115.099,40.0,110.0
613429,-0.967,-0.177,-0.473,145.634,-19.397,-234.672,40.0,103.0
613479,-2.000,1.254,-0.928,179.061,-129.954,-235.023,45.0,95.0
613550,-1.954,2.000,-0.654,79.718,-141.389,-20.092,0.0,104.0
613610,-0.402,1.228,-0.165,96.664,-125.069,31.237,0.0,104.0
613662,0.278,0.811,0.072,89.244,-131.198,2.611,55.0,117.0
613723,0.764,0.354,0.332,65.771,-68.664,14.962,0.0,118.0
613783,0.762,0.154,0.362,-64.427,-4.649,48.947,0.0,119.0
613843,0.909,-0.099,0.526,-113.069,39.031,62.756,0.0,106.0
613894,0.543,0.851,0.803,98.756,79.985,19.733,46.0,98.0
613944,-1.694,2.000,-1.997,-20.206,164.252,170.443,51.0,93.0
613995,-1.479,1.750,-0.704,-210.145,116.298,250.130,47.0,96.0
614046,-0.651,0.858,-0.469,28.832,122.725,176.389,38.0,58.0
614093,-0.445,0.346,-0.416,-32.313,120.679,32.198,40.0,57.0
614145,-0.386,-0.477,-0.191,-118.626,118.366,-61.771,44.0,113.0
614196,-0.627,-0.933,-0.336,-65.702,102.191,-123.244,32.0,116.0
614247,-1.027,-0.593,-0.553,127.031,13.893,-193.420,39.0,107.0
614297,-1.531,0.042,-0.550,211.305,-115.191,-250.137,40.0,100.0
614348,-2.000,2.000,-0.932,184.748,-169.809,-250.137,55.0,99.0
614401,-1.543,2.000,-0.406,28.870,-51.519,-34.672,58.0,109.0
614464,-0.293,1.108,0.045,44.649,-65.893,0.733,0.0,120.0
614525,0.401,0.638,0.292,89.718,-103.061,9.359,0.0,122.0
614587,0.718,0.412,0.377,12.588,-88.977,28.573,0.0,137.0
614648,0.840,-0.161,0.442,-108.198,-20.282,73.954,0.0,124.0
614743,0.506,1.945,0.895,177.718,125.328,55.206,50.0,101.0
614794,-2.000,2.000,-1.866,-250.137,196.733,238.832,49.0,93.0
614845,-1.342,1.098,-0.399,-103.557,105.985,250.130,50.0,99.0
614896,-0.610,0.781,-0.614,4.779,121.672,148.374,46.0,106.0
614950,-0.551,-0.219,-0.278,-20.603,91.031,7.855,51.0,112.0
615002,-0.593,-0.842,-0.280,-11.779,70.389,-63.725,34.0,107.0
615052,-0.493,-0.634,-0.245,77.099,43.450,-138.183,37.0,109.0
615103,-1.187,-0.107,-0.332,115.725,-33.137,-250.137,41.0,103.0
615162,-2.000,2.000,-0.265,120.023,-115.626,-218.405,0.0,97.0
615223,-1.498,2.000,-0.214,68.947,-87.084,-12.191,0.0,113.0
615284,-0.151,1.166,-0.081,82.244,-97.176,35.603,0.0,119.0
615346,0.642,0.494,0.261,29.893,-91.550,2.084,0.0,125.0
615406,0.610,0.264,0.336,-28.389,-37.679,3.435,0.0,121.0
615471,0.612,-0.072,0.433,-82.420,4.229,61.550,0.0,115.0
615530,0.481,0.131,0.402,6.626,64.534,53.160,0.0,104.0
615589,-1.412,2.000,-0.884,34.733,134.450,159.168,0.0,92.0
615641,-2.000,2.000,-0.781,-212.832,116.863,250.130,53.0,95.0
615701,-0.719,0.981,-0.335,33.725,97.511,194.229,0.0,104.0
615758,-0.492,0.256,-0.435,-51.511,123.824,30.053,0.0,58.0
615811,-0.539,-0.948,-0.246,-73.687,120.321,-79.305,46.0,114.0
615871,-0.379,-1.034,-0.132,45.023,75.817,-137.229,0.0,110.0
615933,-0.654,-0.137,-0.230,124.160,-40.160,-249.649,0.0,100.0
615994,-2.000,2.000,-0.991,239.420,-166.275,-242.588,0.0,97.0
616053,-1.127,1.987,-0.234,103.023,-92.504,38.573,0.0,98.0
616115,0.079,1.009,0.021,37.313,-99.313,12.000,0.0,113.0
616176,0.543,0.366,0.315,54.519,-101.420,-29.679,0.0,141.0
616238,0.619,0.172,0.310,62.550,-33.763,-8.321,0.0,122.0
616299,0.659,0.107,0.400,-30.939,11.137,28.679,0.0,114.0
616358,0.294,0.935,0.381,47.313,75.412,83.679,0.0,102.0
616418,-0.658,2.000,-0.699,-171.344,126.214,188.832,0.0,91.0
616481,-1.563,2.000,-0.431,-141.908,98.366,250.130,0.0,97.0
616534,-0.582,1.067,-0.415,-2.023,113.954,125.916,51.0,104.0
616585,-0.629,-0.075,-0.219,-27.779,114.763,9.252,38.0,111.0
616636,-0.757,-0.960,-0.335,-31.847,110.076,-47.504,32.0,113.0
616687,-0.569,-1.081,-0.301,74.542,76.855,-141.779,37.0,109.0
616747,-1.077,-0.333,-0.464,161.504,-20.069,-250.137,0.0,100.0
616807,-2.000,2.000,-1.150,185.916,-180.450,-247.420,0.0,98.0
616868,-1.617,2.000,-0.548,132.626,-116.466,-6.275,0.0,119.0
616933,-0.047,1.084,-0.048,106.076,-105.084,17.229,0.0,134.0
616995,0.484,0.811,0.287,69.687,-106.588,3.275,0.0,132.0
617058,0.724,0.375,0.469,5.634,-95.786,50.885,0.0,133.0
617118,0.804,0.063,0.410,-10.122,-23.885,96.252,0.0,117.0
617179,0.610,0.295,0.238,30.298,60.298,74.221,0.0,101.0
617238,-0.723,2.000,-1.203,26.916,186.878,93.489,0.0,92.0
617289,-2.000,2.000,-1.399,-250.137,217.763,214.107,49.0,94.0
617340,-1.057,0.852,-0.450,-46.031,136.168,162.397,40.0,101.0
617392,-0.537,0.512,-0.473,32.740,122.878,70.450,46.0,108.0
617447,-0.542,-0.329,-0.207,-30.137,85.763,-23.595,37.0,112.0
617507,-0.735,-0.898,-0.285,-13.504,53.252,-64.817,0.0,112.0
617560,-0.659,-0.342,-0.221,103.076,-42.565,-170.450,51.0,106.0
617663,-2.000,2.000,-0.780,165.687,-154.038,-223.046,0.0,101.0
617724,-1.108,2.000,-0.404,118.969,-106.290,13.718,0.0,114.0
617786,-0.216,1.102,-0.083,68.580,-115.931,28.076,0.0,126.0
617847,0.452,0.628,0.085,130.053,-114.305,58.756,0.0,117.0
617909,0.788,0.341,0.229,1.885,-39.344,64.595,0.0,118.0
617973,0.788,-0.203,0.414,-127.611,37.802,66.893,0.0,113.0
618034,0.563,-0.094,0.380,-12.038,112.779,31.099,0.0,99.0
618093,-0.544,2.000,-1.356,130.481,206.573,163.679,0.0,92.0
618153,-1.564,1.572,-0.859,-250.137,151.176,216.939,0.0,99.0
618211,-0.544,0.549,-0.587,-5.634,116.649,97.786,0.0,57.0
618263,-0.263,-0.451,-0.223,-14.412,80.603,-75.275,36.0,112.0
618314,-0.695,-0.946,-0.236,8.038,80.107,-122.191,38.0,112.0
618365,-0.708,-0.539,-0.368,66.977,42.550,-168.679,40.0,107.0
618429,-1.493,0.036,-0.479,107.092,-61.412,-250.137,0.0,98.0
618489,-2.000,2.000,-0.651,133.130,-151.702,-162.481,0.0,98.0
618551,-1.022,1.761,-0.452,142.992,-112.443,46.214,0.0,114.0
618613,-0.350,1.091,-0.176,31.214,-137.710,34.771,0.0,126.0
618675,0.496,0.327,0.170,90.855,-126.962,18.107,0.0,125.0
618736,0.777,0.142,0.170,39.382,-40.740,42.122,0.0,126.0
618798,0.792,0.073,0.313,-46.802,22.427,31.466,0.0,108.0
618858,0.426,0.752,0.453,38.321,82.374,93.458,0.0,101.0
618917,-0.532,2.000,-0.735,-27.802,163.443,177.489,0.0,91.0
618981,-1.844,2.000,-0.658,-181.427,116.977,209.534,0.0,98.0
619031,-0.604,0.531,-0.297,34.603,89.802,73.336,39.0,65.0
619080,-0.260,0.164,-0.310,19.366,98.725,-55.366,52.0,62.0
619132,-0.406,-0.445,-0.276,-75.298,104.153,-105.634,51.0,113.0
619183,-0.392,-0.720,-0.246,-43.519,75.351,-105.389,37.0,77.0
619234,-0.811,-0.354,-0.291,87.931,-7.405,-191.985,41.0,105.0
619294,-2.000,0.496,-0.684,139.588,-109.802,-218.214,0.0,97.0
619356,-2.000,2.000,-0.425,125.267,-145.382,-68.916,0.0,113.0
619420,-0.378,1.462,-0.120,70.733,-129.710,8.824,0.0,114.0
619483,0.715,0.616,0.171,55.069,-131.763,-1.000,0.0,123.0
619544,0.852,0.084,0.299,41.115,-59.718,13.611,0.0,123.0
619607,0.826,-0.099,0.405,-6.901,1.282,54.496,0.0,125.0
619667,0.527,0.158,0.419,15.038,54.405,45.611,0.0,102.0
619726,-0.791,2.000,-0.382,65.107,105.794,138.550,0.0,92.0
619787,-2.000,2.000,-0.876,-212.550,95.000,250.130,0.0,94.0
619847,-0.842,0.866,-0.102,21.427,59.145,153.389,0.0,104.0
619899,-0.284,0.041,-0.277,-32.351,109.756,-17.427,37.0,111.0
619964,-0.301,-0.830,-0.253,-89.183,118.809,-110.786,0.0,114.0
620022,-0.486,-0.745,-0.344,89.168,43.878,-157.053,38.0,110.0
620082,-0.966,-0.190,-0.346,161.794,-46.069,-228.679,0.0,102.0
620142,-2.000,1.817,-0.920,180.145,-184.206,-250.137,0.0,115.0
620203,-2.000,2.000,-0.344,130.550,-144.832,-1.779,0.0,116.0
620268,-0.086,1.281,-0.201,98.886,-120.389,51.977,0.0,0.0
620329,0.667,0.410,0.163,46.672,-108.550,30.145,0.0,149.0
620391,0.778,-0.080,0.277,-4.664,-37.122,60.221,0.0,134.0
620454,0.812,-0.082,0.430,-44.878,13.992,73.557,0.0,111.0
620514,0.399,0.146,0.612,20.351,66.908,82.985,0.0,99.0
620572,-0.811,2.000,-0.782,27.084,143.847,177.733,0.0,91.0
620676,-0.729,1.308,-0.344,-35.832,119.855,175.733,0.0,104.0
620727,-0.246,0.196,-0.307,-102.214,130.603,24.183,38.0,112.0
620778,-0.438,-0.791,-0.261,-53.534,130.290,-33.618,37.0,115.0
620829,-0.623,-0.894,-0.634,30.107,114.305,-71.412,38.0,115.0
620879,-0.800,-0.287,-0.600,107.084,39.282,-211.756,39.0,108.0
620942,-1.585,-0.082,-0.425,165.481,-50.237,-250.137,0.0,98.0
621001,-2.000,2.000,-1.528,250.130,-190.832,-61.931,0.0,96.0
621062,-0.640,1.969,-0.455,56.550,-162.282,118.580,0.0,108.0
621121,0.415,0.714,0.108,-11.458,-165.412,59.115,0.0,109.0
621181,0.725,0.059,0.305,20.977,-109.122,5.802,0.0,114.0
621242,0.688,-0.211,0.271,-17.191,-20.863,8.412,0.0,114.0
621302,0.778,-0.224,0.338,-9.519,55.779,3.557,0.0,109.0
621362,0.491,0.703,0.352,77.473,131.313,52.649,0.0,97.0
621420,-0.795,2.000,-1.211,-17.595,200.924,116.252,0.0,91.0
621483,-1.485,2.000,-0.822,-250.137,123.580,200.908,0.0,99.0
621534,-0.499,0.557,-0.374,-12.595,93.153,109.695,38.0,106.0
621585,-0.495,-0.049,-0.396,-0.176,84.817,13.504,36.0,112.0
621635,-0.662,-0.745,-0.481,-41.366,94.260,-49.107,38.0,107.0
621686,-0.592,-0.843,-0.461,-1.450,75.985,-124.580,44.0,110.0
621737,-1.071,-0.222,-0.390,111.550,-15.710,-250.137,51.0,102.0
621797,-2.000,1.161,0.109,250.130,-143.023,-211.382,0.0,95.0
621857,-1.412,2.000,-2.000,162.595,-177.412,99.053,0.0,103.0
621921,-0.214,0.432,0.095,-0.481,-121.931,128.466,0.0,108.0
621981,0.294,0.616,-0.137,52.870,-135.344,73.733,0.0,114.0
622042,0.570,-0.108,0.137,-42.504,-126.038,-6.046,0.0,115.0
622102,0.832,-0.344,0.293,-50.748,-54.779,-20.282,0.0,113.0
622161,0.930,-0.092,0.480,90.015,48.038,-16.580,0.0,103.0
622221,-0.067,2.000,-0.674,96.611,140.321,13.534,0.0,94.0
622280,-1.698,2.000,-1.139,-181.641,218.145,180.122,0.0,91.0
622341,-1.035,1.263,-0.486,-93.878,130.924,138.634,0.0,98.0
622394,-0.358,0.522,-0.510,-62.198,97.847,17.443,40.0,105.0
622454,-0.325,-0.342,-0.334,-115.061,76.931,-78.634,0.0,109.0
622505,-0.555,-1.376,-0.557,-137.450,59.710,-140.947,41.0,108.0
622557,-1.079,-0.763,-0.307,66.351,6.824,-250.137,45.0,101.0
622617,-1.873,-0.329,0.371,228.534,-92.473,-250.137,0.0,108.0
622683,-2.000,2.000,-1.719,250.130,-187.618,9.534,0.0,0.0
622743,-0.788,1.153,-0.293,-106.481,-102.595,81.275,0.0,114.0
622804,-0.128,0.594,-0.044,110.550,-102.214,53.084,0.0,117.0
622866,0.415,0.416,0.043,89.779,-61.031,27.557,0.0,136.0
622929,0.681,-0.156,0.364,-91.267,-7.840,24.206,0.0,116.0
622981,0.813,-0.261,0.594,-51.664,7.519,14.115,37.0,112.0
623031,0.447,0.333,0.475,58.847,2.221,34.084,42.0,95.0
623090,-1.005,2.000,-0.116,-9.626,4.634,45.542,0.0,82.0
623149,-1.178,2.000,0.479,-17.206,21.565,231.053,0.0,77.0
623199,-1.039,2.000,0.040,29.687,78.916,179.115,51.0,78.0
623257,-1.317,1.143,-0.288,16.252,96.092,-2.573,0.0,82.0
623316,-0.768,-0.105,-0.096,-85.145,113.206,-111.550,0.0,87.0
623379,-0.441,-0.554,-0.323,-199.557,165.359,-96.687,0.0,87.0
623437,-0.890,-0.430,-0.225,-197.618,67.160,-127.137,0.0,70.0
623495,-0.979,-0.805,0.336,26.847,-61.954,-118.412,0.0,64.0
623589,-2.000,1.315,0.127,247.557,-160.137,-82.817,71.0,57.0
623637,-1.331,1.143,0.317,36.855,-161.931,-68.374,35.0,63.0
623686,-0.684,0.689,0.294,168.672,-133.718,-121.542,68.0,36.0
623744,-0.402,1.191,-0.021,66.931,-37.901,-130.389,64.0,0.0
623802,-0.077,0.210,0.101,-69.183,22.099,-118.489,63.0,0.0
623859,-0.357,0.613,-0.083,-58.344,41.191,-29.641,59.0,0.0
623920,-0.470,0.186,0.316,-157.496,-3.084,0.237,57.0,0.0
623968,-1.085,0.363,0.348,76.389,-52.237,38.038,51.0,41.0
624024,-1.453,1.129,-0.117,102.053,-40.542,53.939,45.0,0.0
624074,-1.219,1.005,0.043,-44.550,27.099,46.847,58.0,58.0
624131,-1.216,0.726,0.115,-73.954,58.542,-4.267,41.0,0.0
624178,-1.181,0.427,0.123,-34.718,68.206,-27.298,41.0,49.0
624226,-0.869,0.325,0.087,-7.679,66.191,-13.000,39.0,55.0
624275,-0.656,0.087,0.177,-19.985,19.000,15.695,40.0,58.0
624326,-0.406,0.083,0.215,-8.771,-36.359,35.954,41.0,57.0
624384,-0.395,0.212,0.239,-43.771,-80.664,53.908,0.0,59.0
624437,-0.989,0.659,0.504,-53.969,-89.397,62.008,125.0,64.0
624495,-1.176,1.363,0.473,5.466,-62.023,52.527,0.0,65.0
624552,-0.647,1.125,0.480,-53.771,-39.870,69.504,0.0,50.0
624610,-0.249,1.464,0.389,-39.405,35.809,44.947,0.0,50.0
624657,-0.143,0.998,0.192,-148.794,72.824,73.229,23.0,50.0
624704,0.224,0.305,0.195,-158.328,88.092,120.221,17.0,70.0
624751,0.402,0.288,0.027,-140.863,104.588,127.214,16.0,50.0
624801,0.437,0.299,0.015,-131.015,125.412,116.550,13.0,58.0
624859,0.513,0.820,-0.054,-117.695,195.908,146.458,0.0,53.0
624916,0.132,2.000,-0.375,-4.565,250.130,161.794,0.0,60.0
624978,-0.737,2.000,-0.827,-196.321,250.130,152.977,113.0,65.0
625029,-0.979,1.866,-0.748,-184.267,216.298,127.290,88.0,59.0
625076,-0.955,0.609,-0.350,-92.771,127.626,10.382,22.0,63.0
625133,-0.676,0.115,-0.336,108.221,115.115,-22.328,0.0,55.0
625182,-0.609,0.000,-0.322,33.832,97.771,-77.748,75.0,45.0
625235,-0.629,-0.121,-0.153,-68.084,59.840,-80.282,92.0,57.0
625283,-0.909,-0.285,0.143,-43.000,15.099,-42.168,21.0,64.0
625330,-2.000,-0.023,0.123,28.328,-97.641,-23.450,22.0,59.0
625386,-2.000,0.287,0.267,233.328,-187.794,12.817,0.0,57.0
625442,-1.763,1.519,-0.057,171.847,-222.244,43.534,0.0,45.0
625488,-1.094,1.019,0.112,103.886,-161.053,20.695,27.0,39.0
625545,-0.496,0.627,0.014,61.679,-81.878,12.107,0.0,46.0
625602,0.114,-0.146,-0.112,32.107,-90.420,-34.137,0.0,69.0
625658,0.183,-0.222,-0.103,151.122,-97.840,-9.992,0.0,49.0
625720,-0.122,0.257,-0.084,148.344,-79.084,14.405,0.0,82.0
625777,-0.574,0.879,0.297,91.618,-67.229,41.427,0.0,67.0
625836,-1.423,1.979,0.420,92.527,-73.527,46.069,0.0,76.0
625894,-1.561,2.000,0.605,-26.832,-81.725,93.718,0.0,72.0
625952,-0.678,1.638,0.487,-17.092,-81.641,112.908,0.0,81.0
626002,-0.244,1.202,0.102,-39.695,-30.305,41.809,51.0,93.0
626062,-0.294,-0.113,-0.287,-129.939,32.832,-36.344,0.0,102.0
626122,-0.553,-0.934,-0.475,-105.756,91.267,-89.779,0.0,104.0
626185,-0.664,-0.743,-0.257,129.908,25.878,-196.458,0.0,96.0
626242,-1.107,0.211,-0.261,182.824,-62.763,-246.870,0.0,57.0
626341,-2.000,2.000,0.136,207.870,-54.832,-57.099,195.0,50.0
626398,-0.890,1.747,-0.132,116.786,-38.695,19.183,0.0,50.0
626447,0.212,0.903,0.171,107.924,-47.557,5.450,53.0,65.0
626504,0.748,0.678,0.339,73.687,-15.527,20.061,0.0,62.0
626553,0.691,0.158,0.508,-40.718,-16.756,46.328,44.0,74.0
626603,0.403,0.229,0.534,-42.191,10.153,63.145,37.0,76.0
626661,-0.108,0.727,0.628,10.244,15.588,130.427,0.0,89.0
626725,-2.000,2.000,-0.413,-91.809,66.160,129.527,0.0,133.0
626785,-2.000,2.000,-0.671,-19.527,91.718,232.420,0.0,83.0
626843,-0.911,0.895,-0.618,-158.664,99.870,132.550,0.0,83.0
626903,-0.373,-0.358,-0.421,-87.298,90.794,-22.710,0.0,95.0
626953,-0.340,-0.925,-0.306,60.489,87.695,-122.511,38.0,94.0
627012,-0.583,-0.370,-0.271,130.695,56.817,-183.290,0.0,96.0
627073,-1.290,0.140,-0.232,81.191,-22.183,-250.137,0.0,102.0
627133,-2.000,0.602,0.283,212.954,-80.588,-228.748,0.0,111.0
627202,-1.577,1.917,-0.269,175.298,-77.031,8.153,0.0,0.0
627266,-0.405,0.991,0.137,52.122,-37.466,33.466,0.0,0.0
627332,0.049,0.606,0.264,8.076,-24.641,32.893,0.0,0.0
627397,0.420,-0.019,0.368,16.435,-15.084,39.137,0.0,0.0
627450,0.517,0.178,0.344,-10.641,20.817,39.313,43.0,143.0
627511,-0.143,0.731,0.395,-12.412,44.916,23.496,0.0,121.0
627571,-2.000,2.000,-0.493,-94.275,53.802,131.817,0.0,107.0
627631,-2.000,2.000,-0.695,-112.267,40.321,250.130,0.0,88.0
627681,-1.076,1.130,-0.599,-93.466,111.656,186.886,46.0,95.0
627736,-0.481,-0.146,-0.459,-168.534,106.511,56.015,41.0,115.0
627786,-0.029,-1.118,-0.317,-137.618,99.427,-31.099,37.0,110.0
627838,-0.177,-1.216,-0.273,47.366,82.748,-136.031,39.0,120.0
627890,-0.829,-0.429,-0.391,148.580,24.817,-224.794,45.0,108.0
627955,-1.947,0.090,-0.440,161.313,-76.611,-250.137,0.0,0.0
628021,-2.000,1.832,-0.352,250.130,-107.107,-134.649,0.0,0.0
628087,-1.069,1.725,-0.405,43.550,-62.015,2.053,0.0,0.0
628152,0.191,0.674,0.263,82.191,-49.038,6.107,0.0,0.0
628212,0.896,0.469,0.427,-12.489,-45.725,56.115,51.0,0.0
628278,1.039,0.147,0.639,-76.023,-43.031,75.611,0.0,0.0
628339,0.488,0.628,0.374,13.038,41.565,98.359,0.0,131.0
628399,-2.000,2.000,-0.726,-103.618,135.305,145.740,0.0,94.0
628450,-2.000,2.000,-0.958,-161.038,132.687,250.130,50.0,95.0
628501,-1.348,1.073,-0.755,-67.466,164.527,200.863,52.0,101.0
628552,-0.469,0.046,-0.416,-121.702,144.328,49.557,40.0,107.0
628603,-0.164,-0.940,-0.188,-96.359,139.504,-62.916,38.0,112.0
628656,-0.237,-1.020,-0.143,-11.672,111.511,-75.924,37.0,115.0
628710,-0.689,-0.225,-0.267,88.206,39.565,-169.702,41.0,117.0
628767,-1.442,0.073,-0.289,108.855,-36.412,-216.145,50.0,0.0
628833,-2.000,1.323,-0.446,200.641,-42.191,-221.489,0.0,0.0
628898,-1.731,1.334,-0.265,13.015,-56.496,-22.015,0.0,0.0
628965,-0.617,0.740,-0.069,123.405,-84.504,5.534,0.0,0.0
629030,-0.008,0.835,-0.089,138.855,-78.214,27.351,0.0,0.0
629096,0.517,0.384,0.233,14.069,-34.176,64.611,0.0,0.0
629161,0.754,0.090,0.451,-69.603,0.519,84.908,0.0,0.0
629218,0.880,-0.109,0.606,-30.336,25.771,82.656,61.0,126.0
629321,-2.000,2.000,-1.654,-136.802,177.359,200.573,0.0,92.0
629372,-1.560,1.639,-0.537,-67.977,159.611,250.130,47.0,99.0
629425,-0.618,0.895,-0.504,-58.656,160.794,123.740,54.0,105.0
629485,-0.477,-0.312,-0.232,-109.672,127.641,-12.603,0.0,111.0
629545,-0.697,-1.327,-0.487,-71.076,122.725,-76.046,0.0,111.0
629606,-0.906,-0.579,-0.619,148.664,37.542,-214.947,0.0,103.0
629666,-2.000,0.155,-0.946,237.748,-94.679,-250.137,0.0,102.0
629728,-2.000,2.000,-0.610,102.237,-113.985,-57.519,0.0,110.0
629796,-0.423,1.048,-0.059,66.992,-91.634,49.115,0.0,0.0
629859,0.407,0.561,0.126,100.313,-122.824,20.794,0.0,139.0
629920,0.675,0.302,0.273,53.916,-63.168,42.191,0.0,118.0
629981,0.879,0.083,0.433,-67.947,-23.542,72.412,0.0,113.0
630041,0.878,0.106,0.473,-22.344,36.611,57.389,0.0,103.0
630100,-0.638,2.000,-0.470,42.092,120.740,104.489,0.0,92.0
630161,-2.000,2.000,-1.003,-179.565,160.756,250.130,0.0,93.0
630221,-0.946,1.224,-0.460,-56.008,155.260,171.336,0.0,103.0
630286,-0.580,0.156,-0.278,-89.031,129.176,39.153,0.0,114.0
630346,-0.951,-0.932,-0.527,-130.603,103.511,17.336,0.0,107.0
630407,-0.429,-0.860,-0.232,83.420,23.977,-117.275,0.0,110.0
630467,-1.203,-0.218,-0.382,160.344,-66.099,-242.107,0.0,99.0
630528,-2.000,2.000,-0.771,179.565,-163.702,-250.137,0.0,97.0
630588,-0.879,1.798,-0.226,99.763,-84.137,1.687,0.0,104.0
630649,-0.094,1.102,-0.124,62.298,-117.015,1.939,0.0,109.0
630711,0.661,0.470,0.322,42.885,-102.389,-20.603,0.0,123.0
630775,1.001,0.075,0.445,-96.145,4.588,38.122,0.0,112.0
630836,1.027,0.099,0.586,-85.748,69.145,40.611,0.0,107.0
630895,0.205,1.446,0.330,-4.679,101.550,129.992,0.0,97.0
630956,-2.000,2.000,-1.388,-117.107,140.466,195.534,0.0,94.0
631016,-1.131,1.407,-0.535,-92.863,140.611,201.206,0.0,102.0
631077,-0.532,0.652,-0.451,-42.015,165.122,78.511,0.0,110.0
631130,-0.628,-0.398,-0.357,-72.061,156.824,18.664,51.0,115.0
631190,-0.792,-0.905,-0.490,-65.336,82.695,28.969,0.0,106.0
631251,-0.599,-0.397,-0.388,150.557,-20.481,-112.023,0.0,107.0
631315,-1.800,0.392,-0.617,213.985,-118.160,-189.351,0.0,96.0
631375,-2.000,2.000,-0.806,182.748,-148.519,-59.229,0.0,94.0
631436,-0.471,1.638,-0.312,51.908,-124.313,0.550,0.0,102.0
631497,0.499,0.699,-0.036,53.046,-142.168,-33.084,0.0,123.0
631559,0.964,0.152,0.253,-21.435,-84.420,-22.344,0.0,113.0
631619,0.849,-0.079,0.315,-145.931,-23.519,27.282,0.0,110.0
631680,0.686,-0.198,0.493,-59.901,1.305,15.000,0.0,100.0
631740,-0.604,2.000,-0.368,250.130,38.725,134.336,0.0,91.0
631803,-1.546,2.000,-0.966,-241.481,177.137,240.214,0.0,93.0
631855,-1.005,1.201,-0.436,-48.511,163.947,158.435,38.0,101.0
631906,-0.658,0.296,-0.343,-48.908,138.046,34.573,41.0,109.0
631958,-0.653,-0.530,-0.410,-97.687,98.061,-49.588,39.0,113.0
632010,-0.642,-1.077,-0.336,-45.519,45.153,-79.626,37.0,112.0
632061,-0.726,-0.540,-0.396,162.153,-34.771,-178.298,43.0,106.0
632122,-1.866,0.089,-0.631,233.939,-135.206,-248.947,0.0,97.0
632183,-2.000,2.000,-0.468,91.351,-181.008,-99.145,0.0,109.0
632245,-0.556,1.281,-0.206,85.718,-116.985,2.183,0.0,105.0
