Timestamp(ms),AccelX(g),AccelY(g),AccelZ(g),GyroX(deg/s),GyroY(deg/s),GyroZ(deg/s),DistanceLeft(cm),DistanceRight(cm)
310839,1.423,0.264,0.310,49.160,-108.550,113.252,0.0,0.0
310904,1.434,0.451,0.431,53.542,-20.802,75.092,0.0,0.0
310962,0.215,1.504,0.113,-18.298,86.267,170.664,0.0,68.0
311024,-1.612,2.000,-1.309,-91.466,159.886,246.473,0.0,86.0
311084,-2.000,2.000,-1.439,-117.519,203.221,250.130,0.0,96.0
311135,-1.068,0.948,-0.746,-80.626,222.641,194.573,44.0,107.0
311186,-0.953,-0.845,-0.372,-207.924,179.046,8.069,37.0,115.0
311237,-0.673,-2.000,-0.266,-114.565,102.359,-173.817,32.0,117.0
311298,-1.016,-1.100,-0.212,164.275,24.473,-250.137,0.0,108.0
311358,-1.557,-0.052,-0.322,223.962,-92.191,-250.137,0.0,98.0
311419,-2.000,2.000,-1.457,190.237,-145.740,-250.137,0.0,124.0
311488,-1.234,1.683,-0.448,97.840,-1.542,20.252,0.0,0.0
311552,0.018,0.861,-0.122,101.718,-49.252,47.466,0.0,161.0
311617,0.691,0.717,0.292,-8.153,-79.260,65.489,0.0,0.0
311683,1.382,-0.191,0.669,-46.504,-60.595,53.710,0.0,0.0
311748,0.880,0.418,0.360,59.634,23.855,59.847,0.0,0.0
311808,-1.958,2.000,-1.174,-15.000,139.351,176.031,0.0,90.0
311867,-2.000,2.000,-1.423,-151.771,191.779,250.130,0.0,94.0
311919,-0.929,1.161,-0.595,-97.748,188.618,204.786,52.0,104.0
311980,-0.601,-0.246,-0.340,-191.542,150.542,57.244,0.0,114.0
312035,-0.556,-2.000,-0.386,-150.824,139.221,-90.198,51.0,116.0
312095,-0.667,-0.937,-0.303,141.198,105.420,-239.672,0.0,108.0
312156,-1.604,-0.082,-0.370,182.366,-13.718,-250.137,0.0,99.0
312221,-2.000,2.000,-0.937,240.733,-119.023,-191.435,0.0,0.0
312288,-1.165,1.890,-0.616,119.771,-74.076,51.641,0.0,0.0
312353,-0.131,0.888,-0.165,40.649,-123.962,32.374,0.0,0.0
312419,0.582,0.326,0.217,58.748,-91.733,46.824,0.0,0.0
312479,1.194,0.039,0.403,-24.855,-32.420,63.458,0.0,113.0
312543,1.285,0.083,0.384,-0.351,19.794,47.099,0.0,105.0
312602,0.703,2.000,-0.419,90.626,94.069,74.710,0.0,94.0
312662,-2.000,2.000,-1.762,-153.565,250.130,250.130,0.0,92.0
312714,-2.000,1.571,-1.071,-174.473,211.626,238.420,51.0,101.0
312766,-0.678,0.125,-0.398,-58.260,161.435,142.145,51.0,111.0
312818,-0.530,-1.028,-0.319,-98.954,106.015,-43.679,44.0,117.0
312879,-0.650,-1.536,-0.298,-40.641,108.366,-177.008,0.0,114.0
312940,-1.103,-0.378,-0.235,126.664,28.069,-250.137,0.0,105.0
313004,-2.000,0.146,-0.194,195.435,-88.374,-250.137,0.0,166.0
313063,-2.000,2.000,-0.997,240.405,-77.847,-48.237,0.0,124.0
313128,-0.517,1.525,-0.436,82.809,-70.870,54.275,0.0,0.0
313195,0.282,0.808,0.199,50.130,-92.870,59.992,0.0,0.0
313261,0.803,0.169,0.508,-47.290,-43.519,78.588,0.0,0.0
313326,0.903,-0.125,0.548,-81.969,5.298,80.031,0.0,0.0
313385,0.807,-0.106,0.285,18.160,74.252,50.733,0.0,97.0
313445,-1.865,2.000,-1.906,-63.931,186.740,219.511,0.0,88.0
313497,-2.000,2.000,-0.739,-214.137,149.786,250.130,52.0,95.0
313561,-0.858,1.013,-0.371,-36.153,147.115,194.855,0.0,108.0
313613,-0.646,-0.492,-0.300,-67.481,147.443,-32.519,43.0,116.0
313664,-0.788,-1.165,-0.430,-46.779,112.580,-105.771,34.0,110.0
313725,-0.549,-0.842,-0.392,120.565,11.771,-199.519,0.0,111.0
313786,-0.922,-0.118,-0.361,229.702,-108.000,-250.137,0.0,101.0
313895,-2.000,2.000,-0.792,176.336,-64.130,14.305,0.0,0.0
313961,-0.271,1.201,-0.079,12.870,-57.031,33.664,0.0,0.0
314028,0.458,0.525,0.244,52.985,-111.824,11.397,0.0,0.0
314096,0.959,0.074,0.354,13.817,-51.145,39.382,0.0,0.0
314157,1.122,-0.033,0.560,-30.389,8.176,32.221,0.0,106.0
314217,0.383,0.891,0.446,126.908,76.382,76.779,0.0,95.0
314276,-1.501,2.000,-1.262,-141.595,171.336,233.099,0.0,91.0
314337,-1.525,1.695,-0.679,-66.863,146.580,205.038,0.0,99.0
314398,-0.631,0.577,-0.414,-79.679,140.527,51.603,0.0,108.0
314449,-0.403,-0.776,-0.260,-165.519,116.015,-69.359,39.0,113.0
314502,-0.610,-1.450,-0.290,-74.473,87.855,-134.626,40.0,113.0
314562,-0.986,-0.681,-0.396,159.489,17.160,-246.679,0.0,106.0
314632,-2.000,0.428,-0.606,250.130,-131.870,-250.137,0.0,0.0
314698,-2.000,2.000,-0.925,229.679,-104.855,-9.206,0.0,0.0
314765,-0.396,1.102,-0.281,23.878,-110.130,41.038,0.0,0.0
314830,0.373,0.461,0.069,144.710,-134.939,37.656,0.0,0.0
314892,0.880,0.285,0.239,55.977,-59.412,62.756,0.0,111.0
314957,1.020,0.144,0.429,-35.382,-6.214,44.275,0.0,0.0
315018,0.406,0.699,0.446,6.664,56.985,73.565,0.0,95.0
315077,-1.206,2.000,-0.721,-135.351,153.557,250.130,0.0,90.0
315144,-1.753,2.000,-0.518,-163.168,168.450,250.130,0.0,100.0
315198,-0.871,0.317,-0.512,-81.099,162.809,142.901,39.0,112.0
315249,-0.955,-0.893,-0.724,-75.450,142.313,10.901,37.0,118.0
315297,-0.623,-1.372,-0.647,71.832,96.183,-141.107,34.0,85.0
315348,-0.930,-0.482,-0.522,234.710,16.351,-250.137,40.0,109.0
315408,-1.383,0.066,-0.546,163.000,-63.595,-250.137,0.0,98.0
315467,-2.000,2.000,-0.594,250.130,-159.427,-250.137,0.0,111.0
315529,-1.026,2.000,-0.384,64.176,-84.252,32.321,0.0,125.0
315588,-0.161,0.895,-0.005,43.595,-123.130,47.649,191.0,116.0
315652,0.465,0.226,0.136,142.466,-141.985,69.733,179.0,146.0
315708,1.025,-0.022,0.139,76.977,-92.191,102.916,139.0,110.0
315764,1.471,0.081,0.302,1.489,-60.305,66.107,135.0,104.0
315823,0.610,0.250,0.351,-10.008,-21.481,46.183,0.0,93.0
315881,-1.078,2.000,-1.123,165.153,189.611,250.130,0.0,87.0
315932,-2.000,2.000,-1.131,-248.786,250.130,230.290,53.0,95.0
315983,-0.944,0.343,-0.354,-128.962,190.053,106.855,51.0,106.0
316034,-0.558,-0.656,-0.292,7.344,114.672,-33.733,36.0,114.0
316088,-0.675,-1.122,-0.407,-22.473,54.130,-120.359,35.0,115.0
316138,-0.505,-0.682,-0.311,57.863,-8.817,-241.038,37.0,111.0
316198,-0.906,-0.122,-0.222,117.802,-76.198,-250.137,0.0,102.0
316259,-2.000,2.000,-0.177,212.466,-151.733,-223.969,0.0,125.0
316324,-1.606,2.000,-0.747,250.130,-113.962,36.687,0.0,0.0
316385,0.163,1.186,-0.198,9.718,-100.389,65.145,0.0,123.0
316446,0.897,0.379,0.276,47.389,-73.779,50.962,0.0,136.0
316507,0.938,0.092,0.235,-6.656,-12.840,63.160,0.0,110.0
316569,0.958,0.243,0.427,-26.931,36.489,8.321,0.0,110.0
316628,0.009,0.800,0.659,108.198,72.153,6.313,0.0,91.0
316687,-1.360,2.000,-1.372,-109.969,179.466,250.130,0.0,87.0
316738,-2.000,2.000,-0.983,-209.855,157.679,250.130,52.0,95.0
316789,-0.910,0.812,-0.450,-172.206,101.710,112.664,50.0,107.0
316883,-0.233,-1.113,-0.363,-28.794,162.641,-127.160,39.0,118.0
316945,-0.438,-0.988,-0.481,40.130,119.939,-194.359,0.0,114.0
317004,-0.807,-0.268,-0.356,178.878,-16.695,-250.137,0.0,107.0
317070,-2.000,0.553,-0.503,162.763,-107.641,-197.886,0.0,0.0
317138,-2.000,2.000,-0.664,219.947,-24.092,19.603,0.0,0.0
317204,-0.270,1.032,-0.017,48.328,-72.634,31.786,0.0,0.0
317268,0.525,0.618,0.334,86.435,-99.183,71.962,0.0,0.0
317334,1.002,0.100,0.413,-14.534,-60.634,87.206,0.0,0.0
317393,1.111,0.006,0.447,-21.183,17.153,76.962,0.0,107.0
317453,0.616,0.761,0.321,76.344,106.092,70.137,0.0,97.0
317512,-1.586,2.000,-1.798,-163.435,225.733,247.275,0.0,92.0
317573,-2.000,2.000,-0.825,-159.702,142.137,250.130,0.0,101.0
317627,-0.693,0.419,-0.428,-70.290,127.229,119.641,39.0,113.0
317678,-0.416,-0.832,-0.263,-114.870,117.435,-49.519,38.0,118.0
317729,-0.596,-1.614,-0.411,-67.069,128.756,-162.214,37.0,118.0
317790,-0.805,-0.844,-0.481,176.145,47.947,-250.137,0.0,109.0
317849,-1.561,0.045,-0.690,192.221,-85.466,-250.137,0.0,99.0
317915,-2.000,2.000,-0.843,250.130,-147.695,-148.908,0.0,0.0
317980,-0.847,1.708,-0.327,33.061,-56.328,57.511,0.0,0.0
318046,0.143,0.610,0.272,88.450,-92.550,47.519,0.0,0.0
318111,0.699,0.588,0.231,46.427,-53.740,58.366,0.0,0.0
318176,0.985,-0.046,0.496,-96.053,7.336,66.634,0.0,129.0
318235,0.849,0.047,0.456,-66.176,92.290,60.901,0.0,102.0
318295,-0.493,2.000,-1.001,123.389,132.855,115.412,0.0,92.0
318346,-2.000,2.000,-0.974,-250.137,139.939,250.130,61.0,96.0
318398,-1.119,1.098,-0.333,21.466,67.298,250.130,53.0,106.0
318449,-0.555,0.097,-0.438,-46.168,118.702,83.603,35.0,115.0
318500,-0.647,-1.215,-0.397,-60.802,114.771,-76.702,33.0,119.0
318552,-0.704,-1.295,-0.502,79.802,88.634,-174.405,36.0,116.0
318606,-0.789,-0.188,-0.372,192.130,8.565,-250.137,43.0,107.0
318671,-1.787,0.040,-0.552,116.679,-75.992,-250.137,0.0,0.0
318737,-2.000,2.000,-0.749,250.130,-163.176,-46.214,0.0,0.0
318802,-0.817,1.532,-0.456,4.733,-110.374,77.809,0.0,0.0
318868,0.346,0.567,0.157,90.031,-130.695,37.221,0.0,0.0
318934,0.653,0.560,0.223,74.038,-62.817,41.176,0.0,0.0
318999,0.815,0.096,0.278,-98.176,10.237,80.504,0.0,0.0
319058,0.798,-0.146,0.449,-43.519,77.176,75.710,0.0,102.0
319118,-0.187,2.000,-0.948,165.939,141.748,132.641,0.0,93.0
319180,-2.000,2.000,-1.292,-232.840,200.053,250.130,0.0,98.0
319233,-0.758,1.129,-0.524,-43.924,180.710,170.198,51.0,108.0
319284,-0.380,0.020,-0.313,-106.008,168.626,40.557,38.0,117.0
319336,-0.544,-1.024,-0.426,-95.863,154.832,-38.191,37.0,121.0
319387,-0.689,-1.331,-0.593,120.374,91.534,-90.069,35.0,118.0
319438,-0.910,-0.076,-0.629,181.748,-43.557,-250.137,40.0,110.0
319499,-1.781,0.472,-0.791,53.702,-110.863,-250.137,199.0,99.0
319560,-2.000,2.000,-0.603,217.878,-146.183,-74.137,0.0,127.0
319624,-0.600,1.537,-0.227,51.557,-103.718,58.160,0.0,103.0
319684,0.140,0.744,-0.004,25.382,-146.061,26.076,0.0,109.0
319745,0.688,0.237,0.251,46.466,-116.809,22.756,0.0,113.0
319806,0.973,0.031,0.306,-2.275,-16.702,58.458,0.0,111.0
319908,0.561,0.370,0.376,6.847,148.412,33.763,0.0,97.0
319968,-0.540,2.000,-1.754,-28.863,240.473,171.267,0.0,91.0
320026,-2.000,1.833,-1.250,-150.282,225.977,250.130,0.0,57.0
320083,-0.276,0.873,-0.783,80.374,204.534,170.702,199.0,57.0
320148,-0.698,-0.921,-0.194,-139.015,117.321,-103.046,0.0,119.0
320204,-0.847,-1.467,-0.272,-110.435,54.511,-220.679,139.0,106.0
320262,-1.097,-0.552,-0.209,167.725,-25.214,-250.137,141.0,106.0
320325,-1.408,-0.032,-0.298,241.779,-120.954,-250.137,156.0,0.0
320391,-2.000,2.000,-1.965,239.710,-162.527,7.412,0.0,0.0
320457,-0.698,0.844,-0.342,31.794,-83.550,144.412,0.0,0.0
320518,0.415,0.407,0.006,126.527,-125.611,67.496,117.0,0.0
320573,0.766,0.310,0.269,103.611,-55.260,22.786,102.0,111.0
320630,0.799,0.184,0.395,-49.534,2.160,33.359,141.0,108.0
320689,0.780,0.063,0.495,-60.641,47.244,0.351,123.0,101.0
320744,0.096,1.823,0.362,116.229,81.435,62.580,115.0,92.0
320798,-1.483,2.000,-1.385,-152.893,155.351,235.107,108.0,89.0
320849,-1.820,1.897,-0.517,-210.542,125.947,250.130,58.0,96.0
320901,-0.694,0.687,-0.230,-72.084,102.718,143.076,40.0,106.0
320951,-0.550,-0.161,-0.233,-16.008,85.015,7.084,38.0,77.0
321002,-0.717,-0.620,-0.539,-75.504,80.916,-51.298,37.0,110.0
321051,-0.417,-0.794,-0.303,-35.420,34.985,-122.664,36.0,81.0
321106,-0.708,-0.410,-0.223,121.344,-25.550,-236.573,39.0,107.0
321166,-1.952,1.186,-0.172,214.656,-112.359,-239.832,0.0,98.0
321226,-1.674,2.000,-0.542,177.351,-131.718,-11.603,0.0,98.0
321287,-0.346,1.258,0.052,33.786,-121.321,34.641,0.0,104.0
321348,0.300,0.693,0.183,63.206,-140.290,17.260,0.0,109.0
321409,0.605,0.194,0.205,48.718,-99.099,4.748,0.0,111.0
321469,0.805,-0.039,0.279,-6.160,-19.534,14.924,0.0,108.0
321529,0.663,0.083,0.327,1.450,58.504,-4.672,0.0,100.0
321593,-0.980,2.000,-0.411,99.023,128.672,96.603,0.0,91.0
321652,-1.787,2.000,-0.832,-163.679,153.168,208.603,0.0,94.0
321704,-0.823,0.915,-0.185,-107.000,96.305,107.947,45.0,101.0
321756,-0.327,0.358,-0.162,-48.458,82.069,19.183,41.0,107.0
321807,-0.429,-0.403,-0.266,-57.748,62.817,-38.977,39.0,111.0
321859,-0.418,-0.890,-0.327,-48.908,18.107,-39.183,38.0,111.0
321910,-0.753,-0.417,-0.419,97.366,-50.527,-155.557,41.0,106.0
321971,-1.467,0.210,-0.484,159.473,-123.916,-222.565,0.0,97.0
322031,-2.000,2.000,-0.529,245.634,-135.420,-91.718,0.0,94.0
322095,-0.742,1.509,-0.150,-4.588,-127.061,12.748,0.0,100.0
322155,0.191,0.545,0.086,93.489,-142.000,12.427,0.0,105.0
322216,0.532,0.225,0.000,153.244,-84.603,23.061,0.0,108.0
322277,0.592,0.175,0.108,17.366,-31.885,24.038,0.0,105.0
322337,0.502,0.210,0.426,-117.886,-3.443,-30.626,0.0,99.0
322397,-0.243,0.561,1.415,79.183,-9.794,26.847,0.0,88.0
322456,-1.415,2.000,-1.055,163.832,106.405,196.748,0.0,84.0
322515,-1.601,1.758,-0.429,-250.137,133.863,163.359,0.0,90.0
322571,-0.549,0.462,-0.039,0.489,90.443,78.802,44.0,98.0
322628,-0.456,-0.005,-0.322,12.901,73.496,10.924,40.0,105.0
322678,-0.441,-0.763,-0.458,-66.886,38.328,-21.641,39.0,107.0
322728,-0.365,-0.778,-0.299,47.481,-12.008,-92.756,41.0,104.0
322831,-2.000,1.673,-0.536,221.886,-150.206,-184.573,0.0,91.0
322890,-1.750,2.000,-0.694,180.046,-147.985,-15.809,0.0,92.0
322950,-0.528,1.458,-0.194,46.298,-147.840,5.275,0.0,108.0
323009,0.199,0.759,-0.079,95.748,-176.756,7.672,0.0,104.0
323068,0.656,0.362,-0.005,62.542,-141.061,17.145,0.0,108.0
323132,0.887,-0.056,0.249,-56.458,-57.550,31.290,0.0,107.0
323191,0.919,0.033,0.566,17.802,17.305,29.885,0.0,100.0
323250,0.193,2.000,-0.011,115.145,77.893,103.580,0.0,91.0
323308,-1.234,2.000,-0.548,-163.748,154.718,244.122,0.0,91.0
323359,-1.680,1.930,-0.443,-145.206,124.145,188.229,58.0,98.0
323420,-0.849,0.263,-0.273,-33.763,83.023,60.939,0.0,107.0
323470,-0.236,-0.511,-0.351,-71.321,76.435,-80.511,38.0,110.0
323521,-0.289,-1.061,-0.345,-102.260,79.756,-161.382,40.0,109.0
323584,-0.694,-0.715,-0.306,96.855,18.183,-250.137,0.0,102.0
323642,-2.000,0.082,-0.259,250.130,-112.641,-204.145,0.0,94.0
323707,-2.000,2.000,-1.559,190.863,-124.267,-3.809,0.0,0.0
323773,-0.313,0.980,0.071,-60.817,-70.519,30.092,0.0,0.0
323837,0.584,0.452,0.265,85.405,-92.969,23.626,0.0,0.0
323903,1.130,0.143,0.546,34.771,-17.168,42.137,0.0,0.0
323962,0.855,0.237,0.595,-76.687,34.702,48.183,0.0,107.0
324022,0.120,1.124,0.329,12.053,39.198,110.992,0.0,97.0
324080,-0.955,2.000,-0.592,-86.878,81.802,211.099,0.0,91.0
324143,-1.665,2.000,-0.750,-122.305,85.496,194.321,0.0,97.0
324200,-0.468,1.007,-0.470,-35.832,104.328,66.198,0.0,57.0
324251,-0.425,-0.209,-0.303,-47.649,119.809,-31.389,49.0,110.0
324302,-0.605,-1.066,-0.488,-71.000,103.145,-66.855,50.0,111.0
324363,-0.643,-0.715,-0.420,85.542,32.107,-195.275,0.0,106.0
324422,-1.874,-0.134,-0.781,153.626,-80.389,-250.137,0.0,97.0
324484,-2.000,2.000,-1.306,250.130,-234.389,-49.885,0.0,133.0
324544,-0.216,1.683,-0.059,3.802,-167.099,76.313,0.0,104.0
324606,0.485,0.570,0.120,53.481,-122.641,57.389,0.0,109.0
324667,0.455,0.256,0.233,42.176,-87.886,19.122,0.0,113.0
324727,0.774,-0.022,0.292,-16.298,-23.229,33.893,0.0,113.0
324787,0.948,-0.010,0.335,-10.641,45.321,5.481,0.0,106.0
324846,0.409,1.368,0.365,71.107,108.557,32.160,0.0,96.0
324905,-0.819,2.000,-0.746,-82.000,160.252,232.985,0.0,94.0
324965,-1.261,2.000,-0.662,-109.527,130.802,198.809,0.0,101.0
325017,-0.444,0.672,-0.310,-69.435,109.344,63.557,58.0,110.0
325078,-0.511,-0.473,-0.257,-37.107,100.031,-32.015,0.0,115.0
325142,-0.598,-1.006,-0.450,46.099,58.855,-123.191,51.0,114.0
325193,-0.996,-0.223,-0.354,131.886,-11.176,-250.137,51.0,107.0
325253,-2.000,1.399,0.058,98.802,-91.321,-250.137,0.0,99.0
325315,-1.802,2.000,-0.424,167.916,-142.366,-51.099,0.0,142.0
325376,-0.360,1.433,-0.107,48.565,-151.794,27.374,0.0,106.0
325436,0.421,0.709,0.100,60.282,-145.412,49.473,0.0,113.0
325496,0.786,0.267,0.153,14.260,-69.603,57.985,0.0,115.0
325557,0.834,-0.089,0.270,-59.687,-11.496,56.962,0.0,112.0
325619,0.699,-0.113,0.333,7.809,53.405,27.817,0.0,103.0
325679,0.022,2.000,-0.302,151.099,120.916,101.710,0.0,93.0
325730,-1.485,2.000,-1.265,-155.191,151.183,231.244,59.0,93.0
325822,-0.388,0.889,-0.310,74.252,112.756,96.481,43.0,61.0
325874,-0.369,0.290,-0.290,-11.847,174.076,-10.519,51.0,111.0
325923,-0.896,-0.641,-0.613,-139.321,204.489,-68.282,38.0,78.0
325972,-0.598,-0.839,-0.298,-57.687,127.260,-121.908,38.0,75.0
326023,-0.968,-0.568,-0.318,115.954,26.962,-240.282,39.0,105.0
326078,-2.000,2.000,-0.114,250.130,-138.817,-202.924,58.0,97.0
326137,-1.106,2.000,-0.333,153.489,-181.588,70.496,0.0,97.0
326198,-0.401,1.373,-0.134,-20.435,-134.168,79.443,0.0,104.0
326258,0.450,0.391,0.185,-12.176,-140.756,-20.802,0.0,110.0
326319,0.664,-0.062,0.312,16.939,-70.504,-40.725,0.0,111.0
326379,0.815,-0.116,0.364,-9.366,3.046,-17.328,0.0,108.0
326438,0.950,0.004,0.356,13.321,90.038,-24.802,0.0,99.0
326490,-0.595,2.000,-0.609,158.046,138.244,69.779,58.0,90.0
326549,-1.427,2.000,-1.534,-250.137,185.702,250.130,0.0,92.0
326603,-1.195,1.106,-0.265,-131.069,70.939,250.130,41.0,103.0
326656,-0.459,0.261,-0.216,-6.405,70.954,112.061,47.0,113.0
326707,-0.675,-0.472,-0.305,-14.069,92.504,-15.710,44.0,118.0
326759,-0.670,-0.979,-0.486,-63.145,70.374,-122.275,45.0,118.0
326819,-0.931,-0.602,-0.448,112.817,13.550,-250.137,0.0,110.0
326871,-1.859,0.167,-0.581,135.168,-78.779,-250.137,45.0,101.0
326931,-2.000,2.000,-0.735,205.626,-154.779,-241.969,0.0,99.0
326992,-0.594,1.926,-0.038,92.886,-110.947,-2.840,0.0,135.0
327062,0.504,0.848,0.162,84.168,-118.466,1.550,0.0,0.0
327128,0.780,0.409,0.225,28.672,-59.550,20.412,0.0,0.0
327190,1.086,-0.002,0.358,-100.214,15.275,51.878,0.0,141.0
327249,0.961,-0.234,0.403,-61.321,74.336,50.840,0.0,104.0
327310,-0.471,2.000,-0.195,191.809,98.214,101.794,0.0,92.0
327369,-2.000,2.000,-1.055,-250.137,159.336,250.130,0.0,95.0
327421,-1.043,0.941,-0.191,-50.489,106.939,235.458,49.0,106.0
327473,-0.471,0.101,-0.411,-13.496,137.099,81.618,44.0,115.0
327528,-0.521,-0.730,-0.427,-67.397,147.618,-51.618,36.0,119.0
327579,-0.863,-1.269,-0.646,-5.061,118.008,-126.221,38.0,118.0
327641,-0.981,-0.547,-0.597,169.618,14.878,-250.137,0.0,108.0
327700,-2.000,0.503,-0.756,168.153,-118.267,-250.137,0.0,98.0
327761,-2.000,2.000,-0.532,132.611,-110.924,-59.779,0.0,114.0
327822,-0.375,1.283,-0.015,49.405,-119.725,72.718,0.0,105.0
327885,0.370,0.583,0.108,89.664,-170.802,54.687,0.0,156.0
327946,0.803,0.124,0.232,36.855,-122.840,47.718,0.0,115.0
328007,1.080,-0.183,0.280,-31.137,-33.740,68.122,0.0,111.0
328071,1.092,-0.044,0.364,9.649,75.031,28.687,0.0,102.0
328130,-0.560,2.000,-0.389,121.420,173.153,122.908,0.0,92.0
328190,-1.967,2.000,-1.476,-250.137,181.443,250.130,0.0,98.0
328251,-0.738,0.884,-0.458,-35.252,131.366,180.962,0.0,110.0
328303,-0.784,-0.146,-0.483,-96.656,115.840,16.466,37.0,117.0
328354,-0.936,-1.142,-0.500,-148.366,138.420,-66.924,34.0,120.0
328407,-0.718,-0.947,-0.333,62.542,65.588,-197.405,36.0,116.0
328467,-1.166,-0.153,-0.308,193.977,-31.840,-250.137,0.0,105.0
328531,-2.000,2.000,-0.661,245.824,-130.771,-250.137,0.0,117.0
328593,-1.435,2.000,-0.357,87.985,-97.725,-20.565,0.0,129.0
328654,-0.186,0.979,0.103,22.229,-108.511,5.137,0.0,115.0
328761,0.580,0.384,0.249,47.702,-77.382,41.725,0.0,156.0
328822,0.861,0.051,0.282,-31.382,4.832,69.878,0.0,112.0
328883,0.746,0.097,0.362,-58.031,77.145,94.763,0.0,106.0
328943,0.277,2.000,0.321,117.626,120.397,136.267,0.0,97.0
329003,-1.704,2.000,-0.973,-125.252,183.748,240.023,0.0,98.0
329058,-0.858,0.957,-0.110,-71.656,113.267,168.649,42.0,107.0
329110,-0.598,0.027,-0.221,-1.985,111.443,64.840,36.0,114.0
329161,-0.847,-0.643,-0.505,-85.221,104.237,-46.664,37.0,117.0
329213,-0.492,-1.194,-0.302,-36.489,66.435,-149.328,36.0,114.0
329265,-1.119,-0.446,-0.344,152.427,-18.557,-250.137,40.0,106.0
329317,-2.000,2.000,0.057,215.763,-141.122,-232.137,51.0,98.0
329380,-1.944,2.000,-0.365,176.244,-165.511,-62.626,0.0,162.0
329441,-0.584,1.317,-0.086,54.427,-146.527,4.565,0.0,103.0
329507,-0.012,0.821,0.082,80.542,-158.412,-26.237,0.0,0.0
329572,0.457,0.340,0.120,109.740,-115.649,-9.939,0.0,113.0
329632,0.742,0.237,0.219,36.252,-34.840,24.756,0.0,109.0
329693,0.639,0.320,0.318,3.878,45.130,20.893,0.0,102.0
329753,-0.784,2.000,0.035,64.939,109.947,54.321,0.0,95.0
329814,-1.638,2.000,-0.421,-86.107,142.817,169.420,0.0,95.0
329874,-0.825,1.096,-0.025,-120.580,105.817,113.450,0.0,102.0
329925,-0.574,0.462,-0.157,-72.076,75.802,62.099,42.0,107.0
329977,-0.847,-0.219,-0.418,-62.099,33.748,12.321,40.0,111.0
330033,-0.780,-0.700,-0.524,-73.557,-67.130,5.916,37.0,111.0
330090,-0.676,-0.342,-0.315,126.237,-169.519,-125.023,40.0,106.0
330144,-1.665,1.752,-0.192,250.130,-221.122,-219.878,115.0,98.0
330204,-1.279,2.000,-0.147,208.511,-152.595,-58.252,0.0,96.0
330263,-0.392,1.865,-0.016,31.611,-119.817,-53.893,0.0,100.0
330322,0.168,0.934,0.197,48.191,-103.351,-31.069,0.0,105.0
330382,0.542,0.303,0.221,86.649,-61.458,-12.542,0.0,107.0
330441,0.751,-0.032,0.399,29.847,15.817,8.954,0.0,106.0
330504,0.559,-0.114,0.394,-47.046,70.565,25.664,0.0,98.0
330562,0.182,1.024,0.742,100.450,62.198,86.634,0.0,88.0
330620,-1.005,2.000,-0.717,-222.252,143.817,202.321,0.0,83.0
330680,-1.717,2.000,0.062,-162.710,139.832,250.130,0.0,90.0
330739,-0.761,0.928,-0.017,-55.519,101.053,111.687,0.0,100.0
330790,-0.482,-0.181,-0.199,0.069,55.374,-28.099,51.0,105.0
330850,-0.419,-0.644,-0.397,7.870,10.366,-71.221,0.0,106.0
330909,-0.532,-0.620,-0.449,179.573,-54.191,-175.214,0.0,100.0
330969,-1.831,0.238,-0.918,217.443,-146.130,-233.679,0.0,91.0
331030,-2.000,2.000,-0.867,204.443,-250.137,-95.160,0.0,90.0
331089,-0.581,1.783,-0.729,112.916,-224.298,-16.588,0.0,98.0
331155,0.364,1.050,-0.244,65.137,-199.099,-39.511,0.0,0.0
331219,0.937,0.387,0.102,67.817,-82.779,8.542,0.0,0.0
331285,1.035,0.062,0.269,-57.611,-11.634,63.702,0.0,0.0
331344,0.709,-0.145,0.506,-43.939,5.901,47.634,0.0,97.0
331403,-0.810,2.000,0.027,224.580,63.534,133.191,0.0,87.0
331460,-2.000,2.000,-0.894,-250.137,171.382,246.481,188.0,88.0
331513,-1.056,1.195,-0.297,-118.015,113.153,133.130,40.0,97.0
331565,-0.424,-0.117,-0.645,-175.557,125.573,5.710,38.0,105.0
331615,-0.051,-1.469,-0.758,-101.595,207.244,-112.550,37.0,109.0
331718,-1.295,-0.307,-0.894,200.450,77.893,-250.137,0.0,99.0
331784,-2.000,1.327,-0.199,250.130,-114.351,-160.244,0.0,0.0
331848,-1.958,2.000,-0.800,250.130,-140.420,45.794,0.0,0.0
331914,-0.371,1.146,-0.092,-1.397,-139.565,54.046,0.0,0.0
331979,0.718,0.297,0.429,123.328,-140.290,43.115,0.0,0.0
332044,0.948,0.205,0.322,52.336,-68.053,79.115,0.0,0.0
332107,1.114,0.196,0.484,8.130,47.351,61.702,0.0,106.0
332166,0.204,1.895,0.281,2.672,153.420,93.863,0.0,93.0
332225,-1.887,2.000,-1.480,-174.221,237.710,250.130,0.0,90.0
332283,-1.827,1.393,-0.862,-206.122,96.832,193.260,177.0,99.0
332335,-0.384,0.292,-0.447,-52.099,110.069,94.275,43.0,108.0
332386,-0.408,-1.014,-0.357,-51.695,103.031,-30.183,40.0,113.0
332437,-0.586,-1.421,-0.493,61.489,83.969,-114.977,41.0,113.0
332496,-0.942,-0.414,-0.533,178.954,-4.962,-250.137,0.0,106.0
332565,-1.771,0.134,-0.457,45.679,-110.901,-250.137,0.0,0.0
332631,-2.000,2.000,-0.926,250.130,-193.573,-3.977,0.0,0.0
332696,-0.385,1.574,-0.253,5.641,-109.840,61.252,0.0,0.0
332756,0.418,0.551,0.331,45.466,-101.115,47.115,0.0,110.0
332817,0.802,0.321,0.263,22.802,-37.427,85.008,0.0,110.0
332876,1.050,-0.027,0.417,-111.969,13.252,86.443,0.0,108.0
332937,0.745,-0.155,0.450,-55.260,73.153,43.763,0.0,99.0
332995,-0.745,2.000,-0.749,212.076,137.092,193.901,0.0,91.0
333053,-2.000,2.000,-1.221,-250.137,164.382,250.130,178.0,99.0
333108,-0.587,0.644,-0.226,-66.893,100.718,187.443,36.0,110.0
333160,-0.554,-0.429,-0.438,-26.817,109.328,39.473,44.0,118.0
333211,-1.001,-1.350,-0.926,-49.664,122.168,-95.321,37.0,120.0
333262,-0.827,-1.082,-0.716,158.015,60.031,-250.137,37.0,114.0
333314,-1.345,-0.012,-0.454,195.832,-6.214,-250.137,46.0,103.0
333379,-2.000,2.000,0.367,182.359,-42.076,-250.137,0.0,0.0
333445,-2.000,2.000,-0.535,166.382,-79.817,-86.527,0.0,0.0
333510,-0.361,1.173,-0.073,106.534,-98.863,2.221,0.0,0.0
333579,0.635,0.954,0.194,128.656,-77.977,54.351,0.0,0.0
333644,1.071,0.370,0.318,-54.519,-21.313,105.802,0.0,0.0
333710,0.983,0.165,0.462,-40.771,29.374,81.466,0.0,0.0
333769,-0.053,2.000,0.075,63.840,108.092,209.015,0.0,93.0
333829,-2.000,2.000,-1.789,-178.672,206.198,250.130,0.0,92.0
333880,-1.375,1.509,-0.602,-136.969,163.916,214.298,44.0,101.0
333931,-0.500,0.392,-0.513,-108.191,147.130,78.244,43.0,110.0
333982,-0.750,-0.796,-0.463,-109.481,128.588,-31.832,38.0,116.0
334034,-0.554,-1.206,-0.418,-25.076,93.504,-81.168,37.0,117.0
334092,-0.695,-0.407,-0.475,106.519,34.893,-227.344,0.0,109.0
334152,-1.272,0.943,0.532,143.954,-67.176,-222.794,0.0,102.0
334213,-2.000,2.000,-0.490,216.473,-195.588,-55.756,0.0,109.0
334278,-0.169,1.335,0.142,8.481,-118.695,51.573,0.0,0.0
334344,0.433,0.581,0.241,67.344,-119.282,7.756,0.0,0.0
334405,0.457,0.097,0.207,24.069,-70.656,8.046,0.0,116.0
334466,0.908,-0.208,0.363,26.061,-7.313,30.252,0.0,112.0
334525,1.059,0.060,0.285,48.076,76.351,23.473,0.0,104.0
334588,0.360,2.000,-0.753,107.992,163.679,122.542,0.0,93.0
334648,-1.873,2.000,-1.827,-110.695,237.908,226.015,0.0,94.0
334743,-0.391,0.496,-0.455,-20.099,82.863,-15.168,58.0,108.0
334804,-0.203,-0.300,-0.366,-206.458,109.511,-96.504,0.0,112.0
334865,-0.490,-1.224,-0.492,-101.588,156.878,-123.962,0.0,110.0
334925,-0.854,-0.484,-0.614,185.397,85.847,-233.076,0.0,101.0
334985,-2.000,2.000,-0.212,248.710,-57.710,-130.000,0.0,92.0
335044,-1.993,2.000,0.023,96.344,-166.740,70.969,0.0,94.0
335108,-0.176,1.017,0.051,118.779,-169.420,114.550,0.0,101.0
335168,0.791,0.368,0.250,19.305,-157.824,17.145,0.0,108.0
335229,0.786,-0.251,0.260,-20.557,-78.122,24.137,0.0,110.0
335290,1.227,-0.095,0.392,-19.053,22.885,19.015,0.0,104.0
335357,0.880,0.167,0.416,27.061,132.206,-38.023,0.0,92.0
335416,-1.334,2.000,-1.747,-100.489,224.084,205.985,186.0,88.0
335467,-1.769,1.675,-0.811,-250.137,175.275,250.130,57.0,98.0
335518,-0.445,0.166,-0.251,-17.664,115.718,128.634,58.0,107.0
335579,-0.450,-0.117,-0.396,-27.885,103.908,-30.863,0.0,114.0
335633,-0.526,-1.122,-0.471,-65.275,118.000,-103.237,51.0,115.0
335692,-0.707,-0.692,-0.524,152.191,62.115,-203.244,0.0,108.0
335752,-1.594,-0.004,-0.671,182.176,-54.145,-250.137,0.0,98.0
335811,-2.000,2.000,-0.601,174.756,-169.687,-100.389,0.0,96.0
335870,-0.933,1.626,-0.203,106.992,-151.206,60.069,0.0,101.0
335931,-0.100,0.925,-0.040,79.298,-186.275,36.328,0.0,106.0
335990,0.638,0.234,0.233,96.847,-167.580,4.450,0.0,111.0
336051,1.015,0.021,0.307,7.870,-66.985,30.511,0.0,111.0
336113,1.349,0.071,0.510,-45.802,51.885,24.802,0.0,104.0
336172,0.241,1.876,0.362,32.840,126.176,103.962,0.0,94.0
336230,-1.482,2.000,-1.937,129.031,178.656,215.229,183.0,92.0
336280,-1.253,1.624,-0.808,-150.809,144.695,182.916,45.0,100.0
336328,-0.571,0.499,-0.461,-121.473,143.740,74.351,43.0,57.0
336389,-0.569,-0.534,-0.245,-157.878,138.969,-25.855,0.0,115.0
336440,-0.698,-1.406,-0.395,-80.504,124.359,-81.221,37.0,115.0
336499,-0.699,-0.611,-0.375,181.504,45.771,-227.145,0.0,107.0
336562,-1.669,0.285,-0.490,174.893,-68.321,-250.137,0.0,97.0
336627,-2.000,2.000,-1.162,250.130,-168.336,-37.420,0.0,0.0
336692,-0.426,1.668,-0.459,-45.779,-132.176,56.229,0.0,0.0
336752,0.365,0.707,0.053,97.267,-132.656,41.817,0.0,109.0
336813,0.710,0.348,0.141,25.046,-85.725,49.649,0.0,112.0
336872,1.126,-0.096,0.421,-68.321,2.924,54.405,0.0,111.0
336931,0.749,0.111,0.607,4.779,93.557,52.985,0.0,102.0
336990,0.213,2.000,0.207,55.656,175.695,138.977,182.0,94.0
337049,-1.331,2.000,-1.564,-164.809,248.534,162.779,0.0,94.0
337112,-0.865,1.171,-0.557,-142.641,80.649,70.886,0.0,103.0
337163,-0.198,0.389,-0.490,-100.725,71.168,9.328,38.0,111.0
337214,-0.130,-0.910,-0.433,-164.122,81.092,-58.427,38.0,116.0
337265,-0.449,-1.386,-0.618,0.084,78.618,-96.886,40.0,115.0
337316,-0.851,-0.249,-0.659,165.771,32.992,-206.252,45.0,108.0
337376,-2.000,1.345,-0.261,250.130,-33.282,-168.000,0.0,100.0
337441,-1.776,2.000,-0.613,249.046,-86.931,25.832,0.0,0.0
337501,-0.598,1.269,0.071,-85.672,-104.366,62.328,0.0,107.0
337564,0.464,0.390,0.161,97.244,-136.359,36.092,0.0,112.0
337625,0.751,0.092,0.105,4.397,-55.557,28.656,0.0,115.0
337728,0.680,-0.104,0.495,-35.901,50.313,6.023,0.0,105.0
337787,0.303,1.789,0.456,68.672,105.221,149.282,0.0,95.0
337846,-0.501,2.000,-1.182,-29.237,176.794,186.275,0.0,93.0
337906,-1.278,1.653,-0.731,-222.656,98.466,173.389,0.0,103.0
337967,-0.322,0.542,-0.594,26.061,126.221,49.198,0.0,111.0
338018,-0.598,-0.659,-0.569,-126.794,137.901,-95.084,37.0,116.0
338069,-0.618,-1.434,-0.454,-15.489,80.748,-128.359,39.0,114.0
338123,-0.968,-0.184,-0.436,210.679,-10.878,-248.000,43.0,107.0
338174,-2.000,1.220,-0.500,85.282,-105.763,-176.519,49.0,100.0
338234,-1.988,2.000,-0.185,152.244,-171.977,-102.458,0.0,98.0
338285,-0.774,1.993,-0.280,151.214,-183.886,42.962,51.0,102.0
338345,0.013,1.540,-0.118,60.710,-167.718,42.870,0.0,108.0
338406,0.511,0.420,0.149,21.023,-122.076,26.611,0.0,114.0
338466,0.717,-0.137,0.217,5.924,-38.878,23.221,0.0,116.0
338527,0.987,-0.192,0.404,-17.832,43.771,4.916,0.0,112.0
338590,0.503,0.105,0.513,-13.603,133.198,23.267,0.0,102.0
338649,-0.685,2.000,-0.136,103.992,187.847,67.863,0.0,93.0
338709,-1.515,2.000,-0.897,-186.519,150.092,148.328,0.0,96.0
338768,-0.397,0.865,-0.402,-49.573,99.626,53.443,0.0,103.0
338820,-0.256,-0.327,-0.210,-32.740,77.450,-67.901,39.0,108.0
338871,-0.483,-1.004,-0.461,-108.328,68.427,-81.282,40.0,109.0
338931,-0.430,-0.727,-0.431,63.046,46.328,-145.382,0.0,104.0
338991,-1.842,0.119,-0.887,118.466,-41.947,-214.412,0.0,98.0
339059,-2.000,2.000,-0.504,185.618,-178.458,-82.634,0.0,0.0
339125,-0.675,1.418,-0.345,250.130,-194.130,57.733,0.0,0.0
339190,0.533,0.887,0.120,-22.832,-146.664,-2.893,0.0,0.0
339256,0.801,0.192,0.178,-6.130,-51.191,21.115,0.0,0.0
339316,1.104,-0.037,0.382,-5.824,23.527,40.328,0.0,111.0
339377,0.651,0.349,0.411,25.832,96.901,71.527,0.0,102.0
339436,-0.260,2.000,-0.171,-15.496,166.450,132.557,0.0,92.0
339495,-2.000,2.000,-1.084,-152.344,222.489,196.412,0.0,93.0
339556,-0.911,1.074,-0.559,-147.305,111.840,62.206,0.0,102.0
339610,-0.095,0.259,-0.439,-86.412,104.015,-35.443,42.0,108.0
339661,-0.168,-0.963,-0.579,-192.756,113.618,-57.412,39.0,112.0
339713,-0.240,-1.240,-0.594,42.496,84.267,-88.985,41.0,109.0
339773,-0.882,-0.223,-0.654,211.481,26.267,-184.351,0.0,101.0
339832,-2.000,2.000,-0.345,250.130,-89.466,-128.191,0.0,95.0
339898,-1.831,2.000,-0.122,180.427,-192.221,50.237,0.0,0.0
339958,0.084,1.244,-0.103,64.435,-174.550,37.481,0.0,108.0
340020,0.880,0.311,0.146,54.191,-102.947,10.489,0.0,113.0
340083,1.019,-0.073,0.155,-9.107,7.061,51.855,0.0,113.0
340144,1.014,0.123,0.402,-56.901,67.015,7.008,0.0,107.0
340203,0.330,0.710,0.492,87.008,123.725,111.443,0.0,96.0
340262,-0.583,2.000,-2.000,-24.603,250.130,149.458,0.0,91.0
340323,-1.481,2.000,-1.341,-250.137,195.969,136.427,0.0,99.0
340383,-0.814,0.905,-0.677,-96.137,74.756,77.557,0.0,109.0
340444,-0.912,-1.231,-0.347,-99.931,74.893,42.901,0.0,106.0
340504,-0.753,-0.916,-0.830,127.962,101.160,-167.344,0.0,99.0
340564,-1.337,-0.179,-0.648,16.115,0.695,-250.137,0.0,102.0
340630,-2.000,2.000,-0.744,250.130,-196.023,-200.221,0.0,138.0
340739,-0.241,1.526,-0.289,-7.252,-176.992,31.725,0.0,0.0
340805,0.446,0.661,0.249,25.748,-140.969,25.885,0.0,0.0
340871,0.713,0.013,0.307,41.229,-55.481,64.908,0.0,0.0
340931,1.023,-0.066,0.403,-9.832,9.260,62.153,0.0,108.0
340990,0.569,0.126,0.337,5.626,78.015,45.718,0.0,98.0
341049,-0.756,2.000,-0.585,177.679,145.351,153.870,0.0,71.0
341108,-2.000,2.000,-1.336,-250.137,156.008,249.550,0.0,85.0
341160,-1.046,0.869,-0.012,-108.542,20.763,166.061,51.0,102.0
341210,-0.406,0.162,-0.397,50.618,51.008,82.023,38.0,110.0
341261,-0.572,-0.839,-0.726,-158.794,149.328,-43.321,37.0,115.0
341313,-0.454,-1.339,-0.490,37.534,152.366,-184.779,37.0,113.0
341364,-0.949,-0.323,-0.431,198.153,86.695,-250.137,43.0,105.0
341430,-2.000,0.567,-0.451,133.092,-17.725,-250.137,0.0,0.0
341496,-2.000,2.000,-0.328,178.076,-172.931,-70.122,0.0,0.0
341562,-0.178,1.354,0.143,140.015,-197.733,8.550,0.0,0.0
341627,0.490,1.028,0.182,89.023,-133.695,24.687,0.0,0.0
341697,0.681,0.131,0.225,-25.550,-30.160,77.191,0.0,0.0
341763,0.845,0.027,0.365,-38.763,34.573,68.947,0.0,0.0
341823,0.263,1.138,0.440,-5.267,99.550,105.038,0.0,95.0
341882,-0.910,2.000,-0.207,-6.389,137.725,201.878,0.0,89.0
341934,-1.572,2.000,-0.609,-156.748,137.290,157.183,58.0,94.0
341992,-0.732,0.965,-0.243,-65.962,125.763,49.214,187.0,68.0
342043,-0.349,-0.103,-0.251,-57.260,133.389,-43.107,37.0,107.0
342094,-0.148,-1.118,-0.400,-116.374,144.122,-78.863,37.0,109.0
342150,-0.623,-0.958,-0.620,114.992,99.115,-168.969,41.0,105.0
342211,-1.450,-0.262,-0.738,221.107,-13.405,-250.137,0.0,122.0
342277,-2.000,2.000,-0.625,250.130,-125.779,-196.969,0.0,0.0
342343,-1.479,2.000,-0.401,93.641,-52.527,-9.832,0.0,0.0
342410,-0.173,0.806,0.387,77.740,-177.427,41.397,0.0,0.0
342475,0.669,0.385,0.129,132.679,-135.382,95.504,0.0,0.0
342541,0.828,0.121,0.140,-31.962,-29.618,116.107,0.0,0.0
342602,0.693,0.035,0.250,-47.374,54.237,76.282,0.0,109.0
342662,-0.187,2.000,0.063,77.687,122.573,133.397,0.0,90.0
342722,-1.914,2.000,-1.120,-84.069,227.374,233.053,175.0,57.0
342773,-1.369,1.373,-0.510,-145.634,158.679,109.924,57.0,95.0
342825,-0.695,0.114,-0.393,-91.634,131.214,-3.931,40.0,102.0
342877,-0.283,-0.802,-0.354,-128.840,109.840,-114.275,40.0,106.0
342934,-0.220,-1.085,-0.189,17.008,82.863,-191.847,41.0,104.0
342994,-0.776,-0.379,-0.336,160.565,23.107,-245.237,0.0,112.0
343055,-2.000,0.989,-0.276,157.977,-91.847,-179.511,0.0,123.0
343117,-2.000,2.000,-0.096,137.771,-96.542,1.557,0.0,154.0
343185,-0.708,1.059,-0.003,69.344,-93.809,62.008,0.0,0.0
343250,0.138,0.590,0.222,68.153,-110.886,34.466,0.0,0.0
343311,0.748,0.154,0.382,18.992,-64.931,38.786,0.0,129.0
343371,0.735,0.218,0.433,-61.015,-14.305,71.450,0.0,119.0
343431,0.134,1.057,0.536,-100.977,19.160,115.023,0.0,96.0
343489,-0.643,2.000,0.518,-49.702,5.000,198.565,0.0,89.0
343539,-1.246,2.000,0.164,-167.443,4.771,194.611,45.0,90.0
343589,-0.850,1.814,0.242,-250.137,15.229,111.076,43.0,98.0
343654,-0.364,0.471,-0.099,-250.137,45.550,9.046,0.0,0.0
343764,-0.646,0.174,0.360,-156.244,-11.947,20.359,0.0,194.0
343830,-0.873,-0.043,0.750,-179.969,-127.214,-11.527,0.0,0.0
343896,-0.621,-0.094,1.231,-17.695,-79.832,-36.824,0.0,0.0
343960,-0.186,-0.349,1.365,-17.000,-15.641,-48.023,0.0,0.0
344026,-0.056,-0.117,0.924,33.916,20.053,-50.053,0.0,0.0
344090,0.245,0.156,0.345,33.038,32.153,-31.160,0.0,0.0
344156,0.459,0.157,0.365,-14.611,22.145,12.038,0.0,0.0
344220,0.142,0.078,0.607,-34.282,-32.115,39.023,0.0,0.0
344289,-0.028,0.486,1.160,-35.267,-3.534,38.565,0.0,0.0
344353,-0.249,0.057,1.581,1.733,20.145,48.893,0.0,0.0
344419,-0.037,-0.198,1.432,1.847,15.588,39.840,0.0,0.0
344483,-0.064,-0.318,0.921,28.588,10.550,30.687,0.0,0.0
344549,-0.177,-0.241,0.664,15.519,19.435,21.023,0.0,0.0
344613,-0.333,-0.155,0.679,-20.573,16.084,-14.565,0.0,0.0
344679,-0.363,-0.321,0.910,-61.565,-4.565,-48.588,0.0,0.0
344744,-0.567,-0.352,1.228,-12.328,33.214,-69.000,0.0,0.0
344809,-0.281,-0.325,1.231,7.427,39.389,-58.000,0.0,0.0
344878,-0.083,-0.265,0.978,17.916,47.641,-45.824,0.0,0.0
344942,-0.102,-0.113,0.758,36.481,46.008,-28.321,0.0,0.0
345008,-0.001,0.016,0.622,22.527,3.420,-12.260,0.0,0.0
345073,-0.143,0.031,0.792,19.366,-16.298,2.511,0.0,0.0
345138,-0.453,0.062,1.329,28.435,0.427,-3.656,0.0,0.0
345203,-0.565,0.165,1.380,36.305,12.351,-10.099,0.0,0.0
345269,-0.362,-0.026,1.128,35.634,36.595,2.687,0.0,0.0
345333,-0.318,-0.021,0.932,23.458,48.733,10.237,0.0,0.0
345399,-0.256,-0.066,0.729,14.107,27.061,7.885,0.0,0.0
345466,-0.149,-0.091,0.653,6.160,5.305,-6.458,0.0,0.0
345532,-0.277,-0.039,0.846,-11.847,0.405,-8.420,0.0,0.0
345597,-0.504,-0.018,1.211,-47.939,-27.038,-31.206,0.0,0.0
345663,-0.763,-0.022,1.551,-53.550,-5.160,-51.924,0.0,0.0
345728,-0.729,0.038,1.212,-7.618,-42.450,-56.008,0.0,0.0
345793,-0.293,-0.031,1.018,4.298,-18.160,-55.534,0.0,0.0
345859,-0.233,0.021,0.886,12.855,4.061,-47.580,0.0,0.0
345924,-0.118,0.012,0.781,-3.527,-5.420,-21.634,0.0,0.0
345989,-0.021,-0.035,0.694,-8.870,-25.443,-20.702,0.0,0.0
346057,0.000,-0.047,0.784,-2.328,-28.260,-19.557,0.0,0.0
346123,-0.134,-0.140,0.935,0.092,-43.466,2.855,0.0,0.0
346188,-0.121,-0.066,1.207,19.763,-12.870,7.733,0.0,0.0
346254,-0.369,-0.056,1.195,8.885,14.962,-2.183,0.0,0.0
346318,-0.179,-0.052,1.022,1.786,19.031,2.855,0.0,0.0
346384,-0.209,0.023,1.026,10.817,20.695,9.130,0.0,0.0
346449,-0.250,-0.039,0.977,2.733,2.542,0.031,0.0,0.0
346515,-0.198,-0.088,0.915,0.542,3.420,-6.252,0.0,0.0
346579,-0.088,-0.080,0.906,-0.366,6.382,-5.687,0.0,0.0
346648,-0.068,-0.088,0.910,1.504,7.191,-5.626,0.0,0.0
346714,-0.047,-0.159,0.841,-0.924,9.656,-7.618,0.0,0.0
346779,-0.217,-0.297,0.699,5.550,29.427,-10.656,0.0,0.0
346845,-0.622,-0.388,0.518,112.466,66.511,-51.695,0.0,0.0
346899,-1.068,-0.357,0.731,250.130,106.298,-121.672,17.0,0.0
346960,-1.379,0.967,0.572,222.466,109.359,-144.702,0.0,128.0
