Timestamp(ms),AccelX(g),AccelY(g),AccelZ(g),GyroX(deg/s),GyroY(deg/s),GyroZ(deg/s),DistanceLeft(cm),DistanceRight(cm)
29125,-0.107,-0.954,0.207,6,-1.412,1.511,0,112
29184,-0.097,-0.952,0.211,5.985,-0.282,0.84,0,112
29242,-0.11,-0.945,0.226,5.802,-0.634,0.542,0,113
29299,-0.101,-0.953,0.202,3.115,-1.145,-1.168,0,112
29358,-0.125,-0.954,0.233,1.733,-1.748,-3.015,0,112
29416,-0.119,-0.954,0.237,1.458,-4.466,-2.649,0,112
29474,-0.118,-0.954,0.242,2.183,-6.611,-2.992,0,111
29536,-0.109,-0.958,0.23,2.687,-3.893,-2.71,0,111
29593,-0.107,-0.96,0.234,3.611,-0.351,-2.198,0,111
29651,-0.109,-0.948,0.225,3.641,-0.282,-1.321,0,110
29710,-0.117,-0.945,0.234,3.244,-1.71,-1.015,0,111
29768,-0.119,-0.949,0.215,2.649,-2.855,-0.977,0,110
29826,-0.116,-0.952,0.23,2.588,-2.702,0.183,0,110
29884,-0.115,-0.956,0.232,3.076,-4.137,0.863,0,110
29942,-0.113,-0.942,0.234,3.405,-2.534,2.153,0,110
30001,-0.111,-0.955,0.247,3.237,-4.015,1.153,0,110
30058,-0.106,-0.95,0.245,3.794,-5.58,0.237,0,110
30114,-0.107,-0.952,0.237,3.695,-5.13,1.443,0,110
30173,-0.104,-0.955,0.246,4.176,-3.908,1.901,0,110
30230,-0.1,-0.933,0.238,3.71,-4.733,1.046,0,110
30288,-0.101,-0.938,0.239,2.435,-3.015,0.824,0,110
30347,-0.117,-0.943,0.235,1.664,-4.244,0.336,0,110
30405,-0.105,-0.95,0.236,0.969,-4.527,0.901,0,110
30462,-0.116,-0.952,0.246,0.511,-3.84,0.588,0,110
30521,-0.109,-0.94,0.255,0.87,-5.076,0.328,0,110
30579,-0.109,-0.945,0.266,1.42,-3.321,0.58,0,109
30640,-0.112,-0.954,0.257,2.137,-4.198,-0.023,0,109
30698,-0.108,-0.951,0.246,1.595,-4.115,0.176,0,109
30756,-0.112,-0.949,0.245,1.649,-4.053,0.252,0,109
30815,-0.103,-0.945,0.234,0.565,-3.901,0.198,0,109
30873,-0.106,-0.947,0.247,0.198,-4.649,0,0,109
30930,-0.105,-0.947,0.249,-0.084,-5.42,-0.595,0,109
30989,-0.102,-0.957,0.246,0.275,-3.977,0.053,0,108
31047,-0.109,-0.944,0.251,0.496,-2.176,0.809,0,109
31106,-0.112,-0.939,0.24,1.382,-2.489,1.84,0,108
31166,-0.113,-0.94,0.227,0.221,0.366,3.969,0,108
31224,-0.125,-0.945,0.243,-0.137,-2.313,4.328,0,108
31283,-0.118,-0.944,0.231,-1.519,-4.275,5.275,0,108
31341,-0.119,-0.939,0.245,-1.969,-4.107,4.58,0,108
31398,-0.129,-0.952,0.235,-1.031,-5.962,4.748,0,108
31457,-0.124,-0.95,0.242,-1.443,-5.519,2.786,0,109
31515,-0.149,-0.954,0.239,-1.611,-7.344,1.267,0,108
31574,-0.132,-0.956,0.24,-0.878,-8.863,1.42,0,109
31632,-0.135,-0.944,0.234,-0.511,-8.954,0.168,0,109
31693,-0.132,-0.943,0.215,-0.313,-8.092,-0.275,0,109
31752,-0.133,-0.938,0.214,-0.779,-7.573,0.672,0,109
31809,-0.145,-0.951,0.221,-1.702,-9.168,0.977,0,109
31867,-0.137,-0.953,0.222,-1.649,-12.206,0.061,0,110
31927,-0.127,-0.95,0.218,-0.16,-11.702,1.321,0,110
31985,-0.135,-0.961,0.223,0.939,-9.366,2.985,0,111
32086,-0.135,-0.958,0.233,3.954,-10.183,3.901,0,112
32145,-0.123,-0.958,0.213,5.053,-10.626,3.687,0,112
32203,-0.119,-0.948,0.215,4.496,-8.45,3.008,0,112
32265,-0.123,-0.952,0.225,4.832,-9.099,1.29,0,113
32323,-0.118,-0.954,0.223,3.718,-8.832,0.214,0,113
32381,-0.127,-0.95,0.225,3.771,-9.656,-0.55,0,114
32440,-0.118,-0.94,0.228,4.351,-7.649,-0.321,0,114
32499,-0.135,-0.938,0.245,4.527,-6.786,0.252,0,114
32558,-0.132,-0.941,0.241,4.107,-8.237,0.55,0,115
32616,-0.128,-0.939,0.233,3.832,-6.351,1.603,0,115
32674,-0.151,-0.951,0.254,4.42,-6.962,5.817,0,115
32734,-0.156,-0.939,0.258,4.183,-11.344,8.931,0,115
32795,-0.202,-0.933,0.303,5.359,-26.107,7.824,0,116
32857,-0.178,-0.956,0.29,8.763,-57.771,5.321,0,161
32917,-0.103,-0.947,0.256,10.344,-49.053,8.458,0,145
32977,-0.192,-0.968,0.315,16.779,-54.756,14.748,0,143
33038,-0.122,-0.927,0.282,19.817,-52.687,17.389,0,143
33098,-0.141,-0.907,0.32,20.191,-39.099,19.595,0,143
33159,-0.111,-0.89,0.311,19.015,-27.687,20.168,0,144
33219,-0.164,-0.897,0.388,14.137,-13.023,19.313,0,144
33280,-0.158,-0.87,0.399,11.725,-23.397,14.42,0,144
33343,-0.148,-0.888,0.411,7.321,-16.214,11.924,0,144
33404,-0.209,-0.906,0.471,8.71,-28.191,7.954,0,144
33465,-0.108,-0.872,0.41,8.244,-31.344,3.313,0,145
33525,-0.125,-0.875,0.452,5.649,-2.328,3.679,0,145
33586,-0.173,-0.885,0.484,9.015,-12.435,-2.885,0,145
33646,-0.147,-0.844,0.453,6.824,-0.679,-0.206,0,145
33707,-0.19,-0.856,0.488,5.321,-4.908,-1.336,0,145
33767,-0.165,-0.858,0.482,3.588,-4.405,-1.71,0,146
33817,-0.167,-0.863,0.486,3.16,0.618,-0.771,6,146
33869,-0.158,-0.864,0.485,4.603,-3.847,-0.924,6,145
33918,-0.157,-0.855,0.481,3.679,-0.985,0.237,6,145
33968,-0.167,-0.86,0.503,3.153,-3.557,-0.809,6,145
34017,-0.156,-0.854,0.482,2.069,-0.45,-0.489,4,146
34066,-0.166,-0.851,0.494,1.939,-2.122,-0.13,4,146
34116,-0.155,-0.86,0.478,1.626,-0.496,0.275,6,146
34165,-0.162,-0.853,0.498,1.863,0.244,0.45,7,146
34214,-0.151,-0.859,0.476,1.023,-0.405,0.092,6,146
34264,-0.168,-0.859,0.479,0.855,1.641,0.458,4,146
34316,-0.161,-0.86,0.479,-0.16,2.42,-0.107,7,146
34376,-0.17,-0.874,0.479,0.344,0.221,-0.206,0,146
34438,-0.167,-0.86,0.475,-0.588,2.573,-0.443,0,146
34487,-0.175,-0.867,0.476,-1.618,6.519,-1.42,9,146
34547,-0.187,-0.885,0.481,-0.786,0.397,-0.893,0,146
34609,-0.166,-0.873,0.464,-0.718,3.359,-1.122,0,146
34669,-0.175,-0.871,0.463,-0.55,7.695,-2.076,0,146
34729,-0.164,-0.866,0.432,-3.145,8.069,-4.168,0,146
34791,-0.185,-0.895,0.458,-3.908,9.099,-5.924,0,146
34854,-0.169,-0.882,0.441,-2.893,-1.885,-5.634,0,146
34915,-0.178,-0.891,0.452,-2.809,-1.557,-4.725,0,146
35019,-0.146,-0.884,0.418,-3.427,9.45,-6.542,0,145
35080,-0.161,-0.884,0.424,-3.229,11.565,-6.939,0,145
35140,-0.173,-0.894,0.415,-3.359,10.267,-5.534,0,145
35202,-0.168,-0.903,0.398,-2.794,0.649,-6.473,0,145
35262,-0.137,-0.891,0.384,-3.702,1.626,-6.542,0,145
35322,-0.16,-0.907,0.395,-2.756,-0.031,-5.321,0,145
35384,-0.117,-0.899,0.347,-4.412,7.366,-5.885,0,145
35448,-0.078,-0.888,0.306,-8.626,40.695,-6.023,0,161
35510,-0.165,-0.928,0.356,-9.405,55.832,-6.084,0,160
35571,-0.213,-0.937,0.362,-6.481,34.817,-8.115,0,160
35631,-0.163,-0.928,0.319,-6.794,19.885,-11.191,0,113
35690,-0.156,-0.925,0.29,-8.412,24.786,-13.214,0,111
35748,-0.172,-0.941,0.303,-6.695,21.748,-13.779,0,109
35807,-0.171,-0.93,0.314,-5.13,9.817,-14.802,0,109
35866,-0.14,-0.94,0.278,-4.802,3.244,-15.267,0,107
35928,-0.117,-0.95,0.244,-5.458,10.802,-13.099,0,107
35986,-0.128,-0.948,0.251,-4.924,13.107,-10.229,0,107
36045,-0.109,-0.934,0.251,-4.389,10.176,-7.015,0,106
36104,-0.117,-0.951,0.244,-4.252,11.321,-2.427,0,105
36162,-0.129,-0.957,0.256,-2.863,6.962,-0.908,0,105
36220,-0.122,-0.945,0.254,-2.412,2.885,-0.099,0,105
36279,-0.137,-0.956,0.256,-1.252,-4.031,0.282,0,105
36338,-0.12,-0.948,0.255,0.069,-8.733,1.481,0,105
36397,-0.119,-0.949,0.233,0.542,-10.427,2.573,0,106
36458,-0.106,-0.949,0.222,1.26,-7.893,3.954,0,106
36523,-0.114,-0.941,0.228,1.511,-7.489,4.191,0,107
36581,-0.106,-0.948,0.229,1.84,-9.947,3.908,0,107
36638,-0.106,-0.963,0.228,2.573,-8.489,3.794,0,107
36697,-0.111,-0.951,0.238,2.496,-7.748,3.313,0,108
36754,-0.111,-0.951,0.244,3.496,-9.427,2.389,0,108
36812,-0.108,-0.95,0.239,3.725,-9.733,1.313,0,108
36871,-0.105,-0.944,0.243,3.695,-8.809,1.42,0,109
36928,-0.121,-0.953,0.244,3.397,-7.702,2.321,0,110
36989,-0.121,-0.953,0.217,2.733,-10.664,1.282,0,110
37047,-0.117,-0.934,0.215,0.198,-8.817,2.695,0,110
37105,-0.117,-0.952,0.161,-3.496,2.16,9.931,0,111
37164,-0.18,-0.909,0.161,-10.832,25.359,26.153,0,111
37222,-0.263,-0.921,0.187,-16.321,21.809,36.779,0,111
37280,-0.323,-0.947,0.221,-20.931,3.26,38.427,0,112
37339,-0.307,-0.947,0.206,-20.626,-32.954,25.664,0,113
37397,-0.174,-1.038,0.401,15.603,-82.618,0.389,0,116
37458,-0.034,-0.845,0.12,11.237,-38.267,0.504,0,165
37522,-0.282,-0.925,0.142,-10.191,-5.397,8.282,0,166
37583,-0.278,-0.947,0.152,-2.038,-32.252,0.863,0,165
37645,-0.209,-0.942,0.142,6.237,-12.748,1.183,0,166
37714,-0.19,-0.896,0.131,-6.237,9.321,13.321,0,166
37776,-0.257,-0.969,0.221,-7.786,10.771,-1.328,0,166
37837,-0.249,-0.977,0.308,12.527,-23.947,-9.634,0,166
37898,-0.185,-0.894,0.171,4.084,3.084,-3.985,0,165
37959,-0.259,-0.909,0.072,-9.55,11.237,-1.725,0,165
38061,-0.298,-0.934,0.227,5.427,13.794,0.214,0,117
38122,-0.252,-0.874,0.253,5.664,-2.389,3.725,0,117
38180,-0.18,-1.004,0.115,-5.794,15.168,-0.221,0,116
38239,-0.307,-1.045,0.305,13.542,-4.641,-4.405,0,115
38297,-0.177,-0.895,0.162,14.847,-17.573,-4.672,0,116
38355,-0.184,-0.879,0.093,-0.466,17,-3.053,0,115
38414,-0.269,-0.901,0.161,-3.977,26.679,-4.618,0,114
38472,-0.32,-0.949,0.222,4.008,11.924,-6.672,0,113
38531,-0.28,-0.945,0.204,8.237,-2.42,-6.863,0,113
38589,-0.267,-0.929,0.19,7.824,0.511,5.305,0,113
38650,-0.304,-0.948,0.192,12.58,-1.015,12.779,0,113
38709,-0.297,-0.932,0.208,17.939,9.756,25.763,0,114
38767,-0.335,-0.921,0.161,16.275,20.221,34.687,0,114
38825,-0.38,-0.902,0.21,14.634,10.496,37.939,0,115
38884,-0.345,-0.871,0.206,11.809,0.603,29.931,0,116
38944,-0.333,-0.88,0.231,5.878,-4.45,21.229,0,148
39004,-0.363,-0.919,0.299,2.794,-31.718,6.458,0,148
39064,-0.246,-0.909,0.233,9.649,-27.863,-9.603,0,149
39124,-0.333,-0.892,0.2,18.405,11.618,-9.603,0,148
39188,-0.363,-0.85,0.208,13.214,21.702,-8.092,0,148
39246,-0.361,-0.863,0.223,11.595,32.153,-6.58,0,114
39305,-0.354,-0.881,0.258,16.053,50.443,-5.412,0,112
39363,-0.417,-0.869,0.292,17.763,45.832,-5.832,0,110
39421,-0.415,-0.869,0.282,15.763,21.573,-10.504,0,109
39480,-0.362,-0.874,0.259,13.359,9.687,-15.84,0,108
39537,-0.344,-0.873,0.24,10.443,12.847,-18.389,0,107
39596,-0.351,-0.874,0.252,8.763,17.069,-17.748,0,106
39654,-0.358,-0.881,0.27,5.603,20.794,-15.588,0,105
39714,-0.389,-0.86,0.287,3.573,18.947,-13.191,0,104
39773,-0.411,-0.872,0.305,0.878,7.13,-11.015,0,103
39830,-0.39,-0.869,0.303,-2.137,-0.298,-4.305,0,103
39888,-0.397,-0.852,0.456,-1.237,-9.824,2.939,0,103
39946,-0.81,-1.445,0.435,73.947,16.412,61.298,0,105
40004,-0.707,-0.3,0.753,55.359,-69.626,88.595,0,108
40062,-0.077,-1.469,-0.308,39.595,-99.954,38.809,0,112
40123,-0.177,-0.58,0.421,31.038,71.473,112.519,0,151
40183,-0.208,-0.507,0.312,20.214,-37.58,5.481,0,148
40244,-1.271,-0.69,0.542,-27.275,4.542,40.71,138,148
40304,-0.421,-0.923,0.185,-44.809,-130.626,16.466,0,152
40366,0.173,-0.964,0.417,-36.702,0.282,-7.16,0,153
40426,-0.643,-0.432,0.536,-30.672,-75.786,-28.397,0,153
40487,-0.722,-0.573,0.425,24.74,-23.947,39.969,0,154
40548,-0.5,-0.532,0.714,12.687,-7.473,49.008,0,155
40609,-0.802,-0.626,0.757,54.198,-5.191,73.313,0,158
40662,-0.49,-0.624,0.483,80.115,-24.702,81.412,44,161
40718,-0.405,-0.797,0.31,62.611,9.885,72.191,47,179
40772,-0.741,-0.471,0.361,19.725,45.901,50.794,46,178
40821,-0.745,-0.213,0.559,3.679,-8.008,28.221,41,110
40870,-0.914,-0.508,0.833,11.763,28.557,49.481,36,111
40919,-0.574,-0.207,0.66,30.802,-9.802,35.832,35,112
41010,-0.722,-0.116,0.615,36.053,-31.931,50.076,16,113
41059,-0.702,-0.2,0.736,31.298,-16.863,46.42,34,114
41107,-0.842,-0.271,0.696,34.252,-2.107,42.206,16,115
41156,-0.448,-0.029,0.445,19.885,-35.74,12.13,32,116
41207,-0.944,-0.364,0.712,0.618,35.214,4.29,16,115
41256,-0.717,0.149,0.686,4.649,-25.756,-10.672,32,116
41306,-1.095,-0.122,0.778,16.061,20.725,19.45,31,116
41355,-0.697,0.089,0.648,28.107,-34.55,25.847,31,117
41404,-0.788,-0.32,0.705,38.893,-3.916,34.855,30,118
41453,-0.698,0.208,0.606,41.076,-7.366,31.382,30,119
41502,-1.064,-0.081,0.807,54.977,-9.992,51.702,30,121
41551,-0.6,0.086,0.615,60.679,-29.122,45.237,30,122
41601,-0.765,0.071,0.495,43.595,-10.176,37.45,29,124
41653,-0.762,0.253,0.529,28.405,-9.076,29.954,29,125
41703,-0.637,0.198,0.662,27.466,-24.74,22.916,29,126
41752,-0.922,0.18,0.864,43.908,-8.405,42.221,30,127
41805,-0.753,0.336,0.658,56.45,-29.664,48.412,30,187
41860,-0.496,0.572,0.397,49.45,-25.985,46.298,36,192
41913,-0.555,0.244,0.439,-10.931,1.221,21.122,28,187
41965,-0.419,0.246,0.64,-39.603,5.382,-31.947,29,187
42018,-0.887,0.514,0.985,-30.588,11.122,-44.45,29,186
42075,-0.734,0.483,0.791,-6.534,-17.817,-38.229,27,185
42128,-0.97,0.023,0.915,13.695,4.031,2.099,29,185
42181,-0.448,0.448,0.43,45.893,-33.634,-4.29,26,186
42233,-0.865,0.46,0.666,21.985,7.252,24.237,27,186
42287,-0.664,0.471,0.621,32.344,-31.771,35.702,26,185
42340,-0.521,0.358,0.511,5.969,9.649,32.542,26,187
42393,-0.813,0.33,0.84,0.695,3.115,26.427,27,187
42446,-0.32,0.439,0.519,-1.863,-16.023,-7.336,29,197
42500,-0.746,0.473,0.549,-37.046,31.954,-25.496,27,194
42556,-0.736,0.56,0.73,-43.802,-2.443,-15.298,25,186
42609,-0.682,0.063,1.072,-26.641,4.374,-17.511,26,185
42662,-0.752,0.357,0.691,17.397,-35.817,-13.641,26,186
42716,-0.683,0.3,0.601,17.122,-0.282,5.618,24,190
42768,-0.804,0.323,0.848,20.74,-23.298,15.13,25,186
42821,-0.745,0.378,0.776,33.87,-9.679,24.267,25,186
42874,-0.646,0.397,0.612,35.916,-29.908,28.26,25,186
42927,-0.453,0.467,0.429,10.252,-8.458,14.573,25,184
42980,-0.679,0.362,0.616,-0.832,5.771,6.802,25,186
43036,-0.536,0.403,0.707,-12.405,-2.069,-0.557,25,186
43089,-0.565,0.414,0.619,-15.962,8.137,-27.679,26,186
43142,-0.844,0.465,0.836,-17.939,1.092,-20.847,25,185
43195,-0.69,0.407,0.754,0.893,-13.321,-5.901,27,185
43248,-0.676,0.365,0.565,-1.023,-0.725,-0.344,25,185
43301,-0.724,0.316,0.802,-3.893,-4.763,1.069,25,185
43354,-0.684,0.438,0.803,8.786,-0.366,10.489,25,187
43407,-0.767,0.327,0.788,11.962,-17.069,19.344,25,186
43460,-0.622,0.305,0.764,26.786,-15.313,23.45,24,185
43516,-0.645,0.385,0.654,44.534,-26.84,22.405,25,185
43570,-0.607,0.506,0.599,34.198,-8.481,33.053,25,192
43665,-0.551,0.539,0.796,36.595,-10.863,13.084,16,188
43718,-0.512,0.473,0.655,51.824,-35.344,8.023,25,185
43770,-0.636,0.622,0.623,49.115,-25.695,18.702,26,161
43822,-0.521,0.52,0.583,37.305,-26.198,20.595,27,161
43875,-0.469,0.679,0.728,33.557,-32.351,12.824,31,186
43927,-0.469,0.726,0.566,50.985,-27.84,15.748,30,159
43981,-0.434,0.789,0.335,39.366,-20.626,9.099,28,159
44034,-0.37,0.726,0.52,8.916,-13.817,5.305,27,160
44085,-0.478,0.821,0.62,32.206,-0.038,7.351,26,160
44136,-0.358,1.013,0.212,18.55,0.053,16.382,26,159
44188,-0.369,0.624,0.526,-7.939,11.702,18.504,26,160
44239,-0.447,0.698,0.827,12.305,7.595,5.947,26,162
44291,-0.437,0.729,0.596,15.29,-7.382,7.519,26,160
44343,-0.38,0.934,0.374,3.13,-0.557,8.947,26,163
44394,-0.354,0.634,0.677,0.389,-16.626,2.817,26,163
44449,-0.461,0.88,0.575,35.344,-11.183,5.275,26,162
44498,-0.461,0.701,0.548,35.786,-25.29,21.504,16,139
44551,-0.288,0.777,0.404,37.969,-14.786,16.763,27,163
44603,-0.254,0.86,0.354,30.183,0.748,15.313,37,163
44655,-0.347,0.925,0.466,25.183,-4.855,13.023,27,163
44707,-0.38,1.08,0.466,31.092,-4.763,17.45,29,163
44760,-0.164,1.004,0.226,19.466,-9.939,15.046,30,164
44817,-0.261,1.036,0.25,-1.244,-0.611,1.916,27,164
44868,-0.381,0.969,0.665,-9.855,-9.076,5.374,28,164
44922,-0.172,0.951,0.286,13.466,-7.55,0.779,29,164
44974,-0.397,0.926,0.316,-5.321,-1.977,2.229,30,165
45025,-0.133,0.934,0.303,-12.26,-5.55,-4.42,29,164
45077,-0.422,0.651,0.654,-6.55,-2.74,-3.397,30,164
45128,-0.335,0.841,0.446,5.16,-8.855,-3.611,28,164
45189,-0.191,0.912,0.349,6.16,-7.16,-6.573,0,164
45241,-0.412,0.832,0.475,9.748,-9.58,1.275,30,164
45300,-0.25,0.929,0.436,19.466,-9.863,-0.519,0,141
45360,-0.424,1.016,0.385,32.779,-15.351,13.405,0,141
45413,-0.136,1.038,0.125,23.145,-18.885,16.427,16,141
45464,-0.179,0.959,0.247,-15.366,-5.221,0.565,28,164
45515,-0.365,0.881,0.614,-15.313,18.924,0.344,26,164
45566,-0.152,1.017,0.269,4.366,-27.351,-4.053,27,165
45617,-0.316,0.824,0.398,-16.405,-2.344,-5.137,30,142
45667,-0.281,0.918,0.47,10.26,-14.931,-3.832,30,141
45719,-0.242,0.816,0.383,7.183,-5.55,-1.641,28,163
45768,-0.344,0.947,0.334,12.29,-2.534,3.626,16,141
45819,-0.267,0.832,0.557,6.458,-21.061,4.397,30,163
45872,-0.251,1.077,0.223,27.771,-3.733,-5.221,16,139
45922,-0.368,0.984,0.332,11.473,-17.229,15.298,16,140
45971,-0.132,0.912,0.192,3.992,-5.954,7.023,16,140
46021,-0.35,0.916,0.52,-4.267,5.603,3.71,26,141
46070,-0.235,0.918,0.431,8.298,-9.832,5.458,16,140
46119,-0.106,1.01,0.289,-5.809,-10.611,-10.962,16,140
46170,-0.375,1.067,0.205,7.687,9.008,1.466,16,140
46219,-0.174,0.853,0.363,-10.908,-9.069,5.588,16,140
46311,-0.391,1.034,0.409,11.344,-2.756,2.603,16,140
46364,-0.244,0.923,0.31,6.679,4.412,5.649,29,142
46416,-0.278,0.922,0.417,15.069,-0.733,5.412,26,163
46468,-0.233,0.952,0.271,13.359,-11.855,1.061,26,163
46519,-0.382,0.989,0.387,9.87,0.435,7.947,26,164
46570,-0.14,0.928,0.243,15.328,-8.084,-0.557,28,164
46619,-0.314,1.131,0.112,-2.214,-7.344,-1.74,16,140
46670,-0.034,0.91,0.322,-62.641,-11.832,-42.191,28,141
46720,-0.433,1.015,0.758,-33.092,-15.405,-61.115,16,141
46770,-0.385,1.041,0.288,-21.672,-15.214,-39.626,29,140
46824,-0.182,0.816,0.105,-49.855,-0.603,-40.267,30,141
46875,-0.299,0.627,0.396,-77.931,5.191,-60.084,16,163
46926,-0.378,0.702,0.476,-76.656,7.458,-64.191,30,162
46977,-0.457,0.677,0.496,-96.588,48.015,-71.191,30,138
47030,-0.889,0.385,0.763,-79.16,3.527,-62.176,30,191
47083,-0.475,0.547,0.556,-43.565,6.321,-61.183,30,190
47137,-0.509,0.571,0.539,-87.328,34.771,-67.191,32,189
47191,-1.002,0.107,0.865,-16.534,24.137,-48.55,33,187
47247,-0.427,0.706,0.427,-48.122,-26.092,-64.229,35,187
47301,-1.013,0.069,0.671,-41.13,29.672,-25.924,36,186
47354,-0.507,0.577,0.557,-26.626,-41.466,-56.55,36,186
47405,-1.044,-0.05,0.714,-34.641,25.351,-15.038,38,130
47459,-0.409,0.423,0.684,-11.328,-51.023,-61.55,40,185
47509,-1.219,-0.245,0.731,-37.656,62.053,-3.725,40,127
47559,-0.311,0.443,0.768,8.153,-84.29,-53.786,42,127
47610,-1.037,-0.325,0.414,-49.397,88.42,-9.427,45,125
47661,-0.68,0.271,1.033,2.969,-66.924,-36.618,42,125
47714,-0.739,-0.356,0.519,-43.992,56.519,-19.733,42,124
47764,-1.079,0.03,1.061,4.954,-37.397,-21.695,43,123
47814,-0.461,0.084,0.242,-23.252,-1.863,-38.893,44,123
47864,-1.139,-0.121,1.033,-10.573,4.664,0.931,44,122
47915,-0.247,0.03,0.369,-3.435,-26.359,-44.313,43,123
47966,-1.346,-0.377,0.976,-43.977,14.031,5.137,44,122
48020,-0.14,0.014,0.416,28.099,-74.008,-52.397,43,0
48070,-1.376,-0.273,0.947,-48.42,76.725,14.809,46,121
48126,-0.199,-0.185,0.545,11.794,-123.183,-48.023,45,167
48178,-0.954,-0.014,0.793,-31.107,106.412,8.214,47,120
48228,-0.783,-0.376,0.762,-16.664,-108.748,-41.588,51,121
48281,-0.466,-0.147,0.451,-6.969,64.13,-10.198,51,164
48338,-0.946,-0.393,1.022,-37.321,-68.183,-32.847,120,163
48392,-0.46,-0.288,0.529,-0.412,57.924,-10.771,58,161
48446,-0.896,-0.356,0.976,-52.122,-63.092,-28.405,58,161
48499,-0.376,-0.522,0.383,3.977,-1.183,-20.489,58,160
48557,-0.909,-0.069,1.04,-40.328,10.237,-18.145,130,160
48618,-0.505,-1.01,0.438,-0.16,-40.542,-7.58,126,160
48675,-0.581,0.035,0.796,-14.183,51.931,-18.71,126,157
48733,-0.781,-1.023,0.55,-21.092,-89.626,-10.504,128,159
48790,-0.329,0.046,0.502,11.366,98.244,-13.412,128,156
48843,-1.066,-1.051,0.79,-29.962,-112.504,-11.702,59,157
48901,0.142,-0.072,0.164,27.824,71.282,-22.046,130,156
49001,0.177,-0.369,0.261,17.885,-71.153,-28.427,131,157
49058,-1.192,-0.61,0.935,-41.069,68.481,-7.443,130,154
49120,-0.109,-0.669,0.336,12.771,-73.198,-20.855,132,155
49177,-0.884,-0.593,0.807,-33.336,70.504,-4.649,132,153
49234,-0.328,-0.702,0.506,7.74,-91.191,-15.237,133,154
49292,-0.543,-0.408,0.56,-34.206,69.214,-21.977,133,152
49349,-0.689,-0.723,0.682,0.893,-93.191,-2.458,135,152
49408,-0.087,-0.343,0.342,-23.107,85.71,-22.733,136,151
49465,-0.979,-0.906,0.96,5.733,-88.481,2.84,135,152
49522,0.201,-0.337,0.096,-10.733,81.58,-22.817,137,151
49581,-1.111,-0.893,1.023,-3.733,-84.985,2.176,136,153
49648,-0.296,-0.696,0.332,-22.939,104.588,-13.954,138,111
49702,-0.935,-0.621,0.981,1.115,-99.725,-1.534,138,112
49761,0.248,-0.687,-0.065,-15.969,52.626,-26.908,0,111
49819,-1.06,-0.655,1.202,-13.672,-75.893,-8.115,0,112
49879,0.259,-0.754,-0.008,-7.947,50,-20.412,0,110
49937,-0.995,-0.673,1.133,-7.29,-68.786,-6.916,0,111
49995,0.12,-0.78,-0.052,-19.878,51.519,-9.603,0,110
50054,-0.761,-0.546,1.13,-4.588,-67.824,-12.863,0,110
50115,-0.04,-0.947,0.086,-15.015,75.863,-3.527,0,110
50173,-0.454,-0.454,0.978,6.13,-95.244,-30.779,0,110
50232,-0.255,-1.181,0.188,-20.672,55.389,6.626,0,109
50289,-0.366,-0.578,0.78,-0.84,-64.939,-18.794,0,109
50348,-0.009,-0.672,0.328,-22.855,43.824,-54.672,0,108
50406,-0.766,-1.269,0.703,-4.809,-49.198,13.115,0,108
50464,0.253,-0.432,0.049,19.985,50.29,-33.351,0,108
50523,-0.899,-1.1,0.894,-16.916,-21.511,-7.038,0,107
50581,0.29,-0.614,-0.014,26.344,39.229,-22.397,0,107
50642,-0.878,-1.092,1.03,-28.916,-10.015,-19.351,0,107
50701,0.441,-0.784,0.017,19.55,-23.115,-40.756,0,106
50759,-0.859,-0.979,0.857,-31.824,60.702,-7.664,0,106
50817,0.1,-0.875,0.182,18.969,-104.886,-30.687,0,106
50875,-0.3,-0.834,0.396,-24.176,102.366,1.519,0,104
50933,-0.269,-0.983,0.438,6.679,-117.427,-20.13,0,105
50992,0.139,-0.686,0.202,-18.359,86.031,-10.298,0,104
51049,-0.5,-1.098,0.673,4.481,-78.809,2.763,0,105
51110,0.268,-0.705,0.085,-4.305,87.87,-7.924,0,104
51169,-0.613,-1.079,0.659,1.221,-61.802,11.267,0,104
51226,0.288,-0.696,-0.039,-0.053,81.206,-3.672,0,103
51284,-0.738,-0.978,0.854,-11.214,-0.183,16.458,0,103
51343,0.267,-0.932,0.014,17.992,14.977,-7.244,0,103
51401,-0.905,-0.854,1.012,-20.84,32.58,28.656,0,104
51459,0.382,-0.866,-0.076,22.084,-63.244,-12.107,0,104
51517,-0.742,-0.754,0.849,2.977,106.908,54.374,0,104
51575,0.039,-1.007,-0.053,8.618,-106.74,-18.718,0,105
51637,-0.457,-0.702,0.776,-4.824,75.389,23.718,0,104
51695,-0.162,-1.169,0.132,-6.412,-72.321,-18.74,0,104
51753,-0.342,-0.72,0.704,2.076,52.863,19.916,0,104
51811,-0.311,-1.032,0.312,-7.725,-54.382,-18.519,0,104
51869,-0.146,-0.702,0.367,9.282,41.29,20.969,0,105
51971,-0.174,-0.96,0.174,8.344,6.153,45.107,0,104
52029,-0.262,-0.765,0.541,-4.702,-11.298,-36.267,0,104
52087,-0.368,-0.837,0.359,12.794,12.656,44.008,0,104
52146,-0.208,-0.857,0.385,-1.168,-23.076,-32.985,0,104
52207,-0.343,-0.708,0.517,10.237,2.412,21.298,0,105
52265,-0.166,-0.874,0.311,-12.962,-16.756,-34.687,0,105
52324,-0.23,-0.73,0.454,7.328,2.084,13.26,0,105
52381,-0.177,-0.834,0.426,-8.656,17.916,-51.237,0,104
52440,-0.592,-1.019,0.455,5.412,-12.412,45.992,0,104
52498,0.162,-0.596,0.173,-5.916,22.954,-47.229,0,103
52556,-0.743,-1.302,0.409,-23.794,-110.42,12.084,0,103
52615,0.312,-0.663,0,1.656,116.473,-8.038,0,103
52673,-0.849,-1.103,0.865,-16.809,-121.634,-10.412,0,103
52734,0.458,-0.77,-0.173,13.802,118.45,3.725,0,102
52793,-1.193,-1.009,0.958,-14.962,-85.466,-7.939,0,103
52851,0.673,-0.704,-0.304,8.382,-0.153,-4.87,0,103
52909,-1.253,-1.056,1.086,-14.84,46.023,18.13,0,102
52967,0.683,-0.663,-0.177,5.786,-101.916,-28.115,0,103
53025,-0.979,-1.105,0.785,-7.023,127.466,27.947,0,102
53084,0.433,-0.653,-0.039,9.069,-94,-19.58,0,103
53142,-0.603,-1.161,0.494,-4.328,73.977,-3.885,0,102
53203,0.134,-0.622,0.228,-0.534,-76.687,-19.641,0,102
53262,-0.243,-1.101,0.219,1.588,73.023,-17.267,0,101
53320,-0.334,-0.809,0.433,-1.855,-108.061,6.885,0,102
53379,0.156,-1.007,-0.03,2.74,77.588,-17.74,0,101
53437,-0.77,-0.836,0.75,-6.924,-84.023,2.214,0,101
53494,0.482,-0.884,-0.072,3.748,33.275,-24.45,0,101
53553,-1.057,-0.955,0.936,-19.885,-6.099,18.489,0,100
53611,0.648,-0.779,-0.229,2.16,-75.053,-26.168,0,101
53669,-0.827,-0.962,0.759,0.908,129.267,25.557,0,100
53731,0.209,-0.778,-0.021,0.656,-115.092,-31.42,0,100
53789,-0.18,-0.922,0.454,4.756,67.397,-6.221,0,100
53847,-0.342,-0.93,0.424,0.779,-48.74,-34.092,0,99
53905,0.095,-1.029,0.119,-0.389,-65.275,-38.786,0,100
53963,0.009,-0.844,0.348,-11.962,56.221,7.443,0,99
54022,-0.24,-1.096,0.472,-0.198,-115.427,-19.282,0,100
54080,0.468,-0.693,-0.021,7.794,91.641,13.527,0,99
54137,-0.832,-1.209,0.986,-15.42,-56.641,3.611,0,99
54196,0.658,-0.848,-0.472,24.824,-22.931,-13.382,0,100
54257,-0.822,-1.007,0.95,-27.756,76.656,33.229,0,99
54316,0.313,-0.892,-0.047,15.542,-133.977,-27.313,0,100
54374,0.022,-0.9,0.252,-8.053,149.45,21.328,0,100
54432,-0.523,-1.158,0.659,1.977,-135.305,-13.359,0,100
54491,0.697,-0.756,-0.307,17.405,69.13,-5.336,0,100
54549,-0.86,-1.112,0.998,-13.153,1.099,19.435,0,100
54607,0.516,-0.843,-0.226,16.901,-42.336,-26.427,0,100
54666,-0.592,-0.938,0.739,-15.611,67.13,41.733,0,99
54724,0.166,-0.909,0.024,10.611,-110.458,-34.26,0,100
54786,-0.171,-0.749,0.424,-8.435,96.221,29.351,0,100
54844,-0.019,-1.008,0.303,5.198,-138.947,-30.84,0,100
54945,-1.166,-0.993,1.337,-23.137,19.771,21.634,0,99
55004,0.635,-0.922,-0.49,14.985,-167.45,-43.679,0,100
55061,-0.25,-0.836,0.353,-18.168,227.168,49.206,0,99
55119,-0.388,-1.12,0.366,11.237,-250.137,-38.763,0,100
55179,0.763,-0.669,-0.527,6.107,165.382,28.527,0,100
55236,-1.449,-1.249,1.437,-5.985,-142,-3.42,0,100
55299,1.287,-0.655,-0.796,20.267,4.115,-11.26,0,100
55357,-1.408,-1.089,1.359,-26.321,134.695,36.908,0,99
55415,0.544,-0.953,-0.412,24.855,-199.489,-44.076,0,100
55474,-0.348,-0.698,0.345,-19.275,250.13,59.634,0,99
55532,-0.299,-1.144,0.194,9.84,-250.137,-34.985,0,101
55590,0.784,-0.59,-0.473,12.519,237.893,28.489,0,100
55649,-1.518,-1.213,1.39,-3.763,-178.366,-13.099,0,100
55707,1.346,-0.576,-0.907,20.924,43.466,8.427,0,100
55766,-1.703,-1.158,1.643,-18.244,74.214,15.305,0,99
55827,1.062,-0.86,-0.653,19.947,-156.977,-32.718,0,101
55885,-0.81,-0.879,0.634,-14.588,250.13,46.107,0,99
55944,0.004,-1.083,-0.005,15.542,-250.137,-42.084,0,101
56002,0.374,-0.659,-0.264,-0.405,250.13,34.305,0,99
56060,-1.005,-1.078,0.908,0.145,-235.489,-27.053,0,100
56119,1.022,-0.635,-0.705,8.672,143.389,8.664,0,99
56177,-1.615,-1.18,1.651,-11.389,-74.969,4.855,0,99
56236,1.14,-0.683,-0.653,14.145,-22.473,-13.305,0,100
56294,-1.43,-1.041,1.462,-10.794,84.824,25.053,0,99
56356,0.911,-0.86,-0.505,14.435,-102.405,-23.023,0,100
56415,-0.816,-0.971,0.96,-8.504,149.786,23.893,0,99
56473,0.202,-1.083,-0.066,10.397,-161.389,-26.275,0,100
56531,-0.121,-0.829,0.271,1.267,169.107,20.466,0,99
56590,-0.449,-1.002,0.503,-3.863,-162.031,-14.458,0,99
56648,0.49,-0.831,-0.146,9.649,114.855,6.351,0,99
56707,-0.822,-1.013,0.881,-3.252,-74.901,3.405,0,99
56771,0.613,-0.795,-0.238,8.458,32.595,-10.145,0,99
56832,-0.921,-1.022,0.988,-2.046,10.573,10.992,0,99
56889,0.413,-0.788,-0.076,2.405,-56.893,-11.244,0,99
56946,-0.481,-0.908,0.595,-0.214,75.954,24.595,0,99
57005,-0.104,-0.989,0.324,-7,-120.557,4.664,0,101
57062,0.272,-0.997,0.023,19.053,70.977,22.435,0,101
57120,-0.917,-0.92,0.961,-5.931,-32.244,25.733,0,102
57178,0.148,-0.983,0.044,15.237,-97.496,53.427,0,104
57236,-0.03,-0.558,0.335,13.588,101.618,28.649,0,104
57294,-0.556,-1.217,0.529,0.71,-138.557,24.832,0,107
57356,0.464,-0.472,0.043,24.969,78.153,18.252,0,107
57413,-1.163,-1.295,0.816,8.435,-37.015,37.229,0,108
57472,0.112,-0.49,0.3,32.55,-84.435,33.893,0,110
57530,-0.428,-1.049,0.363,7.817,75.26,35.137,0,111
57593,-0.587,-0.881,0.643,26.191,-139.176,43.58,0,0
57657,0.028,-0.877,0.056,7.908,82.603,27.954,0,0
57718,-0.666,-0.554,0.994,16.885,-131.344,7.008,0,158
57782,0.032,-1.205,-0.086,2.328,100.389,34.443,0,0
57845,-0.492,-0.478,0.839,3.557,-118.359,-34.237,0,0
57955,-0.459,-0.428,0.881,8.595,-84.26,-27.031,0,0
58018,-0.696,-1.044,0.541,-0.71,75.107,47.878,0,0
58082,0.017,-0.427,0.348,-5.588,-56.427,-32.244,0,0
58143,-0.777,-0.998,0.714,8.084,35.565,41.565,0,157
58204,0.14,-0.563,0.268,-15.595,-16.87,-46.588,0,158
58265,-0.967,-0.874,0.826,17.13,19.168,27.977,0,156
58329,0.166,-0.679,0.071,-20.214,11.855,-36.298,0,0
58389,-0.849,-0.823,0.863,14.382,-24.427,7.763,0,153
58450,0.084,-0.69,0.172,-24.748,46.443,-37.351,0,152
58512,-0.698,-0.919,0.729,18.107,-17.832,6.298,0,112
58570,-0.056,-0.684,0.301,-25.618,38.641,-43.504,0,111
58629,-0.791,-1.161,0.624,16.74,-2.771,26.611,0,110
58687,-0.021,-0.528,0.284,-7.481,72.008,-32.29,0,108
58745,-0.679,-1.253,0.518,-17,-97.366,-14.237,0,108
58804,0.213,-0.496,0.095,14.237,119.214,-12.16,0,107
58862,-1.078,-0.979,0.896,-30.916,-100.603,-27.046,0,106
58920,0.478,-0.676,-0.136,6.893,35.359,-7.573,0,106
58979,-1.362,-0.888,1.232,-26.481,32.74,-3.275,0,105
59040,0.643,-0.823,-0.315,-6.282,-81.58,-24.786,0,105
59099,-0.878,-0.81,0.878,-4.511,159.397,3.893,0,103
59157,0.111,-1.029,-0.104,-6.878,-185.55,-50.389,0,104
59215,-0.352,-0.773,0.364,-1,192.061,9.725,0,102
59273,-0.531,-0.92,0.432,-21.885,-166.771,-33.45,0,102
59331,0.301,-0.836,-0.033,3.069,91.763,4.351,0,101
59389,-0.913,-0.908,0.998,-19.076,-46.252,-29.84,0,101
59447,0.243,-1.245,-0.315,9.519,-1.817,40.824,0,101
59508,-0.478,-0.619,0.799,3.16,65.718,-12.145,0,101
59567,0.037,-1.18,-0.039,-6.191,-106.931,-36.924,0,101
59625,-0.284,-0.705,0.55,7.328,80.511,10.298,0,101
59682,-0.345,-1.071,0.328,-13.267,-71.427,-29.702,0,101
59741,0.054,-0.802,0.094,10.985,31.802,26.221,0,100
59799,-0.467,-0.937,0.639,-9.885,-2.481,-36.221,0,100
59856,-0.082,-1.032,-0.031,6.137,-3.076,44.809,0,100
59915,-0.174,-0.7,0.544,0.16,17.557,-25.931,0,100
59973,-0.148,-1.197,0.12,-3.969,-48.405,-1.656,0,100
60035,0.045,-0.602,0.438,8.565,55.634,-6.84,0,100
60092,-0.513,-1.076,0.474,-7.786,-55.16,-18.481,0,100
60150,0.266,-0.722,-0.025,13.885,48.191,27.023,0,100
60209,-0.821,-0.937,0.799,-9.748,2.237,-10.496,0,100
60266,0.226,-0.998,-0.126,1.58,-133.053,1.756,0,101
60324,-0.032,-0.824,0.125,-0.977,203.382,14.466,0,100
60383,-1.134,-1.052,0.891,-33.664,-242.496,-21.397,0,101
60441,1.198,-0.796,-0.776,15.405,6.84,-3.931,0,101
60498,-1.827,-1.016,1.567,-22.519,181.053,38.779,0,100
60561,0.875,-0.783,-0.713,17.351,-234.107,-41.565,0,102
60618,-0.582,-0.885,0.281,-5.275,250.13,52.023,0,100
60677,-0.629,-1.092,0.284,-4.305,-250.137,-42.389,0,102
60735,0.878,-0.797,-0.623,13.794,176.656,27.702,0,102
60793,-1.51,-1.189,1.474,-1.038,-68.802,-6.031,0,102
60852,0.921,-0.755,-0.591,13.275,-43.542,-4.901,0,103
60953,-0.257,-1.047,0.177,0.351,-180.26,-31.794,0,102
61011,0.261,-0.761,-0.026,5.817,125.489,22.29,0,101
61073,-0.704,-1.122,0.721,-4.748,-102.107,-29.191,0,101
61131,0.356,-0.802,-0.077,12.511,75.229,34.855,0,101
61190,-0.887,-0.984,0.983,-7.908,-10.45,-24.45,0,101
61248,0.371,-0.937,-0.236,13.573,-41.443,14.313,0,101
61306,-0.423,-0.796,0.595,-1.443,107.504,0.237,0,100
61365,-0.289,-1.148,0.25,0.443,-137.84,-10.595,0,101
61422,0.312,-0.761,-0.045,6.504,100.687,4.29,0,100
61480,-1.064,-1.08,1.08,-14.382,-44.321,-11.26,0,100
61539,0.546,-0.82,-0.254,7.687,-54.359,7.229,0,101
61609,-0.867,-1.022,0.913,-5.855,7.389,-16.466,0,100
61670,0.382,-0.91,-0.17,0.527,-77.832,-9.519,0,101
61730,-0.505,-0.858,0.718,0.901,49.725,1.168,0,101
61791,0.026,-1.074,0.047,1.397,-111.466,-11.389,0,101
61851,-0.158,-0.773,0.381,6.282,104.145,36.855,0,101
61912,-0.103,-0.999,0.302,-4.229,-89.076,-21.962,0,102
61972,-0.047,-0.84,0.251,13.58,83.84,41.985,0,102
62032,-0.216,-0.85,0.447,-10.321,-62.366,-32.87,0,101
62093,0.032,-0.956,0.066,16.794,38.618,39.534,0,102
62156,-0.607,-0.823,0.789,-4.496,-31.603,-6.58,0,102
62218,0.27,-1.107,-0.151,17.74,-96.229,17.656,0,103
62278,-0.254,-0.643,0.534,1.359,135.031,14.71,0,103
62339,-0.17,-1.251,0.206,6.687,-153.985,-8.359,0,104
62399,0.085,-0.726,0.155,16.237,154,21.405,0,103
62459,-0.703,-1.083,0.625,2.908,-139.992,-19.443,0,103
62521,0.441,-0.782,-0.159,13.16,98.069,16.527,0,103
62581,-1.259,-1.066,1.178,-13.916,45.702,1.298,0,102
62642,0.487,-0.882,-0.243,15.13,-104.069,3.031,0,103
62705,-0.668,-0.897,0.763,-5.053,130.55,6.954,0,102
62767,0.022,-1.047,0.007,12.496,-134.45,-3.634,0,103
62827,-0.121,-0.746,0.316,-2.405,107.84,-5.985,0,102
62887,-0.334,-1.085,0.311,-4.031,-96.275,-11.695,0,102
62948,0.202,-0.672,0.088,-0.16,106.267,-2.046,0,101
63009,-0.893,-1.021,0.865,-8.626,-24.58,-12.733,0,101
63070,0.48,-0.843,-0.154,13.031,-28.542,-2.107,0,101
63130,-0.674,-0.954,0.639,-4.557,135.397,6.954,0,100
63194,0.041,-1.034,-0.016,-9.16,-150.886,-17.412,0,100
63254,-0.052,-0.788,0.165,5.458,171.16,13.718,0,99
63314,-0.612,-1.032,0.617,-13.176,-158.992,-28.313,0,99
63375,0.452,-0.873,-0.245,2.55,93.26,9.847,0,99
63435,-0.918,-1.012,0.888,-11.229,10.595,-14.824,0,98
63496,0.344,-0.928,-0.117,0.191,-44.893,4.824,0,98
63556,-0.465,-0.971,0.585,2.847,84.466,-1.832,0,97
63617,-0.253,-0.975,0.261,-7.176,-109.183,-12.603,0,97
63677,0.123,-0.885,-0.005,12.672,97.519,15.679,0,96
63740,-0.728,-0.851,0.741,-12.038,-87.145,-25.618,0,97
63801,0.373,-0.916,-0.208,6.115,-11.221,29.893,0,97
63861,-0.58,-0.871,0.703,1.649,86.542,-4.481,0,96
63922,-0.094,-1.108,0.055,-2.489,-116.695,-4.115,0,97