Timestamp(ms),AccelX(g),AccelY(g),AccelZ(g),GyroX(deg/s),GyroY(deg/s),GyroZ(deg/s),DistanceLeft(cm),DistanceRight(cm)
29135,-0.328,-0.101,0.968,-8.824,3.214,3.244,0,0
29198,-0.362,-0.119,0.994,-7.168,0.351,1.771,0,0
29261,-0.341,-0.125,0.975,-4.382,0.527,3.405,0,0
29325,-0.345,-0.115,0.987,-3.145,2.901,3.992,0,0
29387,-0.332,-0.12,0.997,-2.397,-2.198,1.214,0,0
29451,-0.334,-0.125,0.971,-1.214,1.305,0.321,0,0
29514,-0.377,-0.144,1.012,0.893,-1.42,0.626,0,0
29577,-0.34,-0.127,0.98,3.084,-6.473,-1.023,0,0
29643,-0.333,-0.132,0.977,4.16,-1.214,0.588,0,0
29706,-0.33,-0.127,0.98,7.809,-1.29,-1.771,0,0
29769,-0.335,-0.104,0.96,5.931,6.885,-0.053,0,0
29833,-0.372,-0.102,0.986,3.145,-1.115,0.687,0,0
29895,-0.337,-0.091,0.944,0.71,0.397,1.924,0,0
29952,-0.356,-0.088,0.96,0,2.458,1.771,21,0
30015,-0.348,-0.089,0.969,-1.656,-0.015,1.412,0,0
30078,-0.354,-0.104,0.978,-2.962,1.71,2,0,0
30141,-0.351,-0.1,0.987,-3.099,3.031,2.679,0,0
30208,-0.353,-0.096,0.969,-4.427,3.198,3.366,0,0
30271,-0.358,-0.095,0.982,-5.771,3.405,4.809,0,0
30333,-0.358,-0.109,0.979,-3.664,1.031,2.954,0,0
30397,-0.364,-0.117,0.973,-2.489,2.588,3.351,0,0
30460,-0.374,-0.123,0.976,-2.718,3.779,4.992,0,0
30523,-0.362,-0.112,0.978,-2.702,-0.29,4.244,0,0
30586,-0.365,-0.115,0.959,-3.336,5.504,4.977,0,0
30650,-0.396,-0.117,0.959,-5.504,4.458,3.901,0,0
30713,-0.381,-0.117,0.961,-6.13,0.023,3.305,0,0
30776,-0.387,-0.121,0.975,-6.031,4.763,4.183,0,0
30842,-0.387,-0.111,0.972,-5.931,3.351,2.763,0,0
30906,-0.377,-0.133,0.96,-4.366,-2.519,0.626,0,0
30969,-0.386,-0.137,0.971,-4.305,0.443,0.298,0,0
31032,-0.377,-0.123,0.971,-5.718,-4.023,-3.168,0,0
31084,-0.352,-0.184,0.985,-1.939,-9.305,-3.229,5,0
31136,-0.373,-0.172,0.983,4.931,16.267,6.985,6,0
31200,-0.393,-0.119,0.979,7.817,22.924,7.481,0,0
31252,-0.434,-0.123,0.977,8.985,-4.832,-2.489,9,0
31316,-0.381,-0.116,0.923,6.84,-14.176,-7.305,0,0
31383,-0.378,-0.117,0.938,2.809,-1.84,-5.389,0,0
31446,-0.403,-0.126,0.964,4.275,-4.382,-5.115,0,0
31509,-0.383,-0.099,0.94,4.153,-3.672,-4.908,0,0
31572,-0.391,-0.098,0.946,1.397,2.29,-1.008,0,0
31636,-0.399,-0.096,0.954,-2.122,-0.427,1.504,0,0
31699,-0.38,-0.105,0.963,-3.901,-0.542,3.298,0,0
31763,-0.383,-0.106,0.958,-3.183,1.359,2.992,0,0
31826,-0.391,-0.106,0.971,-3.985,2.344,4.725,0,0
31889,-0.39,-0.106,0.962,-6.542,-1.695,5.527,0,0
31955,-0.359,-0.117,0.961,-9.565,-5.412,4.321,0,0
32019,-0.351,-0.142,0.988,-9.168,-9.855,-0.87,0,0
32082,-0.33,-0.15,1.01,0.267,-3.702,-4.794,0,0
32146,-0.363,-0.158,1.004,7.702,-2.863,-7.13,0,0
32209,-0.342,-0.118,0.955,11.092,3.038,-5.794,0,0
32316,-0.384,-0.106,0.97,5.992,-3.687,-3.069,0,0
32379,-0.355,-0.098,0.936,2.519,-1.527,-1.42,0,0
32432,-0.382,-0.116,0.954,0.29,2.786,0.55,16,0
32488,-0.374,-0.105,0.96,-0.389,-0.412,0.29,16,0
32541,-0.353,-0.107,0.97,-0.885,0.748,0.458,16,0
32608,-0.355,-0.113,0.972,-0.603,2.985,-1.015,0,0
32671,-0.364,-0.111,0.983,0.908,3.382,-2.908,0,0
32735,-0.38,-0.11,0.972,1.786,2.924,-2.779,0,0
32798,-0.406,-0.092,0.944,0.221,3.954,3.046,0,0
32862,-0.418,-0.098,0.925,-7.771,2.038,9.137,0,0
32914,-0.384,-0.092,0.918,-16.763,-1.015,11.985,9,0
32966,-0.387,-0.124,0.957,-19.794,-0.084,14.137,10,0
33031,-0.346,-0.133,0.986,-17.771,-3.198,9.786,0,0
33094,-0.317,-0.157,1.005,-10.588,-4.878,-1.427,0,0
33161,-0.325,-0.171,1.055,4.527,0.832,-7.351,0,0
33213,-0.376,-0.167,1.033,16.962,0.015,-15.038,9,0
33276,-0.397,-0.161,0.983,23.74,-5.099,-15.145,0,0
33330,-0.38,-0.105,0.898,19.092,10.206,-7.405,16,0
33393,-0.428,-0.087,0.928,10.679,4.634,-4.374,0,0
33457,-0.385,-0.073,0.909,1.71,-4.489,-2.29,0,0
33520,-0.38,-0.093,0.956,-2.947,1.832,1.481,0,0
33584,-0.368,-0.098,0.972,-1.466,0.779,1.061,0,0
33647,-0.368,-0.102,0.981,0.038,2.618,0.939,0,0
33714,-0.388,-0.112,0.978,0.962,0.87,2.298,0,0
33777,-0.358,-0.072,0.986,0.656,-1.191,0.084,0,0
33841,-0.36,-0.07,0.966,1.931,0.939,-3.672,0,0
33905,-0.379,-0.085,0.934,2.305,2.42,-3.878,0,0
33969,-0.404,-0.129,0.943,-4.229,-1.435,-3.008,0,0
34022,-0.391,-0.168,0.934,-8.359,-3.939,5.366,16,0
34085,-0.396,-0.124,0.96,-13.557,5.588,13.84,0,0
34149,-0.378,-0.114,0.987,-13.046,-3.588,16.137,0,0
34212,-0.328,-0.114,0.982,-3.107,2.817,8.718,0,0
34276,-0.36,-0.083,0.98,5.71,4.504,-0.725,0,0
34332,-0.393,-0.109,0.966,4.977,1.992,-3.947,16,0
34396,-0.394,-0.103,0.952,2.443,-0.427,-2.908,0,0
34459,-0.39,-0.106,0.961,-0.412,-2.298,-2.107,0,0
34512,-0.375,-0.1,0.961,-0.351,-2.328,-1.58,17,0
34577,-0.382,-0.104,0.967,0.168,-0.71,-1.916,0,0
34640,-0.378,-0.106,0.98,2.427,-0.275,-2.641,0,0
34694,-0.385,-0.097,0.962,3.282,0.588,-1.992,16,0
34747,-0.387,-0.095,0.971,3.412,1.328,-1.038,16,0
34810,-0.382,-0.101,0.948,2.198,-0.473,-1.802,0,0
34877,-0.375,-0.098,0.949,-3.092,-1.191,-2.298,0,0
34940,-0.386,-0.118,0.958,-7.809,-8.855,-2.511,0,0
34994,-0.389,-0.115,0.976,-7.718,0.229,5.885,17,0
35058,-0.409,-0.108,0.988,-11.122,0.084,15.092,0,0
35111,-0.33,-0.123,0.978,-9.405,-15.183,9.931,16,0
35175,-0.297,-0.128,0.959,-1.878,-4.664,3.733,0,0
35238,-0.337,-0.116,0.981,2.702,6.992,-0.069,0,0
35303,-0.374,-0.111,0.979,2.275,2.206,-2.198,0,0
35399,-0.35,-0.117,0.973,0.397,-0.023,-1.863,16,0
35456,-0.337,-0.116,0.975,1.397,0.733,-3.481,16,0
35509,-0.346,-0.111,0.963,2.26,3.55,-5.626,16,0
35572,-0.37,-0.122,0.979,3.718,3.672,-5.641,0,0
35637,-0.377,-0.101,0.98,6.023,3.908,-4.321,0,0
35700,-0.381,-0.087,0.964,5.359,4.809,-2.603,0,0
35753,-0.385,-0.08,0.954,3.931,2.573,-1.168,16,0
35817,-0.372,-0.088,0.938,-0.084,2.122,-2.405,0,0
35881,-0.396,-0.122,0.959,-6.962,-1.87,-2.191,0,0
35945,-0.384,-0.148,0.953,-12.45,-7.191,4.16,0,0
36012,-0.401,-0.106,0.97,-11.382,15.29,19.947,0,0
36065,-0.391,-0.15,0.997,-7.397,-5.939,11.542,16,0
36129,-0.321,-0.116,0.955,1.718,-4.55,2.443,0,0
36193,-0.366,-0.095,0.97,5.26,7.725,-1.947,0,0
36246,-0.423,-0.091,0.989,5.29,0.26,-2.229,16,0
36311,-0.385,-0.074,0.975,3.504,-2.962,-1.534,0,0
36364,-0.387,-0.057,0.974,6.611,-0.847,-1.786,16,0
36417,-0.389,-0.077,0.975,10.466,-0.405,-1.336,17,0
36482,-0.396,-0.094,0.975,12.802,-1.191,0.321,0,0
36535,-0.371,-0.102,0.95,10.458,-1.336,1.656,17,0
36591,-0.357,-0.084,0.949,4.061,-1.534,-0.321,16,0
36644,-0.372,-0.077,0.955,0.443,-4.053,-1.176,16,0
36699,-0.385,-0.065,0.961,-0.435,-1.29,0.962,30,0
36752,-0.384,-0.055,0.962,0.023,-1.031,1.947,16,0
36806,-0.365,-0.031,0.955,-0.71,-0.84,0.565,16,0
36866,-0.347,-0.041,0.95,-4.26,-0.412,-2.435,20,0
36919,-0.382,-0.167,0.968,-7.947,-5.542,-0.313,20,0
36972,-0.389,-0.218,0.995,-0.595,-6.802,6.634,22,0
37035,-0.317,-0.141,0.998,12.679,7.977,6.061,0,0
37101,-0.372,-0.063,0.98,15.603,8.176,-0.931,0,0
37164,-0.373,-0.016,0.929,8.893,-3.527,-4.321,0,0
37217,-0.375,0.012,0.931,2.756,1.603,-4.397,17,0
37269,-0.374,0.002,0.922,-1.855,2.069,-4.611,17,0
37332,-0.375,-0.016,0.944,-5.412,0.595,-5.977,0,0
37385,-0.382,-0.064,0.949,-7.191,2.527,-4.863,18,0
37448,-0.377,-0.056,0.987,-10.351,2.863,-4.053,0,0
37500,-0.363,-0.046,0.982,-9.405,0.489,-5.573,16,0
37553,-0.389,-0.062,0.963,-6.16,5.069,-4.672,9,0
37608,-0.408,-0.038,0.986,-5.198,7.489,-1.855,9,0
37661,-0.412,-0.052,0.987,-4.183,-0.481,-0.023,16,0
37724,-0.367,-0.046,0.974,-3,-1.573,-0.099,0,0
37787,-0.401,-0.102,0.979,-0.397,-0.26,-0.389,0,0
37851,-0.395,-0.043,0.973,-0.664,3.015,1.924,0,0
37914,-0.427,-0.042,0.991,-0.832,0.695,7.16,0,0
37977,-0.408,-0.051,0.976,3.756,-5.176,9.389,0,0
38033,-0.365,-0.095,0.947,6.389,-2.786,8.84,16,0
38086,-0.365,-0.104,0.946,3.878,2.389,6.267,16,0
38141,-0.385,-0.1,0.95,-1.824,-2.382,1.916,20,0
38195,-0.367,-0.09,0.945,-5.122,-1.962,0.565,20,0
38251,-0.365,-0.055,0.958,-7.237,2.458,-1.618,20,0
38347,-0.411,-0.113,1.005,-1,-1.061,3.176,30,0
38401,-0.417,-0.124,0.974,3.282,18.092,11.947,23,0
38454,-0.432,-0.116,0.984,5.748,5.153,8.145,17,0
38507,-0.363,-0.076,0.932,3.305,-11.13,0.603,16,0
38569,-0.35,-0.06,0.918,-3.412,-7.947,-4.145,0,0
38633,-0.365,-0.052,0.948,-7.756,0.733,-8.534,0,0
38685,-0.398,-0.046,0.968,-6.282,2.023,-10.84,9,0
38752,-0.398,-0.064,0.954,-2.878,1.321,-9.504,0,0
38815,-0.423,-0.076,0.964,-1.191,9.092,-5.496,0,0
38879,-0.413,-0.069,0.97,-0.023,3.603,-3.695,0,0
38942,-0.394,-0.076,0.943,-0.901,2.733,-2.779,0,0
39005,-0.416,-0.097,0.971,-0.275,4.16,-1.71,0,0
39068,-0.417,-0.091,0.946,0.603,2.687,-0.443,0,0
39132,-0.409,-0.08,0.952,-1.351,0.229,-0.885,0,0
39195,-0.394,-0.082,0.968,-1.527,0.664,-2.351,0,0
39259,-0.435,-0.092,0.957,-0.588,2.366,0.427,0,0
39324,-0.427,-0.088,0.946,-0.511,-1.168,3.16,0,0
39388,-0.395,-0.095,0.942,-0.824,-0.015,2.481,0,0
39451,-0.42,-0.1,0.956,-1.634,1.74,2.74,0,0
39515,-0.428,-0.094,0.94,-3.351,-1.313,3.771,0,0
39578,-0.422,-0.101,0.943,-5.58,-0.519,6.71,0,0
39642,-0.415,-0.099,0.942,-7.641,-3.267,8.183,0,0
39705,-0.413,-0.104,0.93,-9.244,-1.786,10.084,0,0
39769,-0.4,-0.116,0.947,-11.427,-3.031,8.832,0,0
39832,-0.374,-0.127,0.951,-11.74,-5.573,3.725,0,0
39899,-0.385,-0.151,0.969,-9.969,-4.229,-1.42,0,0
39951,-0.383,-0.152,0.98,-5.832,-1.771,-4.382,16,0
40014,-0.364,-0.141,0.963,-0.809,0.893,-7.214,0,0
40078,-0.411,-0.165,0.999,6.122,-0.893,-9.687,0,0
40141,-0.375,-0.15,0.961,15.26,-4.947,-13.473,0,0
40205,-0.405,-0.108,0.938,11.626,15.733,-4.107,0,0
40268,-0.439,-0.107,0.961,7.656,-0.527,-4.076,0,0
40332,-0.39,-0.091,0.905,2.321,-1.015,-1.74,0,0
40395,-0.444,-0.106,0.949,-1.695,4.351,3.695,0,0
40462,-0.398,-0.114,0.945,-1.664,-4.756,3.855,0,0
40515,-0.393,-0.103,0.94,-3.069,5.649,5.771,23,0
40568,-0.426,-0.119,0.974,-4.13,1.885,6.023,23,0
40622,-0.406,-0.112,0.94,-5.313,-0.015,7.115,16,0
40685,-0.412,-0.115,0.932,-8.153,4.588,9.573,0,0
40749,-0.419,-0.123,0.956,-9.87,1.412,11.176,0,0
40812,-0.394,-0.115,0.935,-8.458,-1.954,7.382,0,0
40877,-0.403,-0.128,0.951,-8.13,0.847,4.412,0,0
40940,-0.415,-0.13,0.954,-8.084,-1.29,3.168,0,0
41004,-0.381,-0.169,0.964,-4.42,-5.13,-2.198,0,0
41059,-0.348,-0.114,0.972,9.45,8.725,-13.313,16,0
41112,-0.388,-0.107,0.947,10.176,14.374,-20.779,17,0
41165,-0.527,-0.186,0.927,6.107,-3.26,-19.466,17,0
41219,-0.516,-0.195,0.903,-2.359,0.458,4.824,17,0
41272,-0.458,-0.114,0.908,-10.679,10.718,25.137,17,0
41325,-0.406,-0.166,0.929,-11.42,-16.466,10.42,17,0
41421,-0.381,-0.117,0.952,6.214,12.435,-0.939,17,0
41485,-0.478,-0.144,0.991,9.763,7.176,-2.061,0,0
41549,-0.425,-0.123,0.943,10.466,-4.908,-4.473,0,0
41616,-0.404,-0.127,0.923,8.084,-4.069,-6.87,0,0
41668,-0.421,-0.129,0.927,5.695,0.153,-7.603,16,0
41733,-0.441,-0.137,0.938,6.092,0.908,-6.382,0,0
41796,-0.432,-0.107,0.944,4.412,0.275,-2.885,0,0
41849,-0.429,-0.093,0.942,2.336,-1.664,-2.137,16,0
41913,-0.423,-0.102,0.945,1.374,-1.321,-1.038,0,0
41976,-0.421,-0.094,0.95,1.427,-1.328,-0.053,0,0
42040,-0.412,-0.093,0.941,0.557,-1,-1.321,0,0
42103,-0.411,-0.082,0.937,-2.557,0,-1.183,0,0
42170,-0.444,-0.03,0.923,-10.458,-0.046,-0.137,0,0
42234,-0.526,0.019,0.917,-22.786,-1.84,17.641,0,0
42298,-0.549,-0.075,1.036,-18.389,-26.168,36.885,0,0
42361,-0.327,-0.242,0.988,2.641,-33.969,35.42,0,0
42418,-0.204,-0.257,0.993,12.748,-3.427,17.008,11,0
42482,-0.254,-0.204,0.947,8.313,4.282,1.939,0,0
42546,-0.373,-0.143,0.983,0.26,6.885,-4.603,0,0
42599,-0.372,-0.098,0.951,-0.84,-11.099,-11.237,16,0
42652,-0.331,-0.094,0.935,-0.092,-4.351,-14.519,9,0
42719,-0.354,-0.13,0.977,3.298,1.359,-15.237,0,0
42782,-0.367,-0.126,1.002,5.076,-4.641,-19.725,0,0
42846,-0.322,-0.114,0.976,3.969,-9.382,-23.557,0,0
42899,-0.325,-0.104,0.976,1.29,-6.015,-25.305,17,0
42953,-0.315,-0.116,0.983,0.504,-0.008,-23.321,20,0
43006,-0.344,-0.12,0.989,1.878,3.16,-22.527,16,0
43070,-0.33,-0.11,0.977,3.427,3.168,-21.985,0,0
43133,-0.346,-0.122,0.988,5.573,7.443,-19.137,0,0
43187,-0.327,-0.115,0.975,9.282,9.527,-18.863,16,0
43254,-0.336,-0.1,0.968,9.718,15.603,-18.015,0,0
43308,-0.298,-0.179,0.814,11.534,31.573,-26.947,16,0
43361,-0.329,-0.168,0.947,11.282,60.107,-44.878,16,0
43423,-0.384,-0.179,0.837,21.038,56.29,-59.481,177,0
43478,-0.525,-0.124,1,22.695,104.725,-44.573,30,0
43539,-0.616,-0.199,0.89,-9.053,-7.336,-69,178,171
43601,-0.331,-0.335,0.662,-21.038,44.939,-53.962,181,0
43657,-0.502,-0.274,0.736,-36.542,3.29,-94.573,35,0
43719,-0.819,-0.152,0.697,-46.252,76.603,-59.595,184,0
43778,-0.843,-0.215,0.883,-54.557,29.092,-21.595,38,200
43832,-0.324,-0.768,0.855,-9.557,16.527,-13.481,36,0
43896,-0.496,-0.403,0.945,5.382,74.992,-10.359,0,200
43951,-0.836,-0.479,0.636,16.344,20.969,-13.29,38,199
44005,-0.926,-0.478,0.908,37.336,16.58,28.496,36,199
44060,-0.609,-0.424,0.795,38.13,7.603,35.733,37,199
44114,-0.713,-0.405,0.71,43.344,7.458,34.763,36,199
44169,-0.614,-0.238,0.539,20.603,-1.115,23.58,37,199
44224,-0.528,-0.425,0.518,0.588,7.473,9.466,37,200
44275,-0.482,-0.297,0.542,-9.985,16.13,-17.55,16,118
44324,-0.856,-0.298,0.728,-16.053,29.672,-14.13,16,116
44418,-0.844,-0.331,0.788,4.962,16.435,3.168,39,116
44468,-0.756,-0.243,0.746,13.076,-6.58,14.183,39,115
44524,-0.8,-0.365,0.729,25.405,-6.809,18.58,39,116
44573,-0.723,-0.192,0.655,25.71,8.977,27.053,40,116
44622,-0.719,-0.174,0.682,24.145,-28.382,30.069,39,117
44672,-0.682,-0.206,0.547,13.229,10.359,21.122,38,118
44723,-0.544,-0.232,0.52,12.847,3.511,7.298,36,118
44772,-0.478,-0.224,0.446,-20.908,12.962,-28.71,34,118
44821,-0.991,-0.348,0.749,-15.061,33.824,-12.786,35,117
44870,-0.51,-0.154,0.662,-10.603,-0.084,-27.366,32,116
44918,-1.016,-0.239,0.644,-25.992,52.168,-10.321,32,115
44967,-1.008,-0.413,0.865,10.679,-22.786,11.031,32,115
45016,-0.615,-0.155,0.671,21.16,14.328,21.031,31,115
45065,-1.081,-0.309,0.795,25.672,-25.046,27.618,32,116
45114,-0.689,-0.242,0.61,39.084,-7.458,37.962,32,117
45165,-0.74,-0.242,0.566,26.885,-7.382,27.542,32,118
45214,-0.817,-0.233,0.707,35.847,-11.71,34.573,30,120
45263,-0.463,0.031,0.703,40.611,-33.115,11.275,30,121
45313,-0.866,-0.228,0.611,6.26,29.053,10.809,32,121
45362,-0.521,0.156,0.547,21.336,-42.702,-3.809,37,122
45411,-0.95,-0.162,0.555,-21.947,53.221,10.382,36,121
45460,-0.789,0.002,0.986,20.489,-47.374,15.817,32,122
45509,-0.477,0.026,0.635,3.359,17.702,2.534,37,122
45558,-1.123,-0.21,0.84,9.634,0.687,21.26,33,123
45611,-0.358,0.135,0.536,20.595,-13,0.038,31,124
45660,-0.985,-0.045,0.697,0.229,26.885,5.565,30,123
45709,-0.821,-0.103,0.805,18.107,-17.008,20.45,30,124
45758,-0.482,0.11,0.759,27.794,11.534,6.061,28,124
45807,-1.022,0.06,0.732,14.725,-2.58,16.061,30,124
45856,-0.515,0.061,0.484,8.794,-16.382,0.13,28,125
45905,-0.965,0.032,0.792,7.038,3.565,16.878,28,125
45955,-0.461,0.215,0.595,7.015,-13.565,-1.26,28,126
46004,-0.926,0.094,0.729,12.137,9.397,2.313,30,125
46056,-0.889,0.089,0.775,23.985,-10.115,24.405,29,126
46109,-0.632,0.025,0.758,12.855,-19.649,16.053,29,0
46158,-0.797,0.331,0.736,32.58,1.305,19.511,29,129
46209,-0.597,0.248,0.568,6.618,-15.733,12.534,29,129
46258,-0.789,0.097,0.772,16.252,-1.107,18.527,30,129
46312,-0.428,0.294,0.657,-0.527,-13.45,-2.267,29,0
46365,-0.892,0.021,0.773,2.702,17.008,-8.321,30,0
46419,-0.564,0.363,0.74,8.855,-21.748,-9.855,30,0
46473,-0.865,0.128,0.788,12.718,3.794,-3.168,30,0
46530,-0.57,0.378,0.603,14.069,-14.55,0.794,29,0
46583,-0.964,0.014,0.916,13.015,-14.817,14.16,29,0
46638,-0.438,0.312,0.818,50.618,-31,17.137,27,0
46691,-0.761,0.382,0.548,17.267,14.901,14.672,28,0
46745,-0.692,0.396,0.665,16.145,-18.038,32.397,28,0
46799,-0.513,0.304,0.717,13.611,-0.611,17.763,30,0
46853,-0.773,0.359,0.832,12.817,12.626,25.053,28,0
46907,-0.347,0.533,0.516,8.779,-12.527,-0.16,30,0
47003,-0.456,0.342,0.735,-2.275,-17.061,-9.832,28,0
47060,-0.785,0.428,0.707,-25.183,31.443,-4.794,28,0
47115,-0.715,0.313,0.906,8.58,-18.786,10.802,27,0
47168,-0.517,0.447,0.63,6.901,4.863,1.527,30,0
47222,-0.785,0.24,0.787,11.977,-13.244,10.84,28,0
47277,-0.504,0.471,0.659,8.763,2.229,0.26,30,0
47330,-0.706,0.306,0.722,7.84,-2.939,8.435,27,0
47384,-0.487,0.362,0.642,8.603,2.076,-3.313,30,0
47437,-0.815,0.373,0.71,2.611,10.076,3.641,28,0
47492,-0.602,0.459,0.885,24.137,-8.573,13.939,28,0
47549,-0.603,0.464,0.66,28.046,-10.695,5.55,28,0
47602,-0.489,0.451,0.543,0.985,-15.099,-10.023,29,0
47656,-0.616,0.372,0.698,-15.794,12.435,-16.878,28,0
47711,-0.612,0.383,0.775,-8.55,-1.809,-23.427,29,0
47765,-0.808,0.484,0.811,6.931,2.351,-1.527,27,0
47818,-0.577,0.502,0.653,12.183,-11.695,12.26,28,0
47873,-0.571,0.368,0.676,13.26,-1.496,6.435,29,0
47926,-0.698,0.501,0.724,28.206,-3.344,21.107,16,0
47980,-0.422,0.518,0.578,-8.527,-1.969,7.023,28,0
48036,-0.672,0.398,0.825,2.847,12.13,-1.763,16,0
48090,-0.638,0.54,0.758,4.015,-10.389,-4.969,29,0
48144,-0.558,0.415,0.568,-14.786,7.901,-4.16,16,0
48197,-0.719,0.438,0.858,6.878,0.115,5.832,18,0
48250,-0.548,0.518,0.677,5.702,-3.924,10.069,27,0
48304,-0.688,0.398,0.719,3.916,4.519,12.412,16,0
48358,-0.575,0.49,0.76,24.656,-19.267,15.26,27,0
48412,-0.567,0.455,0.671,1.878,0.84,2.519,28,0
48465,-0.699,0.517,0.775,24.611,-12.725,15.336,28,0
48523,-0.425,0.529,0.6,3.779,2.595,-5.786,29,0
48577,-0.752,0.451,0.8,20.496,0.443,7.855,27,0
48631,-0.351,0.593,0.586,13.794,-11.282,-3.076,27,0
48685,-0.794,0.439,0.809,26.847,0.565,6.267,27,0
48738,-0.398,0.668,0.508,30.099,-20.214,-1.115,17,187
48792,-0.67,0.659,0.581,11.29,15.053,10.466,27,0
48845,-0.396,0.616,0.616,16.641,-11.603,3.588,16,0
48900,-0.671,0.552,0.727,14.794,15.153,4.954,28,0
48953,-0.519,0.672,0.611,11.985,-10.771,6.191,29,189
49006,-0.584,0.559,0.59,11.756,10.725,2.779,30,189
49063,-0.523,0.606,0.666,16.191,-12.191,1.008,30,0
49118,-0.561,0.781,0.441,-9.13,6.427,-4.076,35,0
49172,-0.465,0.652,0.563,-32.244,-29.008,-13.786,30,189
49226,-0.498,0.518,0.702,-21,-3.389,-22.603,29,0
49280,-0.609,0.704,0.787,-19.878,-19,-21.198,27,190
49334,-0.423,0.669,0.438,-62.786,-30.817,-25.817,29,190
49388,-0.591,0.301,0.629,-59.29,-8.565,-37.626,30,198
49442,-0.494,0.544,0.635,-63.351,32.053,-33.076,30,0
49500,-0.584,0.249,0.833,-61.214,-45.389,-32.466,29,0
49554,-0.443,0.333,0.542,-44.542,38.458,-38.122,29,0
49608,-0.871,0.094,1.052,-78.771,11.252,-22.626,30,0
49662,-0.44,0.123,0.65,-27.42,-16.916,-44.893,31,0
49761,-0.782,-0.161,0.934,-41.214,-16.359,-43.267,33,0
49815,-0.634,0.299,0.729,-47.328,9.832,-29.588,34,200
49869,-0.665,-0.17,0.949,-41.382,-18.504,-27.504,35,200
49925,-0.579,0.143,0.778,-28.817,13.557,-24.29,36,200
49979,-0.768,-0.344,0.836,-53.656,-11.725,-20.145,36,199
50037,-0.477,0.077,0.86,-12.481,-22.542,-22.679,36,199
50092,-0.707,-0.302,0.796,-55.687,15.45,-3.817,37,198
50147,-0.482,-0.171,0.877,14.855,-18.725,-23.626,36,199
50202,-0.724,-0.03,0.663,-43.534,28.458,3.351,38,198
50256,-0.718,-0.46,1.044,6.55,-46.534,-4.573,37,198
50311,-0.43,0.123,0.564,3.397,31.496,6.771,37,198
50366,-0.876,-0.572,1.026,-36.122,-42.275,10.053,37,199
50420,-0.233,-0.105,0.535,44.962,8.977,-10.863,37,199
50479,-1.004,-0.211,1.041,-43.542,-0.931,22.321,38,198
50534,-0.269,-0.393,0.623,30.321,-35.779,-9.099,37,199
50588,-0.768,-0.011,0.857,-18.229,43.359,22.42,37,199
50643,-0.627,-0.481,0.779,-11.824,-49.336,2.427,38,199
50699,-0.34,0.068,0.732,8.885,25.122,4.565,37,199
50753,-0.973,-0.506,0.922,-26.649,-2.168,15.802,37,199
50808,-0.238,0.08,0.686,24.718,-29.656,-1.42,36,199
50863,-0.924,-0.48,0.696,-39.214,58.962,29.443,36,199
50918,-0.381,-0.139,1.018,25.565,-86.687,-2.588,35,199
50975,-0.768,-0.408,0.609,-26.901,99.282,29.634,36,199
51031,-0.628,-0.095,1.175,23.985,-108.649,0.275,35,200
51092,-0.759,-0.382,0.528,-20.573,113.74,43.985,36,200
51146,-0.595,-0.068,1.062,13.107,-118.115,-2.756,34,0
51200,-0.536,-0.374,0.475,-20.878,82.313,36.122,34,0
51254,-0.643,-0.128,1.151,10.046,-79.718,-2.221,35,0
51308,-0.658,-0.27,0.508,-13.092,73.099,36.931,33,0
51361,-0.541,-0.118,1.109,9.786,-91.55,-3.412,34,0
51416,-0.722,-0.249,0.589,-2.87,84.405,37.901,33,0
51472,-0.402,-0.119,0.919,-0.718,-106.618,-11.389,32,0
51526,-0.766,-0.143,0.679,0.763,93.74,39.534,32,0
51580,-0.385,-0.051,0.873,2.542,-92.962,-12.824,32,0
51634,-0.907,-0.208,0.766,-0.13,97.87,41.595,31,0
51688,-0.282,-0.064,0.88,-0.565,-99.115,-10.985,31,0
51741,-0.898,-0.194,0.825,4.115,91.718,34.977,31,0
51795,-0.346,0.098,0.884,1.87,-99.504,-6.84,30,0
51849,-0.757,-0.22,0.732,4.885,96.901,28.718,31,0
51903,-0.403,0.143,0.938,1.733,-107.244,-13.336,30,0
51960,-0.909,-0.208,0.74,-9.023,107.084,39.634,32,0
52014,-0.222,0.177,0.848,3.405,-117.359,-21.275,30,0
52068,-0.962,-0.23,0.847,-8.679,117.115,42.87,31,0
52121,-0.17,0.137,0.764,4.313,-111.237,-30.13,30,0
52175,-0.99,-0.148,0.884,-16.031,110.863,40.168,31,0
52230,-0.179,0.111,0.669,7.748,-95.802,-25.985,29,0
52283,-0.913,-0.147,0.909,-21.427,77.847,30.672,31,0
52337,-0.304,-0.037,0.778,8.374,-51.634,-16.695,30,0
52390,-0.868,-0.125,0.843,-9.237,52.321,17.855,31,0
52448,-0.346,0.049,0.816,13.504,-45.878,-10.725,29,0
52545,-0.462,0.023,1.043,15.679,-67.023,7.427,29,0
52598,-0.521,-0.326,0.433,-14.015,84.252,1.542,30,0
52653,-0.865,0.002,1.238,12.847,-70.366,9.504,29,0
52706,-0.213,-0.122,0.306,-16.908,56.496,-4.511,29,0
52760,-1.168,-0.045,1.42,12.779,-36.351,16.977,30,0
52814,-0.026,-0.081,0.247,-10.969,37.733,-18.679,30,0
52868,-1.467,-0.041,1.459,3.878,-14.321,26.229,30,0
52922,0.169,-0.001,0.123,-11.275,-13.695,-24.221,29,0
52973,-1.564,-0.077,1.403,-6.183,39.802,31.458,30,0
53027,-0.19,0.079,0.533,-11.168,-149.634,-25.328,28,0
53082,-0.519,0.001,0.734,0.237,107.626,24.931,29,0
53135,-0.759,-0.086,0.943,4.206,-18.389,-12.626,30,0
53189,-0.577,0.001,0.614,2.931,34.58,10.122,30,0
53242,-0.722,-0.014,1.032,-13.573,-14.229,-1.847,29,0
53297,-0.614,-0.122,0.778,4.183,1.534,4.458,30,0
53351,-0.554,0.093,0.772,5.458,34.832,5.16,29,0
53404,-0.896,-0.191,0.952,-19.916,-51.206,-7.229,29,0
53456,-0.288,-0.037,0.607,41.359,-18.374,-3.489,29,0
53510,-0.801,0.162,0.768,-28.061,92.359,12.557,28,0
53564,-0.743,-0.331,0.855,-15.038,-80.595,-11.45,29,0
53618,-0.418,0.267,0.649,30.214,79.832,13.374,29,0
53671,-0.921,-0.127,0.923,-37.13,-57.511,-3.702,29,0
53726,-0.362,-0.132,0.709,26.962,22.099,0.153,29,0
53780,-0.981,0.075,0.904,-21.405,-6.885,3.107,29,0
53833,-0.372,-0.223,0.729,-4.328,-25.595,-3.603,28,0
53891,-0.872,0.161,0.854,16.336,41.71,13.931,30,0
53945,-0.529,-0.223,0.747,-42.489,-51.611,-1.084,28,0
53998,-0.521,0.002,0.795,41.725,55.763,3.092,29,0
54052,-0.972,0.049,0.834,-41.183,-36.511,7.817,28,0
54107,-0.266,-0.198,0.767,8.084,1.374,-0.328,29,0
54160,-0.978,0.17,0.825,9.832,37.382,14.321,28,0
54214,-0.523,-0.203,0.77,-40.015,-57.718,6.244,28,0
54268,-0.494,-0.022,0.774,40.038,55.397,5.305,28,0
54322,-0.978,0.008,0.846,-39.115,-32.053,10.443,28,0
54379,-0.294,-0.189,0.818,23.374,6.489,-0.183,28,0
54433,-1.023,0.208,0.81,-3.87,35.901,15.58,28,0
54487,-0.389,-0.254,0.774,-32.26,-57.649,-0.641,27,0
54541,-0.592,0.132,0.778,48.031,71.176,4.221,30,0
54595,-0.946,0.003,0.827,-35.71,-59.435,4.473,27,0
54648,-0.345,-0.113,0.697,19.534,28.29,4.328,30,0
54703,-0.975,0.121,0.818,-7.855,-5.954,5.992,27,0
54757,-0.448,-0.224,0.768,-13.855,-8.176,2.916,28,0
54811,-0.759,0.215,0.863,28.687,16.985,5.252,27,0
54864,-0.648,-0.097,0.685,-38.527,-28.466,4.924,27,0
54922,-0.516,0.022,0.873,37.588,16.458,8.321,27,0
54976,-0.719,0.105,0.662,-31.954,-3.229,-4.16,27,0
55029,-0.661,-0.178,0.98,7.687,-3.702,12.198,26,0
55084,-0.356,0.274,0.467,24.534,40.847,-5.794,28,0
55138,-1.118,-0.148,0.924,-51.29,-9.931,7.985,27,0
55192,-0.521,-0.165,0.957,29.786,-4.931,-0.031,28,0
55288,-0.51,-0.08,0.663,-21.267,48.733,10.977,27,0
55339,-1.117,-0.044,1.091,22.412,-38.153,-12.603,27,131
55396,-0.52,0.007,0.5,-20.954,-42.634,3.939,27,0
55446,-0.513,0.037,0.738,18.313,110.656,8.183,28,130
55496,-1.26,0.108,0.882,-21.649,-74.122,-8.58,27,131
55550,-0.23,-0.097,0.589,-12.733,-16.023,8.611,26,0
55600,-0.923,0.127,0.993,30.336,58.679,5.885,28,130
55650,-0.893,0.016,0.542,-48.534,-67.099,0.008,29,131
55700,-0.349,-0.075,0.776,12.031,42.771,13.985,28,130
55750,-1.01,0.209,0.793,15.008,12.023,1.298,29,129
55800,-0.712,-0.096,0.583,-61.863,-51.443,7.733,30,131
55854,-0.451,-0.016,0.788,36.198,55.42,10.542,30,130
55904,-1.203,0.168,0.776,-26.107,-25.237,8.511,30,130
55958,-0.38,-0.165,0.729,-40.969,-41.702,7.405,27,0
56012,-0.734,0.092,0.86,37.313,52,11.542,30,0
56067,-0.887,0.034,0.615,-55.504,-50.954,5.748,30,0
56121,-0.368,-0.122,0.777,10.122,13.847,5,30,0
56175,-1.011,0.135,0.816,-2.962,10.443,9.641,31,0
56228,-0.521,-0.083,0.644,-36.008,-47.618,3.55,26,0
56279,-0.579,0.063,0.843,22.649,33.87,11.412,25,131
56332,-0.888,-0.012,0.756,-27.13,-32.534,3.84,24,131
56386,-0.541,-0.097,0.847,3,-14.565,9.664,27,0
56440,-0.731,0.11,0.717,0.802,18.702,9.099,24,0
56494,-0.72,-0.034,0.884,-28.069,-41.756,10.55,24,0
56548,-0.401,0.025,0.745,10.916,-1.053,-3.336,26,0
56602,-1.01,0.021,0.876,-11.87,-3.13,18.282,26,0
56656,-0.333,-0.064,0.716,-8.351,-55.901,-5.725,25,0
56720,-0.829,-0.045,0.791,3.382,48.046,19.321,0,0
56784,-0.143,0.053,0.716,-15.992,-66.42,-23.183,0,0
56852,-1.191,0.007,1.069,7.214,53.282,31.481,0,0
56915,-0.066,-0.05,0.474,-22.527,-35.198,-20.42,0,0
56980,-0.982,0.075,1.357,19.13,-9.45,19.763,0,0
57034,-0.384,-0.152,0.395,-25.931,46.443,-1.359,29,0
57098,-0.956,0.08,1.271,7.534,-47.954,6.55,0,0
57162,-0.473,-0.202,0.608,-7.588,56.611,11.107,0,0
57217,-0.365,0.064,0.822,0.695,-75.969,-34.962,26,0
57271,-0.746,-0.118,0.945,-3.489,46.969,3.252,30,0
57325,-0.468,0.114,0.793,15.901,-37.313,-15.702,28,0
57382,-0.727,0.005,0.818,-4.267,21.679,-0.198,30,0
57437,-0.601,0.209,0.737,-13.779,-52.595,-6.214,27,0
57491,-0.714,0.14,0.948,-24.046,19.191,40.122,30,0
57555,-0.328,-0.392,1.031,-4.458,-69.191,29.397,0,0
57610,-0.203,-0.11,0.969,27.458,56.588,-11.076,27,0
57664,-0.92,0.066,0.878,-12.534,-7.397,-13.641,25,0
57718,-0.378,0.082,0.786,12.237,-4.985,-5.565,30,0
57783,-0.592,0.053,0.877,-8.733,23.252,1.427,0,0
57852,-0.369,-0.173,0.992,18.008,-1.565,-7.519,0,0
57919,-0.681,0.004,0.778,-11.076,44.672,-13.931,0,0
57982,-0.397,-0.036,0.88,-0.435,-42.023,-26.519,0,0
58046,-0.518,0.053,0.704,-2.702,81.382,-27.198,0,0
58142,-0.316,-0.231,0.668,3.153,33.595,-29.931,26,0
58196,-0.848,-0.021,1.053,-5.458,9.282,-25.26,29,0
58250,-0.625,-0.243,0.836,-9.275,24.87,-7.038,30,0
58303,-0.76,0.192,1.209,36.763,-19.603,6.992,30,0
58357,-0.261,-0.315,0.42,-42.481,-12.595,-17.412,30,0
58411,-0.939,-0.267,1.129,18.183,29.626,6.931,29,0
58468,-0.313,0.031,0.525,-18.229,-6.992,-17.115,30,0
58521,-0.687,-0.339,0.952,1.26,7.435,-15.611,30,0
58579,-0.378,-0.038,0.733,10.855,17.397,-29.534,113,0
58639,-0.774,-0.326,0.864,-20.092,6.107,-13.473,112,0
58697,-0.465,-0.201,0.802,25.092,47.221,-27.771,114,0
58752,-0.717,-0.207,0.682,-31.275,14.794,-32.931,37,0
58806,-0.471,-0.401,0.758,11.015,14.977,-33.313,33,0
58859,-0.572,-0.102,0.593,21.588,76.794,-44.656,35,0
58908,-0.991,-0.429,0.707,-51.832,7.534,-39.076,16,122
58966,-0.309,-0.395,0.546,28.71,50.389,-46.389,37,0
59015,-1.046,-0.097,0.787,-2.45,55.13,-40.427,37,118
59069,-0.863,-0.576,0.665,-48.985,-38.053,-31.786,37,0
59123,-0.382,-0.303,0.51,40.031,76.931,-29.672,37,200
59177,-1.165,-0.388,0.755,-30.756,3.687,-26.29,39,200
59232,-0.277,-0.567,0.492,-5.046,-32.847,-38.611,41,199
59287,-0.906,-0.28,0.656,16.008,109.656,-17.947,42,199
59351,-0.786,-0.543,0.58,-50.321,-106.206,-44.931,0,198
59414,-0.308,-0.467,0.305,35.794,113.687,-21.725,0,198
59472,-1.073,-0.585,0.725,-43.74,-111.511,-42.13,52,197
59536,0.048,-0.567,0.136,15.656,46.496,-28.901,0,197
59590,-1.348,-0.621,0.993,-22.221,-14.534,-29.687,51,198
59655,-0.077,-0.71,0.271,-9.359,-48.603,-36.26,0,197
59710,-1.045,-0.465,0.829,2.992,88.511,-18.031,58,0
59765,-0.379,-0.785,0.339,-34.718,-108.412,-43.298,57,199
59827,-0.272,-0.595,0.217,24.786,134.71,-18.992,0,160
59890,-1.058,-0.736,0.724,-41.305,-106.985,-32.366,0,0
59958,0.139,-0.627,0.125,26.099,80.107,-20.763,0,0
60018,-1.397,-0.865,1.029,-36.313,-59.511,-24.718,0,158
60075,0.352,-0.636,0.026,22.473,14.076,-22.672,58,0
60127,-1.23,-0.747,0.913,-14.282,96.267,-6.313,58,156
60191,-0.201,-0.9,0.162,-8.336,-136.527,-31.053,0,0
60252,-0.459,-0.633,0.395,8.527,165.718,-0.756,0,155
60307,-0.692,-0.909,0.495,-24.695,-153.924,-31.099,51,0
60360,0.21,-0.695,0.028,20.947,90.878,-4.824,51,156
60412,-1.273,-0.792,1.087,-13.542,5.481,-16.313,57,154
60469,0.213,-0.885,-0.028,-1.344,-79.221,-24.076,51,155
60522,-0.543,-0.645,0.523,15.145,155.458,10.473,57,154
60574,-0.75,-0.885,0.551,-24.786,-142.053,-28.275,52,154
60627,0.363,-0.734,-0.009,10.405,51.504,-3.947,51,154
60680,-1.094,-0.759,0.839,-8.023,97.038,-2.855,58,153
60734,-0.171,-0.937,0.162,-23.313,-150.427,-23.901,51,173
60786,0.119,-0.776,0.06,5.053,121.611,-1.878,50,153
60837,-1.202,-0.91,1.083,-18.473,-20.267,-16.122,52,112
60894,0.24,-0.859,-0.069,-14.29,-78.794,-22.45,51,172
60987,-1.168,-0.844,1.012,-40.053,-104.023,-16.252,52,112
61041,0.441,-0.922,-0.157,-9.992,-88.855,-15.557,51,172
61091,-0.474,-0.686,0.46,6.626,209.115,25.527,51,111
61142,-0.934,-0.996,0.799,-22.137,-159.55,-30.023,52,112
61192,0.623,-0.817,-0.307,13.595,17.885,-4.725,50,113
61240,-0.847,-0.86,0.649,2.847,157.458,10.351,53,66
61289,-0.555,-1.025,0.301,-16.802,-152.718,-27.321,52,111
61340,0.374,-0.676,-0.132,4.221,75.198,2.802,52,110
61390,-1.008,-0.794,0.911,-14.489,69.916,-1.389,57,64
61441,-0.246,-1.019,0.281,-24.267,-158.611,-21.504,52,110
61491,0.237,-0.84,-0.05,6.855,93.076,11.221,54,109
61541,-1.084,-0.966,0.975,-16.473,-17.641,-8.557,58,108
61591,0.174,-0.92,-0.081,0.634,-91.466,-9.916,52,110
61639,-0.143,-0.785,0.208,8.679,128.038,9.267,55,64
61687,-0.851,-0.962,0.718,-5.542,-41.855,-2.634,58,64
61737,0.137,-0.875,-0.038,7.641,-46.176,0.832,52,110
61788,-0.272,-0.8,0.344,6.969,110.206,3.321,57,63
61846,-0.853,-0.89,0.754,-31.687,-89.198,-15.55,0,108
61905,0.379,-0.873,-0.235,8.206,17.115,5.71,0,109
61961,-0.873,-0.918,0.866,-11.527,71.687,3.397,0,63
62020,-0.057,-1.024,0.038,1.221,-88.473,-6.992,0,108
62075,-0.232,-0.74,0.348,4.908,96.275,13.374,0,62
62135,-0.504,-1.045,0.417,-6.695,-75.137,-13.145,0,108
62190,-0.043,-0.742,0.159,14.122,31.542,28.046,0,63
62246,-0.449,-0.973,0.442,-1.13,23.496,-8.481,0,62
62315,-0.267,-0.718,0.333,16.069,19.092,22.481,0,62
62373,-0.382,-0.993,0.275,-10.771,-29.092,-13.115,0,62
62435,-0.213,-0.783,0.4,9.237,18.115,12.099,0,109
62493,-0.335,-1.066,0.311,-13.733,-21.855,-18.519,0,63
62555,-0.262,-0.673,0.443,12.336,-12.511,-0.366,0,109
62616,-0.382,-1.088,0.239,-21.321,2.855,-15.534,0,109
62675,-0.098,-0.598,0.355,16.939,-13.244,-7.588,0,65
62729,-0.566,-1.173,0.372,-18.344,10.55,-0.046,57,109
62782,-0.015,-0.715,0.315,11.794,-40.046,-10.664,58,110
62838,-0.463,-0.94,0.404,-12.412,56.115,-1.206,58,108
62892,-0.287,-0.899,0.413,-0.229,-88.779,-0.084,58,109
62953,0.084,-0.843,0.026,5.786,69.725,-15.13,0,109
63006,-0.771,-0.952,0.693,-9.389,-97.015,2.504,58,109
63059,0.428,-0.79,-0.274,18.611,40.534,-20.855,58,109
63110,-1.261,-1.049,0.945,-15.359,69.42,28.229,57,62
63163,0.237,-0.838,-0.051,7.55,-146.802,-29.74,58,110
63216,-0.084,-0.879,0.072,0.916,171.481,23.84,57,108
63273,-0.679,-1.006,0.636,-6.771,-133.58,-20,58,108
63327,0.415,-0.771,-0.239,5.29,57.855,-4.481,59,108
63385,-1.147,-0.91,0.978,-13.824,30.458,16.58,0,63
63438,0.401,-0.846,-0.262,5.588,-46.527,-18.718,58,108
63498,-0.792,-0.77,0.774,0.824,117.611,40.206,0,61
63559,0.057,-0.855,0.083,-8.481,-85.214,-29.153,0,108
63618,-0.44,-0.793,0.557,6.336,72.023,21.519,0,62
63679,-0.222,-0.997,0.234,-13.412,-70.252,-22.626,0,108