Timestamp(ms),AccelX(g),AccelY(g),AccelZ(g),GyroX(deg/s),GyroY(deg/s),GyroZ(deg/s),DistanceLeft(cm),DistanceRight(cm)
32613,-0.617,-0.009,0.745,-0.260,1.206,-0.954,0.0,135.0
32669,-0.633,-0.009,0.750,-0.473,1.229,-0.756,0.0,134.0
32726,-0.624,-0.007,0.755,-0.336,0.168,-0.939,0.0,134.0
32782,-0.625,-0.005,0.753,-0.336,0.809,-0.947,0.0,135.0
32838,-0.622,-0.008,0.751,-0.313,0.992,-0.916,0.0,135.0
32894,-0.632,-0.007,0.745,-0.313,1.008,-0.840,0.0,134.0
32951,-0.626,-0.008,0.758,-0.221,0.351,-0.840,0.0,135.0
33010,-0.630,-0.011,0.751,-0.282,0.656,-0.962,0.0,134.0
33067,-0.642,-0.003,0.751,-0.397,1.168,-0.740,0.0,135.0
33123,-0.626,-0.008,0.755,-0.229,-0.137,-0.771,0.0,135.0
33179,-0.619,-0.013,0.741,-0.267,0.924,-0.947,0.0,135.0
33235,-0.635,-0.009,0.744,-0.397,1.336,-0.893,0.0,135.0
33292,-0.630,-0.007,0.742,-0.244,0.290,-0.763,0.0,135.0
33348,-0.634,-0.012,0.757,-0.267,-0.015,-0.916,0.0,134.0
33405,-0.628,-0.006,0.749,-0.275,1.160,-0.824,0.0,135.0
33462,-0.639,-0.005,0.741,-0.313,0.710,-0.824,0.0,136.0
33521,-0.626,-0.009,0.745,-0.298,-0.031,-1.038,0.0,134.0
33577,-0.626,-0.008,0.744,-0.427,0.756,-1.046,0.0,135.0
33634,-0.630,-0.009,0.739,-0.366,0.992,-0.885,0.0,135.0
33690,-0.638,-0.011,0.727,-0.214,0.809,-1.099,0.0,135.0
33747,-0.635,-0.014,0.741,-0.191,-0.458,-0.626,0.0,136.0
33804,-0.622,-0.012,0.743,0.092,1.107,-1.107,0.0,135.0
33860,-0.646,-0.012,0.744,-0.298,1.046,-0.893,0.0,134.0
33916,-0.630,-0.009,0.737,-0.282,-0.748,-0.916,0.0,135.0
33973,-0.627,-0.010,0.744,-0.176,0.550,-0.702,0.0,134.0
34033,-0.643,-0.010,0.745,-0.351,0.878,-0.924,0.0,134.0
34089,-0.637,-0.011,0.734,-0.275,-0.321,-0.992,0.0,135.0
34146,-0.630,-0.013,0.747,-0.344,-0.214,-0.962,0.0,134.0
34202,-0.634,-0.017,0.741,-0.198,1.053,-0.802,0.0,134.0
34258,-0.643,-0.014,0.746,-0.214,0.107,-0.885,0.0,134.0
34316,-0.632,-0.010,0.740,-0.282,-0.412,-0.901,0.0,134.0
34372,-0.630,-0.010,0.736,-0.290,0.534,-0.893,0.0,133.0
34428,-0.635,-0.006,0.746,-0.252,0.321,-0.916,0.0,133.0
34485,-0.643,-0.010,0.747,-0.344,-0.023,-0.908,0.0,134.0
34545,-0.631,-0.005,0.746,-0.252,0.321,-0.763,0.0,135.0
34601,-0.634,-0.007,0.743,-0.435,0.092,-0.954,0.0,134.0
34658,-0.628,-0.010,0.748,-0.191,0.305,-1.099,0.0,135.0
34715,-0.646,-0.016,0.747,-0.313,-0.023,-0.725,0.0,134.0
34771,-0.630,-0.009,0.735,-0.382,0.115,-0.954,0.0,135.0
34828,-0.635,-0.012,0.741,-0.221,1.603,-0.954,0.0,134.0
34885,-0.639,-0.009,0.746,-0.427,0.405,-0.924,0.0,134.0
34941,-0.631,-0.011,0.742,-0.313,-0.565,-0.718,0.0,134.0
34998,-0.631,-0.013,0.740,-0.351,0.611,-0.840,0.0,135.0
35058,-0.644,-0.006,0.737,-0.427,1.214,-0.847,0.0,135.0
35115,-0.637,-0.008,0.745,-0.344,-0.786,-0.824,0.0,134.0
35171,-0.624,-0.012,0.739,-0.458,0.206,-0.992,0.0,134.0
35228,-0.641,-0.013,0.740,-0.313,0.687,-0.603,0.0,133.0
35284,-0.643,-0.008,0.735,-0.321,0.282,-0.687,0.0,135.0
35342,-0.634,-0.013,0.738,-0.260,-0.275,-0.809,0.0,135.0
35398,-0.639,-0.008,0.741,-0.252,0.183,-0.725,0.0,134.0
35497,-0.644,-0.005,0.750,-0.435,0.573,-1.053,0.0,134.0
35554,-0.639,-0.009,0.735,-0.206,-0.908,-0.679,0.0,135.0
35614,-0.633,-0.011,0.741,-0.336,0.718,-0.855,0.0,133.0
35671,-0.640,-0.004,0.740,-0.473,1.053,-0.916,0.0,135.0
35728,-0.646,-0.007,0.743,-0.252,-0.282,-0.924,0.0,133.0
35784,-0.636,-0.011,0.735,-0.389,0.198,-0.809,0.0,133.0
35841,-0.639,-0.009,0.746,-0.321,0.954,-0.832,0.0,133.0
35898,-0.641,-0.010,0.738,-0.267,0.557,-1.130,0.0,133.0
35954,-0.642,-0.008,0.742,-0.397,-0.244,-1.046,0.0,134.0
36012,-0.635,-0.010,0.741,-0.336,0.595,-1.015,0.0,133.0
36068,-0.646,-0.011,0.745,-0.137,0.840,-1.084,0.0,133.0
36128,-0.646,-0.013,0.739,-0.038,0.489,-0.893,0.0,134.0
36185,-0.645,-0.007,0.739,-0.153,-0.695,-0.870,0.0,134.0
36242,-0.637,-0.008,0.743,-0.160,-0.282,-0.634,0.0,133.0
36298,-0.635,-0.010,0.744,-0.397,0.985,-1.046,0.0,134.0
36356,-0.645,-0.007,0.740,-0.290,0.237,-0.824,0.0,134.0
36412,-0.632,-0.011,0.740,-0.130,-0.771,-0.794,0.0,134.0
36469,-0.639,-0.010,0.737,-0.206,0.908,-0.817,0.0,134.0
36526,-0.643,-0.013,0.737,-0.405,0.550,-1.015,0.0,133.0
36583,-0.642,-0.009,0.735,-0.321,-0.725,-0.771,0.0,132.0
36642,-0.638,-0.008,0.737,-0.115,0.603,-0.870,0.0,134.0
36700,-0.646,-0.011,0.742,-0.252,0.443,-0.733,0.0,133.0
36757,-0.641,-0.011,0.734,-0.275,-0.435,-0.992,0.0,133.0
36813,-0.642,-0.017,0.741,-0.382,0.145,-1.214,0.0,134.0
36871,-0.643,-0.011,0.748,-0.229,0.718,-0.908,0.0,134.0
36927,-0.639,-0.004,0.743,-0.359,0.046,-0.962,0.0,132.0
36984,-0.643,-0.009,0.734,-0.412,-0.069,-0.809,0.0,132.0
37041,-0.639,-0.012,0.735,-0.313,0.069,-0.893,0.0,133.0
37098,-0.638,-0.004,0.742,-0.221,0.565,-0.702,0.0,133.0
37158,-0.646,-0.009,0.732,-0.389,-0.176,-0.878,0.0,133.0
37215,-0.635,-0.007,0.741,-0.336,0.595,-1.031,0.0,134.0
37272,-0.644,-0.010,0.737,-0.359,-0.244,-0.672,0.0,133.0
37328,-0.639,-0.015,0.744,-0.313,1.145,-0.863,0.0,132.0
37386,-0.647,-0.009,0.733,-0.496,0.756,-0.733,0.0,133.0
37443,-0.644,-0.012,0.745,-0.321,-0.458,-0.893,0.0,134.0
37499,-0.635,-0.005,0.737,-0.321,-0.092,-0.710,0.0,133.0
37557,-0.641,-0.006,0.745,-0.267,0.939,-0.718,0.0,134.0
37614,-0.650,-0.007,0.738,-0.412,0.420,-0.893,0.0,133.0
37673,-0.642,-0.006,0.744,-0.313,-0.374,-0.863,0.0,133.0
37731,-0.638,-0.008,0.738,-0.405,1.061,-0.916,0.0,134.0
37788,-0.650,-0.007,0.732,-0.244,1.901,-0.840,0.0,134.0
37846,-0.646,-0.010,0.729,-0.496,1.214,-0.939,0.0,133.0
37902,-0.652,-0.005,0.738,-0.244,-0.427,-0.756,0.0,132.0
37959,-0.642,-0.004,0.737,-0.298,0.290,-0.725,0.0,132.0
38016,-0.643,-0.010,0.729,-0.489,0.863,-1.008,0.0,133.0
38073,-0.650,-0.011,0.740,-0.473,0.771,-1.076,0.0,133.0
38130,-0.641,-0.009,0.743,-0.191,-0.076,-0.611,0.0,132.0
38191,-0.641,-0.008,0.728,-0.351,1.336,-0.885,0.0,133.0
38247,-0.648,-0.008,0.734,-0.282,0.603,-0.962,0.0,133.0
38304,-0.642,-0.010,0.722,-0.237,0.260,-1.000,0.0,133.0
38405,-0.710,0.016,0.755,-1.809,-6.206,-0.748,0.0,133.0
38462,-0.915,0.075,0.811,-11.595,-65.977,6.550,0.0,134.0
38519,-0.559,-0.073,0.678,-12.954,-120.557,14.191,0.0,134.0
38577,-0.107,-0.107,0.868,-8.130,-64.534,-11.038,0.0,140.0
38634,-0.128,0.091,0.744,11.435,129.321,-17.115,0.0,134.0
38691,-0.844,-0.090,0.789,-0.321,80.183,6.336,0.0,135.0
38752,-0.798,-0.045,0.729,-1.015,-12.733,5.252,0.0,134.0
38809,-0.510,-0.060,0.744,2.855,-19.580,-11.748,0.0,135.0
38866,-0.544,-0.039,0.789,-2.298,-13.260,1.809,0.0,133.0
38924,-0.472,-0.029,0.753,1.817,22.947,3.450,0.0,134.0
38981,-0.654,0.000,0.802,2.206,37.580,-1.115,0.0,138.0
39038,-0.675,-0.020,0.752,1.191,14.809,0.038,0.0,134.0
39096,-0.679,-0.013,0.765,-0.847,0.832,-0.702,0.0,133.0
39153,-0.617,-0.016,0.754,0.145,-6.031,-1.351,0.0,137.0
39211,-0.606,-0.014,0.753,-0.443,1.412,-0.603,0.0,136.0
39266,-0.619,-0.016,0.746,-0.053,6.069,-0.710,0.0,134.0
39323,-0.657,-0.018,0.755,-0.397,2.527,-0.725,0.0,134.0
39380,-0.633,-0.023,0.740,-0.336,-2.435,-0.840,0.0,133.0
39438,-0.636,-0.017,0.748,-0.687,-3.237,-1.115,0.0,134.0
39495,-0.613,-0.015,0.746,-0.168,-0.504,-1.053,0.0,134.0
39553,-0.634,-0.013,0.740,-0.382,2.267,-1.008,0.0,135.0
39610,-0.632,-0.019,0.743,-0.221,2.313,-0.931,0.0,136.0
39667,-0.637,-0.017,0.740,-0.282,-0.405,-0.954,0.0,133.0
39728,-0.624,-0.015,0.746,-0.130,1.290,-0.962,0.0,134.0
39785,-0.631,-0.018,0.747,-0.305,1.015,-0.756,0.0,134.0
39847,-0.636,-0.013,0.748,-0.382,1.496,-0.977,0.0,133.0
39904,-0.635,-0.011,0.746,-0.466,0.710,-0.756,0.0,133.0
39967,-0.632,-0.023,0.745,-0.206,0.008,-0.527,0.0,133.0
40024,-0.627,-0.010,0.741,-0.344,0.046,-0.809,0.0,133.0
40080,-0.635,-0.018,0.733,-0.282,1.206,-0.718,0.0,134.0
40136,-0.647,-0.019,0.735,-0.427,-0.160,-0.916,0.0,133.0
40193,-1.074,0.069,0.877,-6.779,-58.412,0.840,0.0,135.0
40252,-0.814,-0.115,0.735,-23.046,-234.099,10.389,0.0,136.0
40311,0.139,-0.044,0.773,-12.176,-152.336,-4.618,0.0,178.0
40368,0.529,0.048,0.557,18.023,99.198,-27.305,0.0,136.0
40425,-0.442,-0.151,0.893,-2.779,155.122,6.542,0.0,140.0
40481,-0.849,0.004,0.910,5.931,130.878,17.595,0.0,136.0
40538,-0.833,-0.007,0.771,3.000,26.313,-2.153,0.0,136.0
40594,-0.710,-0.049,0.804,0.412,-39.863,-3.435,0.0,135.0
40650,-0.451,0.010,0.816,0.672,-28.252,-1.374,0.0,135.0
40707,-0.401,-0.018,0.776,-0.061,13.511,-0.550,0.0,133.0
40766,-0.559,-0.015,0.793,1.107,41.229,-2.229,0.0,134.0
40822,-0.670,-0.018,0.792,-0.191,29.412,-0.405,0.0,137.0
40880,-0.657,-0.012,0.756,0.779,10.687,-0.588,0.0,138.0
40936,-0.644,-0.022,0.759,-0.145,-1.878,-1.107,0.0,139.0
40993,-0.597,-0.015,0.747,0.076,-1.053,-0.786,0.0,138.0
41050,-0.610,-0.014,0.755,-0.160,4.298,-1.000,0.0,138.0
41106,-0.625,-0.016,0.754,0.015,4.962,-1.000,0.0,138.0
41162,-0.635,-0.014,0.753,-0.198,3.069,-0.939,0.0,139.0
41220,-0.628,-0.020,0.742,-0.038,0.595,-0.893,0.0,138.0
41322,-0.618,-0.018,0.751,-0.282,-0.328,-1.023,0.0,139.0
41379,-0.625,-0.019,0.753,-0.305,2.588,-0.855,0.0,138.0
41436,-0.631,-0.007,0.752,-0.107,1.015,-0.725,0.0,138.0
41493,-0.632,-0.010,0.750,-0.137,-0.366,-1.008,0.0,139.0
41549,-0.625,-0.017,0.755,-0.221,0.069,-0.947,0.0,138.0
41607,-0.629,-0.021,0.751,-0.282,0.382,-0.962,0.0,138.0
41663,-0.621,-0.014,0.750,-0.191,0.237,-0.710,0.0,140.0
41720,-0.632,-0.017,0.755,-0.321,0.328,-0.947,0.0,138.0
41777,-0.625,-0.014,0.741,-0.336,-0.038,-0.931,0.0,138.0
41836,-0.625,-0.015,0.748,-0.374,-0.557,-0.916,0.0,138.0
41893,-0.622,-0.016,0.749,-0.305,-0.160,-0.893,0.0,138.0
41950,-0.625,-0.012,0.756,-0.145,0.496,-0.802,0.0,139.0
42007,-0.657,-0.007,0.756,-1.176,-4.672,-3.092,0.0,139.0
42064,-0.716,-0.035,0.801,0.206,-23.489,-4.298,0.0,136.0
42121,-0.754,-0.040,0.904,2.771,-64.908,8.931,0.0,133.0
42177,-0.474,0.025,0.896,16.046,-56.328,26.084,0.0,138.0
42234,-0.408,0.048,0.895,51.389,-23.458,60.069,0.0,143.0
42291,-0.365,0.163,0.759,26.679,17.061,-4.260,0.0,134.0
42351,-0.427,0.054,0.624,-0.954,-20.977,2.336,0.0,145.0
42408,-0.387,0.161,0.673,-26.420,9.588,-18.618,0.0,136.0
42465,-0.539,0.027,0.845,-45.153,22.328,-44.641,0.0,135.0
42522,-0.448,-0.041,0.897,-38.802,8.893,-43.389,0.0,133.0
42578,-0.697,0.037,0.981,11.099,53.847,10.374,0.0,133.0
42635,-0.459,-0.000,0.661,0.298,53.038,3.947,0.0,134.0
42692,-0.723,0.024,0.789,-4.672,32.107,-12.260,0.0,135.0
42748,-0.769,-0.038,0.792,1.603,6.611,-1.901,0.0,135.0
42805,-0.573,-0.003,0.722,-1.053,-13.542,-0.763,0.0,135.0
42865,-0.621,-0.016,0.780,0.008,-1.870,-1.534,0.0,135.0
42921,-0.597,-0.008,0.736,-0.718,3.290,-0.863,0.0,136.0
42979,-0.648,-0.013,0.765,-0.313,3.031,-0.626,0.0,135.0
43035,-0.620,-0.021,0.740,-0.420,-1.153,-1.130,0.0,136.0
43092,-0.624,-0.014,0.752,-0.206,-0.237,-0.985,0.0,135.0
43149,-0.623,-0.012,0.751,-0.305,0.473,-0.710,0.0,135.0
43206,-0.618,-0.022,0.749,-0.198,0.458,-0.786,0.0,136.0
43262,-0.620,-0.006,0.745,-0.374,1.458,-0.962,0.0,135.0
43320,-0.620,-0.014,0.751,-0.336,2.198,-0.855,0.0,135.0
43379,-0.631,-0.012,0.757,-0.275,1.718,-0.878,0.0,136.0
43437,-0.632,-0.015,0.748,-0.427,0.595,-0.962,0.0,136.0
43493,-0.627,-0.021,0.745,-0.099,1.244,-0.962,0.0,136.0
43550,-0.633,-0.009,0.750,-0.397,0.466,-0.710,0.0,136.0
43608,-0.634,-0.014,0.746,-0.252,0.702,-1.115,0.0,136.0
43664,-0.635,-0.018,0.753,-0.412,0.519,-0.992,0.0,137.0
43721,-0.632,-0.021,0.750,-0.305,0.649,-0.893,0.0,136.0
43778,-0.638,-0.017,0.754,-0.260,0.145,-0.832,0.0,137.0
43835,-0.624,-0.013,0.740,-0.137,-0.519,-0.870,0.0,136.0
43895,-0.640,-0.016,0.745,-0.214,1.244,-0.985,0.0,136.0
43952,-0.629,-0.012,0.742,-0.267,-0.634,-0.939,0.0,136.0
44009,-0.628,-0.011,0.746,-0.244,-0.053,-0.931,0.0,137.0
44066,-0.633,-0.012,0.747,-0.328,0.489,-0.824,0.0,136.0
44123,-0.633,-0.014,0.750,-0.344,-0.198,-0.840,0.0,136.0
44223,-0.626,-0.011,0.751,-0.023,-1.397,0.420,0.0,136.0
44280,-0.688,-0.083,0.856,2.863,5.092,8.687,0.0,134.0
44337,-0.681,0.005,0.727,43.145,35.771,69.947,0.0,134.0
44394,-0.642,0.235,0.737,36.473,38.756,61.710,0.0,141.0
44454,-0.544,0.049,0.563,-4.328,-20.359,-31.130,0.0,140.0
44512,-0.481,0.215,0.529,-24.137,-42.252,-25.244,0.0,142.0
44569,-0.836,0.096,0.895,-53.229,-13.626,-62.794,0.0,135.0
44626,-0.714,-0.266,0.829,-7.053,-37.412,-22.656,0.0,137.0
44684,-0.448,0.032,0.723,3.573,9.885,8.947,0.0,135.0
44740,-0.522,-0.014,0.691,-2.458,33.466,-6.763,0.0,135.0
44797,-0.759,-0.027,0.773,-0.527,40.046,-7.130,0.0,133.0
44855,-0.735,-0.016,0.709,0.679,16.511,-0.435,0.0,132.0
44911,-0.713,-0.017,0.699,-0.443,-5.229,-1.756,0.0,132.0
44972,-0.659,-0.016,0.714,-0.023,-6.832,-1.931,0.0,133.0
45029,-0.648,-0.014,0.698,-0.817,2.328,-0.863,0.0,131.0
45085,-0.688,-0.020,0.704,-0.160,5.939,-0.634,0.0,133.0
45143,-0.688,-0.015,0.705,-0.237,-0.168,-0.916,0.0,133.0
45199,-0.677,-0.014,0.700,-0.168,-2.229,-0.817,0.0,132.0
45256,-0.668,-0.013,0.706,-0.313,0.473,-1.031,0.0,132.0
45314,-0.677,-0.019,0.702,-0.420,0.931,-0.779,0.0,133.0
45370,-0.674,-0.015,0.704,-0.344,0.489,-0.832,0.0,133.0
45430,-0.676,-0.018,0.705,-0.374,-0.221,-0.832,0.0,131.0
45488,-0.683,-0.016,0.701,-0.397,0.038,-0.916,0.0,133.0
45544,-0.676,-0.014,0.697,-0.328,0.351,-0.817,0.0,133.0
45601,-0.669,-0.012,0.691,-0.351,0.634,-0.985,0.0,133.0
45659,-0.687,-0.022,0.703,-0.260,0.710,-0.977,0.0,132.0
45715,-0.681,-0.015,0.705,-0.237,-1.137,-0.870,0.0,133.0
45772,-0.672,-0.010,0.696,-0.290,0.382,-1.290,0.0,131.0
45830,-0.990,-0.014,0.756,-2.351,-37.840,-5.771,0.0,132.0
45887,-1.275,-0.009,0.850,-22.870,-229.160,-4.237,0.0,133.0
45947,0.038,-0.064,0.647,-5.099,-234.649,-0.656,0.0,136.0
46006,0.797,0.006,0.621,14.809,42.405,-13.397,0.0,153.0
46063,-0.056,-0.084,0.715,-1.840,223.603,4.489,0.0,135.0
46119,-1.038,0.017,0.787,1.878,250.130,10.527,0.0,133.0
46177,-1.153,-0.016,0.687,17.122,96.809,-2.863,0.0,133.0
46234,-0.914,0.077,0.575,-3.351,-5.000,-4.832,0.0,132.0
46291,-0.831,-0.022,0.650,0.260,-69.817,-0.885,0.0,134.0
46349,-0.571,-0.017,0.664,-1.359,-56.786,-0.084,0.0,133.0
46406,-0.503,-0.020,0.705,-0.588,-8.893,-1.221,0.0,133.0
46467,-0.615,-0.024,0.700,0.084,34.038,-0.870,0.0,132.0
46524,-0.734,-0.016,0.682,-0.069,34.099,-0.893,0.0,133.0
46580,-0.783,-0.017,0.691,-0.076,11.473,-0.664,0.0,133.0
46638,-0.731,-0.018,0.670,0.107,-9.748,-0.885,0.0,133.0
46695,-0.680,-0.021,0.686,-0.267,-8.840,-1.168,0.0,133.0
46752,-0.661,-0.017,0.674,-0.351,2.779,-0.771,0.0,133.0
46810,-0.711,-0.022,0.680,-0.466,6.550,-0.901,0.0,133.0
46867,-0.727,-0.017,0.671,-0.275,0.267,-0.863,0.0,134.0
46924,-0.705,-0.019,0.672,-0.206,-3.626,-0.992,0.0,134.0
46985,-0.687,-0.010,0.662,-0.374,-0.092,-0.824,0.0,134.0
47042,-0.702,-0.014,0.671,-0.427,1.870,-0.710,0.0,134.0
47142,-0.708,-0.027,0.674,-0.374,-0.695,-0.794,0.0,134.0
47200,-0.699,-0.018,0.673,-0.122,-0.634,-0.817,0.0,133.0
47257,-0.703,-0.011,0.672,-0.252,0.244,-0.893,0.0,133.0
47314,-0.768,-0.024,0.650,0.275,-3.153,-4.046,0.0,134.0
47379,-0.698,0.832,0.870,-6.664,50.595,-35.771,0.0,158.0
47437,-0.991,0.629,1.174,-19.939,83.634,58.489,0.0,173.0
47495,-1.534,-0.892,0.855,58.580,2.145,24.511,0.0,155.0
47555,-0.614,-0.309,0.052,88.099,40.313,4.328,0.0,143.0
47613,-0.562,-0.212,0.357,18.511,67.496,68.107,0.0,177.0
47672,-0.482,0.065,0.552,16.947,24.267,70.916,0.0,176.0
47731,-0.554,0.116,0.583,31.557,-18.489,62.053,0.0,177.0
47790,-0.408,0.230,0.323,25.763,-28.573,50.908,0.0,176.0
47841,-0.445,0.167,0.107,9.420,5.023,-5.809,57.0,174.0
47890,-0.672,0.373,0.260,-11.443,34.046,-50.435,52.0,172.0
47940,-0.911,0.448,0.375,-18.473,41.427,-59.397,57.0,170.0
48000,-1.047,0.339,0.408,-23.931,2.137,-61.336,0.0,168.0
48058,-0.824,0.535,0.900,35.992,44.008,-28.824,160.0,166.0
48116,-0.743,0.385,0.252,5.160,111.412,-34.244,161.0,0.0
48160,-1.082,0.191,0.114,16.168,125.061,-28.824,161.0,0.0
48210,-1.085,0.099,0.143,22.931,40.809,-39.099,162.0,71.0
48262,-0.740,0.189,-0.145,14.359,23.176,-59.153,163.0,69.0
48312,-0.796,-0.022,-0.253,11.855,94.260,-68.908,165.0,67.0
48363,-0.957,-0.112,-0.180,4.344,155.710,-76.725,168.0,64.0
48413,-0.998,-0.240,-0.150,14.336,129.954,-78.817,170.0,62.0
48467,-1.084,-0.245,-0.161,19.229,35.947,-108.557,173.0,61.0
48519,-0.911,-0.239,-0.354,10.069,-4.489,-116.427,176.0,60.0
48578,-0.946,-0.225,-0.491,-6.634,91.069,-112.886,180.0,0.0
48623,-1.106,-0.305,-0.471,-4.229,152.886,-24.626,183.0,0.0
48673,-1.286,-0.406,-0.287,4.977,84.863,17.947,0.0,9.0
48737,-0.971,-0.454,-0.394,14.038,-28.344,27.466,0.0,0.0
48783,-0.605,-0.330,-0.587,11.832,-29.824,6.130,185.0,0.0
48831,-0.546,-0.342,-0.644,3.672,37.992,-0.985,185.0,9.0
48880,-0.583,-0.320,-0.608,-0.618,100.160,2.672,0.0,7.0
48947,-0.762,-0.448,-0.573,0.107,105.198,-8.656,0.0,0.0
48994,-0.811,-0.393,-0.582,15.008,30.695,-14.969,0.0,0.0
49029,-0.747,-0.385,-0.706,11.931,-11.618,-11.870,0.0,5.0
49078,-0.628,-0.412,-0.831,2.527,-10.344,-11.405,0.0,5.0
49114,-0.679,-0.422,-0.743,-8.824,15.641,-8.252,0.0,5.0
49163,-0.739,-0.421,-0.659,-9.878,-1.237,-6.985,0.0,5.0
49215,-0.652,-0.416,-0.647,-9.244,-18.420,-4.931,0.0,5.0
49264,-0.644,-0.410,-0.625,-7.618,-7.191,-4.511,0.0,4.0
49317,-0.641,-0.409,-0.624,-6.672,-2.145,-5.260,0.0,4.0
49370,-0.628,-0.426,-0.655,-3.397,1.412,-5.458,0.0,4.0
49404,-0.652,-0.421,-0.642,-1.962,7.603,-5.565,0.0,4.0
49454,-0.661,-0.434,-0.659,1.031,8.115,-3.725,0.0,3.0
49489,-0.653,-0.408,-0.683,0.267,8.069,-4.015,0.0,3.0
49538,-0.654,-0.418,-0.679,-0.183,9.061,-2.985,0.0,3.0
49573,-0.663,-0.413,-0.677,1.153,0.702,-1.443,0.0,4.0
49623,-0.626,-0.410,-0.677,0.000,-0.725,-0.985,0.0,5.0
49676,-0.587,-0.432,-0.679,-0.046,8.069,-2.718,0.0,7.0
49768,-0.610,-0.428,-0.711,3.641,20.031,-1.748,0.0,3.0
49823,-0.654,-0.383,-0.653,1.420,32.824,3.344,0.0,2.0
49872,-0.618,-0.385,-0.583,4.061,39.832,11.305,0.0,3.0
49908,-0.645,-0.370,-0.530,3.374,91.084,22.412,0.0,4.0
49957,-0.883,-0.474,-0.283,5.985,103.305,36.695,0.0,4.0
49992,-0.956,-0.520,-0.371,60.244,43.733,55.031,0.0,6.0
50042,-0.836,-0.469,-0.479,72.191,-22.916,61.389,0.0,10.0
50096,-0.408,-0.598,-0.996,105.305,-60.000,85.061,0.0,15.0
50156,-0.226,-0.514,-1.145,78.573,-36.878,103.336,0.0,0.0
50193,-0.230,-0.400,-1.015,-2.634,59.924,34.435,23.0,0.0
50256,-0.459,-0.307,-0.691,-20.687,76.313,20.244,0.0,0.0
50293,-0.514,-0.459,-0.425,-0.153,55.137,36.435,30.0,0.0
50333,-0.523,-0.489,-0.296,25.198,22.679,28.374,24.0,19.0
50373,-0.485,-0.725,-0.521,67.504,26.122,23.908,22.0,19.0
50413,-0.678,-0.612,-0.546,102.061,15.763,18.649,22.0,17.0
50463,-0.637,-0.588,-0.722,108.359,1.847,21.183,21.0,0.0
50500,-0.522,-0.486,-0.509,111.893,23.725,25.977,19.0,0.0
50541,-0.603,-0.688,-0.282,139.237,18.244,53.618,17.0,24.0
50590,-0.900,-0.901,-0.099,188.504,-75.443,38.366,16.0,0.0
50630,-0.576,-0.707,-0.510,223.710,-132.160,-12.573,14.0,0.0
50680,-0.354,-0.868,-0.777,250.130,-54.565,11.527,14.0,0.0
50717,-0.774,-0.692,-0.241,249.008,-1.565,49.359,17.0,0.0
50771,-0.763,-0.820,-0.133,198.809,-47.260,39.656,0.0,103.0
50821,-0.918,-0.576,0.018,136.618,-82.458,-23.244,93.0,101.0
50866,-0.813,-0.785,0.262,93.145,-119.908,6.840,30.0,99.0
50913,-0.731,-0.759,0.310,89.237,-102.237,2.863,73.0,93.0
50960,-0.593,-0.723,0.397,118.664,-81.916,72.191,72.0,90.0
51011,-0.714,-0.796,0.389,116.817,-32.206,35.336,84.0,93.0
51056,-0.738,-0.375,0.500,98.260,0.649,11.084,36.0,90.0
51103,-0.763,-0.215,0.740,87.053,-25.702,38.267,84.0,91.0
51149,-0.945,-0.896,0.936,61.679,-86.260,-34.115,40.0,89.0
51196,-0.363,-0.476,0.530,31.160,29.053,-75.145,83.0,87.0
51239,-0.711,-0.049,0.796,-35.481,130.290,-55.641,76.0,13.0
51287,-0.858,-0.438,1.049,-34.290,-4.718,-49.565,76.0,90.0
51334,-0.652,-0.092,0.733,6.290,-103.053,-52.679,77.0,88.0
51379,-0.434,0.038,0.591,26.267,-49.878,-42.550,43.0,88.0
51430,-0.543,-0.304,0.996,46.267,-106.458,-53.107,77.0,90.0
51475,-0.063,-0.361,0.456,97.305,-7.779,-39.130,43.0,90.0
51521,-0.914,-0.451,0.938,126.687,60.702,-96.450,45.0,90.0
51566,-0.712,0.455,0.800,96.748,15.359,-90.489,47.0,91.0
51613,-0.476,0.823,0.774,75.435,57.779,-4.878,58.0,93.0
51659,-1.030,-0.555,1.278,21.107,-66.687,5.504,55.0,96.0
51706,-0.210,-0.138,1.292,12.954,-179.901,11.855,51.0,100.0
51752,1.833,-1.102,0.089,4.618,-116.924,14.603,50.0,102.0
51803,-0.761,0.046,1.170,22.382,121.244,-30.954,50.0,100.0
51849,-0.777,0.106,1.180,1.160,-66.855,-13.053,51.0,101.0
51894,0.296,-0.146,0.679,2.435,-51.809,12.214,27.0,101.0
51939,-0.281,-0.067,1.036,5.710,29.504,-16.191,25.0,102.0
51985,-0.421,-0.136,1.053,-0.443,-29.527,-0.244,35.0,102.0
52032,-0.041,-0.054,0.890,1.496,-25.901,5.450,50.0,102.0
52116,-0.408,-0.219,1.022,8.031,-43.580,-12.863,26.0,28.0
52161,-0.059,-0.020,0.936,7.573,-55.130,-8.641,26.0,103.0
52202,0.089,-0.070,0.881,1.969,-20.130,-7.573,25.0,28.0
52250,0.125,-0.080,0.841,-3.374,34.321,-16.031,25.0,102.0
52296,-0.052,-0.159,0.917,-2.191,69.153,-15.626,26.0,102.0
52341,-0.214,0.003,0.983,-0.489,79.962,-9.542,30.0,101.0
52382,-0.448,-0.121,1.035,-1.809,62.679,2.863,28.0,29.0
52427,-0.454,-0.073,1.009,-0.580,18.397,4.061,30.0,99.0
52473,-0.302,-0.104,0.945,-1.779,-0.221,5.305,29.0,100.0
52519,-0.277,-0.090,0.933,-1.641,9.076,3.985,51.0,100.0
52566,-0.318,-0.099,0.928,-2.244,11.580,4.435,36.0,99.0
52611,-0.321,-0.104,0.936,0.076,9.527,3.145,30.0,99.0
52659,-0.336,-0.090,0.938,0.664,8.893,0.656,29.0,99.0
52704,-0.355,-0.083,0.934,0.519,3.832,-2.206,29.0,100.0
52750,-0.338,-0.088,0.934,0.191,1.611,-3.115,30.0,99.0
52795,-0.349,-0.088,0.943,-0.382,-2.824,-1.916,30.0,100.0
52840,-0.300,-0.097,0.920,0.038,0.061,-1.954,30.0,100.0
52886,-0.349,-0.085,0.933,-0.359,2.794,-1.786,29.0,99.0
52931,-0.328,-0.091,0.921,-0.366,-0.366,-1.061,29.0,99.0
52976,-0.325,-0.087,0.919,-0.275,-1.168,-0.107,31.0,99.0
53022,-0.297,-0.094,0.917,-0.443,3.733,-0.382,29.0,99.0
53070,-0.354,-0.091,0.933,-0.656,4.160,-0.870,30.0,100.0
53116,-0.334,-0.093,0.925,-0.176,0.817,-1.015,30.0,99.0
53161,-0.333,-0.092,0.930,-0.305,1.641,-1.191,30.0,99.0
53207,-0.337,-0.089,0.928,-0.305,1.779,-0.809,30.0,99.0
53253,-0.335,-0.091,0.920,-0.298,1.023,-0.733,30.0,99.0
53298,-0.345,-0.083,0.919,0.000,0.336,-1.718,30.0,99.0
53344,-0.270,-0.125,0.855,2.053,-0.573,-5.466,51.0,99.0
53391,-0.468,-0.030,1.044,-4.557,10.748,-18.321,50.0,99.0
53436,-0.703,-0.179,1.021,-10.595,-53.771,-6.763,29.0,99.0
53485,0.128,-0.097,0.698,-10.756,-34.321,-19.840,29.0,99.0
53536,-0.307,-0.406,0.540,20.412,93.298,-14.870,39.0,99.0
53581,-0.824,-0.261,1.221,31.832,24.595,-22.695,37.0,99.0
53626,-0.162,0.198,0.780,-1.702,-98.779,-4.359,36.0,100.0
53671,0.330,-0.214,0.731,-4.725,16.725,6.145,36.0,100.0
53716,-0.468,-0.146,1.004,0.099,100.573,0.504,39.0,99.0
53763,-0.648,-0.052,1.049,0.840,13.496,5.260,51.0,99.0
53808,-0.526,-0.130,0.982,-7.740,-30.664,7.298,51.0,99.0
53854,-0.171,-0.061,0.900,-3.389,-47.092,12.038,50.0,99.0
53902,-0.031,-0.125,0.813,4.260,21.473,-7.458,51.0,100.0
53947,-0.391,-0.200,0.708,8.802,105.115,-12.420,43.0,100.0
53993,-0.864,-0.095,1.229,11.290,9.611,2.641,51.0,100.0
54039,0.059,0.177,0.785,-6.473,-84.748,-28.802,47.0,99.0
54084,-0.678,-0.315,1.094,20.076,94.702,-9.053,52.0,99.0
54130,-0.526,0.008,0.864,12.382,-36.840,-22.809,52.0,99.0
54175,-0.505,-0.129,0.865,-6.603,-15.214,-21.008,38.0,99.0
54220,-0.408,-0.234,0.827,-5.275,-61.344,-4.153,32.0,99.0
54267,-0.216,-0.123,0.913,3.053,-31.710,-5.305,31.0,100.0
54313,-0.191,-0.087,0.940,6.267,-29.702,11.557,50.0,101.0
54359,0.439,0.185,0.637,-6.870,37.053,17.756,29.0,101.0
54447,-0.941,-0.122,1.004,11.298,99.191,1.634,53.0,99.0
54493,-0.812,-0.096,0.808,-5.298,3.786,8.282,53.0,98.0
54539,-0.624,-0.097,0.896,-6.840,-57.924,7.214,52.0,99.0
54585,-0.300,-0.095,0.814,-4.290,-40.687,3.870,52.0,98.0
54631,-0.290,-0.075,0.831,-1.588,6.115,1.183,52.0,99.0
54676,-0.477,-0.081,0.886,-0.137,20.351,-0.275,52.0,99.0
54725,-0.547,-0.080,0.894,0.168,-1.160,-1.427,52.0,98.0
54771,-0.444,-0.087,0.866,-0.023,-8.351,-2.336,52.0,98.0
54817,-0.545,-0.075,0.903,-0.992,-15.107,-0.542,52.0,98.0
54862,-0.345,-0.052,0.922,-3.855,-28.634,2.687,52.0,98.0
54908,-0.216,-0.022,0.822,4.595,4.427,-5.145,50.0,98.0
54955,-0.503,-0.109,0.802,4.641,22.924,-2.565,52.0,97.0
55001,-0.674,-0.142,0.800,-0.641,-9.458,-2.504,52.0,97.0
55046,-0.595,-0.135,0.741,-13.183,-37.954,5.290,51.0,98.0
55092,-0.090,-0.002,1.167,-5.618,-80.557,1.756,50.0,99.0
55141,0.077,-0.074,0.665,-0.336,81.557,-7.534,51.0,98.0
55187,-0.564,-0.066,0.903,8.000,110.489,-4.504,52.0,99.0
55233,-0.821,-0.070,0.944,2.145,45.435,1.977,53.0,100.0
55279,-0.695,-0.062,0.898,-1.389,-36.145,-0.336,53.0,98.0
55325,-0.391,-0.096,0.834,-2.214,-52.534,0.802,52.0,98.0
55371,-0.251,-0.073,0.804,-1.901,-14.130,2.321,50.0,99.0
55416,-0.353,-0.075,0.852,-2.008,23.878,2.763,51.0,99.0
55462,-0.491,-0.083,0.873,-1.725,30.267,2.458,52.0,98.0
55508,-0.565,-0.079,0.910,-1.779,10.412,1.916,53.0,99.0
55558,-0.512,-0.084,0.876,-1.344,-6.618,0.534,53.0,98.0
55604,-0.443,-0.083,0.856,-0.496,-4.847,-0.344,53.0,99.0
55650,-0.459,-0.082,0.851,-0.038,3.458,-1.053,53.0,99.0
55696,-0.508,-0.079,0.869,0.046,-0.038,-1.267,53.0,98.0
55742,-0.465,-0.078,0.862,0.168,-5.107,-1.489,52.0,98.0
55788,-0.473,-0.083,0.861,-0.145,-1.374,-1.351,52.0,99.0
55834,-0.479,-0.081,0.867,-0.122,-3.588,-1.107,52.0,98.0
55880,-0.461,-0.079,0.871,-0.420,-2.305,-1.214,52.0,99.0
55926,-0.465,-0.084,0.868,-0.603,-0.947,-0.786,52.0,99.0
55975,-0.466,-0.087,0.875,-0.733,-2.489,-0.229,52.0,99.0
56022,-0.498,-0.093,0.898,-2.237,-8.053,1.130,52.0,98.0
56068,-0.452,-0.093,0.903,-2.466,-13.336,0.992,52.0,99.0
56114,-0.475,-0.066,0.878,-2.603,-18.504,0.908,52.0,98.0
56160,-0.396,-0.092,0.865,-1.550,-15.664,-2.916,52.0,99.0
56206,-0.366,-0.101,0.857,1.305,-20.496,-1.786,51.0,99.0
56252,-0.370,-0.096,0.883,3.901,7.191,-8.916,51.0,98.0
56298,-0.565,-0.083,0.943,0.084,-12.626,-2.412,45.0,99.0
56343,-0.393,-0.095,0.878,-0.817,-34.244,0.344,41.0,99.0
56392,-0.163,-0.062,0.834,0.137,-0.359,-2.863,48.0,98.0
56438,-0.232,-0.082,0.818,2.573,57.588,-6.115,42.0,98.0
56484,-0.589,-0.080,0.936,-0.443,42.977,-0.145,52.0,98.0
56530,-0.575,-0.089,0.925,-1.260,2.267,2.405,52.0,98.0
56577,-0.488,-0.109,0.874,-3.542,-19.817,3.649,52.0,99.0
56623,-0.348,-0.084,0.849,-1.733,-13.725,2.046,51.0,98.0
56669,-0.355,-0.084,0.857,-0.267,10.015,-0.664,51.0,98.0
56715,-0.459,-0.092,0.880,0.405,17.336,-0.664,52.0,99.0
56804,-0.464,-0.093,0.863,0.359,-4.092,-2.038,52.0,99.0
56854,-0.437,-0.078,0.878,0.573,-6.443,-2.015,52.0,100.0
56900,-0.399,-0.078,0.872,0.115,-3.305,-1.855,52.0,99.0
56946,-0.342,-0.052,0.835,1.565,20.336,-6.443,52.0,99.0
56992,-0.511,-0.090,0.903,3.718,18.321,-6.466,52.0,98.0
57039,-0.627,-0.073,0.895,3.115,-3.038,-6.458,53.0,99.0
57085,-0.711,-0.146,0.864,-10.809,-62.489,6.908,52.0,98.0
57132,-0.230,0.017,0.982,-3.267,-89.511,6.198,51.0,99.0
57178,0.197,-0.083,0.649,0.267,36.511,-9.466,44.0,99.0
57224,-0.460,-0.099,0.894,7.565,98.931,-10.252,50.0,99.0
57273,-0.965,-0.083,1.067,-3.084,3.489,8.763,53.0,99.0
57319,-0.475,-0.070,0.905,-4.992,-70.183,5.817,50.0,98.0
57365,-0.062,-0.075,0.766,-2.206,-20.611,1.969,40.0,99.0
57411,-0.254,-0.096,0.817,0.015,48.237,-2.260,39.0,99.0
57457,-0.531,-0.090,0.892,1.229,56.527,-0.168,52.0,98.0
57503,-0.623,-0.085,0.909,-0.038,24.237,0.748,53.0,99.0
57550,-0.567,-0.092,0.865,-0.740,-6.137,-0.427,53.0,98.0
57596,-0.456,-0.089,0.838,-0.382,-12.053,-0.740,52.0,99.0
57643,-0.448,-0.079,0.859,0.130,-4.603,-0.779,52.0,98.0
57693,-0.449,-0.083,0.860,-0.557,-1.573,-0.351,52.0,98.0
57739,-0.456,-0.085,0.862,-0.870,1.115,-0.061,53.0,99.0
57785,-0.485,-0.079,0.872,-0.603,1.718,-0.344,52.0,98.0
57832,-0.499,-0.090,0.866,-0.702,-2.412,0.046,53.0,99.0
57878,-0.455,-0.067,0.853,-0.198,-6.000,-1.718,52.0,99.0
57924,-0.345,-0.050,0.855,2.962,7.786,-5.710,52.0,99.0
57971,-0.495,-0.101,0.826,3.954,26.893,-7.137,52.0,99.0
58017,-0.789,-0.041,0.990,-3.176,-20.802,3.885,53.0,98.0
58064,-0.454,-0.130,0.872,-6.221,-66.214,5.908,53.0,99.0
58113,0.001,-0.070,0.705,-0.885,-5.137,-4.519,40.0,99.0
58160,-0.410,-0.074,0.887,3.527,63.061,-4.870,52.0,99.0
58206,-0.722,-0.099,0.924,0.733,23.969,-0.305,53.0,98.0
58253,-0.546,-0.081,0.900,-1.435,-23.771,1.901,53.0,99.0
58299,-0.386,-0.088,0.838,-1.664,-16.733,0.863,53.0,99.0
58346,-0.391,-0.082,0.852,-0.573,5.489,-0.634,53.0,98.0
58392,-0.502,-0.090,0.881,-0.641,2.725,0.061,52.0,98.0
58439,-0.456,-0.089,0.861,-0.748,-6.023,-0.008,53.0,99.0
58488,-0.423,-0.092,0.867,-0.214,-0.397,-0.511,53.0,99.0
58535,-0.466,-0.080,0.875,0.237,2.069,-1.511,53.0,99.0
58582,-0.452,-0.088,0.863,0.107,0.847,-1.237,53.0,99.0
58629,-0.471,-0.079,0.873,0.023,-1.237,-1.183,53.0,99.0
58675,-0.432,-0.084,0.868,-0.084,-2.336,-1.435,53.0,99.0
58722,-0.456,-0.089,0.873,0.237,1.336,-1.916,53.0,98.0
58768,-0.471,-0.075,0.891,0.061,-5.092,-1.756,52.0,98.0
58815,-0.426,-0.077,0.876,0.046,-4.527,-1.504,52.0,99.0
58861,-0.478,-0.072,0.855,1.023,-0.061,-3.817,53.0,98.0
58911,-0.489,-0.092,0.910,0.947,-18.092,-5.328,51.0,99.0
58957,-0.438,-0.113,0.884,3.275,-21.863,-10.802,47.0,99.0
59003,-0.459,-0.059,0.922,3.611,-29.321,-13.382,31.0,98.0
59048,-0.354,-0.083,0.906,2.321,-37.076,-9.191,29.0,99.0
59095,-0.293,-0.104,0.894,3.099,-25.450,-9.046,29.0,100.0
59183,-0.293,-0.033,0.914,0.496,-23.137,-5.267,29.0,100.0
59229,-0.245,-0.111,0.921,-1.313,-13.565,2.298,29.0,101.0
59274,-0.214,-0.094,0.899,-1.687,5.832,4.427,29.0,100.0
59320,-0.320,-0.096,0.944,-2.290,11.000,6.870,29.0,100.0
59368,-0.380,-0.050,0.981,-3.069,-3.573,9.840,29.0,99.0
59414,-0.283,-0.124,0.904,-4.145,-9.511,11.802,29.0,100.0
59459,-0.262,-0.046,0.945,-4.550,3.328,12.901,30.0,100.0
59505,-0.199,-0.118,0.864,-7.595,20.031,15.679,42.0,99.0
59557,-0.359,-0.082,0.960,-5.053,44.366,12.290,39.0,100.0
59601,-0.475,-0.077,1.019,-3.618,20.214,10.489,31.0,99.0
59648,-0.421,-0.096,0.910,-10.092,7.023,19.122,47.0,98.0
59693,-0.277,-0.058,0.874,-10.366,14.870,24.435,44.0,98.0
59738,-0.417,-0.163,0.923,-7.336,48.664,17.427,36.0,98.0
59786,-0.633,-0.129,0.699,-7.481,49.725,11.565,53.0,98.0
59832,-0.509,-0.094,1.031,-4.992,22.672,6.084,53.0,98.0
59878,-0.598,-0.097,0.850,2.305,8.069,-3.496,53.0,98.0
59923,-0.549,-0.088,0.847,-0.282,-12.260,-2.656,52.0,98.0
59969,-0.457,-0.105,0.823,0.756,-11.191,-1.809,53.0,98.0
60015,-0.469,-0.079,0.856,2.748,-4.779,-5.198,54.0,99.0
60060,-0.521,-0.083,0.877,3.641,-8.489,-7.496,53.0,98.0
60106,-0.487,-0.082,0.875,3.008,-17.809,-6.229,53.0,97.0
60152,-0.414,-0.072,0.856,1.382,-13.290,-3.145,54.0,98.0
60200,-0.390,-0.076,0.855,0.496,1.099,-2.290,51.0,98.0
60247,-0.426,-0.079,0.870,-1.763,10.580,1.557,52.0,98.0
60292,-0.471,-0.085,0.880,-2.160,10.740,1.389,54.0,97.0
60338,-0.501,-0.089,0.869,-2.885,6.618,2.511,55.0,98.0
60384,-0.575,-0.081,0.894,-5.038,-16.962,3.985,54.0,97.0
60430,-0.519,-0.098,0.896,-4.000,-32.840,8.824,54.0,98.0
60475,-0.375,-0.090,0.881,2.130,-53.336,11.893,36.0,98.0
60520,-0.024,-0.097,0.800,0.244,1.069,-4.473,53.0,98.0
60566,-0.395,-0.141,0.740,10.534,93.977,-27.634,52.0,98.0
60615,-1.215,-0.033,1.078,2.924,-7.313,1.260,52.0,97.0
60660,-0.477,-0.015,0.894,-11.038,-126.779,16.947,51.0,99.0
60706,0.438,-0.180,0.513,-2.794,-19.992,-3.626,38.0,99.0
60751,-0.231,-0.143,0.840,0.985,128.840,-14.939,51.0,98.0
60797,-0.889,-0.072,0.984,2.954,83.847,-3.321,54.0,97.0
60844,-0.815,-0.079,0.916,-2.511,-25.863,1.473,55.0,98.0
60890,-0.394,-0.104,0.837,-2.275,-52.969,2.893,54.0,97.0
60936,-0.239,-0.090,0.795,-0.244,-6.878,0.122,54.0,97.0
60982,-0.382,-0.090,0.833,0.870,28.901,-3.122,54.0,97.0
61031,-0.559,-0.089,0.884,0.023,21.229,-2.099,54.0,98.0
61076,-0.562,-0.089,0.874,-0.489,-5.832,-0.908,54.0,99.0
61122,-0.457,-0.090,0.855,-0.450,-10.176,-0.969,54.0,99.0
61168,-0.435,-0.092,0.849,-0.489,-4.664,-0.809,54.0,98.0
61214,-0.427,-0.086,0.861,0.321,11.939,-2.458,54.0,98.0
61260,-0.468,-0.081,0.819,1.359,14.939,-2.885,53.0,98.0
61306,-0.576,-0.090,0.869,1.435,6.786,-4.382,54.0,98.0
61352,-0.678,-0.074,0.913,-3.725,-31.771,0.916,54.0,98.0
61399,-0.382,-0.114,0.891,-5.573,-64.183,8.321,53.0,98.0
61448,0.245,-0.085,0.725,4.847,38.771,-8.618,52.0,97.0
61537,-1.472,0.021,1.092,-1.099,-43.481,7.855,54.0,97.0
61583,-0.335,-0.036,0.982,-10.618,-179.374,15.038,52.0,98.0
61629,0.461,-0.087,0.556,3.771,34.565,-10.756,47.0,99.0
61675,-0.731,-0.083,1.024,3.198,74.061,-2.420,52.0,97.0
61721,-0.534,-0.074,0.895,-4.092,-5.779,1.985,53.0,98.0
61766,-0.409,-0.098,0.861,1.443,5.939,-3.641,52.0,97.0
61812,-0.577,-0.095,0.926,-1.115,-14.176,2.458,52.0,99.0
61858,-0.281,-0.069,0.845,-2.183,-16.382,3.458,52.0,98.0
61902,-0.365,-0.089,0.845,0.206,37.374,-3.733,52.0,98.0
61948,-0.779,-0.132,0.950,-4.397,-15.076,5.214,52.0,97.0
61995,-0.190,-0.023,0.900,-2.466,-48.298,7.328,50.0,99.0
62041,-0.012,-0.093,0.723,3.374,73.695,-11.901,52.0,98.0
62087,-1.066,-0.099,0.990,3.992,68.191,-5.695,54.0,98.0
62133,-0.902,-0.113,1.042,-8.359,-98.466,7.985,53.0,97.0
62179,0.275,-0.079,0.617,0.084,-72.313,5.198,51.0,98.0
62225,-0.168,-0.152,0.768,2.260,105.107,-17.412,52.0,97.0
62283,-1.128,-0.126,1.055,-2.214,-22.458,7.878,54.0,98.0
62331,-0.132,-0.085,0.787,-2.901,-72.947,6.275,53.0,99.0
62381,-0.184,-0.065,0.794,1.863,52.565,-7.534,54.0,97.0
62429,-0.814,-0.070,1.016,1.153,21.221,0.672,55.0,97.0
62477,-0.606,-0.121,0.911,-3.733,-47.641,4.695,37.0,97.0
62524,-0.318,-0.092,0.814,-1.298,-42.809,4.008,39.0,98.0
62572,0.096,-0.067,0.661,-1.382,17.809,-3.786,30.0,99.0
62620,-0.607,-0.169,0.887,1.496,88.321,-9.802,54.0,98.0
62669,-1.089,-0.204,0.962,-5.351,-35.366,10.107,54.0,98.0
62720,-0.008,0.058,0.801,2.260,-109.542,13.641,30.0,99.0
62767,0.146,-0.108,0.638,0.473,80.710,-12.969,31.0,99.0
62816,-0.857,-0.125,0.958,3.305,102.992,-10.573,55.0,98.0
62864,-0.996,-0.141,0.977,-6.603,-60.023,7.840,54.0,97.0
62912,-0.081,-0.081,0.777,0.344,-84.061,8.427,37.0,98.0
62959,0.007,-0.075,0.710,-0.328,62.191,-11.443,30.0,98.0
63008,-0.659,-0.105,0.944,3.557,75.198,-6.695,54.0,97.0
63057,-0.787,-0.091,0.891,0.061,0.160,-1.725,54.0,98.0
63106,-0.604,-0.118,0.902,-4.328,-56.626,5.267,54.0,98.0
63157,-0.329,-0.104,0.845,-2.176,-45.847,3.450,37.0,98.0
63204,-0.016,-0.014,0.755,0.443,-8.160,1.160,31.0,99.0
63253,-0.360,-0.139,0.854,0.481,87.649,-8.969,54.0,97.0
63301,-0.943,-0.102,0.954,2.344,34.924,-3.947,54.0,98.0
63350,-0.809,-0.183,0.960,-5.931,-90.886,5.565,54.0,97.0
63397,0.192,-0.019,0.634,1.275,-73.053,9.122,29.0,98.0
63446,-0.052,-0.108,0.753,0.046,105.122,-15.802,37.0,98.0
63495,-0.972,-0.127,0.995,3.969,83.679,-5.466,54.0,98.0
63543,-0.906,-0.081,0.953,-6.298,-68.939,5.603,54.0,98.0
63594,-0.042,-0.061,0.778,1.031,-78.969,7.023,31.0,98.0
63643,-0.088,-0.089,0.757,0.076,60.908,-9.206,54.0,99.0
63691,-0.856,-0.092,0.972,0.595,56.198,-3.061,54.0,98.0
63740,-0.706,-0.137,0.918,-2.809,-67.756,2.573,54.0,98.0
63789,0.012,-0.075,0.732,0.420,-43.969,3.603,38.0,98.0
63837,-0.250,-0.063,0.822,1.092,74.649,-8.573,40.0,98.0
63885,-0.938,-0.079,0.989,-0.389,33.969,-1.252,54.0,98.0
