Timestamp(ms),AccelX(g),AccelY(g),AccelZ(g),GyroX(deg/s),GyroY(deg/s),GyroZ(deg/s),DistanceLeft(cm),DistanceRight(cm)
33132,-0.744,-0.713,0.160,7.206,51.718,-108.206,149.0,90.0
33177,-1.324,-0.927,0.182,13.687,69.275,-125.580,50.0,88.0
33222,-1.703,-0.713,0.190,24.977,77.824,-127.802,43.0,89.0
33267,-1.757,-0.362,0.213,29.802,69.489,-80.771,53.0,89.0
33321,-1.396,0.052,0.220,26.405,38.847,-38.740,0.0,93.0
33376,-1.008,0.510,0.289,13.061,13.351,12.656,0.0,105.0
33430,-0.604,0.660,0.285,-5.038,-26.573,79.374,0.0,98.0
33478,-0.681,0.504,0.143,-65.176,-45.534,154.733,44.0,94.0
33523,-1.183,0.231,-0.311,-113.588,-22.748,191.328,49.0,92.0
33568,-2.000,-0.299,-0.335,-120.198,-17.908,177.305,39.0,92.0
33613,-2.000,-0.547,-0.465,-99.267,-105.183,176.305,36.0,94.0
33658,-1.415,-0.673,-0.441,-83.214,-75.122,138.992,33.0,98.0
33703,-0.734,-0.493,-0.249,-73.519,-10.328,70.351,44.0,103.0
33750,-0.420,-0.443,-0.131,-67.015,23.954,-1.176,38.0,105.0
33795,-0.133,-0.446,-0.024,-58.031,7.015,-79.878,31.0,107.0
33841,0.159,-0.466,-0.103,-43.832,0.763,-122.420,41.0,107.0
33889,0.022,-0.553,-0.049,-22.023,11.137,-133.847,41.0,101.0
33934,-0.991,-0.901,-0.197,19.389,27.237,-150.672,36.0,100.0
33979,-2.000,-0.924,-0.122,80.908,81.794,-136.198,38.0,95.0
34025,-2.000,-0.661,0.112,105.473,98.489,-57.863,50.0,101.0
34071,-1.681,-0.155,0.259,88.176,38.481,-25.908,49.0,107.0
34126,-1.020,0.124,0.114,69.687,-0.702,-31.244,0.0,104.0
34181,-0.550,0.603,0.090,23.779,-3.099,-20.298,0.0,104.0
34237,-0.292,0.846,0.199,-51.130,-15.550,16.038,0.0,123.0
34295,-0.671,0.760,-0.000,-124.405,-47.771,99.069,0.0,111.0
34340,-1.754,0.260,-0.710,-148.046,-20.336,142.595,50.0,96.0
34386,-2.000,-0.637,-0.800,-144.863,-28.740,119.863,45.0,94.0
34433,-2.000,-0.678,-0.466,-132.321,-60.916,103.183,47.0,103.0
34478,-1.380,-0.625,-0.406,-110.084,-52.756,84.290,44.0,99.0
34524,-0.548,-0.430,-0.158,-95.122,-32.099,71.389,36.0,105.0
34570,0.069,-0.556,-0.202,-67.992,-38.710,28.962,38.0,111.0
34615,0.488,-0.647,-0.292,-18.252,-39.656,-17.023,37.0,108.0
34664,0.252,-0.616,-0.174,23.954,-12.710,-51.344,37.0,111.0
34709,-0.931,-0.887,-0.357,71.176,19.718,-133.985,32.0,107.0
34754,-2.000,-0.838,-0.196,78.107,123.435,-174.786,36.0,96.0
34800,-2.000,-0.404,0.121,55.954,116.229,-73.038,46.0,99.0
34846,-1.907,-0.128,0.044,47.061,4.977,-56.611,47.0,101.0
34900,-0.986,0.214,-0.118,53.252,-23.649,-42.817,0.0,102.0
34956,-0.519,0.541,0.044,33.817,35.397,-29.794,0.0,108.0
35011,-0.378,0.681,0.306,-3.145,14.573,10.519,0.0,105.0
35066,-0.480,0.684,0.176,-54.611,-43.267,66.313,0.0,102.0
35116,-1.377,0.537,-0.644,-125.267,-1.389,116.557,48.0,97.0
35161,-2.000,-0.612,-1.061,-141.771,16.412,87.886,47.0,95.0
35206,-2.000,-0.594,-0.569,-144.038,-76.847,124.427,38.0,97.0
35261,-1.227,-0.804,-0.565,-128.351,-65.015,103.931,0.0,103.0
35316,-0.271,-0.602,-0.207,-114.168,-16.420,46.000,0.0,107.0
35362,0.356,-0.706,-0.220,-77.901,-21.481,-22.649,36.0,117.0
35408,0.463,-0.745,-0.395,-8.817,-8.412,-83.153,38.0,106.0
35454,-0.068,-0.735,-0.220,45.771,-1.534,-110.802,39.0,102.0
35503,-1.819,-1.113,-0.325,107.847,72.649,-152.176,38.0,101.0
35592,-2.000,-0.442,0.382,76.130,74.886,-10.336,47.0,94.0
35638,-1.410,-0.293,0.026,97.977,-23.038,-29.359,48.0,98.0
35684,-0.656,0.262,-0.114,108.008,9.458,-25.359,51.0,102.0
35730,-0.502,0.752,0.053,65.740,35.069,-18.015,48.0,106.0
35777,-0.410,0.844,0.208,-2.145,-3.824,12.130,50.0,108.0
35823,-0.500,0.694,0.201,-62.992,-36.099,84.664,50.0,102.0
35869,-0.837,0.300,-0.104,-83.901,-38.855,150.649,46.0,98.0
35914,-2.000,-0.123,-0.145,-84.718,6.840,110.260,38.0,95.0
35972,-2.000,-0.884,-0.444,-35.878,-36.565,86.420,0.0,97.0
36018,-1.279,-0.511,-0.114,-51.458,-43.748,112.183,47.0,101.0
36064,-0.483,-0.331,-0.031,-68.679,-24.519,51.374,33.0,106.0
36110,-0.081,-0.429,-0.138,-56.695,-30.374,-0.321,33.0,107.0
36156,0.488,-0.439,-0.376,-32.870,-65.763,-43.977,38.0,115.0
36201,0.354,-0.647,-0.450,-8.794,-1.099,-82.206,30.0,106.0
36247,-0.887,-1.114,-0.379,78.275,68.328,-126.000,32.0,104.0
36292,-2.000,-1.262,-0.118,160.718,210.092,-130.237,36.0,94.0
36349,-2.000,-0.269,0.759,108.603,140.565,-57.679,0.0,96.0
36405,-1.555,-0.096,-0.236,120.702,-22.824,-72.382,0.0,97.0
36460,-0.711,0.677,-0.176,117.611,56.084,-33.870,0.0,110.0
36507,-0.579,0.832,0.167,65.290,58.176,12.053,47.0,99.0
36553,-0.370,0.657,0.339,5.252,-5.290,57.847,51.0,98.0
36600,-0.431,0.487,0.154,-46.863,-24.069,108.611,45.0,120.0
36645,-1.046,0.255,-0.206,-93.206,-3.000,147.511,45.0,92.0
36690,-2.000,-0.357,-0.267,-100.450,-19.901,109.802,36.0,90.0
36745,-2.000,-0.754,-0.393,-63.931,-84.130,85.855,0.0,91.0
36794,-1.249,-0.459,-0.176,-39.977,-16.435,70.122,32.0,96.0
36840,-0.702,-0.311,0.025,-37.733,7.267,42.267,44.0,100.0
36886,-0.195,-0.406,-0.130,-22.344,-18.809,12.779,43.0,103.0
36941,0.369,-0.569,-0.294,6.084,-23.489,-25.466,0.0,105.0
36986,0.233,-0.682,-0.344,49.702,9.405,-70.153,30.0,102.0
37042,-0.690,-0.741,-0.128,117.160,27.557,-118.366,0.0,96.0
37087,-2.000,-0.978,-0.431,208.481,125.580,-187.565,36.0,91.0
37133,-2.000,-0.319,0.157,145.565,125.580,-60.679,45.0,91.0
37190,-1.731,-0.120,-0.222,126.962,-0.405,-56.542,0.0,93.0
37236,-0.655,0.357,-0.315,134.031,0.931,-37.779,47.0,96.0
37292,-0.390,0.703,-0.070,101.794,52.275,-19.947,0.0,98.0
37346,-0.308,0.636,0.166,40.962,31.405,7.771,0.0,98.0
37401,-0.670,0.500,0.167,-26.840,0.351,82.099,0.0,93.0
37446,-1.873,0.218,-0.190,-77.962,35.992,128.313,47.0,91.0
37492,-2.000,-0.943,-0.344,-54.031,-30.321,111.221,51.0,89.0
37547,-2.000,-0.772,-0.048,-38.710,-46.656,111.611,0.0,84.0
37592,-0.953,-0.477,-0.000,-45.000,-32.122,63.557,36.0,87.0
37640,-0.286,-0.398,-0.097,-33.153,-31.298,24.771,30.0,91.0
37694,0.145,-0.579,-0.183,-10.939,-27.435,3.321,0.0,86.0
37750,0.266,-0.692,-0.367,53.076,-21.786,-7.450,0.0,103.0
37794,-0.384,-0.847,-0.275,147.237,5.489,-50.573,30.0,82.0
37838,-1.791,-0.794,-0.405,221.893,75.153,-131.282,31.0,76.0
37882,-2.000,-0.235,-0.051,197.641,160.794,-131.099,34.0,73.0
37927,-2.000,-0.227,0.107,130.168,39.779,-66.344,46.0,74.0
37982,-1.268,0.215,-0.185,134.573,-53.061,-63.573,0.0,78.0
38080,-0.270,0.966,0.077,91.092,62.863,-20.198,43.0,0.0
38118,-0.322,0.821,0.267,22.878,24.580,40.366,46.0,0.0
38172,-0.661,0.454,0.162,-30.748,12.168,102.695,0.0,77.0
38217,-1.754,0.115,-0.103,-67.840,58.061,162.847,47.0,79.0
38272,-2.000,-1.082,-0.279,-47.794,-30.718,105.275,0.0,84.0
38317,-1.988,-0.649,0.018,-26.672,-44.313,84.374,32.0,91.0
38363,-1.074,-0.446,0.011,-34.588,-24.824,40.031,42.0,95.0
38409,-0.470,-0.284,0.020,-33.069,-39.237,7.168,33.0,99.0
38464,-0.027,-0.503,-0.222,-1.099,-55.122,-24.695,0.0,102.0
38513,0.516,-0.505,-0.474,65.328,-47.359,-36.534,30.0,101.0
38559,0.112,-0.701,-0.316,115.458,14.626,-74.802,40.0,97.0
38604,-1.570,-1.276,-0.701,185.595,64.107,-160.565,34.0,93.0
38650,-2.000,-0.665,-0.167,169.534,169.687,-151.901,49.0,89.0
38705,-2.000,-0.260,0.239,102.481,90.504,-45.336,0.0,90.0
38760,-1.232,0.062,-0.090,129.313,-24.718,-53.794,0.0,93.0
38815,-0.463,0.603,-0.242,130.008,35.893,-36.931,0.0,97.0
38871,-0.385,0.877,0.247,79.374,56.344,-0.160,0.0,98.0
38929,-0.587,0.616,0.240,6.916,-7.809,68.779,0.0,95.0
38983,-1.058,0.341,-0.007,-65.061,-6.840,150.649,0.0,90.0
39029,-2.000,-0.500,-0.121,-111.344,-29.435,160.435,47.0,89.0
39075,-2.000,-0.586,-0.199,-94.588,-92.832,165.763,36.0,92.0
39121,-1.433,-0.652,-0.074,-74.924,-75.832,140.870,38.0,97.0
39168,-0.673,-0.534,0.009,-51.611,-51.511,72.366,41.0,103.0
39215,-0.031,-0.634,-0.091,-30.740,-40.649,7.908,38.0,107.0
39261,0.603,-0.865,-0.440,9.137,-6.519,-72.824,29.0,107.0
39321,0.459,-0.773,-0.517,69.611,61.473,-134.473,0.0,102.0
39369,-1.202,-1.119,-0.575,128.389,110.817,-207.458,43.0,95.0
39415,-2.000,-0.661,-0.504,164.863,188.985,-188.321,46.0,91.0
39469,-2.000,-0.275,-0.077,117.435,149.947,-55.557,0.0,91.0
39523,-1.591,0.027,0.035,91.679,-26.924,-30.641,0.0,95.0
39577,-0.586,0.461,-0.090,102.443,-10.542,-22.412,0.0,98.0
39631,-0.411,0.816,0.234,60.931,11.969,-1.359,0.0,100.0
39686,-0.335,0.724,0.263,-6.893,-26.824,44.023,0.0,98.0
39740,-0.788,0.459,-0.094,-79.115,-9.969,117.618,0.0,93.0
39797,-2.000,0.199,-0.305,-144.489,-0.237,148.947,0.0,91.0
39842,-2.000,-0.674,-0.740,-147.183,-127.901,127.573,46.0,92.0
39887,-1.653,-0.914,-0.617,-114.511,-88.931,117.420,37.0,97.0
39932,-0.818,-0.622,-0.228,-72.809,-31.695,68.427,33.0,102.0
39987,-0.180,-0.678,-0.146,-50.565,-56.267,20.351,0.0,108.0
40033,0.572,-0.735,-0.262,-5.786,-51.298,-82.282,36.0,108.0
40088,0.354,-0.775,-0.327,52.580,-17.779,-145.794,0.0,106.0
40133,-0.603,-0.698,-0.395,101.985,58.511,-176.298,40.0,100.0
40187,-1.969,-0.608,-0.395,134.786,179.458,-169.023,0.0,95.0
40245,-2.000,-0.115,0.201,107.718,181.672,-56.824,0.0,93.0
40299,-1.641,-0.054,0.179,68.656,-36.053,-26.443,0.0,96.0
40353,-0.497,0.412,0.024,65.252,7.412,-22.336,0.0,100.0
40409,-0.511,0.596,0.264,29.534,29.260,7.725,0.0,101.0
40463,-0.413,0.536,0.178,-27.664,-16.298,60.069,0.0,98.0
40517,-0.894,0.296,-0.089,-85.672,-7.725,131.359,0.0,94.0
40571,-2.000,-0.063,-0.355,-118.290,-0.237,127.046,0.0,93.0
40659,-1.462,-0.700,-0.427,-107.802,-71.290,83.458,43.0,98.0
40709,-0.695,-0.453,-0.094,-91.664,-26.321,39.389,38.0,106.0
40754,0.015,-0.538,-0.095,-59.038,-39.824,4.008,32.0,108.0
40799,0.542,-0.691,-0.303,-9.092,-31.412,-63.924,32.0,107.0
40845,0.530,-0.638,-0.391,40.779,-1.061,-101.359,32.0,105.0
40890,-0.259,-0.794,-0.337,83.282,41.450,-133.252,40.0,100.0
40935,-2.000,-1.036,-0.612,146.198,131.382,-186.962,46.0,94.0
40989,-2.000,-0.456,-0.031,100.969,173.794,-48.191,0.0,91.0
41043,-1.928,-0.216,0.217,43.252,28.435,-12.649,0.0,93.0
41099,-0.951,0.089,0.005,77.573,2.802,-28.992,0.0,97.0
41156,-0.481,0.588,0.167,65.802,35.916,-9.481,0.0,99.0
41210,-0.318,0.652,0.262,9.389,7.840,11.275,0.0,100.0
41265,-0.638,0.523,0.173,-71.618,-52.962,67.687,0.0,96.0
41319,-1.505,0.459,-0.406,-116.076,-38.511,111.145,0.0,92.0
41365,-2.000,-0.661,-0.662,-124.275,-73.649,128.282,47.0,92.0
41410,-2.000,-0.734,-0.385,-103.855,-116.702,136.870,43.0,95.0
41456,-1.076,-0.808,-0.452,-71.466,-78.008,101.985,34.0,101.0
41501,-0.399,-0.594,-0.124,-52.061,-18.664,61.038,32.0,106.0
41560,0.090,-0.680,-0.156,-24.115,-10.931,4.969,0.0,109.0
41615,0.466,-0.639,-0.328,31.840,11.771,-76.450,0.0,107.0
41661,0.179,-0.562,-0.124,86.824,54.023,-137.908,40.0,103.0
41706,-1.797,-1.014,-0.628,154.176,75.809,-224.481,45.0,97.0
41752,-2.000,-0.590,-0.357,130.046,138.626,-128.160,47.0,93.0
41806,-2.000,-0.182,0.068,76.840,118.687,-30.947,0.0,93.0
41861,-1.497,-0.037,0.046,56.771,2.855,-33.282,0.0,96.0
41916,-0.667,0.401,0.120,55.603,12.725,-19.115,0.0,99.0
41971,-0.431,0.642,0.392,29.092,-3.954,-0.595,0.0,101.0
42029,-0.255,0.672,0.238,-30.389,-53.313,43.992,0.0,99.0
42083,-0.894,0.334,-0.305,-85.939,-50.840,104.336,0.0,95.0
42137,-2.000,-0.537,-0.528,-95.305,-17.099,124.794,0.0,92.0
42183,-2.000,-0.809,-0.269,-94.763,-70.076,128.779,44.0,95.0
42229,-1.289,-0.642,-0.171,-78.901,-45.130,96.679,44.0,100.0
42275,-0.618,-0.435,0.017,-80.282,-15.824,66.763,34.0,105.0
42321,-0.148,-0.582,-0.064,-68.000,-17.702,9.595,40.0,109.0
42368,0.504,-0.591,-0.326,-25.420,-19.863,-22.939,37.0,110.0
42417,0.493,-0.714,-0.494,32.489,28.885,-62.489,36.0,108.0
42463,-0.212,-0.700,-0.155,73.985,44.740,-121.137,43.0,102.0
42508,-2.000,-0.986,-0.469,135.893,39.817,-183.679,43.0,97.0
42563,-2.000,-0.415,-0.207,110.679,142.420,-122.382,0.0,93.0
42617,-2.000,-0.209,0.305,54.855,32.061,-45.420,0.0,97.0
42673,-1.042,0.082,0.094,84.527,-25.122,-40.809,0.0,99.0
42727,-0.507,0.564,0.158,83.084,21.718,-19.511,0.0,102.0
42782,-0.272,0.619,0.171,41.908,23.542,13.519,0.0,102.0
42838,-0.526,0.580,0.164,-40.198,-3.939,64.977,0.0,99.0
42895,-1.364,0.461,-0.210,-106.214,0.763,112.985,0.0,96.0
42950,-2.000,-0.532,-0.483,-115.847,-43.389,127.763,0.0,94.0
42995,-2.000,-0.779,-0.410,-93.344,-82.000,115.886,37.0,97.0
43041,-1.027,-0.578,-0.150,-79.145,-29.229,81.336,35.0,101.0
43087,-0.559,-0.488,-0.007,-84.573,-22.084,44.710,41.0,106.0
43133,0.039,-0.654,-0.176,-63.519,-39.534,-11.252,43.0,107.0
43224,0.300,-0.770,-0.449,24.252,7.115,-81.443,43.0,105.0
43270,-0.967,-1.100,-0.604,108.626,74.649,-147.412,44.0,99.0
43319,-2.000,-0.896,-0.277,131.595,179.603,-155.824,47.0,94.0
43373,-2.000,-0.402,0.297,65.489,79.176,-76.939,0.0,94.0
43428,-1.404,-0.110,-0.070,65.076,11.603,-81.748,0.0,99.0
43484,-0.790,0.318,0.027,71.977,53.427,-40.466,0.0,102.0
43539,-0.581,0.706,0.317,46.802,26.382,-7.298,0.0,102.0
43599,-0.409,0.719,0.295,-3.359,-33.412,45.267,0.0,0.0
43646,-0.804,0.551,-0.054,-88.962,-28.557,130.534,0.0,0.0
43687,-2.000,0.107,-0.293,-124.817,-17.053,150.443,0.0,98.0
43734,-2.000,-0.719,-0.570,-101.710,-124.092,143.282,45.0,95.0
43783,-1.907,-0.687,-0.629,-81.870,-87.954,145.870,35.0,101.0
43829,-0.975,-0.407,-0.306,-92.511,-6.634,104.351,40.0,106.0
43885,-0.453,-0.547,-0.167,-93.130,-29.733,53.359,0.0,110.0
43940,0.368,-0.707,-0.312,-62.046,-29.893,-26.695,0.0,115.0
43987,0.471,-0.742,-0.279,-3.092,28.092,-66.725,38.0,110.0
44043,-0.155,-0.842,-0.047,60.267,60.336,-116.504,0.0,104.0
44089,-2.000,-1.087,-0.453,176.603,105.099,-205.107,44.0,98.0
44144,-2.000,-0.282,-0.297,164.420,185.198,-112.710,0.0,94.0
44203,-2.000,0.024,0.179,84.221,-7.046,-48.221,0.0,97.0
44257,-0.806,0.392,-0.070,74.092,-16.710,-52.160,0.0,101.0
44313,-0.450,0.700,0.105,37.145,31.244,-25.916,0.0,109.0
44368,-0.359,0.576,0.206,-11.237,0.649,19.130,0.0,102.0
44424,-0.444,0.510,0.085,-75.832,-42.115,78.779,0.0,99.0
44470,-1.350,0.296,-0.546,-99.466,-7.718,106.695,48.0,101.0
44525,-2.000,-0.615,-0.454,-105.000,-16.389,122.886,0.0,95.0
44571,-2.000,-0.787,-0.192,-120.924,-70.756,147.817,44.0,96.0
44617,-1.232,-0.617,-0.073,-95.863,-57.924,98.321,43.0,102.0
44677,-0.442,-0.449,-0.052,-85.458,-51.595,48.710,0.0,109.0
44733,0.432,-0.687,-0.315,-37.282,-42.015,-41.473,0.0,109.0
44788,0.596,-0.630,-0.468,4.786,8.710,-105.840,0.0,106.0
44835,-0.344,-0.938,-0.532,54.198,72.786,-143.771,45.0,101.0
44881,-1.978,-1.102,-0.475,114.084,143.412,-192.260,51.0,94.0
44928,-2.000,-0.625,-0.050,103.725,147.481,-96.084,50.0,94.0
44983,-2.000,-0.366,0.114,98.473,58.748,-32.809,0.0,93.0
45038,-1.319,-0.034,-0.055,120.710,17.191,6.366,0.0,99.0
45096,-0.698,0.477,0.053,114.740,43.786,31.450,0.0,105.0
45153,-0.307,0.601,0.242,68.328,16.756,40.542,0.0,102.0
45207,-0.159,0.502,0.193,-18.588,-15.466,56.695,0.0,99.0
45262,-0.744,0.202,-0.215,-90.847,-13.412,88.634,0.0,95.0
45308,-2.000,-0.340,-0.169,-108.260,-24.099,86.817,47.0,93.0
45355,-2.000,-0.568,-0.164,-98.206,-77.725,119.328,38.0,95.0
45402,-1.659,-0.661,-0.199,-67.275,-53.771,116.534,41.0,103.0
45457,-0.885,-0.412,0.010,-48.679,-22.015,84.466,0.0,104.0
45504,-0.204,-0.504,-0.091,-31.015,-39.069,24.771,42.0,108.0
45563,0.485,-0.595,-0.364,4.870,-24.221,-49.344,0.0,108.0
45619,0.447,-0.580,-0.429,50.664,56.679,-102.649,0.0,105.0
45674,-0.919,-0.946,-0.403,112.695,87.473,-153.275,0.0,99.0
45729,-2.000,-1.042,-0.531,144.794,105.924,-138.954,0.0,93.0
45775,-2.000,-0.452,0.053,96.733,67.565,-58.542,50.0,91.0
45874,-0.954,0.247,0.039,116.359,49.947,-33.511,0.0,97.0
45930,-0.578,0.739,0.152,92.344,38.695,-4.405,0.0,101.0
45990,-0.439,0.687,0.156,21.511,2.229,43.382,0.0,98.0
46045,-0.706,0.376,0.040,-46.802,-12.427,121.947,0.0,95.0
46100,-1.675,0.048,-0.082,-83.687,-11.611,149.252,0.0,91.0
46145,-2.000,-0.844,-0.288,-53.580,-99.076,113.397,44.0,94.0
46189,-1.877,-0.846,-0.096,-29.672,-51.542,89.397,36.0,95.0
46235,-1.270,-0.611,-0.015,-16.565,-12.924,55.092,43.0,99.0
46280,-0.655,-0.291,0.063,-20.565,-18.557,20.374,33.0,101.0
46325,-0.158,-0.382,-0.121,-13.130,-28.779,-25.038,32.0,103.0
46370,0.389,-0.439,-0.304,15.244,-18.733,-76.847,33.0,104.0
46415,0.468,-0.501,-0.288,35.282,2.557,-92.947,41.0,101.0
46464,-0.378,-0.940,-0.450,99.221,40.672,-140.817,44.0,96.0
46509,-2.000,-0.955,-0.447,145.748,159.939,-168.328,47.0,90.0
46554,-2.000,-0.562,0.094,112.061,136.977,-51.153,48.0,89.0
46600,-1.913,-0.427,0.185,98.191,7.634,-35.580,49.0,93.0
46645,-1.076,-0.121,-0.029,113.099,10.267,-37.359,48.0,101.0
46699,-0.692,0.237,-0.021,112.031,63.038,-18.992,0.0,98.0
46753,-0.518,0.671,0.131,90.947,66.183,0.420,0.0,96.0
46808,-0.401,0.582,0.219,50.847,27.626,25.115,0.0,95.0
46862,-0.832,0.387,0.218,-20.183,8.374,102.985,0.0,92.0
46919,-2.000,-0.213,0.083,-66.359,-13.588,165.847,0.0,87.0
46963,-2.000,-0.678,-0.008,-46.061,-99.023,164.748,35.0,88.0
47008,-1.734,-0.665,0.037,-30.954,-64.282,127.351,38.0,92.0
47053,-1.132,-0.492,-0.011,-14.763,-19.450,82.229,43.0,96.0
47108,-0.628,-0.389,0.004,-6.305,-8.023,50.359,0.0,102.0
47163,0.122,-0.643,-0.297,23.534,-5.496,-36.282,0.0,103.0
47217,0.428,-0.695,-0.411,58.260,11.466,-105.840,0.0,101.0
47271,-0.212,-0.745,-0.228,109.870,28.603,-164.962,0.0,95.0
47321,-2.000,-0.847,-0.442,184.687,99.435,-198.878,45.0,89.0
47374,-2.000,-0.423,-0.155,169.176,150.756,-80.206,0.0,90.0
47420,-1.993,-0.143,0.049,124.847,28.015,-34.092,45.0,91.0
47474,-1.108,0.094,-0.112,120.603,0.534,-28.084,0.0,95.0
47528,-0.535,0.605,-0.095,84.168,58.130,-0.260,0.0,101.0
47583,-0.398,0.782,0.189,8.725,31.374,18.023,0.0,100.0
47629,-0.387,0.495,0.200,-47.107,10.649,61.298,46.0,95.0
47683,-0.985,0.231,0.022,-82.427,15.588,113.611,0.0,90.0
47727,-2.000,-0.396,-0.029,-85.992,-20.328,143.641,36.0,89.0
47775,-2.000,-0.807,-0.212,-44.817,-101.924,131.038,34.0,89.0
47830,-1.482,-0.733,-0.222,-10.595,-62.573,86.824,0.0,93.0
47884,-0.758,-0.294,-0.006,-3.649,-10.122,40.534,0.0,99.0
47930,-0.140,-0.368,-0.066,5.832,-31.519,-20.702,39.0,101.0
47984,0.364,-0.530,-0.327,29.947,-25.878,-74.351,0.0,100.0
48030,0.228,-0.679,-0.294,58.328,18.076,-111.931,45.0,98.0
48075,-1.108,-1.339,-0.695,118.786,54.748,-149.092,36.0,92.0
48120,-2.000,-0.871,-0.287,146.519,134.137,-104.305,38.0,89.0
48168,-2.000,-0.462,0.095,126.443,80.359,-18.870,46.0,91.0
48223,-1.503,-0.360,-0.170,144.359,3.702,-40.947,0.0,93.0
48269,-0.750,0.269,-0.360,159.382,67.641,-45.580,45.0,107.0
48324,-0.634,0.965,-0.013,114.809,98.519,-16.389,0.0,99.0
48421,-0.570,0.653,0.322,-34.817,-14.565,84.321,0.0,94.0
48476,-1.257,0.158,0.010,-86.786,-16.466,145.931,0.0,94.0
48521,-2.000,-0.741,-0.242,-80.244,-70.450,145.641,37.0,90.0
48575,-2.000,-0.675,-0.246,-55.092,-90.069,104.511,0.0,93.0
48621,-1.313,-0.733,-0.313,-39.985,-42.344,64.954,36.0,98.0
48678,-0.571,-0.322,0.002,-31.748,-12.916,28.748,0.0,103.0
48734,0.016,-0.512,-0.146,-5.962,-30.672,-32.809,0.0,106.0
48789,0.398,-0.523,-0.357,42.290,-10.664,-88.115,0.0,109.0
48835,-0.099,-0.709,-0.337,99.008,36.229,-113.153,39.0,101.0
48881,-1.465,-0.983,-0.436,169.649,59.176,-140.580,45.0,95.0
48926,-2.000,-0.770,-0.213,175.061,102.489,-126.160,37.0,94.0
48971,-2.000,-0.240,0.219,122.458,73.710,-48.466,44.0,94.0
49018,-1.572,-0.029,0.024,106.153,22.282,-50.786,47.0,102.0
49076,-0.919,0.346,-0.005,97.038,19.611,-43.359,0.0,99.0
49131,-0.490,0.696,0.094,51.115,14.641,-29.901,0.0,101.0
49185,-0.184,0.652,0.168,-11.710,4.855,11.947,0.0,100.0
49241,-0.617,0.511,0.094,-76.588,24.252,104.595,0.0,107.0
49287,-2.000,0.018,0.103,-116.649,15.405,132.969,47.0,93.0
49332,-2.000,-0.868,-0.323,-85.496,-119.282,97.786,36.0,92.0
49378,-1.735,-0.907,-0.361,-56.137,-123.198,83.450,37.0,95.0
49424,-0.953,-0.633,-0.253,-33.725,-18.794,51.313,43.0,100.0
49478,-0.494,-0.441,-0.086,-40.840,-5.802,36.573,0.0,105.0
49528,0.114,-0.595,-0.208,-11.443,-52.733,-32.733,37.0,106.0
49574,0.528,-0.507,-0.466,22.420,-59.519,-78.427,41.0,110.0
49620,-0.093,-0.787,-0.301,59.954,42.595,-121.229,39.0,102.0
49666,-1.808,-1.094,-0.277,138.168,152.534,-161.366,35.0,100.0
49712,-2.000,-0.707,0.206,112.611,152.756,-81.382,45.0,96.0
49758,-2.000,-0.367,0.118,109.664,49.458,-42.359,47.0,97.0
49813,-1.040,0.169,-0.051,118.527,47.664,-39.115,0.0,99.0
49868,-0.670,0.649,0.079,79.015,55.053,-24.924,0.0,102.0
49927,-0.472,0.725,0.293,-4.053,-13.183,18.840,0.0,108.0
49982,-0.430,0.514,0.083,-69.359,-43.206,100.435,0.0,101.0
50028,-1.335,0.130,-0.122,-107.824,14.519,142.817,44.0,99.0
50074,-2.000,-0.755,-0.416,-98.733,-22.534,115.565,45.0,95.0
50119,-2.000,-0.687,-0.357,-68.603,-89.282,81.328,36.0,96.0
50174,-1.329,-0.552,-0.462,-51.053,-64.282,51.908,0.0,100.0
50221,-0.787,-0.311,-0.098,-69.763,-5.786,24.702,42.0,104.0
50267,-0.400,-0.530,-0.070,-69.618,-59.069,-1.588,38.0,107.0
50317,0.405,-0.681,-0.359,-35.290,-66.405,-19.206,37.0,108.0
50363,0.594,-0.771,-0.454,35.550,12.023,-55.649,40.0,112.0
50418,-0.282,-0.802,-0.052,98.962,61.802,-123.870,0.0,101.0
50464,-2.000,-0.800,-0.140,170.069,116.374,-194.557,45.0,98.0
50511,-2.000,-0.271,0.174,81.969,77.649,-47.611,47.0,102.0
50566,-1.584,-0.180,0.004,59.366,-18.947,-25.107,0.0,100.0
50622,-0.750,0.144,-0.088,87.550,5.397,-22.550,0.0,104.0
50677,-0.427,0.547,0.050,80.282,39.679,-15.565,0.0,108.0
50733,-0.314,0.824,0.230,16.046,26.893,9.084,0.0,106.0
50791,-0.775,0.689,0.113,-96.305,-11.344,100.031,0.0,102.0
50838,-2.000,0.274,-0.540,-154.252,-0.344,139.893,47.0,99.0
50884,-2.000,-0.577,-0.444,-152.244,-70.702,119.794,45.0,95.0
50973,-1.131,-0.686,-0.346,-99.580,-56.855,59.000,43.0,102.0
51028,-0.425,-0.588,-0.192,-80.542,-14.954,32.611,0.0,109.0
51076,0.059,-0.651,-0.221,-37.473,-7.702,-25.786,36.0,113.0
51131,0.344,-0.674,-0.282,26.908,9.802,-82.420,0.0,107.0
51178,-0.361,-0.641,-0.066,89.786,7.427,-110.481,43.0,103.0
51227,-1.617,-0.632,-0.237,133.366,68.725,-138.359,46.0,99.0
51289,-2.000,-0.404,-0.008,109.443,103.443,-67.847,0.0,0.0
51336,-1.639,-0.009,0.276,53.076,14.397,-29.466,0.0,0.0
51378,-0.857,0.314,0.191,46.863,-3.756,-27.863,0.0,104.0
51433,-0.529,0.604,0.182,35.321,-3.305,-23.588,0.0,105.0
51488,-0.278,0.564,0.179,4.183,-0.382,-5.176,0.0,106.0
51545,-0.627,0.493,0.091,-53.313,-11.092,57.855,0.0,107.0
51600,-1.107,0.238,-0.105,-115.206,-16.443,131.336,0.0,101.0
51646,-2.000,-0.597,-0.503,-101.901,-51.282,75.939,43.0,98.0
51696,-1.989,-0.424,-0.360,-82.573,-80.702,81.649,45.0,100.0
51742,-1.302,-0.645,-0.339,-88.420,-11.511,79.183,36.0,102.0
51788,-0.723,-0.496,-0.076,-94.733,2.481,44.198,34.0,106.0
51834,-0.224,-0.618,-0.138,-81.588,-8.771,0.710,33.0,109.0
51890,0.151,-0.570,-0.149,-42.489,-12.053,-53.191,0.0,108.0
51937,0.195,-0.626,-0.186,24.947,1.038,-90.473,40.0,107.0
51983,-0.510,-0.934,-0.355,94.275,29.809,-122.641,45.0,101.0
52030,-2.000,-0.898,-0.199,134.351,132.450,-166.855,47.0,103.0
52089,-2.000,-0.484,0.273,73.168,83.397,-40.618,0.0,100.0
52145,-1.410,-0.127,0.128,69.985,-19.565,-42.962,0.0,103.0
52200,-0.675,0.311,0.023,92.069,17.366,-26.565,0.0,106.0
52256,-0.444,0.673,0.130,49.168,32.366,-2.595,0.0,111.0
52313,-0.332,0.719,0.176,-38.992,0.664,41.359,0.0,105.0
52368,-0.729,0.343,-0.049,-112.008,-26.191,106.191,0.0,99.0
52423,-2.000,0.014,-0.227,-109.435,16.931,111.725,0.0,103.0
52485,-2.000,-0.634,-0.286,-77.221,-76.580,101.481,0.0,101.0
52530,-1.522,-0.748,-0.249,-80.710,-32.985,83.229,38.0,101.0
52578,-0.745,-0.490,-0.050,-80.366,-22.985,48.832,33.0,106.0
52624,-0.142,-0.605,-0.100,-72.412,-34.786,9.000,42.0,108.0
52670,0.394,-0.603,-0.262,-29.908,-31.565,-44.557,40.0,110.0
52716,0.352,-0.536,-0.218,26.855,-26.824,-89.214,40.0,117.0
52761,-0.263,-0.569,-0.080,74.000,-18.282,-163.916,44.0,104.0
52807,-1.625,-0.780,-0.082,115.466,105.351,-175.282,45.0,101.0
52861,-2.000,-0.920,0.114,89.649,153.809,-43.153,0.0,100.0
52917,-1.791,-0.314,0.390,58.061,10.115,-26.977,0.0,101.0
52974,-0.751,0.104,0.176,59.366,4.305,-33.115,0.0,107.0
53029,-0.420,0.441,0.173,44.023,29.588,-27.397,0.0,122.0
53085,-0.347,0.598,0.200,-1.519,2.473,-15.092,0.0,115.0
53140,-0.569,0.604,-0.005,-65.557,-5.542,68.664,0.0,111.0
53194,-1.698,0.337,-0.455,-108.435,59.244,132.076,0.0,96.0
53250,-2.000,-0.281,-0.235,-134.603,-42.794,125.817,0.0,99.0
53295,-1.909,-0.829,-0.525,-122.435,-67.763,99.634,45.0,99.0
53341,-0.974,-0.601,-0.143,-111.015,-21.038,94.588,43.0,103.0
53387,-0.378,-0.652,-0.024,-82.595,-51.481,45.885,38.0,108.0
53435,0.326,-0.650,-0.241,-31.237,-70.649,-13.580,38.0,111.0
53481,0.556,-0.631,-0.437,23.244,-15.931,-56.015,38.0,110.0
53570,-1.543,-1.042,-0.563,121.366,84.840,-173.237,44.0,99.0
53624,-2.000,-0.615,0.076,84.107,104.252,-151.580,0.0,96.0
53679,-2.000,-0.425,0.113,42.504,9.313,-59.641,0.0,97.0
53734,-1.102,0.016,-0.004,71.160,28.183,-37.626,0.0,102.0
53788,-0.712,0.451,0.156,71.901,61.191,-26.435,0.0,103.0
53843,-0.531,0.569,0.240,23.427,9.557,-4.847,0.0,107.0
53898,-0.357,0.713,0.209,-62.382,-32.000,54.000,0.0,102.0
53956,-0.840,0.450,-0.359,-129.053,-42.427,112.046,0.0,103.0
54010,-2.000,-0.294,-0.707,-132.634,-15.053,110.374,0.0,96.0
54065,-2.000,-0.725,-0.524,-137.145,-86.244,108.015,0.0,98.0
54111,-1.163,-0.741,-0.372,-108.809,-68.886,59.298,42.0,103.0
54157,-0.428,-0.568,-0.139,-88.153,-22.588,29.214,39.0,109.0
54203,0.036,-0.617,-0.160,-62.206,-16.710,-2.115,38.0,111.0
54249,0.427,-0.546,-0.279,-4.137,-7.550,-48.557,40.0,110.0
54295,0.386,-0.515,-0.267,55.718,43.931,-84.191,45.0,107.0
54344,-0.881,-0.604,-0.152,111.840,36.962,-111.099,44.0,103.0
54398,-2.000,-0.316,-0.111,131.656,15.336,-122.618,0.0,103.0
54454,-2.000,-0.193,0.093,73.656,51.641,-24.458,0.0,100.0
54509,-1.378,-0.072,0.063,50.977,11.099,-5.053,0.0,102.0
54563,-0.784,0.252,0.075,53.092,16.954,-6.595,0.0,103.0
54619,-0.427,0.498,0.202,12.985,14.557,3.718,0.0,103.0
54673,-0.277,0.580,0.264,-56.771,-18.198,19.809,0.0,102.0
54728,-0.569,0.296,-0.040,-136.420,-36.130,55.565,0.0,98.0
54774,-2.000,-0.174,-0.520,-128.763,4.282,16.153,48.0,96.0
54822,-2.000,-0.515,-0.631,-115.275,-61.023,27.702,47.0,96.0
54868,-1.838,-0.658,-0.579,-123.771,-62.221,59.450,46.0,105.0
54915,-0.941,-0.406,-0.090,-128.000,-21.008,50.748,44.0,104.0
54962,-0.316,-0.567,-0.069,-117.359,-42.298,38.122,42.0,112.0
55008,0.238,-0.624,-0.174,-60.870,-69.420,2.733,41.0,110.0
55054,0.721,-0.618,-0.387,21.733,-47.588,-36.947,42.0,112.0
55100,0.319,-0.662,-0.233,85.069,28.603,-93.557,42.0,105.0
55146,-1.207,-0.947,-0.796,159.740,124.160,-151.038,44.0,101.0
55203,-2.000,-0.555,-0.031,121.847,152.412,-100.779,0.0,97.0
55259,-2.000,-0.370,0.250,45.405,-6.519,-1.718,0.0,106.0
55314,-0.964,0.021,-0.069,42.740,-8.573,-33.527,0.0,99.0
55369,-0.708,0.477,0.182,31.382,58.076,-23.832,0.0,103.0
55425,-0.590,0.546,0.335,-13.779,7.519,10.695,0.0,103.0
55479,-0.517,0.495,0.185,-81.420,-74.443,62.740,0.0,100.0
55534,-0.745,0.241,-0.438,-126.641,-45.015,101.504,0.0,111.0
55589,-2.000,-0.585,-0.725,-120.496,-4.290,83.756,0.0,94.0
55647,-2.000,-0.667,-0.563,-138.916,-91.115,98.489,0.0,97.0
55693,-1.007,-0.560,-0.289,-135.015,-38.130,51.863,43.0,102.0
55739,-0.501,-0.621,-0.122,-121.168,-26.160,24.374,36.0,106.0
55785,0.046,-0.701,-0.188,-87.214,-40.840,-10.145,38.0,108.0
55832,0.477,-0.659,-0.376,-22.985,-26.183,-39.298,41.0,109.0
55878,0.209,-0.737,-0.318,53.092,25.626,-69.794,43.0,104.0
55932,-1.035,-0.881,-0.224,114.733,51.290,-114.168,0.0,99.0
55988,-2.000,-0.556,0.058,91.122,105.817,-118.015,0.0,102.0
56043,-2.000,-0.179,0.212,33.053,41.573,-19.557,0.0,100.0
56101,-1.141,0.106,0.059,55.435,-19.260,-1.924,0.0,100.0
56200,-0.388,0.504,0.239,-2.588,7.534,32.901,0.0,115.0
56255,-0.210,0.530,-0.010,-72.084,-35.046,60.000,0.0,99.0
56310,-0.708,0.317,-0.370,-161.115,-27.099,84.519,0.0,101.0
56365,-2.000,-0.163,-0.580,-136.031,31.427,73.901,0.0,97.0
56411,-2.000,-0.551,-0.382,-125.626,-76.802,76.321,44.0,97.0
56457,-1.464,-0.647,-0.423,-121.649,-65.321,64.000,45.0,100.0
56503,-0.733,-0.516,-0.126,-116.893,-32.252,35.580,37.0,104.0
56553,-0.042,-0.799,-0.299,-90.206,-58.977,-4.420,40.0,108.0
56599,0.521,-0.537,-0.326,-35.939,-45.183,-44.511,39.0,116.0
56646,0.313,-0.600,-0.361,26.008,10.221,-91.344,43.0,103.0
56701,-0.593,-0.764,-0.260,90.130,60.328,-137.779,0.0,105.0
56748,-1.990,-0.580,-0.063,112.275,116.397,-98.237,44.0,97.0
56803,-2.000,-0.527,-0.036,92.076,79.435,-24.122,0.0,100.0
56857,-1.507,0.052,0.063,78.771,-13.267,1.679,0.0,101.0
56913,-0.741,0.383,0.053,65.573,7.168,10.947,0.0,108.0
56969,-0.412,0.663,0.316,16.405,14.000,20.901,0.0,103.0
57027,-0.187,0.625,0.171,-53.160,-29.534,40.053,0.0,101.0
57081,-0.904,0.316,-0.180,-124.015,-21.076,87.366,0.0,99.0
57128,-2.000,-0.261,-0.444,-130.115,19.298,72.389,46.0,97.0
57175,-2.000,-0.311,-0.246,-159.389,-56.000,77.779,44.0,97.0
57221,-1.489,-0.482,-0.367,-146.977,-38.992,71.511,43.0,100.0
57267,-0.867,-0.456,-0.110,-125.176,6.779,62.275,42.0,103.0
57310,-0.432,-0.621,-0.000,-97.443,-30.779,39.611,45.0,49.0
57362,0.221,-0.675,-0.229,-47.954,-68.901,8.160,200.0,43.0
57416,0.397,-0.774,-0.480,20.137,-28.962,-31.145,0.0,33.0
57458,-0.647,-1.030,-0.560,101.672,45.336,-113.947,40.0,27.0
57513,-1.896,-0.879,-0.091,148.084,129.618,-151.023,0.0,97.0
57555,-2.000,-0.389,0.297,98.473,56.695,-61.489,45.0,16.0
57596,-1.760,-0.152,0.073,93.366,-30.008,-67.672,45.0,15.0
57649,-0.908,0.214,-0.069,103.458,12.107,-67.763,0.0,39.0
57700,-0.655,0.630,0.125,79.786,72.115,-44.038,0.0,27.0
57755,-0.488,0.727,0.328,16.832,-2.489,-1.878,0.0,36.0
57809,-0.318,0.716,0.128,-50.145,-28.053,67.069,0.0,98.0
57868,-1.223,0.580,-0.049,-128.061,12.153,140.023,0.0,94.0
57914,-2.000,-0.995,-0.312,-106.344,-66.886,107.145,37.0,92.0
57959,-2.000,-0.917,-0.279,-46.328,-120.366,105.244,34.0,98.0
58006,-0.972,-0.604,-0.166,-40.573,-9.435,70.710,37.0,109.0
58052,-0.451,-0.383,-0.004,-61.511,7.939,33.237,41.0,105.0
58098,0.042,-0.554,-0.086,-57.611,-21.603,-6.840,33.0,107.0
58145,0.425,-0.597,-0.312,-23.748,-64.481,-35.260,42.0,107.0
58201,0.197,-0.790,-0.428,24.328,23.412,-107.076,0.0,113.0
58251,-1.833,-1.043,-0.552,128.985,144.420,-159.214,46.0,99.0
58297,-2.000,-0.577,0.401,102.763,136.328,-85.763,46.0,95.0
58344,-1.866,-0.209,0.284,84.878,-5.763,-48.298,46.0,103.0
58399,-0.946,0.092,-0.102,112.939,41.099,-49.779,0.0,101.0
58455,-0.775,0.573,0.117,107.145,78.702,-12.511,0.0,106.0
58511,-0.465,0.524,0.235,48.153,4.618,1.160,0.0,103.0
58566,-0.293,0.639,0.118,-20.122,-8.649,55.840,0.0,102.0
58621,-1.017,0.469,-0.125,-94.084,11.466,118.260,0.0,96.0
58668,-2.000,-0.316,-0.328,-132.168,-29.519,106.916,46.0,94.0
58760,-1.417,-0.775,-0.254,-115.267,-45.489,45.641,36.0,99.0
58807,-0.640,-0.445,-0.073,-99.786,-24.389,7.779,36.0,103.0
58853,-0.103,-0.511,-0.156,-75.687,-24.489,-18.153,44.0,105.0
58900,0.298,-0.571,-0.239,-20.023,-26.863,-37.771,44.0,107.0
58955,0.286,-0.847,-0.307,43.962,-20.443,-54.313,0.0,103.0
59012,-0.789,-1.280,-0.438,148.580,-0.588,-137.878,0.0,99.0
59064,-2.000,-0.510,0.227,127.489,152.435,-133.939,48.0,101.0
59109,-2.000,-0.299,0.249,62.076,100.092,-37.748,50.0,96.0
59166,-1.364,0.008,0.066,66.664,26.168,-27.763,0.0,97.0
59220,-0.711,0.575,0.157,52.244,29.565,-9.863,0.0,99.0
59275,-0.375,0.752,0.288,-0.031,13.008,29.542,0.0,101.0
59329,-0.351,0.609,0.216,-60.450,-17.198,81.344,0.0,98.0
59383,-0.952,0.457,-0.301,-111.359,0.191,138.649,0.0,97.0
59428,-2.000,-0.500,-0.477,-115.840,-18.710,96.840,46.0,93.0
59473,-2.000,-0.556,-0.439,-124.282,-82.893,108.511,43.0,96.0
59520,-1.403,-0.765,-0.424,-112.160,-41.901,92.511,36.0,101.0
59565,-0.647,-0.508,-0.082,-93.115,-8.962,45.168,40.0,105.0
59613,-0.057,-0.627,-0.048,-79.931,-32.168,1.351,36.0,108.0
59659,0.399,-0.713,-0.333,-26.130,-31.321,-68.382,36.0,110.0
59705,0.456,-0.557,-0.379,28.122,4.740,-104.687,40.0,107.0
59750,-0.221,-0.706,-0.238,73.626,44.496,-152.924,42.0,103.0
59796,-1.997,-0.997,-0.336,135.672,90.710,-201.603,45.0,98.0
59850,-2.000,-0.681,-0.013,123.214,111.924,-84.145,0.0,95.0
59905,-1.854,-0.230,0.233,89.221,26.344,-10.145,0.0,96.0
59959,-0.987,0.142,0.044,97.992,-1.145,-29.466,0.0,102.0
60016,-0.588,0.645,0.174,76.351,41.084,-12.420,0.0,99.0
60070,-0.453,0.713,0.250,14.664,-0.328,14.435,0.0,100.0
60126,-0.506,0.617,0.122,-81.237,-39.656,95.855,0.0,103.0
60180,-1.502,0.339,-0.497,-121.901,27.779,125.092,0.0,94.0
60225,-2.000,-0.686,-0.519,-132.084,-56.489,106.252,47.0,94.0
60271,-1.993,-0.749,-0.396,-130.672,-109.672,105.718,45.0,96.0
60317,-0.939,-0.595,-0.239,-111.527,-37.573,61.634,43.0,101.0
60362,-0.290,-0.520,-0.163,-101.855,-4.282,30.359,34.0,106.0
60408,0.233,-0.624,-0.219,-70.168,4.130,-22.779,36.0,109.0
60456,0.499,-0.605,-0.250,-1.160,28.374,-63.679,41.0,107.0
60503,-0.027,-0.719,-0.134,53.069,27.626,-92.511,43.0,105.0
60549,-1.034,-0.945,-0.447,129.450,13.695,-115.656,44.0,98.0
60594,-2.000,-0.989,-0.289,140.557,74.168,-139.733,48.0,95.0
60648,-2.000,-0.423,0.170,80.412,80.847,-50.397,0.0,95.0
60703,-1.490,-0.219,0.126,55.321,-7.473,-41.649,0.0,97.0
60758,-0.728,0.298,0.023,70.092,0.641,-40.557,0.0,105.0
60813,-0.458,0.733,0.175,38.084,23.160,-0.748,0.0,105.0
60879,-0.569,0.675,0.205,-48.359,-46.618,69.435,0.0,101.0
60937,-0.890,0.383,-0.362,-116.305,-52.130,122.710,0.0,101.0
60993,-2.000,-0.504,-0.704,-147.366,0.336,124.817,0.0,96.0
61041,-2.000,-0.620,-0.417,-161.504,-89.069,96.870,46.0,97.0
61089,-1.289,-0.688,-0.469,-145.756,-58.786,54.489,43.0,101.0
61138,-0.578,-0.501,-0.185,-136.908,-15.275,38.313,42.0,108.0
61187,-0.029,-0.699,-0.197,-115.183,-11.290,10.847,40.0,107.0
61236,0.366,-0.538,-0.197,-40.740,-14.855,-22.786,41.0,111.0
61333,-0.549,-0.609,-0.105,71.534,32.473,-85.344,156.0,101.0
61384,-2.000,-0.803,-0.137,88.786,114.573,-124.779,51.0,95.0
61442,-2.000,-0.467,0.298,24.977,42.115,-33.519,0.0,97.0
61498,-1.191,-0.163,0.050,19.649,-28.992,-27.008,186.0,108.0
61556,-0.629,0.297,0.114,34.916,31.740,-17.656,0.0,104.0
61614,-0.547,0.608,0.341,7.229,23.733,3.527,0.0,102.0
61670,-0.553,0.566,0.208,-48.099,-53.229,38.763,0.0,100.0
61727,-0.778,0.424,-0.224,-112.924,-52.802,91.878,0.0,97.0
61785,-2.000,-0.242,-0.480,-133.076,-33.427,88.794,0.0,95.0
61836,-2.000,-0.529,-0.560,-112.092,-91.244,95.061,47.0,97.0
61893,-1.264,-0.642,-0.443,-99.611,-36.069,76.336,0.0,103.0
61942,-0.402,-0.586,-0.129,-99.435,-6.076,49.687,42.0,108.0
62000,0.312,-0.662,-0.204,-84.626,5.427,-8.344,0.0,110.0
62058,0.401,-0.610,-0.228,-4.389,42.328,-85.870,0.0,111.0
62115,-0.562,-0.705,-0.181,51.962,61.527,-108.618,0.0,101.0
62173,-2.000,-0.809,-0.274,84.878,133.794,-105.687,0.0,98.0
62229,-2.000,-0.406,0.225,40.824,74.252,-20.641,0.0,95.0
62286,-1.283,-0.142,0.073,58.359,-8.817,-29.977,0.0,102.0
62347,-0.635,0.318,0.024,62.237,26.595,-8.641,0.0,102.0
62405,-0.489,0.549,0.185,33.809,33.435,14.824,0.0,108.0
62462,-0.596,0.424,0.173,-23.878,-14.847,53.992,0.0,99.0
62519,-0.869,0.204,0.030,-92.023,-36.473,106.985,0.0,95.0
62568,-2.000,-0.823,-0.462,-79.947,-48.733,72.061,45.0,98.0
62615,-1.983,-0.452,-0.248,-40.687,-54.130,63.840,44.0,91.0
62663,-1.282,-0.500,-0.231,-55.962,-38.137,54.748,44.0,84.0
62711,-0.627,-0.272,-0.100,-64.931,-32.344,32.992,38.0,102.0
62763,-0.049,-0.394,-0.169,-52.595,-25.962,-9.237,36.0,108.0
62812,0.237,-0.606,-0.186,-14.466,-16.435,-52.290,36.0,113.0
62860,0.040,-0.755,-0.196,31.244,-12.649,-50.863,44.0,105.0
62908,-1.065,-1.095,-0.656,137.595,44.168,-93.924,43.0,98.0
62965,-1.977,-0.750,-0.130,152.008,170.740,-83.496,0.0,96.0
63021,-2.000,-0.213,0.297,93.985,64.168,-34.885,0.0,54.0
63078,-1.170,0.089,-0.070,98.908,-4.137,-44.183,0.0,104.0
63137,-0.761,0.523,0.020,72.489,58.710,-16.061,0.0,125.0
63191,-0.545,0.497,0.285,23.122,-4.901,15.389,0.0,41.0
63250,-0.251,0.675,0.120,-38.718,-36.382,62.443,0.0,74.0
63307,-1.351,0.664,-0.478,-102.153,58.420,94.481,0.0,95.0
63355,-2.000,-0.534,-0.524,-126.305,-75.977,85.122,43.0,100.0
63405,-1.601,-0.711,-0.449,-149.427,-110.489,108.802,41.0,113.0
63454,-0.743,-0.603,-0.191,-115.763,-55.153,58.458,39.0,106.0
63503,-0.238,-0.502,-0.136,-76.489,-32.863,20.412,38.0,110.0
63551,0.158,-0.512,-0.196,-34.206,-21.855,-35.290,37.0,109.0
63600,0.318,-0.425,-0.236,1.458,-15.221,-54.427,39.0,106.0
63651,-0.392,-0.706,-0.229,41.695,-10.038,-98.191,40.0,105.0
63709,-1.917,-0.774,-0.300,108.031,34.015,-154.733,0.0,98.0
63766,-2.000,-0.113,0.305,47.832,122.405,-67.244,0.0,98.0
63824,-1.611,-0.205,0.304,-6.931,-24.298,-29.489,0.0,103.0
63883,-0.593,0.266,0.033,23.321,-32.977,-32.053,0.0,109.0
63940,-0.436,0.486,0.169,-3.931,10.977,7.420,0.0,103.0
63998,-0.461,0.538,0.112,-60.267,-44.000,37.397,0.0,117.0
