Timestamp(ms),AccelX(g),AccelY(g),AccelZ(g),GyroX(deg/s),GyroY(deg/s),GyroZ(deg/s),DistanceLeft(cm),DistanceRight(cm)
58259,-2.000,-0.417,0.054,-112.550,26.092,250.130,43.0,94.0
58304,-2.000,-0.742,0.094,-88.992,-109.534,250.130,32.0,99.0
58350,-1.237,-0.743,-0.015,-67.351,-129.435,205.443,30.0,121.0
58397,-0.333,-0.498,-0.108,-56.588,-39.763,107.000,37.0,134.0
58443,-0.034,-0.484,-0.270,-54.405,56.183,-4.496,37.0,127.0
58490,0.063,-0.613,-0.308,-51.466,110.031,-108.908,37.0,122.0
58535,-0.004,-0.772,-0.302,-29.389,127.947,-177.969,36.0,114.0
58584,-0.308,-0.680,0.044,-1.840,94.847,-208.580,31.0,107.0
58629,-1.010,-0.766,0.276,24.840,3.916,-184.359,34.0,100.0
58674,-2.000,-1.064,0.233,82.244,40.817,-224.969,36.0,98.0
58719,-2.000,-0.864,0.329,98.359,178.153,-167.634,47.0,93.0
58773,-2.000,-0.194,0.583,97.687,138.481,-67.863,0.0,94.0
58828,-1.592,0.054,0.142,99.504,-34.023,-34.137,0.0,99.0
58883,-0.604,0.646,-0.165,67.473,-27.618,-25.023,0.0,108.0
58938,-0.351,0.883,0.093,-8.947,21.588,13.344,0.0,108.0
58995,-0.200,0.847,0.338,-56.634,-33.214,72.710,0.0,105.0
59051,-0.784,0.569,0.277,-82.115,-63.740,171.817,0.0,111.0
59097,-2.000,0.504,0.078,-103.305,-57.527,235.710,44.0,98.0
59142,-2.000,-0.287,-0.230,-131.733,-31.328,237.641,44.0,97.0
59187,-2.000,-0.592,-0.044,-147.863,-79.870,221.183,31.0,107.0
59242,-1.076,-0.698,-0.217,-140.809,-75.015,143.260,0.0,112.0
59289,-0.122,-0.688,-0.337,-114.557,-8.206,32.137,36.0,123.0
59335,0.349,-0.906,-0.414,-68.534,14.649,-46.550,40.0,117.0
59382,0.494,-0.770,-0.481,-4.527,31.611,-117.817,37.0,129.0
59431,-0.195,-0.824,-0.086,44.954,38.817,-204.221,39.0,118.0
59478,-1.954,-1.103,-0.085,105.557,43.069,-250.137,44.0,108.0
59524,-2.000,-0.626,0.467,106.389,129.107,-200.985,45.0,103.0
59570,-2.000,-0.173,0.541,86.260,167.427,-77.382,46.0,103.0
59625,-1.822,0.026,0.504,52.573,58.954,-60.130,0.0,108.0
59680,-0.934,0.334,0.164,55.954,-43.015,-44.275,0.0,110.0
59736,-0.386,0.612,0.075,25.809,-27.962,-24.885,0.0,118.0
59792,-0.108,0.803,0.052,-30.084,-4.214,22.924,0.0,120.0
59850,-0.481,0.808,0.082,-105.901,-1.313,135.863,0.0,105.0
59896,-1.707,0.656,-0.263,-120.580,42.099,227.718,46.0,100.0
59941,-2.000,-0.878,-0.005,-107.901,-1.588,177.863,41.0,98.0
59986,-2.000,-0.895,0.132,-115.863,-82.008,182.450,41.0,100.0
60033,-1.279,-0.720,-0.118,-111.611,-65.389,107.092,30.0,107.0
60079,-0.438,-0.404,-0.154,-109.939,-16.733,38.695,38.0,113.0
60126,-0.088,-0.545,-0.201,-89.275,-15.221,-5.794,36.0,124.0
60181,0.425,-0.525,-0.430,-42.885,-51.382,-54.405,0.0,118.0
60239,0.391,-0.538,-0.586,39.389,0.916,-109.084,0.0,113.0
60285,-0.963,-0.837,-0.163,98.656,96.153,-150.870,43.0,106.0
60341,-2.000,-0.850,0.339,114.053,145.886,-185.481,0.0,103.0
60395,-2.000,-0.563,0.606,66.855,129.924,-60.206,0.0,97.0
60442,-1.630,-0.211,0.298,90.076,-6.824,-58.702,47.0,107.0
60497,-0.780,0.342,0.164,105.718,-13.145,-51.023,0.0,106.0
60553,-0.403,0.814,0.154,73.237,14.366,-32.191,0.0,108.0
60608,-0.080,0.938,0.118,21.977,-9.344,21.053,0.0,107.0
60663,-0.523,0.880,0.053,-55.244,-22.618,104.076,0.0,114.0
60712,-1.448,0.880,-0.017,-97.008,13.641,183.443,43.0,98.0
60800,-2.000,-1.040,0.158,-126.427,-78.847,169.214,35.0,99.0
60847,-1.446,-0.956,-0.035,-99.641,-102.794,105.992,41.0,107.0
60892,-0.415,-0.537,-0.188,-67.817,-20.244,23.198,29.0,110.0
60944,0.019,-0.441,-0.227,-52.809,42.122,-18.412,40.0,0.0
60990,0.395,-0.591,-0.316,-15.069,26.107,-53.076,0.0,0.0
61032,0.216,-0.656,-0.302,51.565,17.802,-90.252,0.0,108.0
61078,-0.526,-0.741,-0.172,123.878,18.870,-132.588,43.0,104.0
61127,-2.000,-0.631,0.088,172.725,112.466,-173.435,45.0,96.0
61172,-2.000,-0.218,0.455,118.221,181.061,-77.878,45.0,94.0
61228,-2.000,-0.142,0.426,76.092,36.695,-37.779,0.0,97.0
61282,-0.862,0.234,-0.077,104.725,-32.565,-46.649,0.0,99.0
61337,-0.374,0.801,-0.075,85.947,39.901,-38.366,0.0,103.0
61392,-0.229,0.789,0.262,27.489,16.481,-1.298,0.0,102.0
61447,-0.094,0.745,0.199,-20.275,-14.389,51.290,0.0,99.0
61502,-1.166,0.948,-0.098,-78.649,90.603,151.336,0.0,94.0
61547,-2.000,-0.377,-0.027,-119.107,-4.321,168.573,36.0,92.0
61595,-2.000,-0.727,0.088,-99.954,-143.061,173.344,36.0,97.0
61641,-1.158,-0.699,-0.056,-79.908,-92.855,98.947,41.0,104.0
61688,-0.349,-0.381,-0.119,-68.252,-27.069,27.061,41.0,109.0
61734,0.028,-0.657,-0.330,-35.763,-30.969,-15.534,39.0,113.0
61790,0.567,-0.723,-0.587,14.008,-29.382,-59.084,0.0,113.0
61845,0.259,-0.764,-0.583,76.641,28.046,-118.626,0.0,106.0
61900,-1.241,-0.890,-0.176,147.679,48.435,-174.397,0.0,98.0
61946,-2.000,-0.793,-0.267,196.244,196.511,-157.092,44.0,92.0
62004,-2.000,-0.132,0.565,179.229,142.595,-60.137,0.0,92.0
62059,-1.343,0.331,0.129,138.695,-10.786,-107.336,0.0,96.0
62114,-0.594,0.823,-0.069,91.237,27.466,-91.351,0.0,98.0
62169,-0.556,0.979,0.190,43.183,40.046,-32.137,0.0,99.0
62224,-0.559,0.883,0.177,-17.748,-2.153,74.939,0.0,96.0
62278,-1.200,0.170,-0.006,-67.496,-14.710,154.794,0.0,93.0
62324,-2.000,-0.658,0.056,-59.618,-57.931,164.405,45.0,92.0
62379,-2.000,-0.730,-0.058,-33.237,-71.084,126.061,0.0,94.0
62425,-1.619,-0.785,-0.005,-50.656,-57.115,72.305,41.0,99.0
62484,-0.847,-0.355,-0.092,-32.954,-46.603,20.031,0.0,105.0
62539,-0.136,-0.314,-0.178,-24.214,-19.603,6.374,0.0,108.0
62585,0.443,-0.529,-0.302,2.809,1.481,-36.809,40.0,108.0
62641,0.263,-0.598,-0.285,60.305,15.229,-70.511,0.0,104.0
62687,-0.830,-0.650,-0.115,128.137,35.412,-108.893,41.0,99.0
62733,-2.000,-0.741,-0.056,171.176,72.000,-126.351,42.0,93.0
62779,-2.000,-0.113,0.235,144.496,146.076,-75.099,44.0,92.0
62833,-1.833,-0.319,0.308,105.939,27.855,-56.931,0.0,92.0
62892,-1.011,0.139,-0.181,139.382,-8.153,-101.626,0.0,95.0
62947,-0.741,0.603,-0.160,125.214,73.672,-63.137,0.0,97.0
63001,-0.583,0.737,0.188,77.107,38.084,-19.260,0.0,96.0
63056,-0.516,0.591,0.178,23.015,0.931,47.847,0.0,94.0
63111,-1.116,0.498,0.044,-26.107,41.580,129.435,0.0,90.0
63157,-2.000,-0.829,-0.027,-49.176,-5.336,137.481,43.0,89.0
63211,-2.000,-0.787,0.136,-73.176,-56.992,119.702,43.0,92.0
63265,-1.252,-0.597,0.080,-73.481,-53.198,66.496,0.0,98.0
63309,-0.480,-0.341,0.004,-48.718,-30.496,6.672,32.0,102.0
63401,0.445,-0.524,-0.304,26.580,-11.557,-50.053,37.0,105.0
63447,0.179,-0.572,-0.401,84.481,12.198,-69.550,39.0,102.0
63492,-0.837,-0.837,-0.324,151.786,-12.443,-108.092,39.0,98.0
63546,-1.409,-0.599,-0.145,162.695,42.924,-146.206,0.0,93.0
63591,-2.000,-0.473,0.247,82.588,178.511,-111.191,44.0,91.0
63644,-2.000,-0.261,0.251,90.634,93.008,-77.771,0.0,92.0
63698,-1.082,0.299,0.066,107.954,34.779,-65.840,0.0,95.0
63753,-0.618,0.792,0.245,72.397,28.168,-68.748,0.0,97.0
63807,-0.643,0.692,0.212,1.328,8.817,-8.687,0.0,97.0
63864,-0.984,0.407,0.073,-90.962,-12.336,115.153,0.0,93.0
63909,-1.653,-0.170,-0.254,-100.931,-27.481,163.427,46.0,90.0
63954,-2.000,-0.895,-0.313,-71.198,-99.969,168.977,44.0,89.0
64000,-1.964,-0.828,-0.311,-47.092,-91.481,120.580,45.0,92.0
64045,-1.494,-0.761,-0.236,-44.153,-46.435,66.275,36.0,95.0
64090,-0.803,-0.449,-0.046,-49.275,-10.298,27.985,36.0,100.0
64135,-0.163,-0.458,-0.070,-53.405,-14.412,-5.847,37.0,104.0
64190,0.359,-0.702,-0.322,-16.183,-10.710,-56.603,0.0,105.0
64238,0.194,-0.627,-0.324,80.504,1.557,-88.534,40.0,103.0
64292,-0.827,-0.721,-0.211,146.275,17.893,-124.611,0.0,97.0
64338,-1.907,-0.674,-0.198,175.092,106.145,-122.015,44.0,95.0
64384,-2.000,-0.357,0.287,106.847,105.969,-81.886,46.0,93.0
64438,-1.849,-0.134,0.191,86.267,11.153,-59.183,0.0,96.0
64492,-0.849,0.338,0.042,85.534,5.450,-45.969,0.0,99.0
64547,-0.409,0.740,0.204,63.130,30.824,-28.374,0.0,102.0
64602,-0.187,0.767,0.219,23.679,4.282,20.092,0.0,101.0
64656,-0.643,0.596,-0.065,-63.557,-7.939,91.656,0.0,96.0
64704,-2.000,0.035,-0.408,-121.901,41.069,121.344,45.0,92.0
64749,-2.000,-0.862,-0.526,-142.511,-46.603,122.664,47.0,92.0
64804,-2.000,-0.977,-0.449,-136.092,-97.550,98.718,0.0,97.0
64859,-0.926,-0.631,-0.235,-111.099,-20.366,34.603,0.0,102.0
64905,-0.373,-0.542,-0.022,-92.137,-18.618,7.588,37.0,107.0
64960,0.330,-0.677,-0.186,-48.069,-59.122,-22.107,0.0,109.0
65006,0.671,-0.554,-0.446,49.641,-26.771,-55.008,39.0,107.0
65051,0.186,-0.416,-0.266,99.496,44.947,-98.015,41.0,103.0
65100,-2.000,-0.979,-0.359,146.321,101.954,-137.313,47.0,98.0
65146,-2.000,-0.738,-0.158,114.298,54.427,-53.038,45.0,96.0
65201,-1.973,-0.289,0.192,70.893,39.534,-21.664,0.0,96.0
65255,-1.102,0.006,0.099,76.710,2.359,-45.458,0.0,99.0
65310,-0.613,0.463,0.114,79.786,6.221,-54.947,0.0,102.0
65364,-0.286,1.075,0.245,28.985,4.855,-34.084,0.0,102.0
65419,-0.658,0.972,0.088,-81.046,-25.740,33.435,0.0,98.0
65474,-1.516,0.338,-0.629,-163.000,-28.809,125.740,0.0,95.0
65519,-2.000,-0.635,-1.034,-176.397,-36.366,143.771,48.0,94.0
65568,-2.000,-0.778,-0.658,-190.511,-47.519,129.786,44.0,95.0
65614,-1.388,-0.659,-0.387,-175.817,-47.969,77.214,44.0,100.0
65660,-0.678,-0.433,-0.206,-152.481,-42.389,41.290,43.0,106.0
65716,-0.048,-0.489,-0.189,-118.313,-36.885,11.000,0.0,111.0
65771,0.662,-0.660,-0.277,-56.450,-10.718,-29.664,0.0,112.0
65826,0.288,-0.874,-0.220,27.794,9.282,-86.145,0.0,109.0
65872,-1.931,-1.382,-0.537,141.939,9.397,-153.664,46.0,100.0
65971,-2.000,-0.176,0.242,54.008,134.000,-54.130,0.0,107.0
66029,-1.450,0.010,0.120,48.939,-37.794,-53.916,0.0,103.0
66084,-0.571,0.363,0.014,69.183,-1.107,-33.420,0.0,105.0
66141,-0.280,0.785,0.246,43.466,17.939,-4.748,0.0,119.0
66196,-0.095,0.842,0.110,-17.962,-1.809,37.855,0.0,111.0
66250,-1.000,0.602,-0.244,-106.282,4.366,109.076,0.0,101.0
66296,-2.000,0.085,-0.547,-160.489,-20.992,156.206,45.0,99.0
66342,-2.000,-0.688,-0.695,-144.015,-83.504,128.008,46.0,98.0
66388,-1.871,-0.874,-0.425,-139.008,-40.931,92.886,36.0,100.0
66444,-1.026,-0.568,-0.087,-124.809,0.855,44.809,0.0,106.0
66493,-0.274,-0.552,-0.088,-99.267,-24.786,-1.534,43.0,110.0
66548,0.435,-0.661,-0.220,-49.137,-41.252,-45.275,0.0,111.0
66605,0.651,-0.595,-0.360,41.374,-15.878,-78.450,0.0,108.0
66651,-0.862,-0.719,-0.311,125.153,45.702,-118.115,44.0,103.0
66705,-2.000,-0.735,-0.281,149.183,63.389,-127.908,0.0,96.0
66751,-2.000,-0.160,0.310,87.718,128.771,-44.351,47.0,95.0
66806,-1.700,-0.185,0.352,54.290,32.565,-38.076,0.0,99.0
66862,-0.778,0.225,0.123,65.298,10.969,-56.450,0.0,103.0
66920,-0.386,0.639,0.196,47.313,40.916,-29.656,0.0,109.0
66975,-0.265,0.777,0.247,-12.443,2.641,19.519,0.0,103.0
67030,-0.587,0.620,-0.083,-94.977,-43.504,78.366,0.0,100.0
67076,-1.977,0.340,-0.506,-126.847,3.504,122.847,46.0,98.0
67122,-2.000,-0.561,-0.518,-127.351,-32.679,136.084,44.0,96.0
67168,-2.000,-0.759,-0.168,-120.588,-57.397,137.893,34.0,105.0
67214,-1.259,-0.760,-0.070,-90.595,-47.099,77.137,37.0,103.0
67260,-0.565,-0.429,0.042,-81.374,-30.053,32.939,36.0,110.0
67315,0.018,-0.551,-0.144,-55.695,-26.969,-9.244,0.0,112.0
67375,0.511,-0.601,-0.321,15.153,5.183,-41.740,0.0,112.0
67421,-0.232,-0.846,-0.351,121.565,13.931,-66.435,39.0,106.0
67476,-1.672,-0.870,-0.593,222.137,43.718,-156.435,0.0,100.0
67522,-2.000,-0.398,-0.092,136.595,139.832,-142.053,45.0,97.0
67577,-2.000,-0.168,0.303,50.847,59.832,-62.313,0.0,98.0
67633,-1.064,0.141,-0.004,81.786,-18.924,-58.305,0.0,104.0
67688,-0.457,0.576,-0.008,90.099,42.275,-46.748,0.0,114.0
67743,-0.338,0.709,0.236,48.092,43.756,-16.962,0.0,103.0
67802,-0.320,0.689,0.297,-32.458,-24.824,47.725,0.0,102.0
67857,-0.930,0.375,-0.358,-81.489,-40.985,98.298,0.0,103.0
67903,-2.000,-0.471,-0.565,-94.206,-15.992,115.992,45.0,95.0
67949,-2.000,-0.660,-0.286,-128.290,-35.473,133.221,36.0,96.0
67995,-1.551,-0.694,-0.077,-142.908,-53.198,83.160,46.0,102.0
68041,-0.616,-0.512,-0.021,-125.519,-53.366,38.412,30.0,107.0
68087,-0.058,-0.594,-0.099,-73.679,-38.168,4.435,29.0,111.0
68133,0.472,-0.715,-0.333,-3.931,-13.679,-19.206,37.0,111.0
68193,0.404,-0.689,-0.324,75.237,11.160,-36.053,0.0,110.0
68248,-0.508,-0.862,-0.070,149.947,-15.076,-96.153,0.0,101.0
68294,-2.000,-1.004,-0.762,222.122,63.969,-192.008,45.0,98.0
68349,-2.000,-0.150,-0.135,154.015,224.160,-80.626,0.0,95.0
68405,-1.843,-0.034,0.232,83.153,4.237,-46.756,0.0,96.0
68460,-0.567,0.366,-0.126,100.672,-19.107,-58.702,0.0,100.0
68515,-0.322,0.780,0.073,78.397,74.153,-30.397,0.0,102.0
68614,-0.469,0.749,0.059,-19.947,-16.458,72.076,0.0,97.0
68668,-1.361,0.635,-0.423,-86.313,45.237,139.282,0.0,92.0
68726,-2.000,-0.897,-0.530,-109.260,-36.008,111.725,0.0,93.0
68782,-1.801,-1.017,-0.119,-120.206,-54.443,103.321,0.0,97.0
68837,-0.734,-0.543,0.058,-95.824,-35.122,4.344,0.0,103.0
68893,-0.194,-0.439,-0.027,-70.023,-24.863,-42.702,0.0,106.0
68948,0.318,-0.460,-0.264,-13.573,-23.954,-54.725,0.0,106.0
69004,0.221,-0.559,-0.388,64.802,4.901,-47.649,0.0,101.0
69059,-0.883,-1.120,-0.711,178.374,20.878,-93.679,0.0,95.0
69105,-2.000,-0.960,-0.317,160.366,184.153,-129.824,45.0,92.0
69164,-2.000,-0.453,0.380,88.313,96.641,-32.992,0.0,92.0
69219,-1.122,0.048,-0.009,128.267,-15.084,-44.450,0.0,103.0
69274,-0.435,0.647,-0.105,131.496,53.183,-16.405,0.0,100.0
69329,-0.466,0.664,0.168,91.771,59.000,21.893,0.0,99.0
69385,-0.336,0.613,0.208,32.542,-4.282,56.450,0.0,96.0
69440,-0.648,0.450,0.055,-39.061,-6.023,112.733,0.0,93.0
69494,-2.000,-0.216,-0.138,-64.053,-33.130,110.748,0.0,90.0
69550,-2.000,-0.575,-0.192,-36.802,-36.321,103.405,0.0,91.0
69596,-1.551,-0.793,0.178,-61.321,-11.359,74.122,32.0,96.0
69644,-0.698,-0.350,0.229,-83.779,-26.756,6.992,30.0,99.0
69690,-0.097,-0.458,0.026,-66.878,-31.557,-19.794,30.0,103.0
69736,0.445,-0.521,-0.260,8.191,-46.046,-27.771,30.0,105.0
69782,0.529,-0.547,-0.506,97.931,-5.695,-57.786,30.0,104.0
69828,-0.214,-0.684,-0.433,165.618,66.565,-73.786,38.0,97.0
69878,-2.000,-0.776,-0.536,234.878,138.557,-100.527,37.0,90.0
69932,-2.000,-0.234,0.069,133.847,124.046,-50.198,0.0,88.0
69977,-1.660,-0.384,-0.122,108.153,-13.718,-33.084,44.0,90.0
70031,-0.766,0.223,-0.220,137.496,41.618,-48.130,0.0,98.0
70088,-0.532,0.562,0.025,118.679,77.046,-43.496,0.0,96.0
70142,-0.510,0.827,0.259,81.786,4.962,-30.489,0.0,99.0
70197,-0.396,0.842,0.141,7.664,-9.046,40.397,0.0,94.0
70250,-0.995,0.474,0.026,-75.511,5.130,145.450,0.0,89.0
70304,-2.000,-0.077,-0.054,-114.847,-47.573,165.817,0.0,88.0
70348,-2.000,-0.620,-0.436,-72.237,-115.473,125.878,36.0,88.0
70393,-1.745,-0.780,-0.177,-64.992,-43.397,97.122,33.0,92.0
70438,-0.976,-0.490,0.008,-53.359,-15.237,30.725,41.0,98.0
70487,-0.377,-0.400,0.000,-38.656,-9.366,-12.496,43.0,101.0
70533,0.065,-0.612,-0.178,8.969,-40.183,-62.939,41.0,104.0
70587,0.331,-0.505,-0.312,60.099,-40.664,-112.496,0.0,102.0
70641,-0.141,-0.581,-0.309,106.802,11.695,-132.595,0.0,99.0
70686,-1.906,-0.867,-0.448,181.107,124.939,-162.527,36.0,93.0
70731,-2.000,-0.380,0.068,158.313,126.496,-81.336,45.0,90.0
70786,-1.986,-0.139,0.151,107.191,15.702,-53.405,0.0,94.0
70840,-1.157,0.097,-0.109,104.573,11.344,-69.603,0.0,97.0
70895,-0.685,0.371,-0.016,88.702,52.702,-52.641,0.0,101.0
70952,-0.423,0.563,0.338,46.740,41.603,-34.771,0.0,101.0
71007,-0.246,0.599,0.363,-14.847,-14.649,5.542,0.0,101.0
71061,-0.752,0.410,-0.169,-62.534,-6.786,55.076,0.0,95.0
71115,-2.000,-0.538,-0.307,-66.198,-15.603,122.710,0.0,90.0
71160,-2.000,-0.917,-0.172,-73.336,-80.695,169.863,36.0,90.0
71248,-0.726,-0.513,-0.020,-78.985,-31.824,51.702,36.0,98.0
71303,-0.313,-0.483,-0.076,-69.733,-29.023,-7.122,0.0,102.0
71349,0.415,-0.631,-0.348,-16.618,-3.832,-77.328,33.0,102.0
71406,0.346,-0.738,-0.319,21.802,35.351,-97.450,0.0,100.0
71460,-1.043,-1.203,-0.367,96.931,62.748,-103.282,0.0,95.0
71515,-2.000,-0.772,-0.210,136.840,109.344,-94.137,0.0,94.0
71569,-2.000,-0.407,0.283,83.672,47.947,-35.992,0.0,93.0
71623,-1.265,-0.266,-0.044,94.954,-1.244,-35.664,0.0,99.0
71678,-0.584,0.338,-0.045,91.908,55.718,-22.771,0.0,104.0
71734,-0.485,0.636,0.185,46.679,58.053,-15.221,0.0,104.0
71788,-0.411,0.622,0.302,-8.466,2.351,23.023,0.0,102.0
71843,-0.672,0.442,0.196,-83.160,-18.160,82.863,0.0,103.0
71891,-2.000,-0.369,-0.166,-113.855,-47.229,92.466,45.0,95.0
71937,-2.000,-0.698,-0.374,-78.221,-107.267,115.992,37.0,91.0
71982,-1.792,-0.885,-0.410,-50.595,-85.618,121.389,35.0,94.0
72027,-1.045,-0.572,-0.205,-40.206,-32.962,82.695,36.0,97.0
72073,-0.580,-0.466,-0.147,-52.115,-13.107,50.481,44.0,100.0
72118,-0.117,-0.579,-0.186,-39.450,-6.969,-4.588,40.0,103.0
72164,0.272,-0.584,-0.246,-9.672,13.664,-70.962,33.0,103.0
72209,0.258,-0.589,-0.216,18.504,36.664,-108.344,39.0,102.0
72258,-0.781,-1.022,-0.300,76.260,43.641,-145.779,44.0,96.0
72312,-1.903,-0.890,-0.314,128.260,83.015,-143.405,0.0,92.0
72367,-2.000,-0.583,0.013,118.359,78.420,-50.664,0.0,96.0
72413,-1.639,-0.302,0.134,108.115,15.542,-36.542,51.0,95.0
72467,-1.043,0.028,0.065,107.450,6.580,-33.840,0.0,99.0
72522,-0.575,0.431,0.082,83.092,16.557,-33.069,0.0,109.0
72578,-0.260,0.683,0.041,42.756,29.061,-23.198,0.0,105.0
72633,-0.592,0.715,0.066,-44.099,39.427,53.504,0.0,101.0
72687,-1.496,0.533,-0.260,-125.450,-4.427,132.847,0.0,103.0
72736,-2.000,-0.248,-0.553,-141.550,-58.893,175.557,47.0,92.0
72791,-2.000,-0.565,-0.427,-144.344,-43.511,155.863,0.0,92.0
72837,-1.279,-0.722,-0.199,-127.710,-36.328,76.130,41.0,95.0
72891,-0.622,-0.635,-0.134,-117.053,-21.389,16.382,0.0,99.0
72946,-0.045,-0.770,-0.288,-76.206,-7.221,-72.511,0.0,98.0
72992,0.116,-0.675,-0.255,-7.427,28.183,-134.359,41.0,98.0
73047,-0.417,-0.879,-0.224,48.672,28.435,-155.511,0.0,93.0
73093,-1.779,-1.044,-0.296,120.366,39.832,-157.893,48.0,92.0
73150,-2.000,-0.920,-0.118,119.817,77.573,-63.214,0.0,97.0
73204,-1.625,-0.309,0.140,95.275,67.992,-35.924,0.0,94.0
73260,-1.011,0.092,0.099,100.824,27.427,-27.962,0.0,107.0
73315,-0.476,0.729,0.172,81.939,41.168,-9.290,0.0,104.0
73370,-0.154,0.890,0.243,35.076,10.786,41.221,0.0,102.0
73425,-0.474,0.786,-0.024,-64.267,19.427,114.580,0.0,99.0
73480,-1.721,0.394,-0.408,-125.718,-1.443,162.328,0.0,96.0
73534,-2.000,-0.314,-0.532,-154.664,-89.969,179.519,0.0,91.0
73580,-1.895,-0.781,-0.454,-108.260,-56.473,138.359,33.0,96.0
73629,-1.124,-0.781,-0.113,-106.000,8.076,81.901,45.0,101.0
73675,-0.555,-0.745,-0.013,-94.443,-15.206,11.756,40.0,106.0
73731,0.021,-0.783,-0.199,-60.504,-34.053,-46.931,0.0,104.0
73777,0.402,-0.711,-0.362,8.763,0.412,-78.840,38.0,105.0
73874,-1.555,-0.828,-0.430,157.061,95.985,-184.809,0.0,95.0
73929,-2.000,-0.484,-0.201,148.504,110.779,-103.893,0.0,96.0
73985,-1.798,0.070,0.006,108.511,49.656,-63.145,0.0,99.0
74040,-1.119,0.362,0.058,91.473,31.046,-43.252,0.0,101.0
74098,-0.609,0.709,0.206,52.046,19.198,-12.443,0.0,105.0
74153,-0.269,0.688,0.217,10.901,-9.908,28.191,0.0,102.0
74208,-0.543,0.513,0.016,-46.718,-12.450,92.191,0.0,99.0
74263,-1.456,0.210,-0.281,-100.489,14.061,152.779,0.0,96.0
74308,-2.000,-0.717,-0.281,-111.626,-45.878,123.901,36.0,93.0
74353,-1.934,-0.728,-0.230,-97.084,-66.374,76.282,34.0,94.0
74408,-1.260,-0.551,-0.131,-78.870,-15.023,24.924,0.0,97.0
74455,-0.695,-0.353,-0.022,-68.305,4.954,-10.023,31.0,101.0
74509,-0.273,-0.469,-0.067,-41.145,-18.221,-38.160,0.0,102.0
74559,0.272,-0.605,-0.348,16.534,-32.237,-48.351,43.0,104.0
74614,-0.043,-0.740,-0.195,65.160,9.389,-66.779,0.0,100.0
74669,-1.274,-1.046,-0.415,165.550,85.664,-119.221,0.0,94.0
74724,-2.000,-0.546,-0.146,163.015,136.351,-73.786,0.0,93.0
74779,-1.903,-0.084,0.034,136.649,27.412,-45.611,0.0,96.0
74834,-0.882,0.402,-0.021,122.168,32.939,-35.214,0.0,101.0
74890,-0.511,0.765,0.221,72.435,39.420,-20.397,0.0,101.0
74945,-0.171,0.680,0.229,21.756,-1.374,14.389,0.0,103.0
74999,-0.527,0.518,0.180,-37.489,16.664,96.702,0.0,94.0
75058,-1.872,0.246,0.239,-95.763,19.733,153.947,0.0,90.0
75112,-2.000,-1.122,-0.261,-10.313,-112.908,82.550,0.0,90.0
75158,-1.304,-0.574,-0.075,2.305,-23.595,79.725,31.0,92.0
75203,-0.846,-0.296,0.114,-20.557,20.145,25.870,32.0,95.0
75248,-0.366,-0.349,-0.025,-33.183,-1.481,-9.878,32.0,100.0
75294,0.138,-0.526,-0.268,-13.092,-6.450,-35.137,31.0,99.0
75339,0.238,-0.620,-0.364,27.344,13.229,-34.046,31.0,97.0
75384,-0.376,-1.008,-0.449,109.672,42.038,-48.901,33.0,94.0
75432,-2.000,-0.899,-0.340,226.191,53.427,-130.008,35.0,91.0
75479,-2.000,-0.665,-0.175,206.939,66.809,-96.389,45.0,91.0
75534,-1.877,-0.002,0.065,154.595,92.275,-66.519,0.0,89.0
75588,-1.243,0.368,-0.002,151.847,43.756,-55.817,0.0,93.0
75643,-0.547,0.994,-0.058,112.824,10.282,-38.679,0.0,97.0
75699,-0.135,0.897,0.065,37.084,12.336,8.336,0.0,96.0
75753,-0.570,0.571,0.093,-35.756,29.992,87.389,0.0,93.0
75808,-1.870,0.090,0.015,-78.878,12.023,135.443,0.0,88.0
75853,-2.000,-0.971,-0.354,-43.954,-50.527,93.115,34.0,87.0
75901,-1.771,-0.760,-0.021,-60.504,-32.519,67.237,36.0,90.0
75957,-1.071,-0.560,0.042,-65.855,-30.290,10.962,0.0,95.0
76003,-0.289,-0.488,0.005,-47.672,-40.267,-32.298,31.0,100.0
76055,0.396,-0.643,-0.378,20.656,-27.580,-66.939,143.0,100.0
76110,0.347,-0.588,-0.411,101.557,28.947,-64.802,0.0,97.0
76166,-0.800,-1.025,-0.333,165.420,56.840,-69.130,0.0,93.0
76220,-2.000,-0.712,-0.274,189.649,86.588,-103.626,0.0,94.0
76275,-2.000,-0.287,0.102,93.000,76.985,-27.580,0.0,92.0
76334,-1.163,0.148,-0.012,98.603,17.573,-27.214,0.0,100.0
76381,-0.556,0.645,0.110,73.550,39.366,-12.878,46.0,98.0
76427,-0.321,0.736,0.244,34.756,13.580,16.153,44.0,99.0
76525,-0.764,0.460,-0.043,-64.779,14.252,113.023,0.0,93.0
76584,-2.000,-0.337,-0.318,-86.221,0.649,120.870,0.0,91.0
76630,-2.000,-0.851,-0.334,-62.763,-41.817,79.153,45.0,91.0
76675,-1.346,-0.598,-0.081,-77.748,-24.901,25.573,36.0,96.0
76720,-0.776,-0.262,0.000,-86.886,-26.527,-26.290,37.0,101.0
76765,-0.208,-0.300,-0.090,-90.397,-40.031,-46.573,32.0,101.0
76813,0.307,-0.494,-0.284,-40.328,-43.870,-61.214,40.0,102.0
76858,0.243,-0.592,-0.346,38.466,-12.084,-68.504,40.0,100.0
76903,-0.856,-0.948,-0.233,102.702,8.008,-68.160,41.0,97.0
76949,-1.744,-0.978,-0.529,189.313,32.802,-50.427,43.0,100.0
76994,-1.914,-0.582,-0.189,159.450,123.771,-38.244,44.0,95.0
77039,-1.996,-0.238,0.220,110.443,42.779,-36.588,44.0,98.0
77093,-1.151,0.033,-0.019,103.328,-28.366,-51.015,0.0,100.0
77149,-0.505,0.567,0.097,88.466,-1.809,-46.855,0.0,103.0
77206,-0.195,0.817,0.201,39.336,-11.466,-14.206,0.0,106.0
77260,-0.401,0.655,0.023,-44.565,-14.237,57.954,0.0,102.0
77306,-1.262,0.320,-0.370,-92.687,40.496,122.252,46.0,97.0
77351,-2.000,-0.260,-0.461,-111.908,-14.176,103.580,44.0,98.0
77398,-2.000,-0.444,-0.386,-121.611,-46.504,75.313,43.0,99.0
77443,-1.525,-0.715,-0.201,-142.031,-33.069,47.382,42.0,101.0
77489,-0.873,-0.538,0.004,-136.313,-60.992,8.435,37.0,106.0
77534,-0.235,-0.591,-0.119,-98.573,-82.870,-16.626,37.0,109.0
77589,0.282,-0.546,-0.224,-41.496,-70.023,-26.679,0.0,113.0
77647,0.406,-0.677,-0.423,59.191,0.015,-45.847,0.0,108.0
77703,-0.695,-0.910,-0.257,126.656,19.832,-56.344,0.0,102.0
77748,-2.000,-0.773,-0.300,159.061,113.595,-129.969,44.0,101.0
77794,-2.000,-0.331,0.389,74.015,90.550,-41.397,45.0,99.0
77848,-1.466,-0.193,0.216,50.756,-32.115,-19.809,0.0,100.0
77903,-0.466,0.524,0.032,78.916,14.313,-36.412,0.0,103.0
77958,-0.352,0.851,0.270,67.702,30.916,-19.267,0.0,104.0
78013,-0.538,0.841,0.160,-2.641,5.084,34.038,0.0,101.0
78070,-1.249,0.577,-0.206,-109.634,17.542,118.244,0.0,97.0
78115,-2.000,-0.493,-0.564,-149.153,-26.718,107.557,43.0,97.0
78161,-2.000,-0.587,-0.458,-152.076,-23.748,51.756,45.0,98.0
78208,-1.498,-0.602,-0.331,-157.985,-22.427,12.664,44.0,100.0
78253,-0.707,-0.463,-0.230,-151.786,-48.168,-8.656,43.0,104.0
78299,0.037,-0.519,-0.241,-124.076,-34.908,-38.534,43.0,106.0
78345,0.421,-0.527,-0.250,-71.977,-0.206,-49.389,42.0,107.0
78391,0.263,-0.643,-0.191,1.023,21.893,-54.855,42.0,105.0
78437,-0.500,-0.877,-0.133,72.573,5.580,-72.954,43.0,99.0
78485,-2.000,-0.895,-0.385,148.672,51.954,-130.511,48.0,95.0
78531,-2.000,-0.424,0.039,86.649,108.817,-31.252,48.0,103.0
78577,-1.834,-0.343,0.229,44.237,6.344,-6.137,51.0,97.0
78631,-1.006,-0.013,-0.000,66.214,-18.542,-22.580,0.0,100.0
78687,-0.556,0.480,0.061,65.374,32.611,-13.840,0.0,102.0
78742,-0.431,0.697,0.257,19.695,3.053,2.542,0.0,104.0
78796,-0.471,0.628,0.179,-58.802,-31.863,51.824,0.0,102.0
78842,-0.931,0.385,-0.046,-140.969,-58.221,76.557,51.0,98.0
78892,-2.000,-0.454,-0.474,-151.870,-38.191,63.649,49.0,96.0
78946,-2.000,-0.646,-0.602,-118.221,-62.107,47.122,0.0,98.0
79035,-0.726,-0.766,-0.138,-89.756,-37.427,49.031,36.0,103.0
79081,0.021,-0.712,-0.164,-73.534,-21.901,24.802,36.0,106.0
79127,0.415,-0.627,-0.208,-36.458,-9.550,-5.298,42.0,109.0
79173,0.259,-0.645,-0.180,33.618,16.779,-53.779,41.0,108.0
79219,-0.587,-0.787,-0.211,85.550,39.656,-98.344,43.0,102.0
79265,-1.697,-0.686,-0.205,106.580,90.366,-102.168,44.0,100.0
79311,-2.000,-0.588,-0.074,78.794,107.534,-51.595,45.0,100.0
79369,-1.721,-0.285,0.083,80.198,52.969,-36.870,0.0,99.0
79415,-0.986,0.162,0.085,75.969,45.015,-27.458,49.0,103.0
79470,-0.616,0.574,0.204,60.679,56.641,-12.908,0.0,104.0
79525,-0.469,0.673,0.318,27.473,22.206,19.550,0.0,103.0
79581,-0.569,0.590,0.177,-48.481,-16.740,78.542,0.0,101.0
79635,-1.679,0.227,-0.345,-114.031,-2.466,102.588,0.0,97.0
79681,-2.000,-0.744,-0.620,-97.176,-40.985,94.321,47.0,95.0
79726,-1.933,-0.716,-0.274,-103.298,-44.328,73.191,37.0,96.0
79784,-1.119,-0.583,-0.099,-91.740,-46.542,28.542,0.0,104.0
79840,-0.270,-0.520,-0.056,-77.382,-40.023,5.466,0.0,103.0
79895,0.390,-0.644,-0.280,-27.092,-16.824,-31.969,0.0,104.0
79950,0.281,-0.871,-0.376,35.901,27.252,-45.733,0.0,101.0
80005,-1.286,-1.242,-0.764,168.748,113.901,-152.137,0.0,96.0
80051,-2.000,-0.825,0.001,126.214,107.244,-80.779,48.0,94.0
80106,-1.879,-0.374,0.147,106.702,14.450,-41.015,0.0,96.0
80160,-0.717,0.175,-0.067,129.702,37.389,-39.611,0.0,100.0
80216,-0.423,0.681,0.019,106.916,79.679,-30.916,0.0,101.0
80274,-0.419,0.778,0.234,45.908,29.832,11.649,0.0,100.0
80329,-0.603,0.666,0.096,-23.595,-6.885,88.435,0.0,97.0
80374,-1.486,0.217,-0.088,-77.947,7.435,123.206,44.0,92.0
80429,-2.000,-1.138,-0.346,-56.237,-29.130,90.840,0.0,90.0
80484,-2.000,-0.815,-0.114,-69.405,-29.366,98.069,0.0,94.0
80529,-1.014,-0.508,0.104,-80.023,-27.939,43.977,33.0,98.0
80574,-0.337,-0.487,0.065,-73.687,-37.878,19.298,32.0,100.0
80620,0.282,-0.662,-0.093,-30.389,-48.847,1.878,30.0,105.0
80669,0.635,-0.761,-0.427,64.168,-36.840,-15.511,41.0,101.0
80714,-0.072,-1.000,-0.510,160.359,25.634,-71.595,38.0,96.0
80759,-2.000,-1.040,-0.681,250.130,107.931,-130.840,33.0,92.0
80814,-2.000,-0.398,0.117,178.901,137.687,-51.641,0.0,89.0
80860,-1.734,-0.197,0.076,121.275,4.443,-28.550,43.0,91.0
80915,-0.781,0.214,-0.151,154.931,11.038,-53.122,0.0,95.0
80961,-0.359,0.753,-0.116,149.389,65.855,-42.534,43.0,98.0
81015,-0.263,0.836,0.116,104.107,53.313,-24.267,0.0,94.0
81061,-0.462,0.725,0.140,31.954,6.031,27.252,45.0,91.0
81119,-1.339,0.437,0.053,-50.908,2.366,103.496,0.0,87.0
81164,-2.000,-0.792,-0.310,-69.221,-53.618,93.962,45.0,85.0
81209,-2.000,-0.630,0.058,-73.145,-8.374,91.191,45.0,86.0
81264,-1.742,-0.908,0.190,-89.916,-16.985,54.618,0.0,91.0
81318,-0.702,-0.531,0.095,-66.870,-39.519,5.397,0.0,95.0
81374,0.011,-0.507,-0.026,-15.840,-23.473,-8.107,0.0,99.0
81429,0.135,-0.536,-0.075,64.534,-59.733,-15.481,0.0,99.0
81484,-0.129,-0.724,-0.292,157.756,-56.267,-43.534,0.0,96.0
81539,-1.766,-0.713,-0.259,208.901,82.008,-114.382,0.0,91.0
81640,-1.606,-0.279,0.205,91.656,30.962,-50.641,0.0,92.0
81686,-0.682,0.315,0.020,130.641,7.611,-82.649,46.0,95.0
81732,-0.446,0.615,0.054,126.603,35.672,-68.557,46.0,96.0
81787,-0.526,0.573,0.228,90.832,40.908,-8.649,0.0,97.0
81842,-0.804,0.467,0.335,22.298,-7.244,61.489,0.0,94.0
81888,-1.389,0.174,0.072,-29.656,-57.397,82.237,45.0,92.0
81942,-1.910,-0.886,-0.463,-31.092,-38.092,45.481,0.0,91.0
81989,-1.985,-0.833,0.077,-60.405,-19.275,62.817,45.0,93.0
82037,-1.014,-0.731,0.197,-63.603,-42.206,30.534,36.0,97.0
82083,-0.367,-0.620,0.061,-55.076,-25.779,10.916,36.0,100.0
82129,0.168,-0.502,-0.191,-21.282,11.305,4.779,39.0,102.0
82176,0.383,-0.534,-0.289,32.664,51.718,5.702,39.0,102.0
82222,0.205,-0.681,-0.250,105.779,72.824,-27.962,39.0,99.0
82268,-0.884,-0.853,-0.394,176.809,59.740,-83.061,44.0,93.0
82322,-2.000,-0.726,-0.344,169.206,73.534,-121.985,0.0,89.0
82368,-2.000,-0.552,0.065,85.000,94.099,-22.901,48.0,89.0
82423,-1.419,-0.199,0.103,108.893,55.183,-31.153,0.0,92.0
82482,-0.709,0.440,0.088,117.053,62.366,-33.840,0.0,93.0
82537,-0.608,0.639,0.231,89.214,48.527,-10.901,0.0,94.0
82591,-0.626,0.629,0.203,28.557,15.794,62.794,0.0,92.0
82646,-1.021,0.417,0.127,-58.779,-4.565,134.389,0.0,88.0
82692,-2.000,-0.753,-0.131,-92.687,-69.046,135.893,46.0,86.0
82738,-2.000,-0.969,-0.299,-46.855,-86.351,99.702,38.0,89.0
82783,-1.497,-0.840,-0.117,-45.771,-17.145,72.267,35.0,91.0
82829,-1.007,-0.422,0.097,-54.198,-5.954,5.656,44.0,95.0
82884,-0.343,-0.453,-0.056,-53.466,-19.786,-31.107,0.0,100.0
82944,0.318,-0.565,-0.215,2.168,-8.374,-65.275,0.0,101.0
82999,0.186,-0.624,-0.250,90.634,-4.840,-70.527,0.0,99.0
83059,-0.990,-0.807,-0.262,180.328,-16.260,-88.336,0.0,94.0
83104,-1.767,-0.573,-0.574,211.924,98.847,-94.626,47.0,91.0
83149,-2.000,-0.200,-0.043,124.298,169.641,-76.046,46.0,91.0
83194,-1.888,-0.169,0.179,84.115,57.443,-63.076,47.0,92.0
83249,-0.947,0.204,-0.062,89.931,36.290,-59.389,0.0,95.0
83303,-0.615,0.748,0.217,71.130,94.153,-24.374,0.0,99.0
83360,-0.532,0.839,0.479,10.969,0.580,36.412,0.0,97.0
83414,-0.759,0.476,0.007,-59.359,-56.221,111.901,0.0,93.0
83459,-2.000,-0.099,-0.265,-76.420,-24.748,133.901,46.0,90.0
83513,-2.000,-1.004,-0.385,-64.275,-60.122,132.756,0.0,92.0
83558,-1.447,-0.888,-0.092,-67.031,-64.985,92.031,33.0,95.0
83603,-0.715,-0.590,-0.062,-57.786,-45.626,29.183,39.0,99.0
83648,-0.138,-0.515,-0.091,-54.557,-26.450,-22.107,40.0,102.0
83694,0.366,-0.665,-0.297,3.290,3.870,-66.473,42.0,103.0
83748,0.317,-0.525,-0.234,51.863,13.802,-70.855,0.0,101.0
83805,-0.456,-0.940,-0.341,102.107,31.443,-83.931,0.0,95.0
83859,-2.000,-1.064,-0.419,143.031,74.588,-139.847,0.0,91.0
83905,-2.000,-0.386,0.135,47.229,93.718,-68.740,49.0,91.0
83959,-1.665,-0.219,0.137,54.489,18.115,-39.176,0.0,95.0
84014,-0.781,0.317,0.062,83.672,39.931,-20.473,0.0,98.0
84068,-0.525,0.600,0.307,68.786,42.893,0.573,0.0,99.0
84122,-0.280,0.723,0.404,14.664,-23.947,50.244,0.0,99.0
84210,-1.830,0.275,-0.226,-98.756,-23.412,118.115,48.0,93.0
84256,-2.000,-0.951,-0.621,-83.496,-66.267,102.626,44.0,92.0
84304,-1.829,-0.681,-0.242,-81.809,-33.977,93.786,45.0,95.0
84349,-1.138,-0.567,-0.033,-99.901,-32.969,36.588,36.0,99.0
84395,-0.413,-0.466,-0.073,-98.122,-53.260,-6.336,33.0,102.0
84441,0.340,-0.651,-0.298,-62.473,-35.252,-42.160,38.0,104.0
84495,0.603,-0.637,-0.430,8.298,18.038,-66.397,0.0,103.0
84541,-0.005,-0.809,-0.255,68.557,81.580,-99.366,42.0,99.0
84586,-1.859,-1.408,-0.410,143.168,37.702,-130.298,46.0,94.0
84631,-2.000,-0.801,-0.394,146.183,98.603,-89.626,47.0,93.0
84680,-2.000,-0.387,0.263,73.031,107.122,-13.023,51.0,93.0
84734,-1.554,-0.307,0.123,72.145,-16.176,-17.183,0.0,98.0
84789,-0.577,0.245,0.004,95.046,-5.282,-27.397,0.0,101.0
84844,-0.269,0.715,0.244,63.099,24.061,-15.794,0.0,105.0
84899,-0.123,0.871,0.209,-24.710,-17.824,18.832,0.0,103.0
84954,-0.644,0.678,-0.311,-115.489,-22.237,54.740,0.0,96.0
85008,-2.000,0.211,-0.655,-161.672,12.290,108.053,0.0,92.0
85053,-2.000,-0.882,-0.728,-160.641,-89.397,90.115,47.0,92.0
85098,-1.792,-1.001,-0.432,-131.092,-83.237,71.679,36.0,95.0
85147,-0.921,-0.799,-0.204,-106.282,-43.702,46.137,37.0,100.0
85192,-0.331,-0.660,-0.126,-90.206,-70.267,24.183,38.0,103.0
85238,0.300,-0.520,-0.283,-65.107,-87.947,-1.939,41.0,108.0
85284,0.557,-0.561,-0.563,-2.908,-22.275,-37.443,40.0,105.0
85329,-0.061,-0.632,-0.105,39.969,42.336,-88.771,40.0,101.0
85385,-1.679,-1.000,-0.320,112.496,83.824,-144.931,0.0,96.0
85430,-2.000,-0.647,-0.105,117.137,96.504,-61.679,45.0,97.0
85476,-1.773,0.007,0.273,92.985,45.336,-34.061,47.0,98.0
85534,-0.967,0.279,0.220,80.183,22.588,-40.412,0.0,101.0
85588,-0.512,0.606,0.286,46.878,10.420,-33.519,0.0,105.0
85644,-0.174,0.652,0.208,-9.702,-35.664,-2.931,0.0,104.0
85699,-0.451,0.670,-0.104,-83.511,-2.176,34.656,0.0,100.0
85753,-1.652,0.304,-0.428,-138.351,4.847,81.298,0.0,95.0
85799,-2.000,-0.846,-0.906,-137.183,-60.183,78.252,47.0,97.0
85855,-1.906,-0.874,-0.419,-139.168,-31.099,109.672,0.0,109.0
85901,-0.871,-0.823,-0.021,-124.336,-30.771,76.886,45.0,103.0
85959,0.102,-0.816,-0.050,-96.557,-53.053,33.229,0.0,108.0
86014,0.745,-0.836,-0.204,6.756,-61.832,-32.427,0.0,108.0
86061,0.360,-0.766,-0.233,87.183,25.695,-126.282,43.0,103.0
86107,-2.000,-1.628,-0.781,162.176,101.756,-164.221,47.0,97.0
86153,-2.000,-0.764,-0.197,125.397,136.183,-85.496,50.0,94.0
86208,-2.000,-0.290,0.299,55.008,54.092,-21.588,0.0,98.0
86254,-1.015,-0.075,0.119,64.611,3.450,-32.107,50.0,100.0
86309,-0.564,0.483,0.167,68.092,37.733,-34.015,0.0,112.0
86365,-0.388,0.812,0.353,26.847,19.924,-11.000,0.0,102.0
86431,-0.711,0.633,0.038,-63.160,-36.183,71.611,0.0,102.0
86480,-1.539,0.166,-0.486,-116.084,-7.351,151.916,46.0,97.0
86529,-2.000,-0.845,-0.665,-105.519,-32.489,117.496,47.0,93.0
86577,-1.944,-0.790,-0.245,-123.153,-17.450,67.519,45.0,95.0
86634,-1.304,-0.779,-0.077,-134.847,-32.756,17.878,0.0,100.0
86691,-0.322,-0.577,-0.002,-124.771,-42.351,-10.847,0.0,105.0
86793,0.483,-0.718,-0.373,52.115,-19.733,-30.206,0.0,104.0
86841,-0.287,-0.904,-0.449,171.198,42.588,-65.489,43.0,102.0
86901,-2.000,-0.922,-0.353,206.763,126.290,-156.107,0.0,93.0
86959,-2.000,-0.397,0.291,81.435,74.275,-36.603,0.0,94.0
87016,-1.064,-0.003,0.001,95.641,8.305,-31.267,0.0,99.0
87073,-0.518,0.422,0.026,109.351,51.573,-16.527,0.0,101.0
87131,-0.348,0.613,0.202,82.359,49.053,-3.481,0.0,101.0
87188,-0.444,0.680,0.144,16.763,11.344,33.008,0.0,97.0
87245,-1.107,0.490,-0.116,-86.397,26.023,92.443,0.0,94.0
87302,-2.000,-0.948,-0.459,-110.969,-21.130,72.481,0.0,91.0
87351,-1.969,-0.953,-0.016,-107.252,-52.099,89.664,44.0,95.0
87402,-0.976,-0.670,0.152,-82.198,-37.107,37.626,43.0,99.0
87459,-0.308,-0.641,0.135,-67.420,-44.595,14.916,0.0,103.0
87518,0.369,-0.786,-0.180,2.534,-95.664,-0.145,0.0,107.0
87575,0.336,-1.162,-0.598,107.351,-38.229,-75.305,0.0,101.0
87623,-1.406,-1.114,-0.743,190.260,114.840,-179.076,43.0,95.0
87681,-2.000,-0.595,-0.069,140.481,156.840,-148.641,0.0,94.0
87738,-2.000,-0.188,0.235,108.244,40.206,-51.183,0.0,95.0
87795,-0.816,0.363,0.056,118.038,72.931,-31.565,0.0,100.0
87854,-0.543,0.800,0.193,98.198,80.115,-2.885,0.0,100.0
87914,-0.342,0.875,0.332,35.595,39.382,56.053,0.0,99.0
87971,-0.852,0.506,0.108,-61.740,9.336,117.992,0.0,93.0
88019,-2.000,-0.271,-0.114,-117.656,1.511,136.504,47.0,88.0
88067,-2.000,-1.007,-0.429,-70.504,-72.427,86.481,38.0,89.0
88115,-1.613,-0.819,-0.202,-87.626,-30.534,70.122,43.0,92.0
88163,-1.039,-0.480,-0.001,-77.702,-14.641,11.290,38.0,97.0
88211,-0.365,-0.462,0.046,-65.725,-30.099,-11.313,38.0,100.0
88269,0.299,-0.675,-0.202,-14.748,-55.504,-25.550,0.0,106.0
88330,0.303,-0.753,-0.431,85.053,-27.008,-53.870,0.0,99.0
88378,-1.090,-1.049,-0.662,194.687,49.687,-102.886,42.0,93.0
88426,-2.000,-0.660,-0.313,199.740,170.695,-111.779,44.0,90.0
88483,-2.000,-0.280,0.219,129.824,78.267,-58.008,0.0,90.0
88541,-1.149,0.225,-0.103,130.061,13.031,-66.481,0.0,99.0
88598,-0.648,0.801,0.093,99.817,64.550,-35.748,0.0,97.0
88656,-0.405,0.768,0.377,40.893,1.611,12.641,0.0,97.0
88714,-0.437,0.678,0.167,-36.855,-45.382,93.260,0.0,101.0
88771,-1.777,0.013,-0.138,-81.168,-9.863,112.886,0.0,90.0
88822,-2.000,-0.941,-0.289,-77.626,-76.748,94.481,45.0,90.0
88870,-1.388,-0.716,-0.134,-76.427,-30.504,50.405,34.0,96.0
88919,-0.877,-0.494,0.079,-66.824,-6.275,7.267,33.0,97.0
88976,-0.233,-0.501,0.075,-39.328,-27.435,-31.267,0.0,100.0
89033,0.364,-0.694,-0.217,24.092,-45.481,-70.076,0.0,101.0
89092,-0.068,-1.031,-0.412,85.092,3.878,-113.435,0.0,96.0
89140,-1.897,-1.097,-0.738,168.275,93.763,-138.000,44.0,93.0
89197,-2.000,-0.454,0.075,123.924,110.901,-57.527,0.0,94.0
89257,-1.590,-0.125,0.219,104.153,66.977,-40.107,0.0,91.0
89315,-1.082,0.289,0.147,114.458,87.534,-16.458,0.0,97.0
89373,-0.762,0.625,0.348,83.328,83.893,19.298,0.0,98.0
89431,-0.385,0.673,0.432,23.321,-4.244,58.374,0.0,97.0
89488,-0.710,0.423,0.128,-76.939,-26.328,132.473,0.0,90.0
