Timestamp(ms),AccelX(g),AccelY(g),AccelZ(g),GyroX(deg/s),GyroY(deg/s),GyroZ(deg/s),DistanceLeft(cm),DistanceRight(cm)
47528,-0.161,-0.598,-0.335,-43.359,-10.664,8.382,40.0,107.0
47575,0.260,-0.604,-0.309,-19.649,-4.511,-23.237,41.0,99.0
47619,0.485,-0.547,-0.337,14.634,19.878,-42.229,37.0,93.0
47669,0.037,-0.716,0.015,56.786,31.374,-90.802,118.0,98.0
47713,-1.328,-1.050,-0.247,135.229,51.725,-220.473,36.0,86.0
47759,-2.000,-0.588,0.106,87.664,168.969,-168.221,48.0,100.0
47813,-2.000,-0.527,0.311,32.771,106.382,-38.443,0.0,91.0
47861,-1.305,-0.159,0.043,65.504,-40.427,-24.718,50.0,93.0
47917,-0.629,0.095,-0.036,62.809,4.099,-11.557,0.0,107.0
47971,-0.376,0.386,0.221,38.260,32.344,-7.092,0.0,105.0
48026,-0.101,0.730,0.300,-12.916,-8.672,10.214,0.0,105.0
48071,-0.489,0.550,-0.019,-97.427,-20.260,66.122,51.0,95.0
48125,-2.000,-0.011,-0.541,-105.023,29.695,107.786,0.0,95.0
48172,-2.000,-1.095,-0.456,-78.496,-57.275,150.481,50.0,90.0
48217,-1.901,-0.923,-0.273,-76.099,-75.962,157.947,37.0,94.0
48262,-1.107,-0.614,-0.201,-82.840,-51.947,105.389,36.0,99.0
48311,-0.427,-0.574,-0.221,-92.359,-53.863,62.458,44.0,104.0
48357,0.224,-0.677,-0.272,-75.878,-46.008,24.481,38.0,109.0
48411,0.659,-0.771,-0.424,-25.244,-38.229,-14.206,0.0,108.0
48457,0.377,-0.885,-0.324,47.626,34.878,-103.221,40.0,103.0
48512,-0.916,-0.978,-0.380,119.771,83.473,-165.298,0.0,96.0
48558,-2.000,-0.615,-0.113,132.344,224.863,-116.847,49.0,93.0
48604,-2.000,-0.354,0.309,62.962,83.290,1.664,49.0,94.0
48658,-1.312,-0.233,-0.094,84.679,-47.183,-30.053,0.0,98.0
48715,-0.456,0.387,-0.143,80.153,24.290,-37.046,0.0,102.0
48771,-0.364,0.702,0.299,37.756,31.496,-25.824,0.0,108.0
48826,-0.340,0.698,0.300,-17.382,-44.649,20.099,0.0,102.0
48880,-0.739,0.464,-0.233,-78.168,-52.855,100.710,0.0,97.0
48926,-2.000,-0.008,-0.378,-111.557,24.740,159.237,47.0,94.0
48971,-2.000,-0.858,-0.314,-109.809,-74.298,172.023,44.0,93.0
49016,-1.813,-0.883,-0.247,-104.886,-92.733,128.420,36.0,98.0
49062,-0.965,-0.559,-0.250,-92.802,-37.244,60.168,34.0,105.0
49121,-0.425,-0.354,-0.154,-79.031,-1.260,16.695,0.0,107.0
49167,0.138,-0.569,-0.156,-39.656,-28.725,-40.046,41.0,109.0
49213,0.506,-0.594,-0.340,15.359,-37.611,-76.267,41.0,109.0
49267,0.321,-0.699,-0.412,58.656,23.863,-113.534,0.0,103.0
49313,-1.861,-1.415,-0.510,141.725,108.496,-128.153,46.0,98.0
49359,-2.000,-0.671,-0.023,150.275,143.351,-98.153,48.0,96.0
49415,-2.000,-0.334,0.349,87.183,67.221,-44.496,0.0,97.0
49469,-1.181,-0.101,0.016,102.710,-19.756,-65.244,0.0,100.0
49524,-0.561,0.392,-0.071,85.573,46.824,-76.542,0.0,101.0
49583,-0.626,0.691,0.220,15.603,52.206,-37.229,0.0,107.0
49637,-0.522,0.659,0.233,-49.908,-48.809,44.076,0.0,99.0
49692,-0.640,0.279,-0.270,-68.359,-64.321,105.557,0.0,97.0
49738,-2.000,-0.413,-0.382,-74.573,24.496,118.130,51.0,92.0
49783,-2.000,-0.957,-0.337,-77.687,-14.382,118.664,47.0,93.0
49839,-2.000,-1.094,-0.151,-96.168,-72.489,83.115,0.0,95.0
49884,-0.951,-0.564,-0.066,-91.405,-55.221,31.282,38.0,100.0
49930,-0.354,-0.425,-0.058,-74.115,-33.137,2.160,36.0,104.0
49988,0.302,-0.519,-0.212,-12.985,-52.695,-35.748,0.0,106.0
50077,0.196,-0.694,-0.366,104.153,33.137,-117.214,44.0,102.0
50131,-1.780,-1.307,-0.732,151.053,147.939,-134.351,0.0,96.0
50187,-2.000,-0.577,0.074,68.229,196.122,-30.412,0.0,93.0
50241,-1.883,-0.589,0.101,37.168,-19.214,-13.656,0.0,94.0
50296,-0.796,-0.078,-0.120,69.473,30.153,-29.481,0.0,98.0
50351,-0.693,0.332,0.295,72.595,97.771,-18.794,0.0,100.0
50406,-0.558,0.541,0.379,44.389,-33.313,-23.336,0.0,102.0
50461,-0.139,0.694,-0.017,-22.053,-59.779,26.282,0.0,98.0
50519,-1.019,0.046,-0.618,-66.053,67.840,89.374,0.0,93.0
50565,-2.000,-0.718,-0.320,-100.962,-17.527,144.397,50.0,90.0
50619,-2.000,-0.978,-0.312,-109.779,-88.137,134.611,0.0,92.0
50674,-1.344,-0.868,-0.146,-85.313,-31.618,90.450,0.0,97.0
50729,-0.687,-0.357,0.039,-67.901,-24.519,32.099,0.0,102.0
50785,-0.008,-0.448,-0.063,-30.237,-67.305,-1.817,0.0,106.0
50840,0.651,-0.525,-0.380,17.573,-72.412,-23.489,0.0,106.0
50895,0.333,-0.744,-0.466,66.031,13.145,-90.435,0.0,100.0
50954,-1.835,-1.287,-0.826,145.916,149.649,-169.916,0.0,92.0
51008,-2.000,-0.518,0.203,53.015,195.847,-41.282,0.0,92.0
51063,-1.851,-0.482,0.046,65.969,-39.924,-15.863,0.0,93.0
51118,-0.657,0.070,-0.152,115.359,29.305,-29.153,0.0,96.0
51173,-0.545,0.525,0.177,95.802,74.809,-35.626,0.0,98.0
51228,-0.428,0.561,0.344,43.267,-3.328,-23.763,0.0,99.0
51282,-0.443,0.486,0.134,-22.481,-41.511,38.489,0.0,94.0
51337,-1.069,0.124,-0.258,-58.916,-0.496,109.641,0.0,90.0
51383,-2.000,-0.818,-0.083,-68.450,-29.794,124.595,49.0,88.0
51431,-2.000,-0.898,-0.153,-41.237,-79.855,114.847,37.0,89.0
51477,-1.707,-0.681,-0.152,-44.450,-37.954,118.542,36.0,92.0
51523,-1.038,-0.516,-0.032,-40.992,-21.053,86.878,43.0,98.0
51569,-0.280,-0.550,-0.029,-34.962,-39.519,55.969,45.0,102.0
51624,0.620,-0.759,-0.278,-6.160,-48.260,8.092,0.0,104.0
51680,0.771,-0.812,-0.569,64.405,12.802,-82.328,0.0,101.0
51735,-0.458,-0.975,-0.348,135.863,102.099,-170.168,0.0,93.0
51789,-2.000,-1.192,-0.550,195.359,158.099,-180.573,0.0,90.0
51838,-2.000,-0.594,0.048,102.069,71.649,-53.397,50.0,90.0
51894,-1.442,-0.209,-0.166,118.473,0.473,-61.824,0.0,93.0
51948,-0.755,0.355,-0.116,117.916,42.710,-55.534,0.0,98.0
52003,-0.471,0.723,0.097,96.916,37.176,-34.221,0.0,98.0
52059,-0.264,0.899,0.199,27.321,-6.725,26.565,0.0,97.0
52114,-0.541,0.528,-0.095,-57.611,-15.885,98.069,0.0,92.0
52160,-2.000,-0.047,-0.284,-91.076,42.969,130.168,51.0,88.0
52205,-2.000,-1.192,-0.433,-102.611,-61.237,163.863,48.0,86.0
52251,-1.942,-0.944,-0.325,-120.802,-84.595,133.191,37.0,90.0
52299,-1.186,-0.754,-0.297,-114.023,-48.214,58.351,36.0,94.0
52345,-0.662,-0.451,-0.092,-108.733,-20.832,2.931,43.0,98.0
52392,0.026,-0.592,-0.103,-95.107,-32.611,-28.641,41.0,103.0
52439,0.450,-0.692,-0.237,-40.374,-36.221,-56.656,36.0,103.0
52485,0.540,-0.651,-0.466,48.137,3.435,-79.855,42.0,101.0
52531,-0.107,-0.592,-0.173,110.092,62.947,-118.405,45.0,96.0
52586,-2.000,-1.214,-0.417,174.947,95.756,-132.183,0.0,91.0
52632,-2.000,-0.646,-0.275,112.786,120.115,-7.359,49.0,89.0
52724,-1.213,-0.126,-0.137,92.809,-23.130,-28.023,51.0,94.0
52780,-0.681,0.283,-0.071,90.588,13.252,-32.901,0.0,99.0
52836,-0.319,0.686,0.312,36.206,15.481,-19.534,0.0,100.0
52891,-0.235,0.667,0.272,-28.557,-25.015,0.214,0.0,99.0
52945,-0.903,0.521,-0.234,-89.840,-10.962,76.603,0.0,97.0
52993,-2.000,0.117,-0.555,-118.359,2.397,128.985,48.0,95.0
53039,-2.000,-0.578,-0.676,-126.817,-85.321,141.634,46.0,92.0
53085,-1.815,-1.000,-0.575,-142.443,-84.031,113.702,36.0,96.0
53131,-0.925,-0.815,-0.376,-115.794,-48.580,50.000,36.0,101.0
53181,-0.212,-0.656,-0.247,-97.595,-34.885,7.954,40.0,107.0
53227,0.270,-0.688,-0.271,-51.817,-15.031,-37.015,34.0,107.0
53273,0.553,-0.580,-0.213,-5.443,6.466,-60.282,42.0,107.0
53320,0.207,-0.747,-0.167,57.573,39.840,-87.832,42.0,104.0
53376,-1.389,-1.243,-0.419,142.710,7.145,-131.771,0.0,98.0
53423,-2.000,-0.888,-0.151,103.336,102.611,-103.198,49.0,102.0
53470,-2.000,-0.540,0.196,68.611,89.962,-23.985,51.0,103.0
53525,-1.381,-0.211,0.061,97.893,27.611,-38.397,0.0,101.0
53584,-0.706,0.284,0.081,100.450,58.656,-26.511,0.0,106.0
53640,-0.454,0.642,0.246,61.305,33.115,-11.527,0.0,103.0
53696,-0.250,0.678,0.152,-22.969,-10.176,22.802,0.0,115.0
53751,-0.590,0.390,-0.138,-106.908,-10.366,85.397,0.0,98.0
53807,-2.000,0.064,-0.407,-121.290,19.260,125.771,0.0,93.0
53854,-2.000,-0.842,-0.621,-83.481,-83.847,126.107,47.0,94.0
53909,-1.829,-0.894,-0.244,-99.092,-47.702,130.282,0.0,97.0
53955,-0.907,-0.521,-0.036,-94.122,-50.046,60.656,38.0,102.0
54007,-0.179,-0.550,-0.162,-75.214,-45.595,8.015,33.0,107.0
54056,0.384,-0.700,-0.323,-29.260,-32.168,-38.580,38.0,113.0
54112,0.495,-0.650,-0.417,24.885,-37.229,-57.908,0.0,108.0
54157,0.039,-0.677,-0.386,120.573,32.405,-116.702,42.0,104.0
54211,-1.979,-1.199,-0.644,199.076,170.939,-168.954,0.0,95.0
54265,-2.000,-0.307,0.253,112.893,179.611,-86.672,0.0,95.0
54320,-1.923,-0.313,0.096,48.687,-58.618,-53.031,0.0,97.0
54375,-0.602,0.092,-0.123,71.023,-3.321,-48.252,0.0,102.0
54429,-0.523,0.497,0.173,61.076,69.443,-25.565,0.0,100.0
54487,-0.631,0.593,0.300,13.939,-10.595,6.695,0.0,101.0
54541,-0.588,0.513,0.026,-57.878,-47.634,91.931,0.0,97.0
54595,-1.387,0.184,-0.227,-104.679,7.595,135.084,0.0,93.0
54641,-2.000,-1.000,-0.342,-82.908,-94.893,131.069,47.0,94.0
54686,-1.807,-0.795,-0.378,-57.137,-79.893,111.901,36.0,98.0
54731,-1.246,-0.639,-0.188,-65.534,-11.740,75.962,35.0,99.0
54776,-0.750,-0.469,-0.022,-63.863,-18.038,35.198,36.0,103.0
54832,-0.215,-0.514,-0.104,-44.916,-32.374,-3.748,0.0,106.0
54878,0.256,-0.576,-0.253,-2.771,-13.481,-28.580,43.0,107.0
54926,0.140,-0.706,-0.368,58.664,5.099,-30.817,41.0,105.0
54981,-0.551,-0.841,-0.300,129.359,17.916,-86.145,0.0,103.0
55027,-1.934,-0.990,-0.259,144.046,144.183,-175.313,46.0,96.0
55081,-2.000,-0.521,0.182,95.176,119.412,-107.550,0.0,93.0
55136,-1.609,-0.149,0.084,91.565,10.473,-76.832,0.0,95.0
55190,-0.620,0.347,-0.006,94.939,20.084,-71.672,0.0,103.0
55245,-0.441,0.702,0.127,57.336,64.298,-37.611,0.0,108.0
55344,-0.835,0.472,0.087,-70.710,-31.603,101.702,0.0,98.0
55400,-1.756,-0.140,-0.247,-101.122,-24.962,148.557,0.0,93.0
55446,-2.000,-1.238,-0.379,-65.863,-84.122,127.450,47.0,91.0
55492,-1.852,-0.993,-0.266,-47.878,-65.977,103.290,45.0,95.0
55537,-1.229,-0.655,-0.059,-55.183,-21.290,68.336,36.0,100.0
55582,-0.570,-0.434,0.031,-54.420,-38.748,38.115,33.0,103.0
55628,0.102,-0.521,-0.160,-24.641,-41.412,-3.557,40.0,107.0
55674,0.649,-0.477,-0.313,22.954,-22.679,-54.870,38.0,106.0
55720,0.404,-0.549,-0.272,66.489,15.115,-88.145,40.0,105.0
55766,-0.534,-0.673,-0.309,123.359,45.137,-109.908,43.0,100.0
55823,-2.000,-0.870,-0.375,164.351,132.809,-130.718,0.0,93.0
55877,-2.000,-0.446,0.234,83.076,111.931,-18.504,0.0,91.0
55923,-1.347,-0.328,0.059,83.267,3.305,-37.985,48.0,92.0
55969,-0.827,0.095,0.000,96.351,28.260,-51.504,50.0,95.0
56024,-0.660,0.411,0.125,81.511,62.580,-36.504,0.0,96.0
56078,-0.540,0.502,0.272,49.122,38.954,-2.344,0.0,101.0
56133,-0.460,0.567,0.293,-17.855,-5.267,55.519,0.0,95.0
56187,-1.102,0.286,-0.105,-82.763,-11.992,124.191,0.0,90.0
56235,-2.000,-0.531,-0.135,-98.130,-58.015,126.626,39.0,88.0
56280,-2.000,-0.830,-0.361,-62.611,-107.130,80.878,38.0,89.0
56325,-1.629,-0.918,-0.213,-50.344,-65.466,55.947,38.0,92.0
56371,-0.906,-0.558,0.008,-56.115,-11.649,28.565,36.0,98.0
56416,-0.375,-0.465,0.001,-53.084,-9.382,1.344,33.0,100.0
56461,0.143,-0.517,-0.080,-31.611,-21.481,-16.008,33.0,102.0
56507,0.479,-0.564,-0.298,24.405,-27.908,-30.214,33.0,101.0
56552,0.148,-0.700,-0.341,95.931,17.893,-77.847,33.0,98.0
56597,-1.149,-1.074,-0.721,178.733,47.511,-112.473,35.0,98.0
56646,-2.000,-0.943,-0.285,173.939,134.107,-134.947,50.0,92.0
56700,-2.000,-0.618,0.138,90.061,133.687,-69.359,0.0,89.0
56755,-1.494,-0.270,-0.002,80.252,45.366,-52.901,0.0,92.0
56809,-0.741,0.151,0.038,83.473,59.359,-49.550,0.0,96.0
56864,-0.484,0.479,0.239,68.756,116.756,-28.344,0.0,97.0
56920,-0.669,0.629,0.498,21.641,20.145,15.046,0.0,100.0
56974,-0.840,0.362,0.032,-36.137,-66.863,85.740,0.0,90.0
57028,-1.497,-0.182,-0.232,-26.702,-41.496,145.794,0.0,87.0
57073,-2.000,-1.068,-0.447,-10.420,-33.305,135.893,46.0,87.0
57121,-2.000,-0.802,-0.005,-34.573,-36.160,98.626,35.0,89.0
57166,-1.281,-0.582,-0.075,-48.153,-34.275,53.153,37.0,92.0
57222,-0.623,-0.405,-0.051,-49.656,-17.588,23.756,0.0,98.0
57277,0.167,-0.572,-0.207,-14.313,-22.237,-12.519,0.0,99.0
57331,0.524,-0.524,-0.387,43.321,-0.420,-36.809,0.0,98.0
57377,-0.082,-0.772,-0.195,104.427,51.565,-99.740,45.0,96.0
57423,-1.639,-1.152,-0.641,189.275,61.534,-145.458,46.0,89.0
57478,-2.000,-0.707,-0.240,161.244,105.183,-93.038,0.0,87.0
57535,-2.000,-0.463,-0.003,111.176,67.977,-29.443,0.0,93.0
57590,-1.365,-0.108,-0.041,123.908,26.107,-31.313,0.0,99.0
57646,-0.803,0.362,0.037,113.099,48.076,-25.458,0.0,102.0
57701,-0.427,0.633,0.197,74.947,37.153,-8.802,0.0,99.0
57756,-0.154,0.542,0.194,14.038,7.198,15.099,0.0,100.0
57810,-0.662,0.177,-0.044,-53.802,11.595,50.878,0.0,91.0
57908,-2.000,-0.866,-0.130,-85.550,-64.305,128.824,0.0,85.0
57954,-1.616,-0.951,-0.237,-75.786,-57.763,107.908,46.0,88.0
57999,-0.985,-0.547,-0.059,-66.305,-40.565,53.534,36.0,91.0
58048,-0.467,-0.376,-0.021,-63.695,-39.466,-0.076,42.0,99.0
58094,0.302,-0.605,-0.249,-24.382,-54.779,-51.802,43.0,99.0
58140,0.600,-0.576,-0.372,36.855,-24.969,-96.511,41.0,99.0
58186,0.068,-0.725,-0.391,79.092,3.664,-121.420,44.0,98.0
58231,-0.944,-0.980,-0.392,116.290,39.992,-106.565,47.0,92.0
58277,-1.748,-0.963,-0.262,110.153,115.855,-75.191,50.0,91.0
58333,-2.000,-0.672,0.145,68.878,116.405,-40.260,0.0,95.0
58388,-1.756,-0.544,0.157,56.817,15.115,-28.672,0.0,93.0
58446,-0.919,-0.108,0.032,72.756,16.748,-7.153,0.0,98.0
58501,-0.576,0.421,0.065,69.542,62.496,7.321,0.0,99.0
58556,-0.352,0.745,0.233,35.344,38.336,42.542,0.0,101.0
58611,-0.510,0.631,0.170,-61.382,-16.183,88.008,0.0,99.0
58657,-1.397,-0.100,-0.309,-95.489,-7.412,115.107,49.0,96.0
58704,-2.000,-0.707,-0.339,-106.794,-38.290,128.695,46.0,96.0
58749,-2.000,-0.780,-0.350,-105.099,-84.191,116.443,36.0,91.0
58795,-1.417,-0.648,-0.237,-81.443,-52.802,70.305,34.0,94.0
58850,-0.800,-0.574,-0.171,-71.725,-30.931,42.511,0.0,98.0
58899,-0.081,-0.652,-0.069,-42.053,-43.977,-27.534,39.0,100.0
58946,0.449,-0.659,-0.250,2.763,-27.908,-80.313,40.0,101.0
58992,0.318,-0.735,-0.226,45.489,9.786,-107.351,44.0,100.0
59038,-0.771,-0.906,-0.235,105.565,14.321,-154.565,43.0,98.0
59085,-1.808,-0.767,-0.462,145.664,67.786,-144.412,47.0,106.0
59140,-2.000,-0.390,-0.009,103.550,120.275,-47.756,0.0,95.0
59196,-1.611,-0.267,0.143,76.137,32.344,-29.076,0.0,107.0
59251,-0.853,0.146,0.043,66.061,36.160,-24.687,0.0,102.0
59311,-0.596,0.599,0.189,28.893,45.840,-9.550,0.0,102.0
59366,-0.369,0.750,0.194,-28.573,7.397,31.069,0.0,99.0
59420,-0.791,0.343,-0.067,-104.405,2.977,103.878,0.0,94.0
59475,-1.998,-0.329,-0.245,-136.069,2.611,137.000,0.0,91.0
59522,-2.000,-0.904,-0.480,-105.107,-92.611,115.565,44.0,89.0
59568,-1.710,-0.876,-0.483,-81.908,-56.893,86.031,43.0,92.0
59614,-1.250,-0.597,-0.262,-64.977,-5.450,24.298,45.0,96.0
59669,-0.703,-0.428,-0.056,-61.015,-21.969,-10.229,0.0,101.0
59715,0.145,-0.418,-0.106,-35.885,-39.634,-61.015,38.0,102.0
59765,0.455,-0.343,-0.189,8.504,-13.580,-85.626,37.0,104.0
59811,-0.060,-0.586,-0.209,67.947,12.389,-95.076,41.0,103.0
59857,-1.118,-0.966,-0.598,177.649,49.595,-107.557,42.0,98.0
59904,-1.893,-0.692,-0.233,171.420,106.969,-58.786,44.0,93.0
59959,-2.000,-0.510,0.008,115.420,74.084,-32.786,0.0,94.0
60014,-1.449,-0.235,-0.061,82.473,8.763,-42.443,0.0,98.0
60070,-0.732,0.267,-0.051,69.061,44.450,-43.466,0.0,101.0
60126,-0.536,0.608,0.204,41.359,66.992,-38.427,0.0,100.0
60184,-0.524,0.590,0.294,-10.779,32.168,39.687,0.0,99.0
60239,-0.873,0.312,0.005,-68.779,-13.939,109.565,0.0,95.0
60295,-1.975,-0.142,-0.222,-101.763,-2.099,141.351,0.0,93.0
60341,-2.000,-0.716,-0.359,-99.962,-69.496,107.702,43.0,92.0
60387,-1.675,-0.816,-0.314,-86.802,-75.656,53.618,36.0,96.0
60476,-0.468,-0.478,-0.088,-38.580,-29.908,-16.603,33.0,101.0
60523,0.146,-0.527,-0.240,-2.328,-27.206,-56.855,41.0,102.0
60575,0.381,-0.444,-0.267,36.443,-9.237,-69.405,41.0,101.0
60620,-0.056,-0.735,-0.316,73.099,20.702,-77.718,43.0,99.0
60668,-1.476,-1.213,-0.633,162.947,75.176,-87.344,46.0,94.0
60713,-1.981,-0.849,-0.175,149.550,151.145,-61.695,51.0,92.0
60760,-2.000,-0.697,0.165,112.137,66.886,-31.023,51.0,94.0
60805,-1.488,-0.467,-0.105,119.084,11.634,-35.344,47.0,95.0
60859,-0.856,0.117,-0.138,119.779,61.115,-21.779,0.0,99.0
60905,-0.593,0.674,0.118,80.794,75.137,-9.580,46.0,106.0
60951,-0.343,0.723,0.257,44.931,27.420,-8.053,46.0,103.0
61005,-0.234,0.659,0.261,-11.221,0.603,25.496,0.0,102.0
61063,-1.135,0.050,0.013,-61.427,2.305,100.611,0.0,95.0
61108,-1.950,-0.344,-0.040,-63.947,-8.046,124.305,45.0,91.0
61162,-2.000,-0.783,-0.226,-64.756,-30.275,84.794,0.0,93.0
61208,-1.783,-0.880,-0.277,-83.603,-50.000,51.710,45.0,94.0
61252,-1.002,-0.578,-0.148,-63.756,-28.023,26.412,33.0,97.0
61307,-0.476,-0.464,-0.047,-45.824,-19.687,17.183,0.0,102.0
61363,0.142,-0.564,-0.138,-0.580,-44.840,-11.771,0.0,105.0
61417,0.561,-0.523,-0.407,75.840,-24.527,-35.504,0.0,103.0
61472,-0.073,-0.692,-0.159,127.489,50.992,-75.832,0.0,97.0
61520,-2.000,-0.863,-0.596,229.374,86.450,-143.344,46.0,93.0
61575,-2.000,-0.242,0.002,132.313,148.863,-60.756,0.0,90.0
61620,-1.816,-0.379,0.075,84.176,9.649,-21.489,48.0,94.0
61674,-0.987,-0.061,-0.193,118.366,-3.443,-35.511,0.0,94.0
61729,-0.533,0.314,-0.082,117.328,75.481,-32.588,0.0,101.0
61784,-0.504,0.464,0.171,75.565,72.504,-22.153,0.0,99.0
61838,-0.531,0.543,0.272,-0.710,21.992,31.939,0.0,95.0
61892,-1.083,0.371,-0.062,-76.511,-4.931,92.450,0.0,92.0
61938,-2.000,-0.662,-0.374,-79.634,-53.832,120.443,48.0,90.0
61986,-1.944,-0.687,-0.274,-63.626,-67.901,106.809,36.0,91.0
62031,-1.422,-0.850,-0.267,-51.710,-51.489,60.901,43.0,95.0
62087,-0.797,-0.456,-0.040,-48.206,-24.405,15.008,0.0,103.0
62141,-0.202,-0.455,-0.107,-31.924,-25.397,-33.366,0.0,102.0
62195,0.309,-0.456,-0.263,4.931,-2.298,-73.534,185.0,104.0
62241,0.248,-0.446,-0.207,39.389,20.893,-67.305,46.0,101.0
62287,-0.502,-0.919,-0.187,90.344,22.740,-76.382,47.0,98.0
62342,-2.000,-1.004,-0.304,152.870,73.092,-125.389,0.0,93.0
62400,-2.000,-0.550,0.135,94.916,108.832,1.122,0.0,98.0
62454,-1.419,-0.366,0.070,85.290,17.305,-10.870,0.0,97.0
62500,-0.749,0.156,0.022,92.969,26.427,-12.878,48.0,97.0
62555,-0.468,0.572,0.203,66.298,44.099,-18.107,0.0,99.0
62610,-0.356,0.684,0.262,13.351,32.382,5.641,0.0,98.0
62655,-0.940,0.479,0.200,-73.847,18.458,100.718,50.0,94.0
62701,-1.797,-0.251,-0.286,-92.565,-35.618,120.893,49.0,91.0
62746,-2.000,-0.988,-0.501,-72.450,-114.420,118.641,47.0,91.0
62791,-1.691,-0.911,-0.458,-59.893,-60.450,70.366,36.0,95.0
62840,-1.351,-0.683,-0.188,-72.321,-9.679,12.580,36.0,99.0
62886,-0.855,-0.431,0.002,-74.076,-17.847,-4.229,46.0,99.0
62941,-0.280,-0.468,-0.052,-39.969,-28.626,-16.290,0.0,102.0
63031,0.283,-0.552,-0.177,89.779,7.656,-31.962,43.0,102.0
63076,-0.338,-0.731,-0.166,144.855,15.046,-54.321,43.0,99.0
63122,-1.983,-0.995,-0.414,196.374,80.725,-111.305,47.0,95.0
63168,-2.000,-0.479,0.023,133.015,107.374,-41.985,48.0,96.0
63214,-1.866,-0.344,0.221,57.634,16.374,-31.237,51.0,97.0
63272,-1.114,-0.084,-0.031,69.748,-20.542,-56.878,0.0,102.0
63328,-0.562,0.427,0.049,65.649,34.611,-61.328,0.0,107.0
63383,-0.332,0.650,0.226,23.771,35.771,-35.321,0.0,112.0
63438,-0.537,0.580,0.207,-57.397,-13.282,35.695,0.0,101.0
63494,-0.944,0.191,-0.249,-101.298,-53.695,94.863,0.0,97.0
63549,-1.930,-0.419,-0.425,-94.969,-8.626,113.244,0.0,101.0
63603,-2.000,-0.659,-0.262,-98.389,-30.969,86.099,0.0,94.0
63649,-1.568,-0.750,-0.267,-105.504,-78.313,62.321,43.0,99.0
63695,-0.735,-0.442,-0.126,-94.008,-54.183,32.611,36.0,101.0
63745,-0.191,-0.555,-0.171,-79.405,-44.863,12.473,36.0,110.0
63800,0.305,-0.496,-0.270,-28.740,-40.450,-19.878,0.0,111.0
63847,0.377,-0.479,-0.315,39.038,-9.275,-49.786,45.0,113.0
63893,-0.461,-0.729,-0.210,72.924,12.298,-64.969,44.0,104.0
63940,-1.823,-0.942,-0.488,147.115,64.550,-80.977,47.0,101.0
63994,-2.000,-0.465,-0.013,107.252,163.710,-60.198,0.0,96.0
64050,-2.000,-0.340,0.301,50.847,13.000,-33.214,0.0,98.0
64105,-0.826,0.095,-0.010,71.664,-13.031,-44.397,0.0,104.0
64163,-0.549,0.475,0.167,48.840,47.611,-36.351,0.0,103.0
64219,-0.510,0.642,0.312,-2.779,6.122,2.351,0.0,110.0
64274,-0.715,0.495,0.024,-70.656,-53.374,69.595,0.0,99.0
64329,-1.553,0.220,-0.469,-103.725,-12.733,107.939,0.0,95.0
64375,-2.000,-0.670,-0.630,-107.595,-37.939,88.053,50.0,95.0
64421,-1.939,-0.740,-0.471,-133.649,-52.252,46.656,45.0,96.0
64467,-1.299,-0.567,-0.254,-143.794,-44.412,-0.771,45.0,99.0
64514,-0.641,-0.491,-0.168,-137.168,-54.336,-10.802,44.0,101.0
64560,0.005,-0.493,-0.258,-94.198,-44.802,-24.061,36.0,106.0
64610,0.401,-0.500,-0.304,-33.939,-3.046,-22.015,43.0,109.0
64656,0.260,-0.686,-0.394,26.351,37.092,-18.534,43.0,103.0
64703,-0.789,-0.942,-0.286,96.740,53.916,-56.443,45.0,105.0
64757,-1.996,-1.031,-0.243,144.305,63.733,-117.649,0.0,96.0
64813,-2.000,-0.502,0.199,69.061,70.038,-54.550,0.0,98.0
64868,-1.374,-0.237,0.017,61.954,29.244,-34.427,0.0,103.0
64924,-0.714,0.291,0.067,64.344,28.885,-24.244,0.0,103.0
64979,-0.376,0.584,0.152,26.916,21.679,-1.321,0.0,106.0
65038,-0.497,0.590,0.181,-37.573,-0.626,71.359,0.0,104.0
65093,-0.946,0.201,-0.136,-81.794,-47.489,113.214,0.0,98.0
65148,-1.933,0.113,-0.232,-112.679,-26.573,131.489,0.0,96.0
65195,-2.000,-0.632,-0.483,-95.496,-114.771,65.458,45.0,96.0
65241,-1.695,-0.763,-0.606,-93.886,-73.473,49.573,45.0,99.0
65288,-1.216,-0.655,-0.300,-98.542,-4.420,28.084,45.0,102.0
65334,-0.453,-0.625,-0.074,-86.687,-12.924,9.206,38.0,106.0
65380,0.340,-0.629,-0.179,-45.015,-15.740,-24.618,34.0,108.0
65427,0.613,-0.395,-0.231,19.000,29.336,-54.695,43.0,109.0
65477,0.162,-0.423,-0.213,68.252,100.389,-92.702,44.0,104.0
65532,-1.642,-0.864,-0.395,124.420,78.359,-101.802,0.0,100.0
65631,-1.994,-0.484,0.074,48.244,45.313,2.901,0.0,99.0
65686,-1.257,-0.306,0.072,58.313,5.939,-15.427,0.0,101.0
65741,-0.651,0.145,0.063,72.855,19.046,-21.504,0.0,103.0
65797,-0.387,0.421,0.162,59.069,20.580,-23.969,0.0,103.0
65852,-0.245,0.571,0.111,10.504,5.405,1.496,0.0,103.0
65907,-0.792,0.424,-0.055,-67.870,-9.885,63.008,0.0,98.0
65966,-2.000,-0.006,-0.545,-109.603,7.107,76.969,0.0,93.0
66021,-2.000,-0.519,-0.458,-137.779,-66.504,74.664,0.0,95.0
66068,-1.588,-0.800,-0.449,-132.420,-74.557,67.374,45.0,110.0
66115,-0.779,-0.558,-0.164,-115.351,-45.580,60.847,44.0,101.0
66161,-0.150,-0.594,-0.210,-77.397,-37.893,34.374,43.0,105.0
66208,0.272,-0.545,-0.192,-25.206,-34.275,6.878,41.0,109.0
66255,0.394,-0.609,-0.333,23.954,-19.802,-17.756,41.0,108.0
66301,-0.124,-0.863,-0.464,86.260,20.351,-88.328,44.0,104.0
66349,-1.512,-0.896,-0.433,111.458,132.580,-178.695,46.0,96.0
66407,-2.000,-0.771,-0.151,69.641,114.359,-91.924,0.0,101.0
66463,-1.895,-0.410,0.042,43.542,-11.038,-52.626,0.0,100.0
66519,-0.698,0.066,-0.044,72.198,1.053,-49.832,0.0,102.0
66574,-0.513,0.394,0.201,67.473,62.298,-38.466,0.0,102.0
66630,-0.420,0.605,0.324,15.931,1.015,-0.641,0.0,102.0
66685,-0.552,0.609,0.072,-71.145,-53.069,70.229,0.0,99.0
66740,-1.755,0.079,-0.527,-93.580,-15.153,99.206,0.0,94.0
66795,-2.000,-0.816,-0.945,-77.252,-56.221,114.244,0.0,94.0
66845,-1.836,-0.999,-0.422,-116.641,-56.489,94.229,45.0,96.0
66892,-0.983,-0.611,-0.081,-116.183,-58.000,45.878,44.0,109.0
66939,-0.234,-0.527,-0.106,-110.611,-48.321,23.038,37.0,106.0
66987,0.388,-0.520,-0.237,-66.435,-31.832,-12.107,40.0,108.0
67033,0.633,-0.511,-0.381,4.832,0.687,-45.130,40.0,108.0
67080,0.249,-0.637,-0.270,61.916,58.282,-91.137,42.0,103.0
67132,-1.619,-1.250,-0.559,137.969,54.137,-108.336,46.0,103.0
67186,-2.000,-0.880,-0.348,136.511,90.389,-65.992,0.0,96.0
67240,-2.000,-0.374,0.264,68.748,68.397,-21.702,0.0,96.0
67298,-1.182,-0.139,-0.016,68.840,-23.221,-39.305,0.0,100.0
67352,-0.633,0.286,-0.066,74.397,31.473,-38.534,0.0,104.0
67407,-0.561,0.686,0.244,28.267,28.443,-9.481,0.0,112.0
67463,-0.482,0.669,0.275,-56.779,-52.992,38.611,0.0,106.0
67518,-0.861,0.282,-0.224,-123.084,-77.336,85.840,0.0,103.0
67572,-2.000,-0.592,-0.630,-102.466,-33.229,101.305,0.0,97.0
67617,-2.000,-0.589,-0.439,-109.908,-18.969,102.573,46.0,96.0
67663,-1.588,-0.744,-0.332,-140.015,-50.603,67.664,43.0,100.0
67713,-0.773,-0.488,-0.148,-134.870,-69.336,35.893,44.0,105.0
67759,-0.042,-0.584,-0.177,-106.153,-69.153,17.351,42.0,108.0
67805,0.442,-0.602,-0.264,-41.969,-45.641,-30.427,40.0,108.0
67851,0.507,-0.508,-0.301,12.153,-3.893,-55.771,40.0,110.0
67896,-0.240,-0.843,-0.283,55.687,43.519,-75.969,42.0,106.0
67942,-2.000,-1.063,-0.291,132.947,77.527,-133.893,48.0,104.0
67997,-2.000,-0.492,0.075,94.290,113.000,-88.321,0.0,107.0
68052,-1.805,-0.350,0.316,37.405,15.046,-35.267,0.0,104.0
68107,-0.932,-0.095,0.072,60.282,-23.519,-45.099,0.0,100.0
68163,-0.552,0.321,0.028,59.634,43.298,-31.344,0.0,103.0
68261,-0.691,0.652,0.277,-58.511,-16.053,59.855,0.0,105.0
68316,-1.105,0.455,-0.328,-122.595,-78.198,118.008,0.0,97.0
68362,-2.000,-0.437,-0.551,-144.794,-75.817,147.244,47.0,97.0
68408,-2.000,-0.825,-0.469,-123.969,-87.519,122.107,45.0,97.0
68453,-1.436,-0.792,-0.367,-104.817,-59.115,70.031,42.0,100.0
68499,-0.721,-0.546,-0.180,-106.145,-19.641,35.794,37.0,106.0
68545,-0.125,-0.523,-0.155,-93.611,-15.901,-2.084,34.0,107.0
68593,0.333,-0.566,-0.271,-36.237,-6.313,-45.328,40.0,108.0
68639,0.210,-0.664,-0.117,6.305,-9.908,-54.427,42.0,106.0
68695,-0.526,-1.034,-0.207,60.053,-5.145,-94.061,0.0,104.0
68741,-1.673,-0.750,-0.328,117.008,98.519,-129.305,46.0,101.0
68787,-2.000,-0.332,0.060,88.496,120.489,-71.756,46.0,101.0
68833,-1.797,-0.115,0.259,62.405,13.198,-46.351,50.0,99.0
68879,-1.108,0.139,0.017,63.450,-1.786,-36.351,50.0,102.0
68934,-0.784,0.485,0.099,48.534,45.183,-12.344,0.0,103.0
68992,-0.626,0.607,0.214,6.603,-14.038,25.099,0.0,103.0
69047,-0.351,0.656,0.042,-72.595,-32.489,85.992,0.0,100.0
69101,-0.940,0.313,-0.347,-145.053,22.191,134.221,0.0,96.0
69156,-2.000,-0.894,-0.528,-151.008,-48.069,82.595,0.0,98.0
69201,-2.000,-0.871,-0.575,-134.893,-96.099,59.855,37.0,99.0
69248,-1.250,-0.564,-0.281,-131.519,-35.916,32.626,37.0,101.0
69294,-0.518,-0.482,-0.136,-127.275,-42.595,17.969,45.0,107.0
69349,0.257,-0.537,-0.239,-91.916,-67.565,-11.649,0.0,110.0
69396,0.603,-0.541,-0.387,-3.366,-43.031,-52.244,39.0,123.0
69445,-0.030,-0.646,-0.183,49.191,-36.084,-102.305,41.0,113.0
69500,-0.904,-0.630,-0.259,74.893,19.489,-90.374,0.0,101.0
69547,-2.000,-0.733,0.165,72.046,169.893,-56.740,45.0,98.0
69593,-2.000,-0.574,0.594,20.748,80.664,-7.824,49.0,105.0
69639,-1.378,-0.464,0.158,28.137,-7.550,-29.985,47.0,101.0
69686,-0.851,-0.037,0.071,47.931,26.115,-44.153,48.0,102.0
69740,-0.752,0.245,0.225,40.137,45.389,-41.916,0.0,104.0
69796,-0.542,0.569,0.348,-6.695,-3.649,-9.977,0.0,107.0
69854,-0.550,0.502,0.108,-75.084,-51.939,60.939,0.0,99.0
69908,-1.093,0.272,-0.395,-112.886,-24.221,130.504,0.0,95.0
69955,-2.000,-0.634,-0.663,-109.023,-39.282,122.641,49.0,95.0
70000,-2.000,-0.662,-0.443,-105.893,-69.557,88.840,45.0,96.0
70046,-1.528,-0.781,-0.405,-100.168,-49.015,75.603,35.0,100.0
70092,-0.788,-0.527,-0.112,-99.389,-22.847,50.435,34.0,104.0
70138,-0.113,-0.674,-0.092,-104.221,-27.840,9.527,43.0,106.0
70191,0.423,-0.647,-0.280,-48.763,-20.672,-29.191,145.0,110.0
70246,0.178,-0.614,-0.183,7.298,-6.313,-63.443,0.0,103.0
70295,-0.729,-0.767,-0.190,80.435,-10.611,-99.641,43.0,104.0
70341,-1.679,-0.775,-0.345,134.603,89.725,-118.931,45.0,86.0
70387,-2.000,-0.103,0.267,75.840,148.267,-49.534,48.0,96.0
70433,-2.000,-0.245,0.339,23.573,-5.924,-17.130,51.0,99.0
70479,-0.995,-0.015,0.025,35.496,-40.511,-23.176,48.0,99.0
70525,-0.584,0.340,0.054,34.985,24.649,-15.221,48.0,91.0
70580,-0.579,0.498,0.244,9.130,29.985,-0.802,0.0,100.0
70635,-0.512,0.492,0.233,-47.969,-20.908,39.031,0.0,99.0
70684,-0.741,0.299,-0.044,-131.893,-28.420,111.221,46.0,99.0
70773,-2.000,-0.708,-0.343,-70.191,-80.725,68.031,44.0,96.0
70819,-1.792,-0.577,-0.234,-75.626,-45.565,47.924,36.0,99.0
70865,-1.290,-0.493,-0.099,-73.153,-21.221,19.397,37.0,101.0
70921,-0.643,-0.345,-0.083,-78.550,-20.122,1.115,0.0,108.0
70967,-0.050,-0.437,-0.199,-71.374,-11.160,-12.000,36.0,106.0
71014,0.312,-0.506,-0.377,-47.779,7.420,8.031,43.0,106.0
71069,-0.002,-0.792,-0.411,8.282,33.168,1.252,0.0,103.0
71120,-1.245,-0.996,-0.238,109.351,26.725,-76.359,0.0,44.0
71171,-2.000,-0.611,0.284,82.863,91.260,-98.931,44.0,98.0
71225,-2.000,-0.405,0.333,46.344,76.336,-45.901,0.0,97.0
71271,-1.211,0.092,0.081,81.099,44.679,-28.435,45.0,100.0
71326,-0.790,0.490,0.126,85.756,47.176,-9.718,0.0,101.0
71377,-0.453,0.602,0.306,49.794,18.229,20.137,0.0,27.0
71433,-0.343,0.554,0.257,-14.611,-17.206,70.748,0.0,99.0
71476,-1.242,0.222,0.049,-86.107,-21.588,119.695,44.0,35.0
71530,-2.000,-0.410,0.043,-92.046,-77.794,106.748,0.0,96.0
71576,-1.712,-0.489,-0.259,-53.908,-78.298,65.374,36.0,98.0
71625,-1.252,-0.401,-0.254,-42.374,-26.969,12.779,34.0,101.0
71671,-0.674,-0.332,-0.176,-36.458,1.809,-13.099,33.0,103.0
71717,-0.167,-0.400,-0.164,-29.672,12.481,-27.710,34.0,106.0
71763,0.140,-0.500,-0.201,-7.206,21.565,-47.550,36.0,107.0
71819,0.030,-0.508,-0.092,25.267,14.649,-48.344,0.0,104.0
71874,-0.678,-0.710,-0.061,74.328,4.939,-56.260,0.0,100.0
71920,-1.922,-0.730,-0.244,106.771,80.076,-86.351,46.0,98.0
71966,-2.000,-0.414,0.132,78.015,94.000,-23.832,45.0,96.0
72016,-1.541,-0.241,0.178,68.153,29.427,-30.504,48.0,103.0
72072,-0.867,0.132,0.114,75.710,26.214,-48.702,0.0,100.0
72127,-0.543,0.521,0.175,42.832,22.458,-56.084,0.0,103.0
72182,-0.455,0.692,0.236,-26.183,-2.519,-13.794,0.0,101.0
72238,-0.778,0.527,0.138,-93.008,-33.954,81.565,0.0,98.0
72285,-1.503,-0.037,-0.187,-103.809,-37.962,117.565,46.0,95.0
72331,-2.000,-1.141,-0.580,-41.832,-74.115,72.061,46.0,94.0
72377,-2.000,-0.738,-0.248,-33.252,-41.779,68.191,47.0,96.0
72432,-1.382,-0.479,-0.156,-61.107,-23.634,39.344,0.0,101.0
72482,-0.445,-0.319,-0.141,-90.679,-39.725,20.863,36.0,104.0
72538,0.177,-0.459,-0.209,-76.664,-45.092,5.695,0.0,107.0
72594,0.498,-0.612,-0.387,-9.634,-38.672,-5.870,0.0,107.0
72649,-0.245,-0.841,-0.215,61.351,25.740,-65.962,0.0,102.0
72695,-2.000,-0.794,0.021,122.183,95.336,-119.992,46.0,96.0
72742,-2.000,-0.413,0.411,29.130,102.053,-38.313,47.0,96.0
72798,-1.644,-0.452,0.158,21.603,0.588,-31.282,0.0,100.0
72853,-0.709,-0.035,-0.002,68.420,18.237,-47.496,0.0,100.0
72911,-0.429,0.356,0.219,59.908,55.252,-49.450,0.0,103.0
72968,-0.317,0.672,0.349,1.221,8.534,-16.977,0.0,100.0
73023,-0.781,0.511,0.040,-64.740,-54.832,47.832,0.0,97.0
73069,-1.764,0.260,-0.446,-76.061,4.725,112.344,51.0,94.0
73115,-2.000,-0.815,-0.408,-80.290,-42.290,130.076,48.0,93.0
73170,-2.000,-0.887,-0.273,-81.901,-86.786,110.252,0.0,94.0
73217,-1.142,-0.696,-0.171,-78.542,-33.618,56.542,37.0,99.0
73263,-0.518,-0.506,0.011,-82.687,-20.763,19.206,34.0,102.0
73353,0.352,-0.479,-0.216,-9.626,-36.351,-57.168,45.0,105.0
73412,-0.015,-0.657,-0.359,37.221,-1.473,-69.878,0.0,102.0
73467,-1.323,-0.982,-0.389,114.504,60.603,-71.076,0.0,99.0
73515,-1.944,-0.491,0.081,118.267,136.733,-61.656,45.0,96.0
73561,-2.000,-0.340,0.369,73.382,29.412,-36.496,48.0,96.0
73608,-1.239,-0.192,-0.028,81.008,-36.504,-51.008,46.0,104.0
73669,-0.605,0.316,-0.069,81.084,49.534,-55.450,0.0,102.0
73724,-0.679,0.539,0.272,36.611,46.130,-33.214,0.0,106.0
73779,-0.541,0.637,0.234,-35.275,-21.969,27.305,0.0,97.0
73836,-0.813,0.281,-0.205,-90.534,-17.534,112.779,0.0,97.0
73881,-2.000,-0.044,-0.414,-92.427,47.641,134.023,47.0,95.0
73926,-2.000,-0.569,-0.485,-91.611,-34.260,94.176,46.0,95.0
73981,-1.794,-0.775,-0.276,-125.466,-47.267,52.481,0.0,98.0
74027,-0.866,-0.417,-0.020,-123.916,-47.405,11.336,45.0,101.0
74073,-0.312,-0.446,-0.088,-107.802,-59.656,-5.282,43.0,106.0
74119,0.215,-0.567,-0.262,-48.405,-69.687,-24.000,41.0,107.0
74174,0.465,-0.606,-0.416,24.229,-34.336,-39.947,0.0,107.0
74225,-0.023,-0.700,-0.219,78.893,36.511,-83.038,172.0,72.0
74274,-2.000,-0.908,-0.245,132.656,101.275,-148.664,47.0,96.0
74320,-2.000,-0.476,0.066,64.336,113.504,-60.076,51.0,101.0
74375,-1.874,-0.299,0.162,43.374,12.954,-29.664,0.0,97.0
74428,-1.027,0.055,0.056,62.122,-0.435,-29.389,0.0,80.0
74482,-0.663,0.449,0.190,50.756,20.000,-14.985,0.0,102.0
74537,-0.392,0.634,0.271,8.580,-15.137,9.695,0.0,102.0
74592,-0.365,0.610,0.039,-69.221,-41.924,64.344,0.0,100.0
74646,-1.111,0.243,-0.401,-125.435,-2.718,106.863,0.0,96.0
74695,-2.000,-0.765,-0.750,-93.954,-47.733,98.748,45.0,93.0
74740,-1.982,-0.597,-0.424,-101.626,-46.053,80.779,44.0,95.0
74786,-1.522,-0.711,-0.277,-120.092,-28.863,53.679,45.0,98.0
74832,-0.838,-0.524,-0.102,-123.176,-39.679,18.389,44.0,103.0
74878,-0.165,-0.517,-0.118,-111.305,-41.053,-14.183,43.0,106.0
74925,0.308,-0.538,-0.222,-58.740,-25.290,-40.733,41.0,106.0
74971,0.206,-0.476,-0.237,8.443,-6.817,-52.962,42.0,106.0
75016,-0.469,-0.623,-0.097,61.160,13.427,-56.405,44.0,102.0
75062,-1.470,-0.748,-0.339,115.573,59.664,-76.351,46.0,98.0
75111,-2.000,-0.516,-0.021,88.366,100.679,-55.084,47.0,97.0
75163,-2.000,-0.362,0.121,64.611,23.076,-40.809,165.0,97.0
75215,-1.144,0.018,0.028,60.420,6.359,-24.588,162.0,102.0
75269,-0.702,0.425,0.213,51.954,47.481,2.870,160.0,106.0
75321,-0.618,0.529,0.327,22.878,4.534,20.069,159.0,100.0
75373,-0.475,0.662,0.111,-34.786,-44.878,50.885,156.0,102.0
75425,-0.921,0.471,-0.311,-118.000,-28.740,105.802,155.0,98.0
75471,-2.000,-0.146,-0.480,-135.496,-24.405,95.672,47.0,97.0
75530,-2.000,-0.489,-0.396,-119.527,-65.450,72.435,46.0,99.0
75578,-1.419,-0.647,-0.261,-110.489,-42.733,40.176,44.0,104.0
75635,-0.624,-0.507,-0.042,-104.908,-25.725,12.718,0.0,106.0
75684,0.057,-0.557,-0.143,-75.611,-33.725,-27.328,41.0,112.0
75734,0.391,-0.479,-0.317,-9.214,-25.802,-57.366,42.0,111.0
75782,-0.001,-0.603,-0.360,43.664,25.115,-73.878,42.0,107.0
75830,-1.407,-0.795,-0.301,93.107,66.878,-57.115,43.0,102.0
75922,-2.000,-0.365,0.324,30.122,50.687,-21.267,47.0,111.0
75974,-1.292,-0.205,-0.015,29.260,-1.832,-29.672,47.0,105.0
76032,-0.769,0.183,0.012,44.260,44.023,-23.412,0.0,103.0
76089,-0.578,0.454,0.336,32.634,94.550,10.672,0.0,106.0
76147,-0.549,0.585,0.347,-15.901,-36.656,34.328,0.0,104.0
76205,-0.694,0.422,-0.286,-92.969,-70.786,82.053,0.0,98.0
76253,-2.000,0.042,-0.487,-129.374,-0.023,100.168,46.0,98.0
76301,-2.000,-0.627,-0.429,-121.099,-44.817,67.664,43.0,97.0
76349,-1.596,-0.782,-0.303,-111.847,-63.275,50.015,36.0,101.0
76406,-0.750,-0.468,-0.084,-87.573,-16.893,14.481,0.0,110.0
76468,-0.193,-0.407,-0.020,-56.130,2.496,-17.382,0.0,112.0
76517,0.212,-0.436,-0.200,-9.252,-15.023,-39.687,44.0,108.0
76574,0.007,-0.615,-0.294,31.374,-6.504,-51.183,0.0,106.0
76622,-0.979,-0.774,-0.301,112.977,31.305,-52.947,43.0,96.0
76670,-1.889,-0.815,-0.348,151.206,118.244,-98.328,44.0,97.0
76720,-2.000,-0.316,0.309,77.794,85.107,-39.282,45.0,96.0
76768,-1.543,-0.290,-0.055,81.008,-39.412,-41.969,46.0,98.0
76816,-0.755,0.165,-0.146,100.298,13.939,-40.634,46.0,102.0
76877,-0.582,0.528,0.151,74.443,66.366,-19.145,0.0,108.0
76935,-0.441,0.593,0.233,13.656,2.954,13.244,0.0,102.0
76992,-0.592,0.417,-0.001,-76.771,-32.634,73.405,0.0,101.0
77041,-1.460,0.256,-0.363,-119.954,13.756,103.397,48.0,96.0
77096,-2.000,-0.798,-0.381,-103.710,-41.687,74.954,0.0,75.0
77145,-1.887,-0.643,-0.284,-105.267,-54.573,73.847,38.0,97.0
77194,-1.133,-0.386,-0.141,-100.618,-26.397,43.771,43.0,100.0
77242,-0.523,-0.318,-0.125,-91.908,-33.557,24.260,45.0,103.0
77291,0.124,-0.483,-0.232,-59.580,-40.450,3.435,44.0,109.0
77352,0.323,-0.554,-0.144,2.214,-27.084,-19.389,0.0,110.0
77402,-0.466,-0.761,-0.408,90.557,5.122,-83.794,42.0,109.0
77450,-1.738,-0.611,-0.072,103.336,115.618,-92.695,44.0,105.0
77499,-2.000,-0.397,0.169,81.718,37.305,-61.763,46.0,99.0
77547,-1.422,-0.152,0.063,77.603,-17.649,-54.824,45.0,99.0
77596,-0.817,0.192,0.028,92.053,23.099,-44.038,46.0,100.0
77654,-0.709,0.466,0.239,78.878,24.153,-31.771,0.0,103.0
77712,-0.501,0.646,0.240,25.107,-32.908,6.412,0.0,105.0
77777,-0.627,0.711,-0.012,-75.748,-36.313,83.336,0.0,0.0
77818,-1.818,0.533,-0.541,-162.519,3.649,119.267,44.0,0.0
77868,-2.000,-0.493,-0.754,-153.145,-37.206,73.595,46.0,96.0
77916,-2.000,-0.638,-0.458,-170.191,-69.863,85.092,37.0,101.0
77964,-1.008,-0.681,-0.339,-132.763,-47.626,61.122,34.0,104.0
78013,-0.297,-0.481,-0.114,-108.191,-12.481,34.099,42.0,113.0
78071,0.033,-0.470,-0.075,-75.107,-16.382,-2.992,0.0,111.0
78130,0.246,-0.444,-0.208,-8.740,-37.405,-46.855,0.0,111.0
78188,-0.583,-0.621,-0.180,37.855,-14.107,-97.878,0.0,104.0
78240,-1.887,-0.747,-0.218,58.282,55.130,-87.145,45.0,103.0
78288,-2.000,-0.256,0.393,4.901,82.939,-35.466,45.0,102.0
78338,-1.465,-0.182,0.260,-14.603,-14.504,-34.893,45.0,107.0
78387,-0.877,0.074,0.026,14.519,-11.244,-29.969,47.0,104.0
78445,-0.732,0.299,0.220,11.473,10.550,-10.924,0.0,103.0
78502,-0.496,0.542,0.281,-30.168,-45.282,19.832,0.0,108.0
