Timestamp(ms),AccelX(g),AccelY(g),AccelZ(g),GyroX(deg/s),GyroY(deg/s),GyroZ(deg/s),DistanceLeft(cm),DistanceRight(cm)
36841,-2.000,-0.280,-0.158,-108.511,-35.901,185.939,38.0,93.0
36886,-2.000,-0.643,-0.373,-70.069,-81.107,189.412,38.0,91.0
36930,-1.890,-0.690,-0.267,-58.397,-88.198,199.366,35.0,96.0
36975,-1.162,-0.728,-0.169,-63.847,-68.847,158.076,32.0,103.0
37021,-0.554,-0.714,-0.249,-62.000,-41.679,91.802,41.0,108.0
37066,-0.126,-0.654,-0.375,-58.679,-0.405,9.321,31.0,108.0
37117,0.077,-0.595,-0.277,-47.511,42.794,-62.893,121.0,111.0
37166,0.006,-0.551,0.024,-20.069,36.992,-113.710,33.0,106.0
37211,-0.610,-0.649,0.216,29.076,11.656,-148.420,32.0,103.0
37256,-1.696,-0.881,-0.112,101.702,99.733,-204.282,39.0,103.0
37301,-2.000,-0.487,0.143,116.840,198.809,-103.168,48.0,96.0
37355,-2.000,-0.098,0.338,88.031,84.221,-59.153,0.0,98.0
37410,-1.131,0.130,0.095,63.824,-45.939,-37.664,0.0,101.0
37465,-0.579,0.427,-0.035,40.565,-22.015,-34.313,0.0,107.0
37520,-0.413,0.664,0.184,8.931,-12.710,-5.649,0.0,103.0
37577,-0.625,0.720,0.104,-40.580,-30.725,59.405,0.0,105.0
37632,-1.113,0.569,-0.261,-114.634,-35.580,166.053,0.0,96.0
37678,-2.000,-0.611,-0.641,-142.145,-0.733,147.863,47.0,94.0
37723,-2.000,-0.815,-0.465,-128.275,-56.206,127.832,44.0,96.0
37769,-1.262,-0.630,-0.315,-118.924,-35.985,82.603,37.0,107.0
37814,-0.681,-0.498,-0.186,-119.718,-12.229,33.947,33.0,105.0
37859,-0.167,-0.511,-0.155,-113.550,-8.771,-8.351,34.0,106.0
37914,0.278,-0.691,-0.159,-75.557,-21.046,-43.130,0.0,108.0
37960,0.369,-0.787,-0.231,29.687,-6.137,-79.038,43.0,105.0
38008,-0.423,-0.729,-0.124,101.534,20.740,-141.817,42.0,102.0
38055,-2.000,-0.729,-0.143,130.901,123.405,-165.359,48.0,113.0
38110,-2.000,-0.147,0.236,81.603,128.786,-30.786,0.0,102.0
38156,-1.713,-0.186,0.132,35.160,-75.252,4.687,49.0,100.0
38203,-0.666,-0.022,-0.097,52.870,-65.824,3.649,49.0,105.0
38257,-0.316,0.291,0.002,49.710,14.053,-3.160,0.0,104.0
38312,-0.198,0.528,0.196,12.260,27.840,-8.122,0.0,113.0
38368,-0.348,0.738,0.225,-54.321,-28.260,9.328,0.0,106.0
38417,-0.948,0.639,-0.303,-141.863,-32.260,101.076,47.0,99.0
38462,-2.000,0.197,-0.496,-169.221,23.664,126.794,47.0,94.0
38507,-2.000,-0.847,-0.599,-152.733,-51.282,99.389,37.0,95.0
38552,-1.854,-0.765,-0.403,-138.672,-87.748,99.901,37.0,98.0
38598,-0.918,-0.711,-0.239,-116.809,-39.763,61.573,43.0,103.0
38644,-0.323,-0.563,-0.176,-85.221,-20.374,25.427,36.0,108.0
38700,0.216,-0.684,-0.205,-48.931,-0.855,-19.092,0.0,110.0
38755,0.380,-0.539,-0.200,24.840,-7.718,-50.000,0.0,109.0
38801,-0.449,-0.615,-0.078,85.206,-39.076,-103.603,44.0,103.0
38849,-1.689,-0.610,-0.238,135.504,99.450,-145.763,36.0,103.0
38895,-2.000,-0.318,0.295,107.183,157.947,-55.099,49.0,106.0
38943,-2.000,-0.184,0.421,42.985,2.771,-25.244,49.0,130.0
38989,-0.918,-0.012,-0.033,56.298,-31.466,-35.855,46.0,107.0
39045,-0.463,0.349,-0.017,59.397,45.412,-28.076,0.0,104.0
39091,-0.349,0.616,0.125,25.710,63.908,-22.489,47.0,105.0
39146,-0.385,0.686,0.243,-42.573,14.992,-5.985,0.0,108.0
39201,-0.818,0.397,-0.132,-127.504,-28.511,59.870,0.0,101.0
39259,-2.000,0.227,-0.281,-160.275,1.336,128.221,0.0,94.0
39348,-1.844,-0.827,-0.322,-80.824,-43.275,105.389,50.0,100.0
39393,-0.963,-0.490,-0.057,-80.489,-20.481,73.916,33.0,105.0
39449,-0.317,-0.514,-0.170,-71.733,-41.977,37.221,0.0,113.0
39504,0.312,-0.602,-0.252,-11.863,-32.321,-25.137,0.0,110.0
39560,0.540,-0.493,-0.307,48.092,11.611,-62.756,0.0,110.0
39615,-0.351,-0.644,-0.085,96.382,44.847,-116.794,0.0,101.0
39661,-2.000,-0.763,-0.384,184.702,111.290,-145.901,47.0,99.0
39718,-2.000,-0.084,0.013,128.053,132.557,-22.000,0.0,93.0
39764,-1.625,-0.195,-0.074,94.336,-3.321,4.466,48.0,99.0
39811,-0.748,0.110,-0.127,102.595,-5.679,-14.802,48.0,99.0
39866,-0.455,0.428,0.057,79.908,31.198,-35.206,0.0,101.0
39920,-0.298,0.677,0.300,16.008,17.939,-32.053,0.0,102.0
39975,-0.495,0.670,0.164,-68.031,-14.603,21.840,0.0,97.0
40020,-1.511,0.383,-0.546,-106.748,15.466,94.832,47.0,95.0
40076,-2.000,-0.366,-0.562,-105.351,-29.985,116.298,0.0,92.0
40121,-2.000,-0.595,-0.417,-102.947,-70.672,113.084,36.0,96.0
40170,-1.137,-0.598,-0.195,-101.282,-46.221,73.405,45.0,100.0
40225,-0.513,-0.445,-0.100,-86.130,-43.756,33.504,0.0,103.0
40281,0.076,-0.604,-0.152,-41.939,-35.656,-19.847,0.0,106.0
40336,0.366,-0.765,-0.304,27.626,-10.069,-45.687,0.0,105.0
40382,-0.161,-0.788,-0.362,120.511,29.962,-83.168,45.0,100.0
40428,-1.889,-0.679,-0.353,155.634,122.863,-173.779,45.0,95.0
40482,-2.000,-0.411,0.008,115.183,87.046,-101.260,0.0,93.0
40538,-1.844,-0.229,0.006,79.641,5.947,-36.305,0.0,95.0
40587,-0.815,0.232,0.008,104.183,11.618,-19.794,47.0,98.0
40641,-0.492,0.552,0.075,93.366,28.542,-17.321,0.0,100.0
40696,-0.256,0.743,0.202,48.237,23.153,5.794,0.0,101.0
40752,-0.453,0.555,0.218,-25.916,-0.221,70.321,0.0,98.0
40806,-1.196,0.153,-0.153,-71.855,-3.321,127.183,0.0,94.0
40861,-2.000,-0.746,-0.126,-65.237,-42.740,117.229,0.0,93.0
40907,-2.000,-0.831,-0.095,-24.489,-80.511,86.634,46.0,95.0
40952,-1.079,-0.519,0.022,-23.458,-1.939,61.641,32.0,99.0
41008,-0.568,-0.280,0.155,-34.992,11.595,27.168,0.0,104.0
41066,0.047,-0.556,-0.156,-10.702,-18.290,-18.817,0.0,102.0
41121,0.035,-0.669,-0.253,41.542,-24.489,-46.344,0.0,96.0
41176,-0.470,-0.675,-0.202,137.733,-33.840,-68.168,0.0,92.0
41221,-1.607,-0.802,-0.326,202.832,98.557,-118.672,33.0,86.0
41266,-2.000,-0.264,0.125,176.427,180.305,-116.427,44.0,89.0
41321,-2.000,-0.242,0.170,122.313,21.038,-83.519,0.0,91.0
41375,-0.929,0.227,-0.235,121.313,2.527,-93.275,0.0,98.0
41430,-0.552,0.506,-0.078,82.481,77.313,-50.740,0.0,86.0
41485,-0.423,0.578,0.259,43.527,64.023,-32.183,0.0,89.0
41541,-0.587,0.548,0.400,-14.641,1.916,33.305,0.0,77.0
41593,-1.271,0.127,0.083,-57.069,-37.992,94.863,45.0,0.0
41631,-2.000,-1.043,-0.341,-26.733,-54.809,96.443,37.0,0.0
41687,-2.000,-0.918,-0.116,-6.099,-15.527,98.832,0.0,93.0
41731,-1.587,-0.779,0.099,-4.061,-25.481,85.069,38.0,76.0
41776,-0.842,-0.530,0.097,0.267,-41.359,60.443,32.0,99.0
41822,-0.272,-0.545,0.023,7.542,-51.466,48.069,38.0,93.0
41867,0.297,-0.548,-0.212,33.237,-58.855,35.962,30.0,99.0
41958,0.218,-0.515,-0.150,130.573,27.000,-56.008,29.0,98.0
42004,-1.675,-0.929,-0.184,185.282,22.214,-131.405,30.0,96.0
42049,-2.000,-0.742,-0.310,201.542,75.313,-158.427,33.0,92.0
42103,-2.000,-0.092,0.162,140.328,140.679,-65.183,0.0,88.0
42148,-1.519,0.089,0.115,114.824,23.206,-53.168,38.0,87.0
42194,-0.691,0.329,-0.023,117.908,-7.328,-63.733,47.0,91.0
42241,-0.328,0.460,-0.028,106.634,21.565,-72.863,45.0,94.0
42288,-0.322,0.610,0.073,65.687,47.924,-57.145,49.0,100.0
42334,-0.655,0.572,0.189,4.382,36.290,14.695,51.0,96.0
42391,-0.984,0.395,0.108,-62.756,-7.382,93.947,0.0,91.0
42437,-2.000,-0.365,-0.042,-87.107,-51.260,118.099,39.0,88.0
42482,-2.000,-0.786,-0.201,-42.588,-32.962,103.191,36.0,89.0
42527,-1.758,-0.788,0.051,-34.565,-11.359,80.977,36.0,91.0
42573,-0.993,-0.402,0.135,-33.763,-13.695,40.550,34.0,96.0
42619,-0.415,-0.389,0.117,-43.557,-32.740,7.603,34.0,99.0
42664,0.216,-0.556,-0.166,-22.229,-57.382,-37.382,33.0,101.0
42711,0.621,-0.563,-0.348,25.885,-33.412,-52.908,32.0,101.0
42760,-0.066,-0.939,-0.493,84.893,69.710,-63.718,36.0,98.0
42806,-1.739,-0.869,-0.327,179.206,87.809,-52.878,36.0,94.0
42851,-2.000,-0.571,-0.109,195.573,81.947,-74.779,36.0,92.0
42897,-1.816,0.003,0.341,106.794,49.779,-27.603,48.0,92.0
42943,-1.232,0.018,-0.040,82.122,4.237,-48.435,45.0,93.0
42998,-0.847,0.255,-0.083,75.924,34.183,-49.168,0.0,97.0
43054,-0.719,0.370,0.099,45.176,57.687,-16.847,0.0,97.0
43109,-0.450,0.412,0.341,-0.573,24.626,20.656,0.0,97.0
43163,-0.621,0.306,0.363,-61.038,-27.863,76.687,0.0,93.0
43213,-1.802,-0.048,-0.140,-80.580,-50.275,83.527,46.0,91.0
43265,-2.000,-0.611,-0.484,-34.206,-73.046,70.137,46.0,90.0
43310,-2.000,-0.583,-0.238,-25.634,-30.931,70.366,43.0,93.0
43355,-1.300,-0.356,-0.012,-39.580,-10.794,51.504,35.0,96.0
43400,-0.584,-0.256,0.036,-58.397,-25.252,36.985,33.0,101.0
43445,-0.001,-0.399,-0.080,-61.779,-30.198,11.229,36.0,105.0
43499,0.343,-0.459,-0.216,-37.939,-37.580,9.427,0.0,106.0
43545,0.048,-0.629,-0.267,32.649,-8.969,-17.458,37.0,104.0
43590,-0.785,-0.650,-0.377,107.389,31.366,-58.336,42.0,100.0
43638,-1.775,-0.689,-0.082,126.504,140.840,-102.802,42.0,96.0
43683,-2.000,-0.360,0.257,93.221,91.901,-56.817,45.0,95.0
43738,-1.761,-0.176,0.025,91.840,-1.389,-69.412,0.0,95.0
43792,-0.739,0.260,-0.037,105.565,26.389,-62.908,0.0,98.0
43846,-0.485,0.659,0.130,73.802,56.901,-53.901,0.0,99.0
43900,-0.602,0.727,0.284,4.573,14.649,-5.084,0.0,97.0
43955,-0.792,0.637,0.079,-82.412,-42.672,76.130,0.0,94.0
44009,-2.000,0.201,-0.349,-117.153,-41.176,105.664,0.0,93.0
44057,-2.000,-0.593,-0.557,-100.656,-47.481,98.504,44.0,93.0
44102,-1.718,-0.587,-0.205,-109.802,-55.771,55.351,44.0,95.0
44147,-0.961,-0.379,-0.205,-95.092,-54.748,14.832,44.0,99.0
44192,-0.406,-0.254,-0.224,-85.450,-40.542,8.710,33.0,103.0
44238,0.029,-0.489,-0.336,-58.992,-31.557,-17.931,33.0,105.0
44293,0.344,-0.547,-0.297,-19.328,-19.099,-29.237,0.0,104.0
44339,-0.016,-0.839,-0.249,50.931,16.145,-58.069,40.0,102.0
44427,-2.000,-0.644,0.026,146.794,133.084,-132.809,45.0,93.0
44472,-2.000,-0.355,0.219,99.397,97.702,-45.298,46.0,93.0
44529,-1.547,-0.159,0.114,80.527,1.756,-41.641,0.0,96.0
44584,-0.660,0.270,0.040,92.931,-0.015,-45.168,0.0,99.0
44639,-0.365,0.637,0.117,53.260,27.901,-33.450,0.0,102.0
44693,-0.360,0.793,0.152,-28.771,18.435,32.817,0.0,99.0
44747,-0.889,0.556,-0.163,-102.962,-13.023,106.069,0.0,96.0
44793,-2.000,-0.030,-0.337,-139.435,-19.832,141.931,44.0,94.0
44838,-2.000,-0.648,-0.616,-126.427,-74.542,112.702,47.0,93.0
44883,-1.790,-0.855,-0.435,-93.626,-52.504,63.267,36.0,96.0
44932,-1.051,-0.496,-0.146,-76.305,-13.992,29.588,38.0,100.0
44978,-0.441,-0.424,-0.035,-69.053,-35.634,8.374,36.0,104.0
45033,0.190,-0.584,-0.201,-35.473,-48.038,-35.145,0.0,106.0
45087,0.490,-0.587,-0.363,27.260,-17.504,-66.565,0.0,105.0
45133,-0.394,-0.780,-0.300,93.198,41.382,-112.588,41.0,100.0
45178,-1.968,-0.580,-0.267,129.153,114.794,-143.069,44.0,96.0
45224,-2.000,-0.412,0.022,97.412,68.183,-54.260,47.0,94.0
45279,-1.767,-0.266,0.050,83.756,-7.573,-8.496,0.0,96.0
45333,-0.887,0.139,-0.047,109.489,31.458,-3.641,0.0,99.0
45391,-0.638,0.497,0.198,90.397,31.565,-6.443,0.0,101.0
45446,-0.308,0.637,0.286,27.756,-12.397,-4.305,0.0,102.0
45501,-0.451,0.735,0.101,-74.931,-17.878,47.863,0.0,99.0
45555,-1.355,0.301,-0.273,-162.672,0.267,96.298,0.0,95.0
45600,-2.000,-0.616,-0.668,-139.992,-85.733,80.916,43.0,94.0
45646,-2.000,-0.662,-0.546,-122.176,-84.221,70.359,44.0,95.0
45701,-1.344,-0.597,-0.369,-115.290,-15.534,53.137,0.0,100.0
45756,-0.638,-0.394,-0.131,-117.099,-12.366,21.962,0.0,105.0
45814,0.065,-0.481,-0.195,-73.710,-12.046,-21.595,0.0,107.0
45870,0.408,-0.599,-0.208,-4.191,-7.672,-44.901,0.0,106.0
45925,-0.075,-0.644,0.094,59.313,-17.183,-81.718,0.0,101.0
45971,-1.848,-0.865,-0.424,138.519,75.305,-151.977,45.0,97.0
46017,-2.000,-0.388,0.062,87.237,153.626,-49.282,49.0,97.0
46063,-2.000,-0.148,0.289,12.969,17.176,-5.130,51.0,99.0
46117,-1.152,0.002,-0.066,32.382,-44.076,-7.817,0.0,101.0
46173,-0.511,0.348,0.003,42.282,24.878,10.603,0.0,103.0
46228,-0.301,0.577,0.290,9.939,17.702,18.740,0.0,103.0
46285,-0.219,0.540,0.202,-66.573,-35.206,32.435,0.0,102.0
46331,-1.053,0.307,-0.249,-131.832,-23.740,82.954,45.0,99.0
46377,-2.000,0.069,-0.340,-145.656,-37.542,99.924,44.0,97.0
46424,-2.000,-0.431,-0.691,-91.351,-70.687,58.191,45.0,98.0
46478,-1.727,-0.491,-0.416,-105.374,-23.328,73.473,0.0,102.0
46534,-0.843,-0.385,-0.059,-118.130,-28.359,46.740,0.0,107.0
46589,-0.041,-0.548,-0.174,-88.603,-39.885,8.298,0.0,112.0
46646,0.500,-0.548,-0.172,-18.901,-30.160,-38.534,0.0,114.0
46704,0.246,-0.597,-0.047,52.656,-0.115,-99.519,0.0,106.0
46759,-1.710,-0.969,-0.481,126.244,82.931,-131.260,0.0,103.0
46806,-2.000,-0.478,-0.021,118.878,139.359,-56.687,48.0,97.0
46852,-2.000,-0.125,0.359,45.672,38.443,-19.588,46.0,104.0
46898,-1.257,-0.118,0.035,23.519,-11.397,-38.771,46.0,101.0
46953,-0.677,0.139,0.043,34.771,22.901,-39.595,0.0,101.0
47051,-0.258,0.688,0.250,-11.015,30.076,-15.229,0.0,102.0
47106,-0.854,0.541,0.123,-84.450,-15.634,53.176,0.0,98.0
47153,-1.750,0.245,-0.461,-124.870,-23.221,109.656,48.0,96.0
47210,-2.000,-0.729,-0.625,-97.863,-74.427,119.252,0.0,95.0
47256,-1.991,-0.710,-0.366,-85.573,-49.397,111.832,38.0,97.0
47301,-1.264,-0.480,-0.098,-75.847,-30.779,68.092,37.0,101.0
47347,-0.477,-0.445,-0.035,-71.489,-44.679,33.718,40.0,106.0
47394,0.181,-0.523,-0.121,-50.053,-37.168,-31.992,41.0,109.0
47440,0.423,-0.585,-0.204,-11.305,-18.237,-88.695,41.0,108.0
47488,0.058,-0.570,-0.286,18.244,16.267,-123.427,42.0,107.0
47534,-1.117,-0.901,-0.345,74.947,54.924,-120.405,45.0,106.0
47583,-2.000,-0.703,-0.089,109.886,101.389,-72.122,47.0,99.0
47629,-2.000,-0.321,0.207,81.603,87.237,-32.237,48.0,97.0
47675,-1.583,-0.298,0.099,61.084,-3.244,-19.710,47.0,98.0
47730,-0.903,0.033,-0.063,82.038,15.298,-11.176,0.0,101.0
47777,-0.643,0.518,0.105,71.603,58.198,7.206,49.0,101.0
47823,-0.506,0.588,0.215,34.618,33.710,15.924,47.0,102.0
47879,-0.417,0.551,0.251,-22.092,-13.687,36.328,0.0,101.0
47933,-0.846,0.387,0.060,-92.427,-17.969,89.458,0.0,98.0
47979,-2.000,-0.117,-0.029,-122.336,-49.092,100.496,44.0,96.0
48028,-2.000,-0.430,-0.351,-89.832,-106.382,81.237,35.0,99.0
48074,-1.499,-0.483,-0.262,-81.908,-48.382,61.702,44.0,102.0
48120,-0.921,-0.453,-0.105,-69.534,-3.878,20.931,33.0,106.0
48177,-0.402,-0.409,-0.020,-60.954,-4.939,-0.863,0.0,109.0
48223,-0.043,-0.559,-0.153,-22.137,-45.053,-36.855,37.0,110.0
48269,0.307,-0.532,-0.303,27.756,-42.153,-44.511,38.0,110.0
48325,-0.101,-0.673,-0.181,83.962,5.031,-59.420,0.0,104.0
48371,-1.742,-0.938,-0.234,158.832,102.718,-147.183,45.0,98.0
48420,-2.000,-0.227,0.282,128.496,151.557,-89.206,45.0,99.0
48476,-2.000,-0.142,0.353,76.763,43.901,-50.511,0.0,99.0
48531,-1.005,0.126,0.029,88.916,3.061,-34.855,0.0,103.0
48586,-0.462,0.531,0.153,80.466,48.885,-13.229,0.0,102.0
48642,-0.355,0.626,0.285,49.603,35.718,-1.382,0.0,101.0
48697,-0.685,0.474,0.243,-15.275,6.191,65.511,0.0,98.0
48752,-1.579,0.047,-0.051,-68.588,-5.695,94.038,0.0,94.0
48806,-2.000,-0.832,-0.274,-46.328,-50.786,76.038,0.0,94.0
48862,-1.606,-0.629,-0.032,-58.809,-17.595,82.733,0.0,101.0
48921,-0.800,-0.295,0.193,-67.336,-17.038,33.931,0.0,103.0
48976,-0.114,-0.383,0.015,-42.099,-32.779,4.198,0.0,107.0
49033,0.445,-0.588,-0.359,36.305,13.374,-45.870,0.0,105.0
49088,0.125,-0.630,-0.219,100.321,88.069,-72.886,0.0,101.0
49143,-1.895,-1.171,-0.521,190.008,63.153,-111.351,0.0,95.0
49198,-2.000,-0.546,-0.096,148.649,91.069,-64.443,0.0,91.0
49245,-1.790,-0.329,0.046,103.954,45.420,-32.366,47.0,93.0
49299,-1.202,0.007,-0.106,122.863,26.977,-41.603,0.0,96.0
49358,-0.763,0.419,0.008,115.130,45.603,-24.870,0.0,98.0
49414,-0.512,0.699,0.235,73.786,19.916,-2.473,0.0,99.0
49469,-0.622,0.586,0.234,-1.168,-13.023,64.229,0.0,98.0
49524,-1.074,0.152,-0.058,-64.183,-22.153,124.244,0.0,99.0
49570,-1.964,-0.764,-0.288,-57.748,-67.053,96.099,45.0,92.0
49669,-1.474,-0.726,-0.032,-49.076,-29.359,25.824,0.0,104.0
49715,-0.784,-0.309,0.110,-44.153,-9.489,-16.214,34.0,98.0
49761,-0.365,-0.340,0.028,-33.145,-9.534,-30.382,35.0,101.0
49816,0.010,-0.474,-0.097,5.626,-9.809,-46.748,0.0,102.0
49880,-0.016,-0.529,-0.213,80.962,20.427,-18.412,0.0,99.0
49934,-1.093,-0.688,-0.224,134.260,19.397,-44.718,0.0,96.0
49979,-1.744,-0.708,-0.029,124.244,69.344,-85.069,46.0,92.0
50033,-1.900,-0.322,0.246,78.221,73.992,-50.053,0.0,92.0
50078,-1.333,-0.061,0.067,83.779,46.130,-65.977,47.0,93.0
50132,-0.769,0.202,0.111,82.687,47.198,-57.947,0.0,95.0
50187,-0.551,0.347,0.152,67.710,56.550,-62.061,0.0,96.0
50240,-0.700,0.438,0.263,27.748,55.282,7.603,0.0,94.0
50294,-1.084,0.255,0.360,-34.641,-21.008,101.511,0.0,91.0
50351,-1.830,-0.254,0.018,-36.710,-94.786,142.809,0.0,90.0
50396,-1.697,-0.815,-0.332,27.794,-70.397,100.779,36.0,90.0
50440,-1.574,-0.562,0.077,-1.137,8.641,93.206,36.0,93.0
50485,-1.296,-0.327,0.146,-35.832,-11.809,36.679,36.0,96.0
50530,-0.635,-0.137,-0.002,-53.359,-32.328,5.244,36.0,101.0
50575,-0.064,-0.284,-0.176,-55.176,-10.023,-6.519,36.0,101.0
50621,0.288,-0.471,-0.213,-36.573,16.115,-10.313,44.0,102.0
50675,-0.025,-0.755,-0.159,4.969,36.863,-27.885,0.0,99.0
50733,-1.252,-1.024,-0.279,142.031,32.084,-85.641,0.0,93.0
50778,-1.759,-0.531,0.037,133.137,87.878,-85.832,36.0,94.0
50831,-2.000,-0.151,0.250,96.153,68.206,-58.107,0.0,92.0
50877,-1.456,0.139,-0.021,101.191,4.092,-38.061,45.0,98.0
50922,-0.835,0.454,0.022,86.763,25.740,-19.427,47.0,94.0
50976,-0.546,0.594,0.198,57.160,47.115,-6.870,0.0,99.0
51031,-0.561,0.507,0.308,10.359,30.550,44.282,0.0,96.0
51076,-0.891,0.336,0.241,-46.908,-19.496,119.084,46.0,93.0
51130,-1.389,0.306,0.118,-77.863,-64.145,139.389,0.0,92.0
51178,-2.000,-0.549,-0.236,-54.718,-132.802,79.313,35.0,90.0
51223,-1.846,-0.569,-0.142,-33.374,-81.626,52.710,37.0,94.0
51267,-1.326,-0.478,-0.084,-35.099,-17.519,24.458,34.0,96.0
51313,-0.720,-0.346,-0.023,-32.366,0.282,4.069,42.0,101.0
51358,-0.268,-0.386,-0.153,-13.107,5.168,-20.084,42.0,103.0
51404,0.112,-0.504,-0.253,20.023,28.053,-43.687,37.0,101.0
51449,0.016,-0.472,-0.099,50.221,26.305,-48.908,41.0,101.0
51504,-0.531,-0.582,-0.121,93.542,8.649,-81.893,0.0,96.0
51549,-1.776,-0.619,0.000,133.198,60.962,-143.863,35.0,91.0
51597,-2.000,-0.309,0.112,119.817,97.695,-84.656,45.0,90.0
51642,-1.865,-0.012,0.269,102.298,64.412,-69.176,45.0,91.0
51696,-1.206,0.218,0.148,99.779,20.466,-58.282,0.0,95.0
51750,-0.647,0.659,0.120,80.397,31.321,-47.565,0.0,97.0
51806,-0.573,0.638,0.200,35.122,33.916,0.153,0.0,98.0
51851,-0.701,0.598,0.238,-41.550,1.244,92.366,50.0,95.0
51897,-1.332,0.241,-0.042,-94.321,-33.160,132.466,46.0,94.0
51942,-1.966,-0.334,-0.211,-91.176,-86.527,127.870,37.0,93.0
51989,-1.974,-0.784,-0.304,-74.931,-85.496,103.908,35.0,94.0
52034,-1.395,-0.611,-0.186,-67.748,-18.672,57.290,34.0,95.0
52080,-0.911,-0.327,0.050,-77.481,24.443,30.298,44.0,98.0
52168,0.062,-0.591,-0.117,-30.603,-2.244,-49.351,38.0,102.0
52214,0.285,-0.623,-0.115,17.992,4.298,-77.321,32.0,100.0
52259,-0.099,-0.802,-0.023,60.824,8.969,-106.763,40.0,98.0
52304,-1.409,-1.074,-0.378,137.588,44.351,-181.557,37.0,95.0
52359,-2.000,-0.635,-0.011,125.344,113.038,-109.458,0.0,92.0
52405,-2.000,-0.178,0.245,81.336,74.427,-27.511,47.0,92.0
52454,-1.348,-0.074,0.067,80.954,11.481,-22.763,50.0,95.0
52499,-0.789,0.271,0.036,83.107,23.977,-14.115,46.0,97.0
52545,-0.563,0.539,0.184,57.893,41.511,-2.863,49.0,98.0
52591,-0.452,0.504,0.218,14.664,27.855,32.611,49.0,97.0
52636,-0.591,0.400,0.174,-43.611,9.656,94.817,46.0,95.0
52682,-1.320,0.135,-0.048,-89.145,-6.649,111.954,46.0,93.0
52727,-2.000,-0.395,-0.117,-100.542,-57.344,125.496,37.0,90.0
52772,-1.971,-0.512,-0.143,-91.710,-84.802,110.725,35.0,93.0
52827,-1.517,-0.653,-0.243,-68.191,-64.550,68.985,0.0,95.0
52876,-0.817,-0.358,-0.052,-43.198,-0.458,27.237,40.0,98.0
52921,-0.384,-0.429,-0.072,-27.305,-5.687,-3.336,39.0,100.0
52967,0.042,-0.527,-0.134,1.374,-7.748,-55.221,38.0,101.0
53013,0.038,-0.721,-0.150,40.519,-18.328,-92.527,40.0,102.0
53058,-0.422,-0.687,-0.211,75.573,1.000,-132.832,40.0,99.0
53104,-1.344,-0.667,-0.155,108.939,80.298,-123.855,36.0,97.0
53149,-2.000,-0.622,0.041,117.924,109.046,-65.977,47.0,94.0
53195,-1.888,-0.168,0.232,114.008,64.397,-63.863,47.0,95.0
53244,-1.279,0.102,0.197,92.664,29.893,-46.878,47.0,99.0
53300,-0.861,0.453,0.208,72.908,10.580,-31.038,0.0,98.0
53354,-0.582,0.685,0.142,40.389,7.580,-5.641,0.0,100.0
53400,-0.658,0.629,0.171,-13.626,17.603,77.504,47.0,99.0
53446,-0.940,0.373,0.114,-76.351,-5.664,144.160,45.0,95.0
53500,-1.804,-0.190,-0.081,-101.496,-39.298,147.939,0.0,94.0
53547,-1.881,-0.703,-0.244,-75.076,-84.206,106.626,35.0,94.0
53592,-1.429,-0.643,-0.123,-59.290,-45.939,53.176,43.0,96.0
53638,-0.951,-0.513,-0.010,-54.817,-7.931,-5.053,36.0,99.0
53686,-0.541,-0.504,0.019,-51.817,-16.260,-41.427,33.0,102.0
53732,-0.082,-0.571,-0.185,-18.863,-14.481,-78.489,34.0,104.0
53787,0.044,-0.572,-0.189,21.038,7.137,-92.496,0.0,101.0
53842,-0.398,-0.679,-0.107,75.053,22.275,-93.366,0.0,98.0
53897,-1.437,-0.677,-0.039,114.435,76.130,-117.756,0.0,97.0
53952,-2.000,-0.566,0.083,106.771,93.550,-57.321,0.0,95.0
53998,-1.595,-0.157,0.192,84.817,50.405,-19.504,48.0,99.0
54053,-0.962,0.099,0.126,85.756,29.282,-8.893,0.0,99.0
54103,-0.451,0.521,0.140,65.534,28.794,-4.015,47.0,100.0
54150,-0.133,0.806,0.147,24.351,21.214,15.534,47.0,104.0
54196,-0.232,0.716,0.014,-45.489,23.809,55.939,48.0,99.0
54250,-1.382,0.254,-0.231,-94.328,47.702,90.580,0.0,94.0
54295,-2.000,-0.624,-0.260,-115.901,-34.962,111.191,38.0,91.0
54341,-2.000,-0.756,-0.193,-110.618,-72.557,90.099,37.0,92.0
54395,-1.412,-0.814,-0.272,-78.252,-43.061,43.878,0.0,96.0
54441,-0.836,-0.401,-0.032,-46.405,7.252,12.832,33.0,98.0
54488,-0.401,-0.441,-0.060,-20.298,0.412,-8.809,38.0,102.0
54546,0.075,-0.481,-0.151,19.008,-15.168,-34.542,0.0,102.0
54644,-0.591,-0.876,-0.419,88.725,15.542,-113.916,0.0,97.0
54700,-2.000,-0.812,-0.133,127.809,122.908,-113.359,0.0,102.0
54754,-2.000,-0.268,0.161,104.336,56.458,-20.061,0.0,94.0
54801,-1.071,0.035,0.050,102.847,6.374,-17.206,46.0,96.0
54855,-0.623,0.454,0.068,93.252,18.420,-15.351,0.0,101.0
54910,-0.455,0.601,0.133,54.824,28.389,-2.435,0.0,102.0
54958,-0.517,0.594,0.162,3.496,29.565,53.435,45.0,99.0
55004,-0.925,0.341,0.097,-61.565,1.802,116.191,46.0,99.0
55061,-1.844,-0.164,-0.215,-96.405,-15.153,129.031,0.0,93.0
55107,-2.000,-0.728,-0.265,-69.786,-44.198,60.847,36.0,91.0
55152,-1.682,-0.757,-0.176,-69.374,-39.618,27.832,34.0,92.0
55197,-1.052,-0.472,-0.023,-55.427,-17.046,-11.122,33.0,97.0
55243,-0.589,-0.359,0.036,-48.053,-12.084,-26.603,36.0,100.0
55289,-0.149,-0.491,-0.074,-9.824,-30.008,-55.260,31.0,107.0
55335,0.207,-0.479,-0.275,45.359,-17.206,-65.221,30.0,101.0
55391,-0.045,-0.616,-0.256,96.977,17.397,-56.473,0.0,99.0
55440,-1.258,-0.798,-0.428,180.649,104.817,-85.863,36.0,95.0
55494,-1.987,-0.418,-0.023,169.344,141.458,-68.267,0.0,93.0
55549,-2.000,-0.211,0.108,109.870,14.458,-41.969,0.0,93.0
55605,-1.142,0.068,-0.053,96.511,-4.244,-31.580,0.0,101.0
55660,-0.718,0.468,0.142,81.405,29.038,-12.450,0.0,99.0
55716,-0.469,0.482,0.208,64.206,18.313,15.084,0.0,103.0
55771,-0.464,0.481,0.226,20.252,19.718,80.611,0.0,97.0
55817,-0.992,0.405,0.040,-46.885,17.855,142.924,44.0,95.0
55863,-2.000,-0.326,-0.018,-75.160,-32.779,116.573,36.0,93.0
55912,-1.899,-0.519,-0.235,-71.733,-79.267,64.679,37.0,94.0
55958,-1.365,-0.610,-0.160,-72.588,-33.664,38.450,45.0,100.0
56004,-0.848,-0.387,0.065,-49.985,12.519,5.160,32.0,100.0
56050,-0.500,-0.417,0.045,-24.901,19.473,-20.679,38.0,103.0
56102,-0.104,-0.464,-0.069,5.847,19.374,-54.916,141.0,105.0
56155,0.072,-0.508,-0.077,35.336,4.237,-63.382,139.0,101.0
56215,-0.624,-0.784,-0.237,94.053,33.641,-93.298,197.0,95.0
56268,-1.871,-0.680,-0.260,161.588,134.305,-91.008,0.0,92.0
56326,-2.000,-0.211,0.156,124.160,47.252,-21.366,0.0,94.0
56371,-1.163,-0.056,-0.072,107.886,1.916,-25.023,46.0,95.0
56425,-0.689,0.346,0.019,100.443,37.214,-20.336,0.0,98.0
56471,-0.415,0.712,0.142,63.718,29.450,-6.351,48.0,103.0
56525,-0.423,0.714,0.122,13.954,24.489,28.221,0.0,98.0
56570,-1.117,0.390,0.040,-61.901,-1.405,108.809,46.0,95.0
56625,-1.928,0.018,-0.103,-92.756,-40.374,125.160,0.0,91.0
56670,-2.000,-0.644,-0.243,-92.534,-92.305,106.420,36.0,92.0
56715,-1.513,-0.774,-0.146,-78.489,-38.496,54.031,43.0,95.0
56763,-0.932,-0.416,0.050,-71.023,15.130,-0.176,44.0,98.0
56808,-0.484,-0.342,0.027,-62.962,13.366,-31.771,45.0,101.0
56859,-0.031,-0.550,-0.180,-18.649,9.870,-65.214,136.0,102.0
56913,0.157,-0.614,-0.140,40.435,4.802,-65.740,0.0,101.0
56960,-0.528,-1.104,-0.256,102.573,1.641,-76.504,46.0,98.0
57005,-1.305,-0.984,-0.603,194.962,84.290,-127.527,51.0,95.0
57059,-2.000,-0.371,-0.058,168.710,134.748,-88.160,0.0,93.0
57113,-1.939,0.128,-0.109,121.855,5.771,-68.252,0.0,96.0
57213,-0.764,0.519,0.097,70.168,63.061,5.962,0.0,99.0
57269,-0.468,0.499,0.238,17.771,3.153,25.061,0.0,100.0
57323,-0.522,0.469,0.184,-61.603,-10.305,81.718,0.0,98.0
57368,-1.460,0.236,-0.153,-119.443,-3.710,112.901,46.0,95.0
57413,-2.000,-0.592,-0.381,-108.718,-55.160,113.580,44.0,93.0
57458,-1.997,-0.553,-0.262,-102.718,-62.252,90.557,36.0,95.0
57503,-1.515,-0.688,-0.342,-84.565,-50.649,45.458,37.0,97.0
57549,-0.828,-0.386,-0.142,-72.931,-19.527,16.740,43.0,100.0
57595,-0.227,-0.425,-0.091,-67.466,-13.802,-10.275,44.0,105.0
57653,0.255,-0.604,-0.180,-23.893,-17.443,-56.931,0.0,106.0
57699,0.235,-0.661,-0.230,29.336,-19.763,-81.847,46.0,106.0
57754,-0.532,-0.959,-0.366,89.374,11.176,-125.298,0.0,98.0
57799,-2.000,-0.914,-0.233,127.901,111.160,-141.122,45.0,96.0
57854,-2.000,-0.487,0.122,77.275,100.351,-59.641,0.0,98.0
57900,-1.355,-0.213,0.056,64.595,12.298,-37.618,49.0,98.0
57955,-0.717,0.175,0.035,75.832,22.267,-32.611,0.0,106.0
58010,-0.430,0.600,0.173,57.061,42.168,-7.725,0.0,111.0
58068,-0.483,0.878,0.288,-4.511,3.176,46.756,0.0,111.0
58115,-0.844,0.518,-0.038,-79.443,-53.191,121.557,50.0,98.0
58160,-1.748,0.380,-0.381,-112.588,-13.664,142.534,47.0,95.0
58205,-2.000,-0.855,-0.305,-122.496,-91.847,127.176,37.0,92.0
58251,-2.000,-0.912,-0.444,-101.962,-124.786,95.763,44.0,96.0
58297,-1.276,-0.651,-0.389,-101.405,-53.412,56.763,51.0,98.0
58343,-0.624,-0.398,-0.208,-97.840,-22.290,27.397,38.0,104.0
58388,-0.074,-0.470,-0.274,-78.145,-10.305,-4.863,38.0,105.0
58443,0.190,-0.513,-0.170,-49.092,2.977,-23.580,0.0,105.0
58492,-0.227,-0.679,-0.107,30.878,4.573,-36.221,41.0,103.0
58539,-1.114,-0.733,-0.199,107.977,21.519,-73.084,44.0,106.0
58584,-1.790,-0.633,-0.042,116.489,93.145,-95.840,42.0,99.0
58630,-1.915,-0.204,0.254,79.710,87.168,-80.443,43.0,104.0
58685,-1.498,-0.074,0.223,55.344,20.084,-78.069,0.0,107.0
58740,-0.751,0.377,0.113,56.084,12.901,-74.206,0.0,102.0
58795,-0.693,0.591,0.177,29.458,33.328,-29.069,0.0,102.0
58850,-0.721,0.683,0.291,-24.649,-18.000,51.924,0.0,102.0
58899,-0.825,0.485,-0.143,-89.290,-48.870,142.511,45.0,100.0
58945,-1.693,0.257,-0.372,-110.214,21.649,155.794,44.0,108.0
58991,-2.000,-0.612,-0.458,-72.473,-36.290,68.992,43.0,98.0
59036,-1.957,-0.608,-0.323,-83.435,-63.779,42.649,35.0,101.0
59082,-1.193,-0.520,-0.302,-94.908,-19.260,12.901,36.0,103.0
59128,-0.602,-0.468,-0.173,-99.886,-5.794,-2.565,41.0,108.0
59174,-0.073,-0.652,-0.190,-63.092,-14.725,-29.718,37.0,110.0
59222,0.219,-0.486,-0.091,-10.885,-45.595,-36.023,39.0,114.0
59268,0.234,-0.542,-0.226,30.718,-51.802,-71.084,40.0,107.0
59317,-0.756,-0.714,-0.351,78.710,27.504,-129.000,45.0,105.0
59363,-2.000,-0.786,0.094,105.008,150.969,-142.802,46.0,99.0
59409,-2.000,-0.445,0.534,36.634,72.099,-34.580,48.0,99.0
59463,-1.408,-0.254,0.147,42.595,-10.840,-36.634,0.0,102.0
59518,-0.676,0.254,0.079,55.092,38.176,-31.496,0.0,105.0
59575,-0.581,0.635,0.240,31.756,40.527,-9.237,0.0,110.0
59635,-0.491,0.637,0.196,-23.809,-11.061,35.870,0.0,0.0
59724,-1.887,-0.057,-0.239,-107.725,-11.885,129.618,48.0,96.0
59773,-2.000,-0.756,-0.407,-73.763,-65.550,89.534,37.0,99.0
59819,-1.677,-0.669,-0.235,-55.908,-39.298,68.061,36.0,99.0
59874,-1.122,-0.501,-0.084,-61.122,-5.977,38.710,0.0,108.0
59920,-0.370,-0.502,0.050,-59.847,-21.015,3.076,38.0,105.0
59975,0.214,-0.672,-0.113,-22.420,-28.336,-46.626,0.0,110.0
60030,0.216,-0.580,-0.121,27.534,-32.191,-87.000,0.0,106.0
60078,-0.868,-0.887,-0.531,97.115,73.122,-153.191,43.0,103.0
60124,-2.000,-0.781,0.087,88.817,157.786,-76.389,47.0,99.0
60170,-2.000,-0.485,0.258,98.794,47.962,-59.092,48.0,97.0
60219,-1.197,-0.079,0.059,87.382,16.298,-34.061,48.0,99.0
60266,-0.716,0.290,0.075,80.527,58.725,-27.542,51.0,104.0
60320,-0.597,0.591,0.260,55.771,39.130,-23.351,0.0,102.0
60376,-0.479,0.632,0.200,2.679,-4.374,19.176,0.0,104.0
60422,-0.719,0.502,-0.027,-64.160,-4.450,111.908,48.0,97.0
60468,-1.859,0.087,-0.341,-101.366,32.145,141.504,47.0,94.0
60523,-2.000,-0.667,-0.317,-96.847,-27.740,94.992,0.0,94.0
60577,-1.757,-0.621,-0.143,-112.985,-79.634,73.511,0.0,97.0
60637,-0.742,-0.397,-0.062,-90.137,-46.931,23.122,0.0,103.0
60692,-0.029,-0.622,-0.301,-55.305,-19.748,-8.435,0.0,107.0
60747,0.343,-0.576,-0.274,8.008,7.588,-32.618,0.0,108.0
60803,-0.067,-0.726,-0.218,49.038,23.122,-55.374,0.0,102.0
60849,-1.433,-0.885,-0.257,105.023,41.473,-101.534,43.0,98.0
60904,-2.000,-0.574,0.078,106.962,121.328,-114.137,0.0,95.0
60959,-2.000,-0.403,0.305,65.076,25.710,-34.038,0.0,94.0
61014,-0.958,-0.003,-0.043,94.206,0.565,-33.275,0.0,97.0
61061,-0.436,0.635,-0.035,75.595,82.924,-10.962,47.0,99.0
61110,-0.524,0.749,0.177,16.817,59.908,18.244,49.0,100.0
61165,-0.652,0.558,0.126,-38.038,-30.229,48.740,0.0,97.0
61220,-0.894,0.348,-0.163,-80.397,-54.466,105.183,0.0,97.0
61275,-2.000,-0.118,-0.100,-125.573,-13.443,118.893,0.0,93.0
61321,-2.000,-0.885,-0.208,-103.466,-57.992,53.802,37.0,95.0
61376,-1.471,-0.768,-0.199,-79.901,-75.260,20.611,0.0,103.0
61422,-0.655,-0.444,-0.069,-41.809,-55.710,-16.740,37.0,108.0
61478,-0.116,-0.461,-0.181,-14.809,-30.595,-32.580,0.0,106.0
61537,0.322,-0.374,-0.293,29.870,8.924,-41.069,0.0,106.0
61592,-0.287,-0.529,-0.240,76.053,57.229,-56.565,0.0,101.0
61647,-1.761,-0.744,-0.174,135.237,76.183,-91.351,0.0,95.0
61693,-2.000,-0.326,0.191,129.893,43.649,-58.122,45.0,95.0
61749,-1.585,-0.189,0.105,115.099,25.588,-34.282,0.0,96.0
61804,-0.988,0.166,0.064,112.115,53.046,-30.824,0.0,99.0
61859,-0.642,0.395,0.183,90.427,40.443,-35.198,0.0,101.0
61915,-0.421,0.535,0.265,42.450,3.504,0.115,0.0,98.0
61961,-0.624,0.460,0.160,-21.763,-6.733,78.397,45.0,95.0
62019,-1.453,0.297,-0.072,-68.305,23.099,117.168,0.0,91.0
62064,-2.000,-0.425,-0.070,-80.779,-24.481,110.733,46.0,91.0
62119,-1.980,-0.561,0.020,-86.267,-85.107,97.595,0.0,95.0
62166,-0.976,-0.421,-0.038,-47.504,-39.603,45.901,42.0,99.0
62213,-0.467,-0.374,-0.023,-37.962,-14.695,26.336,45.0,103.0
62268,-0.081,-0.538,-0.114,-14.832,-32.634,-16.198,0.0,106.0
62367,-0.210,-0.843,-0.174,40.626,-61.611,-94.527,0.0,101.0
62423,-1.472,-0.834,-0.017,109.618,54.153,-184.458,0.0,96.0
62472,-1.962,-0.381,0.324,124.649,153.809,-96.924,45.0,94.0
62518,-1.894,-0.135,0.348,117.779,103.542,-66.252,46.0,94.0
62565,-1.192,0.139,0.138,128.489,50.763,-48.756,45.0,96.0
62619,-0.611,0.552,0.050,116.244,62.382,-37.687,0.0,97.0
62674,-0.538,0.684,0.199,67.328,56.557,-1.176,0.0,96.0
62722,-0.591,0.495,0.245,5.076,12.931,61.771,46.0,95.0
62773,-0.911,0.265,0.086,-57.885,1.573,119.886,47.0,93.0
62826,-2.000,-0.344,0.015,-77.076,9.420,138.023,0.0,89.0
62880,-2.000,-0.491,0.006,-66.344,-39.916,82.359,0.0,91.0
62927,-1.592,-0.615,0.021,-77.328,-22.198,76.160,33.0,95.0
62971,-0.847,-0.372,0.099,-52.191,-17.985,38.939,31.0,100.0
63027,-0.319,-0.466,-0.021,-30.565,-16.786,24.450,0.0,104.0
63081,0.208,-0.603,-0.169,25.977,-51.924,-16.260,0.0,100.0
63135,0.199,-0.650,-0.296,87.023,-32.008,-61.412,0.0,96.0
63190,-0.739,-0.817,-0.379,160.924,21.008,-105.977,0.0,89.0
63243,-2.000,-0.775,-0.211,202.420,117.702,-153.221,0.0,86.0
63297,-2.000,-0.226,0.236,144.023,52.122,-77.969,0.0,89.0
63342,-1.212,0.014,-0.115,137.870,21.969,-57.931,46.0,87.0
63389,-0.544,0.387,-0.092,134.962,81.130,-42.557,44.0,85.0
63442,-0.538,0.639,0.167,101.053,66.550,-34.603,0.0,86.0
63497,-0.384,0.682,0.281,45.382,6.244,-5.885,0.0,86.0
63550,-0.775,0.474,0.260,-15.977,-27.145,74.649,0.0,74.0
63594,-1.522,0.179,-0.016,-46.137,9.824,135.344,44.0,74.0
63637,-2.000,-0.719,0.012,-50.519,-16.183,114.351,37.0,72.0
63691,-2.000,-0.757,0.155,-44.130,-75.626,93.710,0.0,95.0
63735,-1.098,-0.637,0.062,-42.137,-45.328,36.916,32.0,76.0
63781,-0.630,-0.378,0.106,-38.740,-8.168,-2.397,31.0,82.0
63836,-0.356,-0.415,-0.027,-14.847,-12.336,-30.176,0.0,90.0
63890,0.103,-0.486,-0.237,27.885,-19.573,-38.153,0.0,94.0
63944,-0.131,-0.667,-0.237,70.626,-4.733,-46.374,0.0,98.0
63998,-0.942,-0.727,-0.512,166.191,57.069,-118.618,0.0,90.0
64044,-2.000,-0.563,-0.007,167.061,128.794,-114.344,45.0,83.0
64098,-2.000,-0.251,0.150,139.275,74.863,-62.763,0.0,83.0
64151,-1.311,-0.021,0.023,136.802,32.267,-45.153,0.0,85.0
64205,-0.657,0.395,0.117,119.519,61.908,-23.878,0.0,88.0
64263,-0.524,0.504,0.315,93.863,51.786,7.748,0.0,93.0
64317,-0.659,0.559,0.338,52.366,12.359,66.802,0.0,94.0
64362,-1.002,0.364,0.164,-11.366,-23.901,124.725,44.0,91.0
64407,-1.811,-0.100,0.176,-53.427,-33.542,146.771,45.0,90.0
64451,-2.000,-0.560,0.096,-50.802,-89.038,103.992,36.0,90.0
64496,-1.728,-0.684,-0.020,-30.252,-87.672,44.527,37.0,93.0
64541,-1.009,-0.403,0.010,-25.595,-9.756,12.099,32.0,97.0
64586,-0.635,-0.294,0.092,-26.641,10.794,-3.595,31.0,99.0
64641,-0.240,-0.348,-0.068,-6.374,-11.023,-36.244,0.0,101.0
64707,0.078,-0.492,-0.115,35.237,-2.763,-50.260,0.0,100.0
64764,-0.493,-0.705,-0.241,103.053,35.718,-65.214,0.0,96.0
64812,-1.862,-0.714,-0.131,174.061,108.076,-131.611,36.0,92.0
64860,-2.000,-0.231,0.183,140.756,84.832,-51.985,45.0,92.0
64951,-0.997,0.153,0.032,124.611,30.802,-39.344,45.0,94.0
64999,-0.713,0.428,0.111,107.550,56.511,-26.832,48.0,97.0
65055,-0.477,0.422,0.240,78.702,40.710,-12.832,0.0,97.0
65104,-0.535,0.431,0.333,24.748,13.366,41.786,51.0,95.0
65164,-0.849,0.381,0.240,-39.863,-1.924,112.382,0.0,93.0
65212,-2.000,-0.320,0.138,-55.954,-62.351,118.382,45.0,91.0
65259,-1.835,-0.474,-0.114,-24.290,-83.145,59.779,35.0,91.0
65306,-1.504,-0.455,-0.022,-37.076,-6.168,32.603,33.0,93.0
65363,-1.099,-0.293,0.134,-51.069,6.496,5.397,0.0,99.0
65411,-0.346,-0.346,-0.056,-52.435,-20.656,-16.031,33.0,101.0
65468,0.094,-0.467,-0.224,-15.603,-2.870,-39.580,0.0,101.0
65525,0.019,-0.689,-0.254,37.443,10.198,-31.069,0.0,99.0
65582,-1.143,-0.959,-0.317,148.969,50.366,-81.435,0.0,94.0
65633,-1.964,-0.478,0.190,154.710,96.435,-65.519,45.0,92.0
65690,-1.879,-0.244,0.258,121.344,36.382,-36.931,0.0,92.0
65746,-1.024,0.029,-0.062,137.687,4.550,-43.015,0.0,95.0
65804,-0.513,0.399,0.004,120.298,63.382,-39.160,0.0,96.0
65861,-0.531,0.516,0.240,71.084,46.740,-17.626,0.0,96.0
65917,-0.730,0.497,0.259,1.603,16.817,59.443,0.0,94.0
65975,-1.589,0.181,0.175,-72.122,-19.145,101.626,0.0,90.0
66031,-1.979,-0.676,-0.189,-48.962,-94.466,75.061,0.0,91.0
66079,-1.504,-0.618,-0.086,-45.130,-34.489,67.954,35.0,93.0
66129,-0.958,-0.430,0.049,-40.267,-10.916,31.427,34.0,97.0
66187,-0.436,-0.439,-0.025,-30.511,-12.389,12.359,0.0,100.0
66235,0.064,-0.549,-0.181,6.061,9.137,-41.290,31.0,102.0
66282,0.063,-0.523,-0.161,33.298,28.092,-57.473,32.0,100.0
66330,-0.624,-0.686,-0.124,67.679,30.916,-63.038,36.0,98.0
66378,-1.585,-0.594,-0.178,125.695,68.794,-103.886,36.0,93.0
66435,-2.000,-0.489,0.021,131.115,77.092,-58.931,0.0,91.0
66492,-1.658,-0.167,0.220,114.527,42.023,-43.412,0.0,94.0
66552,-0.870,0.244,0.155,113.466,25.618,-33.046,0.0,97.0
66600,-0.556,0.499,0.203,87.550,17.473,-27.122,46.0,99.0
66658,-0.520,0.517,0.215,52.817,4.458,11.756,0.0,98.0
66706,-0.744,0.371,0.126,-27.588,-13.275,87.611,46.0,95.0
66763,-1.677,-0.093,-0.091,-77.779,-2.672,119.260,0.0,94.0
66810,-1.946,-0.585,-0.229,-57.779,-28.122,82.893,35.0,93.0
66859,-1.501,-0.508,-0.024,-59.786,-27.221,46.046,37.0,95.0
66907,-0.932,-0.361,0.148,-58.313,-26.092,5.977,38.0,98.0
66955,-0.420,-0.362,-0.014,-50.573,-39.015,-11.130,34.0,101.0
67006,-0.014,-0.514,-0.220,-10.435,-25.466,-37.695,36.0,102.0
67063,-0.048,-0.653,-0.274,29.130,-3.435,-33.916,0.0,101.0
67121,-0.691,-0.931,-0.311,100.954,26.305,-54.107,0.0,96.0
67169,-1.622,-0.654,-0.157,147.962,132.389,-97.740,46.0,94.0
67226,-2.000,-0.364,0.202,120.214,84.420,-67.313,0.0,94.0
67275,-1.336,-0.015,-0.062,108.183,2.695,-49.405,46.0,96.0
67333,-0.820,0.386,0.032,97.061,31.504,-32.511,0.0,98.0
67391,-0.582,0.505,0.251,54.710,19.496,-8.405,0.0,120.0
67451,-0.453,0.500,0.282,-7.824,-24.786,55.290,0.0,99.0
67501,-0.941,0.254,0.077,-70.985,-21.885,97.580,47.0,98.0
67549,-1.856,-0.412,-0.160,-81.924,-10.031,80.992,46.0,95.0
