Timestamp(ms),AccelX(g),AccelY(g),AccelZ(g),GyroX(deg/s),GyroY(deg/s),GyroZ(deg/s),DistanceLeft(cm),DistanceRight(cm)
54566,-0.077,-0.736,0.315,-30.412,79.008,-43.351,0,0
54630,-0.036,-0.797,0.344,-45.069,68.542,-68.573,0,0
54693,-0.124,-1.102,0.336,-68.496,113.992,-56.137,0,0
54757,-0.645,-1.17,0.563,-57.153,108.046,-47.237,0,0
54820,-0.495,-0.862,0.357,-46.809,48.16,-42.046,0,0
54884,-0.378,-0.67,0.341,-66.702,33.939,-27.969,0,0
54947,-0.221,-0.879,0.256,-48.733,-23.183,-15.802,0,0
55014,0.06,-1.938,-0.24,-17.427,-35.305,-30.878,0,0
55077,0.322,-2,-0.399,-6.557,-14.947,-36.267,0,0
55141,0.406,-0.998,-0.233,-1.679,6.458,-18.802,0,0
55204,0.659,0.261,-0.329,22.893,78.763,0.977,0,0
55268,0.49,0.037,-0.105,47.473,182.985,36.809,0,0
55330,0.145,-1.379,-0.087,3.916,130.611,-27.191,0,0
55394,-0.427,-1.583,-0.154,1.168,114.366,18,0,0
55457,-0.709,-0.483,0.067,-21.45,122.832,69.641,0,0
55521,-0.819,0.514,0.547,-38.443,33.458,-2.382,0,0
55587,-0.983,-1.079,0.665,-55.855,-160.817,-4.786,0,0
55651,0.042,-2,-0.501,15.893,-185.099,-58.198,0,0
55714,0.9,-2,-1.067,4.802,-171.336,8.748,0,0
55778,0.367,-0.624,-0.107,-31.336,19.702,-38.519,0,0
55841,0.295,0.199,0.006,56.336,-65.87,-17.473,0,0
55905,0.94,-0.283,-0.054,22.87,-11.397,30.603,0,0
55968,0.69,-1.526,-0.303,10.573,106.45,-49.321,0,0
56033,0.035,-1.457,-0.42,-32.244,218.756,60.756,0,0
56096,-1.174,-0.407,0.582,-1.305,151.389,57.527,0,0
56163,-0.922,0.124,0.688,-61.458,-4.176,-34.435,0,0
56226,-0.429,-0.996,0.112,-7.588,-250.137,-16.023,0,0
56290,0.53,-2,-0.625,26.511,-62.092,-41.634,0,0
56353,0.866,-2,-0.847,-11.855,-109.313,-18.802,0,0
56417,0.381,-0.262,0.023,-2.13,-15.374,-45.756,0,0
56480,0.785,0.44,-0.245,46.481,22.58,-3.305,0,0
56544,1.176,-1.333,-0.506,50.496,122.664,-1.908,0,0
56607,-0.158,-1.757,0.1,-28.412,117.031,-8.985,0,0
56671,-0.677,-1.13,-0.18,-46.74,220.069,89.42,0,0
56738,-0.903,-0.21,0.625,-33.588,43.802,13.115,0,0
56802,-0.798,0.101,0.861,-43.939,-139.13,-15.786,0,0
56865,0.035,-2,-0.456,51.855,-168.42,-35.885,0,0
56929,0.791,-1.642,-0.734,7.802,-228.374,29.458,0,0
56992,0.361,-1.051,-0.237,-4.42,8.046,-62.664,0,0
57056,0.249,0.635,0.154,29.267,-146.511,-3.527,0,0
57120,1.905,-0.09,-0.613,26.725,135.527,61.382,0,0
57184,0.136,-1.692,0.659,-17.168,210.137,-53.351,0,0
57247,0.094,-1.094,-0.795,-32.244,200.183,54.855,0,0
57314,-1.55,-0.127,0.827,-23.29,171.87,60.687,0,0
57377,-0.756,0.155,0.447,-27.969,-35.565,-14.145,0,0
57442,-0.711,-0.852,0.261,1.328,-202.038,4.557,0,0
57505,0.201,-2,-0.665,59.542,-141.168,-23.42,0,0
57569,1.775,-1.838,-0.882,-29.313,-86.489,19.504,0,0
57632,0.043,0.096,0.38,9.809,-1.595,-56.855,0,0
57696,1.13,0.644,-0.27,14.061,-18.511,28.557,0,0
57802,0.437,-2,-1.14,35.16,212.298,-55.176,0,0
57867,-0.723,-1.705,0.051,-97.458,134.344,72.023,0,0
57933,-0.724,0.083,-0.138,8.16,196.031,44.885,0,0
57997,-1.512,-0.072,1.044,-43.802,-31.214,-22.443,0,0
58060,-0.524,-0.621,0.096,10.969,-228.229,0.015,0,0
58125,-0.419,-2,-0.334,57.763,-137.16,-14.748,0,0
58188,1.752,-2,-1.136,-15.443,-152.519,18.885,0,0
58253,0.08,0.102,0.198,14.351,19.595,-56.962,0,0
58316,1.03,0.417,-0.133,14.756,-71.931,0.664,0,0
58380,1.396,-0.37,-0.255,27.603,81.267,-28.802,0,0
58443,0.004,-2,-0.667,8.344,250.13,-44.008,0,0
58511,-1.068,-1.432,-0.103,-70.58,114.954,62.359,0,0
58574,-0.651,-0.002,0.002,-19.107,177.924,37,0,0
58638,-1.644,0.364,1.23,-51.405,-82.221,-34.74,0,0
58702,-0.08,-1.663,-0.491,28.305,-173.298,-18.878,0,0
58766,0.469,-2,-0.149,1.267,-172.023,39.435,0,0
58830,1.029,-1.447,-0.502,-0.015,-67.824,-55.214,0,0
58894,0.106,0.086,0.264,32.489,-99.519,-40.687,0,0
58957,1.666,0.166,-0.141,25.992,-16.748,3.313,0,0
59022,1.441,-2,-0.712,47.985,188.344,-62.496,0,0
59088,-0.384,-1.542,-0.158,-61.008,144.305,1.832,0,0
59153,-0.832,-0.18,-0.378,-7.191,200.443,32.206,0,0
59216,-1.028,-0.51,-0.018,-35.87,98.061,30.435,0,0
59280,-1.671,0.067,1.032,-78.534,-83.053,10.359,195,0
59341,-0.127,-2,-0.909,2.725,-216.802,-25.84,160,0
59402,1.171,-2,-0.5,-56.244,-191.962,42.252,129,0
59460,0.155,-0.84,0.464,-3.198,-30.733,-90.351,103,0
59525,0.662,0.323,-0.13,46.924,-236.809,-51.504,0,0
59591,1.478,-0.131,-0.261,20.115,139.237,16.405,0,0
59656,0.536,-2,-0.937,50.947,152.786,-91.053,0,0
59719,-0.026,-1.325,-0.653,-92.137,167.908,42.74,0,0
59784,-1.177,-0.092,0.291,2.695,199.954,34.931,0,0
59847,-1.045,-0.364,0.411,-26.084,-14.618,-0.595,0,0
59912,-1.13,-0.251,0.629,-17.198,-171.13,29.687,0,0
59975,-0.307,-2,-0.841,58.214,-176.977,0.328,0,0
60040,1.585,-2,-1.057,-53.588,-160.397,82.137,0,0
60103,0.517,-0.061,0.199,11.191,-20.366,-38.626,0,0
60171,1.413,0.332,-0.272,18.695,-67.046,-6.282,0,0
60234,1.378,-0.696,0.022,27.573,81.886,-55.626,0,0
60299,0.521,-2,-0.926,18.267,250.13,-103.42,0,0
60363,-1.121,-1.521,-0.224,-42.58,119.718,-26.992,0,0
60427,-0.633,-0.118,-0.472,-36.267,225.023,51.649,0,0
60491,-1.882,0.754,0.779,-62.924,58.13,-35.565,0,0
60555,-1.157,-1.047,-0.058,-14.878,-230.588,56.031,0,0
60619,0.772,-2,-0.407,10.641,-183.603,73.985,0,0
60684,1.481,-2,-0.483,-1.275,-88.702,-23.076,0,0
60750,0.25,0.115,0.398,14.893,-142.779,-63.908,0,0
60815,1.605,0.452,-0.267,21.733,8.092,3.687,0,0
60878,1.032,-1.219,0.064,44.389,104.756,-47.992,0,0
60943,-0.099,-1.39,0.125,-53.305,89.481,-26.748,0,0
61050,-0.933,-0.066,-0.158,0.611,166.649,77.298,0,0
61114,-1.202,-0.139,0.769,-44.038,43.069,16.664,0,0
61178,-0.728,-0.912,0.302,7.084,-205.55,4.275,0,0
61243,0.573,-2,-0.595,51.534,-126.733,31.443,0,0
61306,1.025,-2,-0.656,-32.504,-132.511,-15.718,0,0
61374,0.413,0.184,0.137,22.527,-125.374,-63.321,0,0
61438,1.359,0.419,-0.264,33.771,16,-4.87,0,0
61503,1.1,-0.414,-0.017,39.534,111.977,-24.435,0,0
61566,0.08,-2,-0.135,-6.046,170.42,-66.809,0,0
61631,-0.888,-1.294,-0.343,-57.229,187.023,44.313,0,0
61696,-1.073,-0.056,0.07,-19.496,163.649,41.702,0,0
61760,-1.464,0.116,0.875,-72.802,-26.076,14.878,0,0
61824,-0.575,-1.295,0.064,-9.168,-180.992,20.504,0,0
61888,0.705,-2,-0.316,11.389,-227.931,32.58,0,0
61956,1.26,-1.652,-0.551,6.725,-57.023,-71.695,0,0
62020,0.103,0.353,0.276,29.435,-98.557,-58.931,0,0
62084,1.346,0.468,-0.192,35.74,40.275,4.397,0,0
62148,1.401,-2,-0.406,34.298,95.046,-46.458,0,0
62213,0.245,-1.463,-0.341,-60.29,146.252,1.214,0,0
62276,-1.455,-0.792,-0.275,-5.084,207.672,6.145,0,0
62341,-1.186,-0.369,0.042,-55.748,88.702,57.42,0,0
62405,-2,0.164,1.211,-54.374,-129.176,25.885,0,0
62470,-0.291,-2,-0.6,35.901,-192.649,28.198,0,0
62537,1.292,-2,-0.521,-48.496,-155.863,62.649,0,0
62602,0.768,-0.548,0.092,17.321,-35.366,-72.489,0,0
62672,0.79,0.293,-0.112,43.092,-98.351,-64.183,0,0
62736,1.295,-0.464,-0.047,17.725,50.595,-25.481,0,0
62799,0.879,-2,-1.197,38.603,171.466,-80.214,0,0
62863,-0.118,-1.654,-0.378,-77.618,185.656,-16.519,0,0
62926,-1.16,-0.126,-0.197,11.069,217.45,-15.641,0,0
62990,-1.36,-0.102,0.066,-70.214,48.985,27.183,0,0
63053,-1.439,-0.075,0.944,-41.412,-204.42,42.489,0,0
63120,0.028,-2,-0.879,32.588,-143.656,34.672,0,0
63183,1.575,-2,-0.855,-16.092,-249.061,8.733,0,0
63247,0.799,-0.198,0.107,17.962,-2.786,-49.015,0,0
63309,0.955,0.232,-0.189,44.954,-66.351,-26.389,0,0
63373,1.247,-0.171,-0.192,26.313,179.71,-4.634,0,0
63436,0.55,-2,-1.069,30.748,140.489,-108.351,0,0
63500,-0.273,-1.826,-0.945,-114.939,204.481,13.237,0,0
63563,-1.406,-0.071,0.2,-56.901,226.771,43.206,0,0
63627,-0.885,-0.49,0.325,-93.863,-30.282,5.176,0,0
63693,-1.389,-0.52,0.644,-23.977,-187.099,40.382,0,0
63757,0.006,-2,-0.725,13.771,-244.527,-7.847,0,0
63820,1.834,-2,-0.92,15.817,-141.29,-4.702,0,0
63884,-0.486,-0.484,0.465,28.466,-100.061,-56.305,0,0
63947,1.028,0.374,-0.508,28.534,-147.504,-11.076,0,0
64011,1.259,-0.272,-0.036,11.916,88.183,43.573,0,0
64074,0.152,-2,-0.651,30.443,169.183,10.985,0,0
64138,-0.413,-1.794,-0.425,-59.893,81.756,47.588,0,0
64204,-0.874,-0.213,0.121,-17.87,197.427,53.29,0,0
64311,-0.683,0.185,0.573,-18.427,-160.275,-30.214,0,0
64375,-0.037,-2,-0.563,17.489,-98.695,-33.275,0,0
64439,0.81,-2,-0.362,-36.672,-141.863,5.985,0,0
64502,0.192,-1.074,0.116,18.496,-2.221,-83.359,0,0
64566,0.231,0.584,0.285,30.84,-136.603,-31.931,0,0
64629,1.403,0.195,-0.242,30.824,68.992,37.366,0,0
64693,0.741,-2,-0.699,36.771,164.718,-14.832,0,0
64756,0.041,-1.716,-0.765,-89.496,100.359,62.244,0,0
64823,-1.219,-0.375,-0.067,-28.84,250.13,80.45,0,0
64886,-0.761,-0.212,0.457,-29.634,-17.382,-6.473,0,0
64950,-1.268,-0.112,0.826,-37.366,-158.573,-17.672,0,0
65014,0.084,-2,-1.265,59.573,-85.641,-34.901,0,0
65078,0.424,-1.999,-0.323,-43,-141.74,8.168,0,0
65141,0.473,-0.783,-0.086,42.015,-15.756,-50.924,0,0
65205,0.602,0.187,0.16,43.733,-142.008,-48.718,0,0
65268,1.395,-0.016,-0.32,24.824,95.626,5.527,0,0
65332,0.255,-2,-0.826,30.336,138.74,4.252,0,0
65398,-0.707,-1.5,0.077,-104.405,97.214,39.244,0,0
65463,-0.275,-0.345,-0.272,10.55,133.366,29.626,0,0
65526,-1.334,-0.301,0.747,-35.412,59.221,-9.031,0,0
65590,-0.803,0.04,0.267,-8.282,-216.267,-17.618,0,0
65653,-0.082,-2,-0.759,36.748,-74.229,-7.42,0,0
65718,0.497,-2,-0.464,-35.885,-250.137,7.542,0,0
65781,0.987,-0.745,-0.477,-1.893,-50.832,-80.099,0,0
65845,-0.195,0.431,0.71,17.458,-52.481,-39.435,0,0
65908,1.66,-0.095,-0.354,44.519,8.389,16.237,0,0
65975,0.697,-2,-0.635,21.863,228.176,11.504,0,0
66039,-0.092,-1.35,-0.468,-71.206,142.519,28.649,0,0
66112,-0.886,-0.123,-0.216,-13.282,207.573,54.672,0,0
66176,-1.147,0.003,0.718,-43.55,24.351,0.595,0,0
66239,-0.701,-0.332,0.354,-4.023,-168.252,-22.008,0,0
66302,-0.291,-2,-0.931,47.351,-88.038,-21.656,0,0
66366,0.943,-1.882,-0.267,-26.893,-187.321,-23.847,0,0
66429,0.394,-0.232,0.355,18.122,25.183,-65.603,0,0
66493,0.431,0.325,0.093,46.328,-101.466,-30.634,0,0
66558,0.847,0.003,-0.022,12.053,117,34.344,0,0
66622,0.183,-2,-0.678,38.718,52.687,-24.885,0,0
66685,-0.162,-1.603,-0.318,-143.282,128.16,49.046,0,0
66749,-0.61,-0.245,-0.254,0.641,163.145,50.718,0,0
66812,-1.094,-0.29,0.562,-65.588,112.366,24.534,0,0
66876,-1.124,-0.077,0.627,-2.496,-149.718,-7.122,0,0
66939,-0.085,-2,-1.228,36.939,-171.282,-32.42,0,0
67003,1.245,-1.991,-0.58,-34.046,-156.763,-51.527,0,0
67066,0.146,-0.179,0.271,2.29,-21.099,-79.855,0,0
67133,0.166,0.206,0.143,48.427,-48.817,-6.885,0,0
67196,1.021,-0.348,0.176,10.71,43.725,79.405,0,0
67260,0.707,-2,-0.363,63.832,103.878,-24.58,0,0
67323,-0.043,-1.657,-1.174,-97.42,250.13,78.489,0,0
67387,-1.096,0.165,0.017,-4.626,195.748,62.489,0,0
67450,-0.705,-0.479,0.318,-32.061,-4.794,-10,0,0
67549,-0.889,-2,-0.581,33.427,-173.252,27.916,0,63
67613,1.098,-2,-0.761,-32.031,-250.137,29.809,0,0
67677,1.512,-1.572,-0.439,37.053,7.519,-82.924,0,0
67742,-0.22,0.184,0.447,18.252,-131.466,-100.611,0,0
67807,0.889,0.515,-0.196,48.298,7.618,-16.931,0,0
67870,0.518,-1.071,0.539,43.115,63.985,-4.87,0,0
67934,0.423,-1.289,-0.12,-11.511,153.206,-13.397,0,0
67997,-1.188,-1.119,-0.36,-24.42,180.893,14.992,0,0
68061,-0.886,0.006,-0.02,-56.87,146.748,54.481,0,0
68124,-1.369,0.384,0.718,-56.511,-51.206,-0.71,0,0
68188,-0.506,-1.386,-0.122,-29.206,-136.603,37.26,0,0
68251,0.388,-2,-0.244,8.069,-213.763,-12.099,0,0
68318,1.152,-1.748,-0.479,-4.405,-118.45,-64.214,0,0
68381,-0.328,0.269,0.521,12.954,-79.092,-63.206,0,0
68446,0.958,0.248,-0.275,30.412,-129.565,-28.84,0,0
68509,1.217,-0.896,0.172,12.817,107.878,21.992,0,0
68573,0.346,-1.813,0.047,-6,85.176,-19.985,0,0
68636,-0.379,-1.194,-1.029,-20.099,222.985,-3.908,0,0
68700,-1.456,0.024,0.178,-51.137,193.206,57.374,0,0
68763,-1.307,-0.015,0.519,-57.595,-16.733,7.023,0,0
68827,-0.835,-0.694,0.099,-22.611,-140.26,50.885,0,0
68888,0.669,-2,-1.301,55.237,-191.053,-30.115,0,0
68953,0.964,-1.643,-0.374,-29.221,-154.565,-43.313,0,0
69016,0.231,-0.305,0.49,8.634,-45.092,-44.374,0,0
69080,0.661,0.171,0.117,67.008,-93.206,-18.069,0,0
69143,1.586,-0.411,-0.318,36.763,130.901,16.908,0,0
69208,0.467,-2,-0.414,33.168,154.031,-85.817,0,0
69271,-0.57,-1.476,-0.669,-89.58,152.725,10.771,0,0
69335,-0.942,0.092,-0.251,-14.931,220.886,53.344,0,0
69401,-1.188,-0.221,0.441,-58.405,48.336,11.786,0,0
69466,-1.296,-0.052,0.385,-33.687,-174.42,26.931,0,0
69529,-0.435,-2,-0.837,4.519,-140.916,26.382,0,0
69593,0.984,-2,-0.346,-39.626,-193.779,30.763,0,0
69657,0.458,-0.916,0.063,23.397,-21.992,-50.908,0,0
69721,0.356,0.312,0.259,36.321,-170.908,-51.229,0,0
69784,1.551,0.166,-0.346,27.557,12.679,-2.695,0,0
69849,1.118,-2,-0.622,28.344,148.069,-31.336,0,0
69912,0.088,-1.588,-0.285,-56.595,107.595,-36.55,0,0
69979,-1.045,-0.318,-0.591,15,249.779,16.443,0,0
70043,-1.218,-0.138,0.333,-57.771,76.321,33.985,0,0
70107,-1.248,0.419,0.407,-23.924,-83.573,9.412,0,0
70170,-0.643,-1.728,-0.199,-36.137,-98.832,70.71,0,0
70235,0.795,-2,-0.527,-5.42,-250.137,37.481,0,0
70298,0.819,-1.73,-0.338,-24.26,-89.916,-36.977,0,0
70363,-0.254,0.658,0.349,-1.031,-99.267,-31.557,0,0
70426,0.833,-0.026,-0.279,14.298,-33.359,47.565,0,0
70490,1.112,-0.801,0.659,12.397,120.046,63.13,0,0
70557,0.542,-2,-0.187,36.947,60.87,-111.969,0,0
70621,-0.285,-1.201,-1.256,7.168,170.046,-32.565,0,0
70685,-1.376,-0.004,-0.497,29.824,228.405,-11.832,0,0
70792,-1.626,0.137,0.373,-68.626,-133.008,29.229,0,0
70856,-0.131,-2,-0.546,-48.794,-122.756,111.145,0,0
70920,0.769,-2,-0.339,-12.893,-199.542,70.947,0,0
70984,0.48,-1.986,-0.277,-13.641,-150.809,-72.496,0,0
71048,-0.238,-0.234,0.089,15.672,-115.176,-50.481,0,0
71112,0.232,0.437,0.084,17.756,-96.809,46.916,0,0
71179,1.288,-0.323,-0.306,60.344,143.122,103.695,0,0
71243,0.231,-2,-0.24,1.214,164.473,-25.069,0,0
71307,-0.56,-1.519,-0.22,-8.756,6.344,-2.542,0,0
71371,-0.676,-0.301,-0.61,49.977,250.13,-17.153,0,0
71435,-1.643,0.475,0.507,-26.443,87.71,8.443,0,0
71499,-1.046,0.397,0.178,-69.275,-150.076,16.336,0,0
71563,-0.271,-1.012,-0.455,-39.885,-143.458,73.87,0,0
71627,-0.108,-2,-0.496,7.489,-133,47.611,0,0
71691,0.352,-1.789,-0.255,-62.901,-85.069,0.832,0,0
71758,-0.741,-0.86,0.453,2.985,-77.191,-44.809,0,0
71820,0.031,0.447,-0.026,50.863,-69.786,105.191,0,159
71881,0.316,-0.452,-0.013,67.809,-41.321,128.718,0,147
71941,0.076,-2,-0.579,18.099,42.511,27.473,0,115
72000,-1.628,-0.982,1.102,0.168,-61.084,68.015,0,125
72060,-0.615,0.092,-0.306,68.901,9.611,74.817,0,129
72119,-1.523,0.417,0.402,-16.198,43.374,189.603,0,102
72169,-0.569,0.216,-0.083,-56.527,-148.496,159.305,52,103
72222,-0.188,-2,-0.425,-65.603,-4.794,103.359,53,103
72272,-0.856,-1.484,-0.036,-15.191,85.092,11.992,49,101
72331,-1.728,-0.019,0.371,-89.435,46.076,-70.649,0,101
72381,-1.656,-0.473,0.337,-65.962,-79.534,-5.214,50,103
72431,-0.159,-0.633,-0.186,-15.901,-79.275,43.931,48,107
72480,-0.026,-0.165,-0.317,-47.542,-3.122,4.695,39,109
72530,-0.962,-0.267,-0.079,-57.45,12.771,-6.634,39,108
72580,-1.473,-0.709,0.411,-9.252,12.069,56.74,39,107
72630,-0.958,-0.484,0.583,29.702,-32.496,60.473,37,109
72683,-0.765,-0.284,0.174,46.237,-39.397,61.649,36,111
72732,-0.83,-0.183,-0.073,60.702,21.458,64.84,37,112
72782,-1.057,-0.284,0.387,25.26,-25.076,51.137,37,114
72833,-0.421,-0.121,0.176,14.809,-40.802,8.26,36,115
72883,-0.828,-0.149,0.307,3.534,0.733,-32.45,35,114
72933,-0.819,0.018,0.409,-16.733,-24.298,-48.13,34,114
72983,-1.113,-0.156,0.57,-10.275,24.962,-32.031,34,113
73032,-1.335,0.016,0.673,17.046,-32.481,11.649,34,113
73086,-0.765,0.184,0.188,14.282,-3.901,55.985,36,115
73137,-0.966,-0.122,0.34,-0.863,0.176,54.542,34,115
73187,-1.183,-0.026,0.279,6.855,9.985,75.992,37,116
73237,-1.243,-0.13,0.529,14.076,-13.863,90.756,37,117
73287,-0.84,-0.124,0.309,37.015,-33.74,72.069,35,119
73337,-0.974,0.025,0.408,37.71,-13.779,65.252,37,121
73389,-0.761,0.202,0.236,38.527,-26.496,51.756,36,123
73448,-0.736,0.132,0.326,23.359,-20.595,36.115,0,126
73509,-0.743,0.355,0.355,22.931,-13.649,15.298,0,136
73565,-0.984,0.516,0.483,22.122,-8.275,24.794,37,136
73659,-0.69,0.35,0.29,17.733,2.992,18.389,44,134
73711,-0.779,0.621,0.346,-8.649,4.122,0.939,38,137
73761,-0.924,0.505,0.482,-11.168,3.557,3.786,38,128
73814,-0.892,0.586,0.446,-1.183,-6.969,20.573,39,149
73876,-0.8,0.492,0.282,-4.832,3.718,41.489,38,0
73930,-0.736,0.451,0.421,-8.687,-7.298,26.931,37,0
73985,-0.694,0.351,0.408,-14.153,-11.687,-7.725,36,0
74035,-0.89,0.503,0.482,-8.115,10.481,-15.176,37,140
74089,-0.758,0.441,0.434,-8.015,-5.214,-18.893,37,140
74139,-0.749,0.329,0.448,-4.672,-2.779,-36.389,38,140
74190,-0.9,0.594,0.404,-2.519,7.298,-29.855,38,141
74243,-1.019,0.524,0.469,-5.115,-9.496,-2.168,35,163
74293,-0.749,0.461,0.311,-0.321,-6.916,13.595,33,142
74343,-0.828,0.358,0.443,10.229,-2.649,14.809,33,138
74393,-0.949,0.467,0.406,10.427,4.176,21.511,33,128
74443,-0.854,0.433,0.399,2.84,-10.969,29.053,34,128
74493,-0.762,0.36,0.407,8.092,-4.191,23.168,33,129
74546,-0.817,0.396,0.459,5.618,-12.908,15.489,33,128
74600,-0.73,0.448,0.341,8.214,-12.282,10.389,34,0
74654,-0.871,0.58,0.374,10.756,1.443,18.13,33,0
74707,-0.828,0.531,0.462,5.756,-14.168,25.664,34,0
74761,-0.764,0.51,0.49,12.382,-16.908,21.992,34,174
74815,-0.686,0.598,0.337,6.29,-5.779,10.244,37,0
74875,-0.775,0.497,0.437,2.443,-11.649,4.74,0,147
74939,-0.698,0.533,0.438,-4.55,-3.893,-4.282,0,0
75002,-0.736,0.541,0.469,0.053,-6.771,-9.863,0,0
75069,-0.724,0.566,0.357,1.389,-0.13,-6.16,0,0
75123,-0.733,0.579,0.42,-8.397,-5.504,-11.176,36,0
75177,-0.841,0.568,0.47,-0.55,2.916,-1.595,35,0
75232,-0.896,0.595,0.491,1.359,-4.046,10.58,34,0
75286,-0.759,0.566,0.414,4.931,-11.611,22.863,38,0
75337,-0.703,0.608,0.425,11.45,-2.878,25.405,38,154
75389,-0.737,0.537,0.382,11.328,-6.832,20.649,36,154
75441,-0.8,0.548,0.444,16.771,-3.885,23.267,37,155
75495,-0.629,0.682,0.331,15.389,-4.931,21.962,35,0
75553,-0.69,0.585,0.417,7.061,-1.733,9.473,36,0
75607,-0.673,0.583,0.383,6.954,-5.16,-4.107,36,0
75662,-0.711,0.68,0.439,-0.221,-2.229,-8.641,38,0
75725,-0.69,0.65,0.418,-0.802,-12.939,-11.298,0,0
75789,-0.723,0.615,0.466,1.939,-12.58,-12.313,0,0
75843,-0.652,0.727,0.295,7.473,-12.374,-5.168,38,0
75897,-0.8,0.619,0.451,-0.748,1.725,6.504,34,0
75952,-0.619,0.651,0.362,0.496,-4.534,5.702,33,0
76006,-0.661,0.642,0.37,-4.244,6.191,-3.13,33,0
76063,-0.71,0.679,0.42,-7.588,-6.542,-4.198,31,0
76116,-0.755,0.643,0.472,-8.374,-0.298,1.802,32,0
76171,-0.687,0.641,0.436,-6.634,-2.489,9.145,32,0
76225,-0.681,0.621,0.381,-0.336,-7.634,11.565,31,0
76279,-0.714,0.6,0.41,0.771,2,9.824,32,0
76333,-0.66,0.563,0.411,-6.527,-4.794,0.595,32,0
76430,-0.735,0.69,0.446,-6.893,-2.504,-4.947,33,0
76484,-0.662,0.611,0.437,-4.046,-5.137,-7.176,33,0
76538,-0.727,0.626,0.439,-0.565,-1.107,-7.321,33,0
76593,-0.723,0.646,0.397,6.817,-5.527,1.008,33,0
76650,-0.758,0.621,0.452,0.725,-8.71,2.511,33,0
76704,-0.68,0.589,0.419,3.695,-2.244,-1.229,36,0
76759,-0.699,0.667,0.427,3.595,-4.244,-0.954,37,0
76814,-0.714,0.587,0.446,-1.275,-12.847,-5.481,36,0
76868,-0.663,0.553,0.413,-0.557,-4.42,-11.198,38,0
76932,-0.672,0.618,0.395,0.641,-3.29,-17.229,0,0
76985,-0.828,0.542,0.471,-4.099,-0.733,-12.733,44,159
77037,-0.705,0.595,0.412,0.336,-12.031,-10.924,45,159
77101,-0.753,0.573,0.454,1.076,0.336,-8.046,0,0
77159,-0.711,0.556,0.36,-5.412,-3.687,-7.84,32,0
77213,-0.8,0.592,0.416,-1.107,-0.115,-2.405,31,0
77267,-0.804,0.589,0.464,-2.489,-2.832,6.015,33,0
77322,-0.78,0.526,0.468,1.573,-0.496,11.084,33,0
77375,-0.716,0.547,0.405,3.42,-4.74,9.466,31,0
77429,-0.761,0.596,0.427,6.366,-6.145,10.908,31,0
77484,-0.76,0.54,0.456,3.092,-0.756,12.42,31,0
77538,-0.689,0.527,0.423,4.641,-6.076,8.412,31,0
77592,-0.74,0.593,0.463,3.359,-1.634,2.618,33,0
77649,-0.74,0.618,0.443,3.534,-5.893,5.008,31,0
77705,-0.715,0.594,0.444,6,-7.443,7.214,41,0
77759,-0.695,0.591,0.404,4.916,-4.679,3.771,38,0
77813,-0.672,0.63,0.378,1.771,-7.359,-0.168,37,0
77869,-0.734,0.633,0.467,2.824,-5.366,-1.611,42,0
77923,-0.726,0.616,0.417,3.771,-8.069,1.145,43,0
77977,-0.739,0.638,0.452,3.55,-5.107,3.206,36,0
78032,-0.694,0.604,0.447,-1.588,-12.611,0.763,37,0
78087,-0.684,0.661,0.44,1.374,-3.626,2.618,36,0
78142,-0.678,0.601,0.452,-2.305,-9.985,3.466,42,0
78199,-0.664,0.572,0.442,-1.198,-6.084,-0.282,37,0
78254,-0.69,0.6,0.473,-2.847,-10.267,-2.901,34,0
78309,-0.693,0.636,0.443,-0.687,1.206,-1.359,36,0
78363,-0.73,0.6,0.481,3.832,-4.954,3.489,40,0
78418,-0.659,0.582,0.384,2.756,0.176,4.069,42,0
78473,-0.728,0.615,0.477,-1.45,1.603,-0.046,32,0
78527,-0.706,0.599,0.473,-3.542,1.359,-0.954,31,0
78581,-0.692,0.611,0.431,2.985,-0.58,1.542,42,0
78637,-0.749,0.589,0.444,-0.061,0.573,1.084,42,0
78695,-0.715,0.64,0.388,-1.672,5.084,4.038,38,0
78749,-0.771,0.615,0.529,-1.832,-3.71,6.496,42,0
78804,-0.684,0.615,0.427,3.023,1.527,8.191,42,0
78859,-0.703,0.629,0.419,2.122,-4.412,4.305,41,0
78914,-0.682,0.654,0.391,3.382,-1,3.748,39,0
78968,-0.718,0.676,0.473,1.824,-6.504,7.527,37,0
79033,-0.662,0.605,0.401,6.42,-5.962,7.809,0,0
79087,-0.678,0.641,0.39,2.802,-5.855,5.26,36,0
79141,-0.63,0.658,0.394,-2.344,-1.908,1.145,33,0
79243,-0.699,0.667,0.444,-3.099,-2.038,1.573,33,0
79297,-0.698,0.643,0.425,-3.351,-4.565,3.771,33,0
79352,-0.642,0.64,0.431,-3.679,-1.824,-0.076,33,0
79407,-0.698,0.615,0.458,-0.244,-2.733,-1.16,36,0
79471,-0.669,0.691,0.397,1.588,-0.855,-0.305,0,0
79525,-0.717,0.578,0.435,-3.756,-4.076,1.626,36,0
79580,-0.651,0.653,0.428,-0.153,2.008,-2.107,32,0
79635,-0.694,0.668,0.403,-0.733,-1.42,-1.947,33,0
79689,-0.747,0.635,0.439,-2.901,-1.183,3.374,35,0
79745,-0.657,0.613,0.452,0.29,-4.962,2.763,35,0
79802,-0.695,0.675,0.431,-0.489,-3.336,1.771,35,0
79857,-0.715,0.607,0.453,1.046,-8.305,3.809,36,0
79911,-0.669,0.626,0.421,0.824,-1.916,3.794,36,0
79966,-0.67,0.684,0.4,0.58,-3.702,4.29,33,0
80021,-0.68,0.608,0.444,-2.611,-3.603,2.107,35,0
80075,-0.64,0.656,0.389,0.55,-1.427,0.58,34,0
80130,-0.685,0.701,0.407,-5.061,-0.008,0.153,34,0
80185,-0.719,0.552,0.512,-9.656,-2.489,-1.634,33,0
80239,-0.666,0.625,0.45,3.229,-4.893,-4.214,34,0
80297,-0.705,0.688,0.396,4.26,-1.092,0.198,33,0
80352,-0.685,0.638,0.426,-2.603,-3.397,3.328,33,0
80407,-0.676,0.615,0.454,-1.511,-2.244,-0.275,33,0
80461,-0.686,0.643,0.436,0.305,-1.29,0.214,33,0
80516,-0.723,0.645,0.475,2.176,-4.969,2.511,33,0
80577,-0.677,0.65,0.42,-0.656,2.305,3.718,33,0
80631,-0.679,0.636,0.438,1.237,-5.519,4.473,33,0
80686,-0.684,0.63,0.449,-0.473,2.87,2.939,33,0
80739,-0.638,0.682,0.367,0.015,-4.42,-1.336,34,0
80793,-0.76,0.717,0.49,-0.832,5.084,4.924,33,0
80847,-0.685,0.603,0.45,-1.695,-7.053,9.252,33,0
80902,-0.633,0.638,0.424,2.458,-5.893,3.771,39,0
80956,-0.668,0.643,0.402,2.71,-1.885,2.466,41,0
81010,-0.663,0.692,0.407,2.069,-1.305,2.809,41,0
81064,-0.686,0.68,0.466,-1.198,-3.191,0.435,41,0
81119,-0.668,0.665,0.417,3.397,-4.344,3.695,37,0
81173,-0.666,0.668,0.427,-0.87,-4.221,2.374,33,0
81226,-0.671,0.634,0.43,-0.16,-4.817,1.069,34,0
81281,-0.67,0.683,0.439,-2.855,-3.443,-0.305,33,0
81338,-0.674,0.644,0.429,-1.351,-0.901,2.122,34,0
81391,-0.645,0.655,0.406,0.275,-4.611,2.191,34,0
81445,-0.685,0.684,0.408,-1.038,0.962,3.473,38,0
81509,-0.674,0.674,0.435,-1.061,-4.504,6.786,0,0
81563,-0.655,0.642,0.439,2.855,-5.183,3.412,42,0
81617,-0.677,0.706,0.408,3.122,0.878,3.779,39,0
81672,-0.677,0.677,0.438,-1.84,-5.42,4.176,38,0
81726,-0.66,0.65,0.45,3.015,-1.573,4,35,0
81780,-0.638,0.705,0.375,0.351,-3.275,1.122,32,0
81837,-0.65,0.68,0.418,-2.076,-2.511,0.435,32,0
81891,-0.635,0.696,0.435,-0.298,-4.458,0.137,32,0
81945,-0.659,0.685,0.421,-0.389,-5.122,0.748,32,0
82042,-0.644,0.691,0.436,-4.954,-7.351,1.412,35,0
82097,-0.664,0.664,0.461,0.832,-0.916,2.595,38,0
82150,-0.631,0.687,0.409,0.687,-6.634,0.481,34,0
82204,-0.653,0.686,0.428,-1.427,-1.282,-0.496,31,0
82258,-0.642,0.68,0.414,-2.275,-3.176,2.878,31,0
82312,-0.67,0.633,0.473,0.534,-7.389,0.489,32,0
82366,-0.653,0.707,0.413,0.351,0.863,0.672,32,0
82423,-0.646,0.684,0.391,-1.229,-4.748,1.969,32,0
82477,-0.621,0.672,0.408,0.42,-0.198,1.237,33,0
82531,-0.681,0.675,0.435,-0.748,-1.809,1.214,31,0
82585,-0.669,0.661,0.466,-0.244,-2.16,2.053,31,0
82638,-0.65,0.682,0.436,1.405,-3.87,2.191,32,0
82693,-0.653,0.67,0.441,2.038,-3.267,1.779,34,0
82756,-0.636,0.698,0.389,2.573,-3.855,0.298,0,0
82810,-0.673,0.693,0.442,2.031,-4.008,1.389,32,0
82865,-0.66,0.643,0.462,2.038,-4.985,1.931,32,0
82922,-0.657,0.704,0.411,2.802,-6.076,0.969,31,0
82975,-0.641,0.696,0.403,1.733,-1.908,1.985,31,0
83030,-0.657,0.693,0.429,1.084,-7.634,1.382,31,0
83084,-0.647,0.7,0.427,0.687,-4.328,3.191,31,0
83137,-0.653,0.705,0.413,-0.328,-2.74,3.221,30,0
83191,-0.65,0.676,0.44,-0.427,-3.313,4.534,31,0
83246,-0.611,0.685,0.4,-1.191,-3.397,2.557,31,0
83300,-0.623,0.681,0.425,-1.061,-1.046,1.916,31,0
83354,-0.624,0.709,0.388,0.389,-0.878,2.115,31,0
83407,-0.666,0.7,0.443,-2.718,-3.672,1.863,31,0
83465,-0.639,0.688,0.441,1.069,-1.489,3.748,30,0
83519,-0.639,0.705,0.419,-2.74,-5.489,2.908,30,0
83573,-0.657,0.699,0.415,3.336,-3.076,6.756,30,0
83627,-0.619,0.708,0.416,2.45,-2.733,5.076,30,0
83681,-0.591,0.757,0.376,-1.023,-3.191,3.481,31,0
83735,-0.65,0.699,0.434,-1.252,-2.672,4.534,31,0
83789,-0.606,0.695,0.415,-2.58,-1.366,2.908,31,0
83844,-0.636,0.694,0.454,-0.053,-8.26,0.046,31,0
83898,-0.618,0.737,0.399,0.481,-0.382,0.733,31,0
83955,-0.591,0.713,0.415,-1.725,-5.58,-0.183,32,0
84009,-0.638,0.722,0.453,-2.695,-1.489,-1.321,36,0
84064,-0.62,0.698,0.44,-0.313,-5.122,-0.55,32,0
84118,-0.633,0.683,0.427,-1.061,-6.145,-2.015,40,0
84172,-0.624,0.709,0.435,-3.641,0.786,-0.893,38,0
84237,-0.63,0.713,0.445,-1.015,-2.954,0.924,0,0
84291,-0.61,0.693,0.424,0.038,-0.092,0.847,41,0
84346,-0.623,0.689,0.402,-0.687,-4.015,-0.496,37,0
84401,-0.642,0.709,0.462,-3.534,2.046,-1.458,38,0
84458,-0.631,0.714,0.43,1.046,-3.656,0.214,38,0
84513,-0.68,0.689,0.464,0.405,-0.198,3.015,41,0
84577,-0.599,0.717,0.396,-0.008,-3.153,2.221,0,0
84641,-0.659,0.698,0.437,-1.282,-2.733,0.779,0,0
84696,-0.63,0.676,0.436,-1.321,2.565,-0.962,37,0
84750,-0.662,0.725,0.44,-2.901,-5.45,-2.137,37,0
84848,-0.646,0.674,0.442,1.298,-1.137,4.374,39,0
84902,-0.633,0.688,0.413,-0.496,-3.053,2.176,39,0
84958,-0.616,0.728,0.414,1.947,-0.557,2.649,38,0
85012,-0.622,0.696,0.429,-1.748,-6.519,0.565,38,0
85070,-0.685,0.673,0.448,-0.664,-1.122,2.588,39,0
85125,-0.614,0.714,0.444,0.473,-0.977,2.252,38,0
85180,-0.616,0.703,0.402,3.466,-2.863,3.206,38,0
85234,-0.636,0.665,0.435,-0.756,-4.084,2.458,38,0
85288,-0.594,0.691,0.427,-0.756,-3.718,-1.55,38,0
85344,-0.659,0.738,0.423,2.962,-1.221,0.756,38,0
85398,-0.642,0.719,0.445,0.252,-2.802,3.382,38,0
85453,-0.634,0.669,0.431,0.527,-0.603,2.244,38,0
85508,-0.619,0.734,0.408,2.038,-3.084,2.954,38,0
85566,-0.647,0.724,0.406,-1.038,-3.641,4.977,38,0
85620,-0.607,0.685,0.41,-4.13,-2.817,3.687,38,0
85676,-0.636,0.702,0.454,-0.87,-5.023,2.405,41,0
85731,-0.617,0.701,0.419,0.092,-0.832,2.908,41,0
85785,-0.631,0.711,0.424,1.221,-3.626,2.023,39,0
85840,-0.621,0.715,0.452,0.939,-3.244,1.908,39,0
85895,-0.615,0.733,0.423,1.267,-4.855,1.153,41,0
85959,-0.619,0.738,0.383,1.954,-1.137,3.863,0,0
86012,-0.589,0.71,0.412,-0.87,-7.397,0.115,16,0
86070,-0.636,0.723,0.438,0.191,-0.58,1.29,16,0
86123,-0.607,0.737,0.411,-2.84,-4.374,0.534,16,0
86176,-0.613,0.718,0.417,-2.084,-0.969,0.595,16,0
86241,-0.613,0.732,0.42,-1.344,-5.611,-1.489,0,0
86294,-0.638,0.708,0.431,-1.733,-0.221,-0.221,16,0
86348,-0.637,0.717,0.43,-0.214,-3.855,2.122,16,0
86412,-0.616,0.717,0.421,0.504,1.71,2.595,0,0
86476,-0.603,0.701,0.402,-0.626,-1.519,2.305,0,0
86541,-0.593,0.719,0.395,2.069,-3.29,-0.893,0,0
86604,-0.646,0.733,0.431,-4.069,-3.908,-0.496,0,0
86672,-0.635,0.705,0.428,1.443,0.412,3.252,0,0
86736,-0.641,0.722,0.441,-1.588,-4.58,3.718,0,0
86801,-0.622,0.714,0.417,1.176,-0.046,3.702,0,0
86865,-0.568,0.742,0.377,-0.344,-3.42,2.863,0,0
86929,-0.622,0.703,0.415,2.504,-6.344,1.557,0,0
86993,-0.616,0.743,0.412,-0.008,-1.374,-0.603,0,0
87058,-0.603,0.752,0.407,2.16,-0.542,2.527,0,0
87113,-0.611,0.699,0.399,-0.16,-9.702,2.916,37,0
87168,-0.6,0.725,0.415,0.908,3.931,0.733,36,0
87226,-0.63,0.74,0.437,-2.115,-5.008,2.458,36,0
87290,-0.616,0.751,0.413,0.618,0.588,5.031,0,0
87354,-0.566,0.847,0.362,-8.092,-9.099,-2.382,0,0
87418,-0.48,0.981,0.222,-41.115,-44.466,-5.672,0,0
87480,-0.496,0.83,0.312,-89.351,-15.527,-3.252,16,0
87533,-0.358,0.743,0.209,-126.954,3.092,-5.382,30,0
87586,-0.556,0.603,0.47,-150.939,28.389,-2.534,28,0
87641,-0.628,0.442,0.55,-167.015,0.252,-6.992,30,0
87694,-0.662,0.328,0.631,-167.527,-1.267,5.015,31,0
87794,-0.694,0.162,0.691,-151.389,-18.695,33.473,28,0
87848,-0.815,0.101,0.794,-137.053,-25.435,49.168,32,0
87902,-0.761,0.049,0.75,-123.198,-27.321,56.718,30,0
87956,-0.784,-0.036,0.806,-108.901,-15.74,67.809,37,0
88010,-0.806,-0.149,0.898,-86.687,-42.076,66.634,32,0
88074,-0.62,-0.149,0.804,-67.794,-44.046,58.687,0,0
88137,-0.62,-0.275,0.911,-56.466,-14.45,49.565,0,0
88201,-0.46,-0.375,0.807,-41.55,-29.344,21.046,0,0
88265,-0.375,-0.389,0.932,-39.603,-7.947,19.405,0,0
88332,-0.371,-0.438,0.93,-44.298,-12.611,12.389,0,0
88385,-0.406,-0.486,0.911,-38.565,-17.069,7.489,16,0
88449,-0.382,-0.583,0.892,-29.099,-18.733,-0.115,0,0
88502,-0.293,-0.584,0.832,-13.328,-10.931,-8.13,16,0
88565,-0.297,-0.514,0.857,1.786,-4.878,-8.412,0,0
88629,-0.357,-0.442,0.897,-2.573,-15.183,-5.55,0,0
88692,-0.43,-0.566,0.957,7.71,-16.42,-7.718,0,0
88756,-0.258,-0.583,0.902,35.344,-11.802,-17.481,0,0
88809,-0.357,-0.337,0.931,49.076,12.069,-35.733,16,0
88865,-0.419,-0.374,0.94,64.748,-4.099,-37.405,16,0
88923,-0.444,-0.375,0.884,69.176,3.748,-41.336,16,0
88976,-0.371,-0.328,0.874,78.237,-0.901,-54.878,16,0
89032,-0.438,-0.147,1.061,82.16,-37.878,-75.275,16,0
89096,-0.241,0.002,0.772,90.336,14.656,-84.046,0,0
89160,-0.594,0.122,1.026,90.817,-5.603,-73.069,0,0
89224,-0.401,0.181,0.897,74.466,11.809,-55.374,0,0
89277,-0.445,0.17,0.949,66.382,-14.924,-39.863,16,0
89340,-0.419,0.132,0.993,75.542,-7.832,-32.74,0,0
89408,-0.4,0.283,0.927,93.405,-3.809,-29.931,50,0
89465,-0.381,0.353,0.849,87.58,-2.55,-22.176,57,0
89524,-0.417,0.5,0.862,71.985,-10.115,-18.183,50,0
89579,-0.368,0.551,0.777,53.191,-10.458,-10.557,16,0
89637,-0.37,0.547,0.813,42.183,-8.099,-5.374,50,0
89695,-0.318,0.597,0.806,35.344,-5.71,-2.618,51,0
89752,-0.325,0.606,0.802,27.809,-5.351,-1.626,51,0
89810,-0.323,0.622,0.809,19.779,-6.336,2.168,50,0
89868,-0.272,0.627,0.722,10.863,-6.534,1.916,58,0
89929,-0.329,0.607,0.8,0.473,-0.389,-0.855,51,0
89988,-0.302,0.57,0.839,-3.405,-5.313,0.901,53,0
90045,-0.288,0.604,0.833,1.641,3.985,-4.618,57,0
90103,-0.35,0.615,0.829,-3.863,-0.42,-2.847,51,0
90161,-0.35,0.548,0.831,-4.977,-1.687,1.763,51,0
90227,-0.311,0.576,0.812,-1.16,0.786,3.366,0,0
90286,-0.33,0.566,0.79,-0.817,4.481,3.931,51,0
90343,-0.335,0.584,0.839,-2.252,-3.031,4.695,51,0
90401,-0.365,0.582,0.854,-0.695,6.42,7.405,51,0
90459,-0.359,0.579,0.855,2.786,1.29,8.489,50,0
90520,-0.339,0.559,0.836,4.496,1.252,9.702,50,0
90578,-0.332,0.57,0.817,5.153,0.023,8.046,50,0
90636,-0.334,0.606,0.8,5.313,0.29,5.809,51,0
90702,-0.336,0.594,0.82,5.855,1.817,4.366,0,0