Timestamp(ms),AccelX(g),AccelY(g),AccelZ(g),GyroX(deg/s),GyroY(deg/s),GyroZ(deg/s),DistanceLeft(cm),DistanceRight(cm)
48389,-0.213,-0.82,0.566,-1.969,-1.771,-5.679,0,179
48451,-0.182,-0.806,0.559,-3.519,-5.71,-4.977,0,180
48513,-0.194,-0.809,0.578,-7.672,-5.817,-5.962,0,183
48576,-0.127,-0.817,0.546,-7.237,-5.786,-5.908,0,190
48638,-0.086,-0.794,0.515,-6.435,4.275,-10.298,0,184
48701,0.013,-0.803,0.432,-13.985,36.527,-22.916,0,183
48763,-0.033,-0.82,0.443,-31.679,91.802,-35.214,0,183
48829,-0.092,-0.805,0.449,-38.771,105.176,-49.435,0,182
48891,-0.137,-0.777,0.36,-45.344,121.756,-55.603,0,182
48954,-0.24,-0.873,0.332,-52.55,129.092,-68.779,0,180
49017,-0.268,-0.912,0.337,-50.084,100.962,-81.031,0,0
49081,-0.245,-0.957,0.254,-46.137,98.832,-69.786,0,0
49144,-0.391,-1.188,0.244,-55.542,120.832,-32.504,0,0
49208,-0.365,-1.057,0.225,-52.901,83.603,-36.664,0,0
49271,-0.321,-1.054,0.12,-58.275,78.954,-30.878,0,0
49335,-0.404,-0.781,0.406,-47.489,54.641,-25.634,0,0
49401,-0.299,-0.986,0.298,-16,-43.389,0.779,0,0
49465,0.081,-2,-0.298,4.672,-22.344,-23.183,0,0
49528,0.228,-1.86,-0.286,-2.893,-19.336,-18.214,0,0
49592,0.225,-0.776,-0.069,-9.679,-21.511,-52.145,0,0
49655,0.564,0.112,-0.189,20.542,27.031,-38.328,0,0
49719,0.939,0.108,-0.166,2.687,95.405,13.313,0,0
49782,0.698,-1.269,-0.121,-35.153,84.435,-63.45,0,0
49846,0.412,-1.312,-0.284,-9.168,94.878,-28.191,0,0
49909,-0.885,-1.153,-0.144,-40.924,250.13,46.023,0,0
49976,-0.888,-0.196,0.275,-33.87,116.046,60.611,0,0
50039,-0.827,0.046,0.527,-48.947,-3.336,0.344,0,0
50103,-0.462,-1.948,0.085,-17.924,-172.473,29.145,0,0
50166,0.631,-2,-0.415,30.16,-184.176,21.679,0,0
50230,1.241,-1.99,-0.566,5.656,-60.557,-5.412,0,0
50293,0.448,-0.124,0.091,-10.618,-17.802,-33.489,0,0
50358,0.549,0.274,-0.071,39.649,-64.962,-40.183,0,0
50421,0.683,-0.067,-0.044,9.298,50.511,-10.45,0,0
50485,0.537,-1.37,-0.353,40.267,190.069,-40.725,0,0
50551,-0.19,-1.671,-0.195,-25.382,125.42,51.229,0,0
50615,-0.746,-0.505,0.114,-41.115,162.45,86.107,0,0
50678,-0.732,-0.174,0.404,-48.122,32.702,22.237,0,0
50742,-0.902,-0.179,0.792,-51.542,-180.817,-12.893,0,0
50806,0.29,-2,-0.88,39.366,-139.282,-52.092,0,0
50870,0.709,-2,-0.715,22.321,-190.802,-2.397,0,0
50933,0.782,-1.615,-0.61,13.351,4.382,-47.458,0,0
50997,0.652,0.481,-0.028,17.237,11.863,-12.473,0,0
51060,0.958,0.452,-0.128,31.611,110.603,-15.733,0,0
51127,0.187,-1.549,0.281,7.641,184.725,-66.931,0,0
51191,0.28,-1.268,-0.364,-51.267,49.382,15.397,0,0
51255,-0.932,-0.302,0.06,-11.252,206.084,38.015,0,0
51318,-0.94,-0.349,0.376,-54.626,55.519,43.008,0,0
51382,-1.196,0.066,0.95,-52.527,-161.298,-10.481,0,0
51446,0.546,-2,-1.278,58.802,-144.954,-16.45,0,0
51510,1.032,-1.971,-0.335,-32.573,-123.504,40.802,0,0
51616,0.168,0.354,0.339,29.992,-47.107,-48.832,0,0
51680,1.344,0.512,-0.17,68.886,29.969,-34.817,0,0
51746,0.809,-1.988,-0.791,42.649,139.794,-120.122,0,0
51811,0.172,-1.698,-0.528,-90.115,-27.718,-13.107,0,0
51874,-0.843,-0.941,-0.408,-45.298,250.13,81.481,0,0
51938,-1.244,-0.462,0.448,-58.328,106.008,59.382,0,0
52002,-1.101,0.146,0.672,-72.29,-124.916,-12.092,0,0
52066,-0.045,-2,-0.323,-12.168,-178.023,6.351,0,0
52129,1.237,-1.862,-0.571,7.221,-238.328,45.183,0,0
52194,0.946,-1.349,-0.36,20.87,44.87,-32.107,0,0
52260,0.186,0.275,0.158,58.679,-152.053,-53.069,0,0
52324,1.449,0.343,-0.094,7,8.061,11.802,0,0
52387,1.04,-2,-0.409,33.435,68.992,-44.992,0,0
52452,-0.188,-1.657,-0.116,-90.496,93.84,27.313,0,0
52515,-0.698,-0.851,-0.284,-22.626,186.374,75.702,0,0
52580,-0.904,-0.402,0.126,-33.374,152.359,57.87,0,0
52643,-1.471,0.295,1.079,-63.359,-47.298,-18.611,0,0
52707,-0.447,-1.392,-0.216,-4.145,-198.481,4.069,0,0
52771,0.4,-2,-0.555,66.771,-225.908,18.672,0,0
52838,1.253,-1.646,-1.047,-38.504,-59.542,-13.145,0,0
52902,0.003,0.361,0.53,25.389,-49.718,-16.809,0,0
52966,1.635,0.287,-0.034,20.847,-19.527,-6.214,0,0
53029,1.353,-1.095,-0.012,56.168,101.397,-55.069,0,0
53094,-0.039,-1.698,-0.297,-25.542,211.412,-57.489,0,0
53158,-0.753,-0.799,-0.611,-18.382,173.046,14.985,0,0
53222,-0.994,-0.313,-0.267,-44.015,167.649,39.511,0,0
53286,-1.78,0.248,1.097,-89.053,27.527,-1.382,0,0
53350,-0.91,-0.762,-0.082,2.573,-176.863,15.29,0,0
53416,0.189,-2,-0.309,18.885,-250.137,35.145,0,0
53481,1.525,-1.359,-1.128,4.382,-35.901,-14.29,0,0
53544,0.171,-0.104,0.384,36.382,-172.779,-19.672,0,0
53609,2,0.235,-0.372,17.58,34.962,19.168,0,0
53672,0.891,-2,-1.077,37.725,233.71,-60.794,0,0
53737,-0.663,-1.491,-0.32,-86.038,134.153,20.221,0,0
53801,-1.197,-0.241,-0.48,4.374,222.26,49.336,0,0
53865,-1.541,-0.204,0.5,-51.977,64.13,20.595,0,0
53929,-1.341,0.124,0.604,-43,-170.321,-20.855,0,0
53996,0.196,-2,-1.323,51.817,-214.786,-20.13,0,0
54061,1.007,-2,-0.806,-39.313,-181.649,1.947,0,0
54124,0.742,-0.821,-0.194,21.145,-4.359,-57.26,0,0
54189,0.429,0.265,0.296,24.046,-72.542,-9.916,0,0
54252,1.261,0.12,0.09,24.481,67.046,-4.679,0,0
54317,0.513,-1.051,0.2,52.611,64.366,-45.634,0,0
54380,0.104,-1.359,-0.391,-66.397,249.832,-16.588,0,0
54445,-0.9,-0.76,-0.174,-8.595,70.84,35.756,0,0
54509,-0.646,-0.144,-0.432,-40.779,250.13,44.656,0,0
54576,-2,0.421,1.337,-80.382,-83.031,-20.473,0,0
54640,-0.428,-1.572,-0.665,7.511,-156.13,-6.321,0,0
54705,0.087,-2,-0.336,6.954,-250.137,38,0,0
54768,1.643,-1.326,-0.882,-1.985,-45.412,2.031,0,0
54876,1.427,0.192,-0.106,36.725,-67.84,27.695,0,0
54939,0.99,-0.463,0.09,43.29,146.695,-30.763,0,0
55004,0.086,-2,-0.768,35.275,179.13,-92.863,0,0
55068,-1.027,-1.387,-0.416,-45.389,183.237,15.977,0,0
55133,-1.117,-0.104,-0.091,-30.802,155.069,29.038,0,0
55199,-1.178,-0.113,0.546,-60.656,-89.282,-30.282,0,0
55264,-0.547,-0.325,0.076,-11.794,-181.191,-20.695,0,0
55328,0.205,-2,-1.38,51.137,-193.58,-48.679,0,0
55393,0.91,-1.957,-0.824,-31.725,-143.29,-43.641,0,0
55456,0.255,-0.777,-0.153,22.504,26.206,-41.962,0,0
55521,0.329,0.333,0.505,27.267,-91.924,2.901,0,0
55585,1.342,0.034,0.01,53.718,35.786,-4.908,0,0
55649,0.781,-2,-0.289,47.16,99.58,-39.275,0,0
55713,-0.03,-1.283,-0.364,-71.031,84.031,-6.771,0,0
55781,-0.767,-0.673,-0.376,-20.969,246.878,61.817,0,0
55845,-0.97,-0.204,0.098,-22.412,157.679,30.176,0,0
55910,-1.84,0.692,0.964,-75.847,17.038,-5.794,0,0
55973,-0.422,-2,-0.664,3.076,-227.733,-2.336,0,0
56038,0.697,-2,-0.519,-18.84,-164.71,14.542,0,0
56102,0.789,-1.585,-0.571,40.893,-79.641,-37.771,0,0
56167,0.18,-0.151,0.32,34.58,-102.252,-22.55,0,0
56231,1.523,0.197,-0.101,40.748,-51.901,-28.962,0,0
56295,1.1,-1.843,-0.251,49.702,108.069,-46.412,0,0
56363,0.041,-1.526,-0.279,-85.74,38.023,-7.55,0,0
56427,-0.922,-0.858,-0.4,-23.168,250.13,50.908,0,0
56499,-1.16,-0.282,0.25,-40.687,101.092,41.115,0,0
56562,-0.963,0.104,0.435,-66.893,-78.267,-34.71,0,0
56626,-0.261,-1.379,-0.238,-31.519,-178.275,-4.786,0,0
56689,0.201,-2,-0.5,15.855,-219.176,-54.893,0,0
56753,1.16,-1.77,-0.758,-2.908,-109.336,-24.634,0,0
56815,-0.079,-0.315,0.323,34.664,12.992,-29.031,0,0
56882,0.903,0.139,0.106,51.641,-116.061,2.305,0,0
56945,1.177,-0.553,-0.001,50.344,81.244,-18.473,0,0
57009,0.309,-2,-0.481,31.504,134.298,-49.802,0,0
57072,-0.473,-1.458,-0.731,-114,169.664,70.718,0,0
57136,-0.735,-0.005,0.008,-32.809,139.71,67.786,0,0
57199,-0.933,-0.097,0.299,-47.252,102.176,9.809,0,0
57263,-1.167,-0.309,0.508,-58.893,-127.504,-9.847,0,0
57326,0.109,-2,-1.224,41.893,-195.084,-78.374,0,0
57390,0.637,-2,-0.722,-15.443,-130.763,-9.344,0,0
57456,0.122,-0.62,-0.104,44.893,-4.939,-45.527,0,0
57520,0.486,0.231,0.274,40.313,-151.473,-0.389,0,0
57583,1.445,-0.153,0.001,32.962,54.87,-6.939,0,0
57647,0.921,-2,-0.758,33.542,116.427,-45.885,0,0
57710,-0.11,-1.829,-0.917,-63.237,162.695,40.176,0,0
57774,-1.097,-0.427,-0.181,-27.878,192.397,66.626,0,0
57837,-0.53,-0.294,-0.054,-23.443,80.672,28.366,0,0
57901,-1.431,0.244,0.775,-48.038,12.695,-30.588,0,0
57964,-0.718,-2,-0.369,-5.145,-236.504,-33.206,0,0
58031,0.958,-2,-0.806,-9.427,-178.328,14.87,0,0
58137,0.128,-0.17,0.472,33.122,-40.366,-53.611,0,0
58201,1.052,0.12,-0.148,56.985,-122.809,-64.344,0,0
58264,1.22,-0.872,-0.268,26.878,127.023,-26.237,0,0
58328,0.177,-1.488,0.145,-20.802,100.595,-89.008,0,0
58391,-0.334,-1.37,-0.685,-83.985,165.45,-3.595,0,0
58455,-1.213,-0.044,-0.019,-43.031,230.779,92.847,0,0
58519,-1.026,-0.287,0.478,-54.099,99.687,41.763,0,0
58583,-1.62,0.025,0.679,-55.084,-104.565,13.969,0,0
58649,-0.306,-2,-1.313,32.511,-231.84,-33.931,0,0
58713,1.583,-2,-1.081,-34.084,-157.695,40.405,0,0
58776,0.687,-0.852,0.198,27.046,19.687,-48.969,0,0
58840,0.61,0.095,0.267,68.344,-120.092,-48.244,0,0
58903,1.223,0.241,-0.491,61.725,106.45,-2.176,0,0
58967,0.26,-1.954,0.024,23.771,86.42,-46.008,0,0
59031,0.35,-1.415,-0.483,-80.687,96.649,1.336,0,0
59095,-1.402,-1.058,-0.044,-65.214,154.756,51.229,0,0
59158,-0.878,0.034,0.089,-58.824,139.687,72.107,0,0
59225,-1.553,0.103,0.883,-53.198,-69.076,-11.137,0,0
59288,-0.627,-0.688,-0.437,-12.748,-226.74,23.542,0,0
59352,-0.143,-2,-0.961,57.771,-189.176,-11.466,0,0
59416,1.461,-2,-0.946,-32.504,-163.183,26.71,0,0
59480,0.438,-0.356,0.448,13.641,17.344,-35.237,0,0
59543,1.111,-0.125,0.201,62.603,-101.511,-64.435,0,0
59608,1.217,-0.65,-0.164,44.687,72.962,-77.061,0,0
59671,0.059,-1.646,-0.225,40.954,158.634,-98.267,0,0
59735,-0.451,-1.311,-0.633,-75.511,206.16,-1.527,0,0
59801,-1.1,0.032,0.082,-31.771,140.176,28.015,0,0
59865,-0.758,-0.118,0.136,-58.252,62.092,40.321,0,0
59929,-1.37,-0.257,0.634,-55.168,-15.122,15.969,0,0
59993,-0.479,-2,-0.891,-4.947,-250.137,-22.015,0,0
60056,1.187,-2,-0.902,-20.931,-161.435,9.443,0,0
60121,0.48,-0.887,0.085,29.878,-24.16,-53.954,0,0
60184,0.751,0.143,0.041,55.977,-97.977,-34.344,0,0
60248,1.217,0.171,-0.245,27.58,69.015,-2.008,0,0
60312,0.59,-1.65,-0.128,24.092,112.45,-41.122,0,0
60379,-0.264,-1.72,-0.308,-53.29,129.511,17.931,0,0
60442,-0.99,-0.883,-0.09,-33.931,120.359,47.695,0,0
60507,-0.383,-0.094,-0.075,-42.183,99.817,57.611,0,0
60570,-0.928,0.119,0.478,-36.198,83.328,-32.244,0,0
60634,-0.955,-0.998,0.221,-44.588,-157.305,-8.71,0,0
60698,0.065,-2,-0.499,17.977,-159.687,-48.443,0,0
60762,0.933,-2,-0.754,-21.191,-176.061,-5.115,0,0
60826,0.586,-0.22,0.235,30,-7.718,-54.29,0,0
60893,0.8,0.324,0.256,68.183,-114.237,-44.435,0,0
60956,1.282,-0.291,-0.182,34.397,37.206,-36.84,0,0
61021,0.325,-2,-0.832,35.45,126.176,-93.031,0,0
61084,-0.073,-1.568,-0.656,-83.695,79.351,20.053,0,0
61149,-0.635,-0.324,-0.092,-20.252,210.725,51.664,0,0
61212,-0.838,-0.298,0.054,-34.527,145.893,27.252,0,0
61277,-1.361,0.197,0.473,-52.267,19.649,17.305,0,0
61383,-0.059,-2,-0.655,13.664,-241.504,-25.802,0,0
61448,1.49,-2,-0.53,-22.695,-121.168,35.947,0,0
61514,0.572,-0.058,0.498,37.58,20.58,-27.275,0,0
61578,0.71,0.184,0.193,67.573,-70.397,-41.397,0,0
61642,1.016,-0.299,-0.025,36.534,18.29,-65.84,0,0
61706,0.984,-2,-1.061,50.038,79.115,-86.397,0,0
61770,-0.268,-1.429,-0.085,-98.229,135.779,3.45,0,0
61834,-0.678,-0.549,-0.043,8.244,154.771,10.748,0,0
61898,-0.751,-0.345,-0.194,-4.985,155.55,-19.542,0,0
61962,-1.718,0.622,0.609,-56.229,36.878,17.878,0,0
62026,-0.624,-2,-0.121,-44.618,-180.786,57.534,0,0
62094,0.73,-2,-0.471,-50.115,-209.886,69.908,0,0
62157,0.858,-2,-0.547,0.115,-131.183,8.557,0,0
62222,0.249,0.054,0.3,13.473,-72.84,-28.214,0,0
62285,1.297,-0.066,-0.066,38.511,-179.534,-32.115,0,0
62350,1.605,-1.075,-0.264,23.359,42,-67.603,0,0
62413,0.102,-1.75,0.273,-26.824,123.672,-60.779,0,0
62478,-0.046,-1.17,-0.517,-24.336,164.985,-18.718,0,0
62542,-0.942,-0.14,0.036,-0.374,158.046,-0.099,0,0
62606,-0.936,-0.102,-0.124,-16.893,142.496,1.519,0,0
62673,-1.663,-0.002,0.783,-58.557,-39.305,52.153,0,0
62737,-0.123,-2,-0.905,-1.237,-155.908,33.489,0,0
62801,0.81,-2,-0.499,-63.023,-193.198,85.359,0,0
62866,0.898,-1.102,-0.306,14.252,-65.023,-12.817,0,0
62929,0.63,0.178,0.329,23.275,-69.527,-9.924,0,0
62994,1.381,0.022,-0.102,37.855,0.687,-28.901,0,0
63057,0.951,-1.024,0.127,24.893,67.863,-63.229,0,0
63122,-0.021,-1.513,-0.232,-28.489,207.565,-60.115,0,0
63186,-0.661,-1.33,-0.01,-40.901,82.206,14.786,0,0
63253,-0.651,-0.109,-0.119,-2.916,165.916,3.924,0,0
63318,-1.38,0.092,0.353,-15.198,73.794,-15.244,0,0
63382,-1.155,-0.078,0.096,-32.733,-177.74,46.298,0,0
63447,-0.554,-2,-1.042,-3.008,-165.679,33.565,0,0
63510,1.165,-2,-0.874,-51.191,-250.137,84.664,0,0
63575,1.067,-0.995,-0.396,-1.29,-43.695,-42.031,0,0
63639,0.395,0.262,0.537,6.702,-88.42,-41.969,0,0
63703,1.532,-0.055,-0.277,46.832,-38.374,-57.733,0,0
63767,1.161,-2,-1.04,26.366,171.832,-53.481,0,0
63835,-0.197,-1.837,-0.259,-64.023,74.992,-22.962,0,0
63899,-0.669,-0.574,-0.552,4.908,221.069,-12.641,0,0
63964,-0.897,-0.007,-0.018,-30.351,163.031,29.443,0,0
64027,-1.217,0.46,0.327,-52.664,84.672,-1.046,0,0
64092,-1.185,-0.76,0.083,-46,-100.886,50.504,0,0
64156,-0.446,-2,-0.694,-9.916,-250.137,13.779,0,0
64221,1.717,-1.966,-0.594,-61.924,-88.672,101,0,0
64285,0.533,-0.11,0.767,32.588,-45.687,-16.595,0,0
64349,0.882,0.03,0.04,62.069,-117.336,-59.458,0,0
64416,1.182,-0.26,-0.347,18.42,62.573,-47.595,0,0
64481,0.754,-2,-1.232,57.656,154.038,-92.206,0,0
64545,-0.262,-1.618,-0.236,-69.16,109.74,-14.718,0,0
64653,-1.084,0.032,-0.132,-7.405,184.695,21.817,0,0
64717,-1.375,0.358,0.173,-42.038,80.565,-10.435,0,0
64788,-1.198,-0.641,0.153,-52.962,-198.038,47.733,0,0
64851,0.108,-2,-1.365,42.611,-250.137,-7,0,0
64915,1.534,-1.834,-0.345,-46.26,-126.023,27.511,0,0
64982,0.406,-0.196,0.272,27.985,-72.511,-69.855,0,0
65045,0.65,0.387,0.145,38.534,-104.863,-51.427,0,0
65108,1.234,-0.319,-0.007,46.061,45.924,-36.534,0,0
65172,1.117,-2,-1.229,49.992,109.099,-111.45,0,0
65235,-0.134,-1.547,-0.198,-68.626,100.626,-28.969,0,0
65299,-0.761,-0.305,-0.337,21.939,210.985,2.435,0,0
65362,-0.996,-0.243,-0.227,-43.267,158.863,13.099,0,0
65426,-1.59,0.483,0.411,-106.931,12.122,27.885,0,0
65489,-0.867,-1.73,-0.239,-87.115,-191.71,68.519,0,0
65556,0.503,-2,-0.443,-53.313,-232.328,87.16,0,0
65619,1.445,-1.925,-0.76,40.305,-136.916,-17.015,0,0
65683,0.587,-0.145,-0.063,18.321,-34.328,-53.649,0,0
65746,0.58,0.188,0.255,15.863,-89.466,-43.405,0,0
65810,0.89,-0.493,0.029,14.183,67.695,16.008,0,0
65872,-0.366,-1.886,0.104,-5.565,91.42,4.695,0,0
65936,0.43,-1.166,-0.751,-10.458,158.008,43.962,0,0
65999,-1.375,-0.229,0.15,-22.786,212.954,36.29,0,0
66063,-0.736,-0.178,0.246,-32.649,-27.084,-21.649,0,0
66130,-0.484,-0.23,0.312,-18.565,-121.137,-21.748,0,0
66194,0.36,-2,-0.675,-0.527,-104.076,-39.649,0,0
66257,0.279,-2,-0.364,-23.908,-133.458,-49.573,0,0
66321,0.222,-1.317,-0.184,21,-57.901,-80.443,0,0
66384,0.219,0.683,0.357,35.336,-70.443,-14.939,0,0
66448,0.927,0.051,-0.197,54.71,48.992,23.122,0,0
66512,0.417,-0.484,0.525,8.412,4.45,27.191,0,0
66576,0.546,-1.868,-0.383,14.847,104.634,3.519,0,0
66639,-0.422,-1.685,-0.594,-35.718,138.519,69.771,0,0
66706,-0.593,0.088,0.013,-26.13,194.908,50.076,0,0
66769,-0.726,0.138,0.371,-29.107,55.336,-6.191,0,0
66834,-0.748,-0.279,0.42,-41.489,-101.282,-19.893,0,0
66897,0.059,-2,-1.042,2.863,-82.008,-48.664,0,0
66961,-0.058,-2,-0.073,-39.16,-174.626,-43.603,0,0
67025,0.12,-0.805,-0.037,42.595,-45.511,-39.947,0,0
67089,-0.021,0.579,0.382,43.931,-84.26,22.924,0,0
67152,1.265,-0.185,-0.517,74.87,-32.489,32.87,0,0
67217,0.745,-0.825,0.468,10.908,51.626,18.924,0,0
67283,0.208,-1.079,0.249,-25.939,50.282,-41.458,0,0
67348,-0.156,-1.207,-0.524,-16.695,153.794,34.206,0,0
67411,-1.031,-0.289,0.034,3.664,187.534,13.534,0,0
67476,-1.023,0.198,0.282,-46.573,13.679,29.214,0,0
67539,-1.098,-0.087,0.449,-68.183,-89.855,33.71,0,0
67603,-0.313,-2,-1.046,-18.74,-172.924,40.229,0,0
67667,0.465,-1.97,-0.396,-26.847,-172.107,54.679,0,0
67731,0.212,-1.526,-0.416,18.802,-90.511,-24.863,0,0
67795,-0.115,0.197,0.32,12.076,-37.824,76.015,0,0
67901,0.525,-0.717,0.019,42.817,80.519,104.908,0,112
67960,-1.019,-2,0.337,-14.328,57.305,-4.046,0,117
68019,-0.763,-0.843,0.245,22.519,-34.298,69.611,0,112
68077,-0.557,0.287,-0.178,29.985,111.244,80.74,0,100
68135,-1.117,0.492,0.108,-57.046,60.107,85.901,0,96
68193,-0.922,0.183,0.278,-128.435,-132.244,76.55,0,90
68251,-0.216,-2,-1.291,-48.092,-75.725,14.031,0,88
68308,-0.855,-1.68,0.061,-58.542,71.977,62.366,0,89
68366,-1.072,-0.253,0.094,-25.427,-65.229,-63.198,0,91
68419,-1.525,-0.539,0.115,-71.366,-37.389,20.473,58,93
68469,-0.757,-0.916,-0.167,2.947,-133.382,83.435,54,96
68518,0.384,-0.168,-0.029,17.824,-93.092,110.832,50,100
68569,0.596,-0.83,-0.209,32.031,-81.13,23.305,48,100
68618,-0.859,-1.314,-0.379,-47.29,158.527,-102.557,51,97
68668,-2,-0.718,0.596,-0.427,10.198,-26.611,50,97
68726,-0.333,0.648,-0.397,6.29,24.992,10.366,0,98
68775,-1.484,-0.502,0.516,-103.374,20.45,20.908,45,97
68828,-0.349,-0.578,-0.268,-76.748,-104.176,8.779,44,98
68877,-0.935,-1.145,-0.281,-79.87,47.382,-7.977,44,98
68926,-1.327,-1.068,-0.442,-0.366,-26.664,-17.496,46,99
68976,-1.238,-0.19,0.019,-37,-10.542,6.802,45,100
69025,-1.06,-0.241,0.044,-2.71,-54.985,47.84,47,103
69075,-0.514,-0.433,-0.241,16.725,-44.481,60.588,45,104
69126,-0.428,-0.262,-0.323,9.908,-20.733,36.771,46,105
69184,-0.896,-0.238,-0.225,-5.832,16.298,22.443,0,108
69234,-1.088,-0.272,0.207,-40.206,-16.061,15.718,43,107
69287,-0.766,-0.102,-0.008,6.969,-4.969,23.939,44,106
69337,-1.348,-0.093,0.143,3.931,26.855,49.748,44,107
69387,-1.488,-0.066,0.253,-5.939,-74.16,90.26,51,108
69437,-1.042,-0.027,0.09,24.168,-56.687,126.588,44,111
69496,-1.248,-0.177,0.339,19.405,-70.198,129,0,115
69547,-0.7,-0.009,0.063,33.588,-71.099,101.489,37,118
69598,-0.624,0.231,0.227,10.687,-52.534,67.496,44,122
69648,-0.307,-0.19,0.038,-42.611,-64.099,-28.191,37,127
69702,-0.577,-0.023,0.312,-47.061,48.87,-96.901,34,121
69752,-1.023,0.303,0.581,-48.206,34.405,-132.313,36,118
69812,-1.13,0.098,0.433,-39.649,30.45,-84.351,0,116
69862,-1.181,-0.086,0.44,-13.588,6.023,-25.458,44,116
69912,-1.195,-0.015,0.32,1.573,10.924,21.947,36,116
69962,-1.244,0.032,0.449,5.725,-15.008,56.603,34,117
70011,-0.987,-0.041,0.289,15.305,-30.481,80.008,34,119
70062,-1.033,-0.058,0.35,34.641,-19.71,92.58,37,121
70113,-0.932,0.052,0.331,36.061,-49.328,77.962,37,123
70176,-0.795,0.123,0.366,32.359,-24.519,73.71,0,130
70237,-0.782,0.256,0.425,47.977,-47.221,76.45,0,135
70290,-0.758,0.469,0.387,55.237,-4.328,83.519,36,164
70343,-0.726,0.681,0.413,50.702,-24.908,77.176,33,178
70397,-0.615,0.668,0.472,39.542,-27.16,62.107,31,0
70452,-0.498,0.682,0.26,40.069,-19.832,41.779,31,0
70514,-0.594,0.73,0.218,14.008,2.496,18.29,0,176
70610,-0.736,0.797,0.496,0.412,-7.756,11.298,16,179
70675,-0.509,0.653,0.311,13.832,-22.519,21.206,0,0
70743,-0.664,0.765,0.389,11.115,-22.305,17.908,0,0
70796,-0.518,0.869,0.367,11.687,-6.588,28.656,16,0
70850,-0.672,0.726,0.458,17.092,-28.282,34.756,16,0
70914,-0.398,0.757,0.241,23.542,-20.756,38.565,0,0
70978,-0.34,0.619,0.355,-7.168,-10.015,0.931,0,0
71043,-0.539,0.868,0.487,3.992,-1.145,-17.794,0,0
71107,-0.582,0.855,0.492,10.519,-7.779,-9.214,0,0
71160,-0.503,0.967,0.398,14.794,-21.817,6.26,16,0
71215,-0.288,0.782,0.146,13.137,14.756,11.053,16,0
71282,-0.678,0.829,0.48,10.221,1.779,6.664,0,0
71346,-0.408,0.889,0.312,-8.817,7.863,3.427,0,0
71401,-0.465,0.849,0.467,-18.901,-3.542,-24.893,31,0
71455,-0.594,0.987,0.498,-6.618,-1.298,-29.115,31,0
71520,-0.54,0.957,0.367,-2.863,-10.511,-2.122,0,0
71574,-0.398,0.617,0.301,-5.992,2.672,-0.985,30,0
71629,-0.379,0.725,0.35,-15.809,4.252,-32.962,30,0
71684,-0.571,0.875,0.473,-18.435,11.557,-38.954,29,0
71738,-0.664,0.743,0.48,-12.198,-3.244,-21.863,29,0
71796,-0.48,0.756,0.298,-10.382,-0.809,-11.542,37,0
71861,-0.668,0.677,0.529,-2.443,5.298,-3.092,0,0
71915,-0.637,0.785,0.501,20.962,-4.687,16.176,31,0
71970,-0.517,0.758,0.298,19.626,-5.099,32.687,30,0
72032,-0.459,0.698,0.342,14.42,3.87,12.084,31,0
72094,-0.531,0.878,0.372,3.038,9.87,2.092,0,0
72158,-0.615,0.807,0.501,5.046,-4.679,5.878,0,0
72221,-0.457,0.91,0.262,11.42,0.885,1.939,0,0
72275,-0.549,0.86,0.318,-8.023,0.656,-1.344,31,0
72332,-0.518,0.877,0.425,-5.023,-2.779,0.695,30,0
72386,-0.503,0.87,0.332,-2.969,-6.992,2.137,30,0
72439,-0.533,0.793,0.352,-10.725,-1.176,2.557,30,0
72493,-0.419,0.766,0.324,-10.466,-8.733,-4.893,30,0
72547,-0.501,0.799,0.442,-10.824,4.023,-10.237,30,0
72600,-0.447,0.81,0.364,-10.771,-1.817,-19.847,30,0
72654,-0.627,0.807,0.482,-8.344,3.137,-15.618,31,0
72709,-0.522,0.793,0.414,-9.527,0.573,-12.374,36,0
72763,-0.526,0.739,0.458,-4.405,-0.824,-17.023,36,0
72820,-0.539,0.729,0.393,-5.649,-2.305,-18.74,36,0
72884,-0.576,0.691,0.419,-7.458,4.351,-15.527,0,0
72947,-0.577,0.732,0.385,0.687,10.13,-9.542,0,0
73011,-0.795,0.753,0.543,5.794,0.16,12.702,0,0
73074,-0.553,0.8,0.446,15.031,-11.267,26.137,0,0
73138,-0.563,0.654,0.374,10.405,4.176,19.321,0,0
73201,-0.527,0.797,0.358,-1.061,4.748,4.725,0,0
73266,-0.55,0.822,0.399,3.45,0.626,8.824,0,0
73329,-0.536,0.799,0.407,3.908,-8.763,4.481,0,0
73393,-0.504,0.869,0.348,2.519,0.061,3.504,0,0
73449,-0.513,0.748,0.403,-3.42,-6.046,-3.206,29,0
73512,-0.526,0.859,0.426,2.42,-4.137,-4.542,0,0
73609,-0.512,0.774,0.444,-1.458,-5.786,0.824,16,0
73662,-0.429,0.884,0.281,3.427,-2.328,-2.511,16,0
73719,-0.458,0.839,0.346,-4.298,0.817,-1.527,16,0
73773,-0.545,0.751,0.481,1.534,-1.153,-3.183,16,0
73836,-0.469,0.866,0.38,6.519,-5.382,-4.351,0,0
73900,-0.53,0.842,0.337,5.725,-4.076,0.748,0,0
73963,-0.538,0.808,0.422,3.42,0.351,0.618,0,0
74030,-0.495,0.84,0.354,-1.489,5.053,1.305,0,0
74093,-0.543,0.783,0.442,-1.229,0.641,0.733,0,0
74158,-0.512,0.793,0.388,1.145,6.412,-4.42,0,0
74221,-0.55,0.793,0.404,-1.664,-3.771,-2.374,0,0
74285,-0.512,0.815,0.373,1.137,-0.885,-2.649,0,0
74348,-0.544,0.858,0.396,-4.023,-0.954,-2.71,0,0
74413,-0.567,0.771,0.438,-3.191,2.618,0.389,0,0
74476,-0.45,0.82,0.341,1.588,-0.908,-0.809,0,0
74540,-0.495,0.831,0.343,-0.023,-4.26,-5.26,0,0
74603,-0.553,0.841,0.414,-3.618,-1.473,-7.519,0,0
74671,-0.541,0.802,0.417,1.756,-5.008,2.023,0,0
74734,-0.508,0.8,0.362,-1.397,4.389,1.771,0,0
74798,-0.495,0.759,0.399,-3.977,-4.26,-2.824,0,0
74862,-0.504,0.865,0.341,2.534,-2.374,0.473,0,0
74926,-0.525,0.766,0.434,-3.229,-1.176,-3.023,0,0
74989,-0.514,0.874,0.366,3.084,1.053,-0.16,0,0
75054,-0.489,0.853,0.343,-0.366,1.939,4.756,0,0
75117,-0.469,0.802,0.396,-0.092,1.252,0.573,0,0
75181,-0.483,0.874,0.303,0.626,1.26,-1.664,0,0
75248,-0.526,0.81,0.393,-3.099,2.885,-0.702,0,0
75312,-0.486,0.826,0.367,-0.084,-0.962,-1.313,0,0
75376,-0.502,0.846,0.312,-2.595,1.061,-1.565,0,0
75440,-0.522,0.813,0.425,-5.053,-2.74,-0.786,0,0
75503,-0.509,0.859,0.378,-4.313,0,-3.099,0,0
75556,-0.513,0.853,0.369,-8.626,-8.71,-1.42,16,0
75611,-0.511,0.822,0.402,-6.84,-5.58,1.832,30,0
75665,-0.468,0.819,0.373,-7.87,-3.534,1.206,30,0
75718,-0.489,0.806,0.446,-6.412,-9.992,1.595,16,0
75782,-0.443,0.789,0.421,-0.382,-11.695,0.29,0,0
75839,-0.521,0.863,0.406,-4.855,-17.656,0.473,16,0
75902,-0.435,0.83,0.443,-5.023,-9.664,4.672,0,0
75956,-0.424,0.829,0.39,-6.641,-31.489,-1.55,16,0
76010,-0.598,0.868,0.614,-14.214,-32.481,4.214,37,0
76064,-0.404,0.894,0.41,-26.588,-44.481,4.985,30,0
76119,-0.473,0.835,0.54,-24.229,-23.786,14.672,27,0
76172,-0.289,0.793,0.49,-35.641,-37.771,13.122,16,0
76236,-0.281,0.696,0.655,-19.824,-2.595,3.328,0,0
76290,-0.232,0.792,0.547,-5.45,-11.924,-7.634,19,0
76357,-0.46,0.768,0.681,-0.191,1.786,1.603,0,0
76421,-0.334,0.756,0.609,2.908,5.802,3.679,0,0
76485,-0.269,0.693,0.606,3.924,9.588,-6.885,0,0
76549,-0.464,0.738,0.732,29.58,20.298,-15.046,0,0
76613,-0.346,0.814,0.447,31.908,30.137,-10.496,0,0
76709,-0.375,0.928,0.314,16.023,26.397,12.832,16,0
76764,-0.405,0.756,0.471,-0.863,17.336,4.702,17,0
76827,-0.359,0.756,0.528,4.847,20.481,-9.779,0,0
76892,-0.498,0.935,0.465,8.664,21.198,-5.481,0,0
76959,-0.498,0.824,0.45,3.779,5.771,1.244,0,0
77023,-0.399,0.835,0.403,3.863,20.672,-4.405,0,0
77076,-0.448,0.875,0.325,1.924,17.74,1.802,16,0
77129,-0.581,0.815,0.488,-4.038,17,3.634,16,0
77184,-0.435,0.836,0.381,-3,-0.565,-1.183,16,0
77237,-0.427,0.868,0.365,-0.55,7.061,-1.122,16,0
77290,-0.445,0.876,0.373,0.725,-0.939,-1.725,16,0
77355,-0.439,0.872,0.344,1.267,15.397,4.656,0,0
77418,-0.436,0.828,0.364,7.542,15.26,1.733,0,0
77471,-0.498,0.871,0.329,-4.115,-2.115,-1.115,16,0
77529,-0.469,0.931,0.408,5.023,-2.489,5.473,16,0
77582,-0.465,0.887,0.41,2.115,14.481,5.748,16,0
77635,-0.43,0.853,0.346,0.779,-11.481,-0.496,16,0
77689,-0.452,0.885,0.338,0.16,6.794,-2.534,18,0
77743,-0.402,0.898,0.356,-6.366,-3.832,-4.252,16,0
77796,-0.415,0.849,0.382,-0.718,5.71,-6.206,18,0
77850,-0.445,0.878,0.317,-1.183,-3.84,-9.382,16,0
77903,-0.486,0.879,0.355,-6.504,5.863,-0.664,16,0
77957,-0.387,0.85,0.333,-0.55,-0.962,-3.076,16,0
78014,-0.492,0.837,0.395,-2.038,0.496,-1.122,16,0
78067,-0.45,0.847,0.326,0.672,3.534,-1.817,16,0
78120,-0.486,0.917,0.343,-0.527,7.893,2.794,16,0
78175,-0.497,0.872,0.384,-4.977,5.969,5.107,16,0
78228,-0.43,0.822,0.345,-0.893,-2.611,2.031,16,0
78281,-0.487,0.83,0.373,-2.435,4.519,-1.718,16,0
78336,-0.473,0.878,0.367,-4.481,6.389,-7.58,16,0
78389,-0.51,0.877,0.399,-2.412,-4.282,-1.252,16,0
78442,-0.501,0.812,0.371,0.71,0.412,4.664,16,0
78499,-0.452,0.81,0.371,-2.985,-0.206,1.473,16,0
78553,-0.441,0.852,0.377,2.099,-1.366,-1.229,16,0
78607,-0.47,0.895,0.34,2.603,1.534,0.779,16,0
78660,-0.423,0.888,0.308,-2.092,-0.573,-0.504,16,0
78713,-0.427,0.865,0.325,2.817,-3.695,0.58,16,0
78768,-0.452,0.863,0.337,1.573,7.412,3.252,16,0
78821,-0.469,0.87,0.351,2.374,-2.298,2.26,18,0
78875,-0.452,0.869,0.381,3.634,0.008,3.832,16,0
78928,-0.396,0.893,0.275,3.55,-0.954,-0.328,16,0
78982,-0.434,0.91,0.33,-2.359,0.038,-5.153,16,0
79039,-0.463,0.888,0.34,2.58,1.29,-1.939,16,0
79104,-0.455,0.914,0.347,-0.656,-6.641,-0.901,0,0
79164,-0.489,0.85,0.381,-0.939,-1.947,2.122,16,0
79220,-0.463,0.843,0.336,0.618,-4.412,2.237,16,0
79273,-0.433,0.914,0.336,2.45,5.313,6.038,16,0
79337,-0.425,0.864,0.334,-2.382,0.527,7.58,0,0
79400,-0.419,0.864,0.344,-0.588,-2.26,0.489,0,0
79464,-0.398,0.909,0.301,-4.779,5.244,-4.901,0,0
79570,-0.445,0.875,0.36,-4.298,-5.458,-9.916,0,0
79627,-0.421,0.832,0.315,-9.901,-0.58,-21.45,17,0
79683,-0.444,0.943,0.311,-9.237,6,-18.473,17,0
79747,-0.503,0.877,0.417,-10.863,-1.328,-12.893,0,0
79800,-0.558,0.832,0.391,-2.076,0.29,-7.153,16,0
79856,-0.475,0.879,0.333,0.748,-6.405,2.084,16,0
79909,-0.475,0.814,0.36,-0.351,-1.321,7.359,16,0
79973,-0.434,0.823,0.296,-3.038,1.153,2.496,0,0
80029,-0.455,0.845,0.33,-0.618,-1.809,1.603,16,0
80082,-0.49,0.912,0.327,-1.351,4.527,4.275,16,0
80147,-0.532,0.812,0.446,3.992,3.481,12.618,16,0
80203,-0.431,0.82,0.38,10.817,-10.733,10.466,16,0
80267,-0.397,0.894,0.303,3.084,-0.588,3.26,0,0
80330,-0.455,0.919,0.335,1.351,1.031,1.733,0,0
80394,-0.422,0.882,0.348,0.809,-4.656,2.809,0,0
80451,-0.352,0.934,0.284,2.893,0.824,5.137,17,0
80515,-0.489,0.79,0.425,0.427,-5.344,-2.084,0,0
80571,-0.406,0.949,0.302,3.023,3.374,-0.557,17,0
80624,-0.365,0.905,0.31,-2.779,-3.855,-1.511,17,0
80688,-0.48,0.886,0.411,2.466,0.771,2.565,0,0
80744,-0.38,0.836,0.317,0.122,-1.763,-0.038,17,0
80807,-0.41,0.887,0.332,3.489,-1.794,-2.519,0,0
80871,-0.428,0.912,0.345,-1.038,-0.115,-2.626,0,0
80927,-0.385,0.939,0.271,3.977,1.656,-0.214,16,0
80980,-0.407,0.89,0.342,-2.038,-2.42,-3.496,16,0
81037,-0.425,0.885,0.338,3.244,3.153,0.397,16,0
81090,-0.411,0.888,0.336,-0.496,-1.832,-2.183,16,0
81146,-0.366,0.909,0.275,0.13,2.992,-3.29,16,0
81200,-0.459,0.936,0.341,-1.397,1.863,-1.267,16,0
81266,-0.389,0.896,0.33,-0.71,4.229,-0.351,0,0
81330,-0.38,0.933,0.261,0.435,4.076,-2.099,0,0
81393,-0.473,0.896,0.35,-1.389,-0.397,0.71,0,0
81457,-0.435,0.889,0.319,0,3.977,1.229,0,0
81520,-0.448,0.875,0.322,-4.351,1.511,1.458,0,0
81584,-0.412,0.875,0.318,-3.42,1.649,-0.641,0,0
81647,-0.411,0.913,0.31,-0.916,1.458,-0.794,0,0
81712,-0.407,0.855,0.319,-1.656,-3.344,-2.687,0,0
81775,-0.441,0.893,0.341,-0.244,-5.031,-3.924,0,0
81839,-0.458,0.882,0.329,-2.985,-1.221,-0.458,0,0
81895,-0.411,0.819,0.351,1.534,-0.275,-4.481,16,0
81951,-0.423,0.927,0.307,1.916,-1.763,-5.908,16,0
82015,-0.456,0.921,0.3,0.275,2.969,1.076,0,0
82072,-0.386,0.873,0.322,-0.267,-4.496,1.931,16,0
82125,-0.427,0.918,0.294,3.275,5.511,-1.595,16,0
82189,-0.393,0.914,0.281,-0.603,0.321,-2.137,0,0
82252,-0.419,0.907,0.278,-0.779,-1.023,0.427,0,0
82306,-0.431,0.906,0.306,3.153,0.466,1.962,16,0
82362,-0.426,0.9,0.287,-0.542,-0.099,0.924,16,0
82418,-0.409,0.91,0.285,1.405,1.252,-0.389,16,0
82476,-0.405,0.948,0.288,0.435,-1.107,-1.229,16,0
82572,-0.415,0.897,0.296,1.061,-2.863,-0.069,16,0
82625,-0.388,0.915,0.28,-0.45,-4.26,-0.336,16,0
82681,-0.38,0.918,0.274,-3.55,-0.26,-2.046,16,0
82735,-0.413,0.883,0.351,-3.901,-4.038,-2.718,16,0
82788,-0.402,0.92,0.283,3.863,2.779,1.473,16,0
82844,-0.391,0.912,0.274,-4.084,-0.473,0.885,16,0
82897,-0.388,0.918,0.286,-0.321,2.855,-0.74,16,0
82951,-0.437,0.921,0.325,-4.389,1.786,0.55,16,0
83008,-0.368,0.905,0.327,-1.847,2.237,-2.145,18,0
83061,-0.393,0.924,0.292,-2.336,-1.763,-4.626,16,0
83115,-0.438,0.909,0.313,-1.702,-1.214,-3.817,16,0
83168,-0.399,0.889,0.29,-2.649,-0.031,-2.29,16,0
83221,-0.401,0.889,0.296,-3.26,3.069,-4.557,16,0
83274,-0.402,0.921,0.312,-2,3,-4.099,16,0
83328,-0.438,0.925,0.311,-0.473,0.649,-2.321,16,0
83381,-0.411,0.899,0.282,-2.725,-0.466,1.802,16,0
83434,-0.382,0.901,0.299,-5.473,3.328,0.565,16,0
83490,-0.398,0.886,0.334,-3,0.664,-4.336,16,0
83544,-0.44,0.934,0.31,3.031,0.244,0.573,16,0
83597,-0.409,0.92,0.283,-2.977,-3.145,2.321,16,0
83660,-0.419,0.875,0.348,-2.282,2.298,3.115,0,0
83725,-0.379,0.885,0.25,3.328,1.191,1.908,0,0
83788,-0.406,0.946,0.279,1.458,-1.496,1.42,0,0
83852,-0.427,0.918,0.323,-1.84,-0.344,2.878,0,0
83916,-0.384,0.901,0.306,0.718,-0.191,-0.038,0,0
83980,-0.401,0.933,0.288,-1.359,-2.969,0.893,0,0
84057,-0.406,0.907,0.326,-2.466,-0.855,1.916,0,0
84122,-0.365,0.905,0.286,-1.099,2.015,1.55,0,0
84189,-0.344,0.922,0.279,-0.214,0.16,-1.084,0,0
84254,-0.403,0.926,0.323,-0.053,-0.855,-2.29,0,0
84321,-0.386,0.911,0.292,-1.542,3.237,-2.733,0,0
84387,-0.369,0.97,0.267,-2.718,0.847,-4.084,0,0
84453,-0.39,0.896,0.293,-1.008,-2.321,-2.489,0,0
84519,-0.388,0.938,0.283,0.756,1.061,1.053,0,0
84586,-0.364,0.912,0.284,-2.015,3.344,-0.015,0,0
84652,-0.357,0.927,0.299,-0.366,-0.061,-0.87,0,0
84721,-0.388,0.908,0.284,1.519,1.221,-1.267,0,0
84788,-0.372,0.963,0.276,-1.534,0.534,-1.802,0,0
84853,-0.382,0.907,0.283,-1.618,-3.145,-1.634,0,0
84920,-0.376,0.903,0.293,-0.664,-1.832,-3.489,0,0
84986,-0.391,0.966,0.278,-3.267,2.443,-4.779,0,0
85052,-0.381,0.931,0.282,-3.969,2.038,0.557,0,0
85118,-0.354,0.893,0.275,-4.221,-0.16,-4.45,0,0
85185,-0.42,0.933,0.305,-4.244,6.511,-1.901,0,0
85251,-0.414,0.856,0.319,-0.55,-1.58,0.359,0,0
85320,-0.403,0.941,0.295,-0.565,-3.573,0.664,0,0
85387,-0.419,0.903,0.322,-2.29,2.252,-1.695,0,0
85453,-0.405,0.897,0.319,-1.031,-2.344,1.489,0,0
85519,-0.374,0.915,0.283,0.313,-3.832,-3.802,0,0
85585,-0.436,0.906,0.328,-2.214,0.588,-0.412,0,0