Timestamp(ms),AccelX(g),AccelY(g),AccelZ(g),GyroX(deg/s),GyroY(deg/s),GyroZ(deg/s),DistanceLeft(cm),DistanceRight(cm)
55908,-0.313,-0.635,0.452,-31.992,77.115,-4.809,57,141
55967,-0.552,-1.205,0.498,-20.977,110.061,-15.779,0,138
56023,-1.168,-1.268,0.733,-10.641,137.878,-7.473,58,0
56082,-1.486,-0.844,0.964,6.58,35.168,6.779,0,132
56133,-0.6,0.201,0.395,27.679,-41.802,-17.695,44,136
56184,-0.475,1.035,0.332,-26.87,25.832,29.748,44,134
56232,-0.708,0.815,0.527,-51.756,-50.153,94.649,44,101
56285,-1.104,0.077,0.401,-36.053,-61.534,173.122,44,115
56333,-2,-0.518,0.505,-47.008,6.847,194.733,35,97
56379,-2,-0.989,0.713,-66.076,-48.58,219.977,34,64
56427,-2,-1.603,0.539,-60.634,-161.519,157.267,29,101
56475,-1.118,-1.549,-0.705,-1.702,-155.42,-7.145,32,107
56524,-0.11,-0.188,-0.554,-22.557,-16.359,-64.305,27,114
56573,0.249,0.067,-0.567,-24.718,-27.008,-31.641,29,118
56623,0.456,-0.48,-0.597,17.504,56.664,-89.427,29,116
56671,-0.3,-1.302,-0.025,40.519,145.87,-140.298,30,117
56718,-2,-1.713,0.87,83.824,250.13,-211.58,34,115
56768,-2,-0.608,1.502,119.374,164.679,-149.863,37,128
56819,-1.359,0.603,0.5,48.771,-49.489,-133.061,37,158
56881,-0.303,1.124,-0.284,25.74,-19.099,-43.573,0,155
56940,-0.201,1.524,0.343,18.618,47.595,121.473,0,128
56989,-1.267,0.574,0.917,-41.282,-26.252,250.13,39,111
57038,-2,-0.254,0.211,-95.626,77.489,210.092,39,106
57086,-2,-1.874,0.205,-138.221,26.511,189.29,35,106
57139,-1.334,-1.9,-0.74,-86.824,-198.893,13.725,38,113
57189,0.213,-0.453,-0.703,-91.916,-64.328,-94.435,39,119
57238,0.287,-0.269,-0.195,-70.305,35.45,-81.183,30,122
57287,0.375,-0.459,-0.125,-0.916,55.527,-76.198,16,123
57336,0.209,-0.755,0.092,57.954,50.053,-79.794,34,119
57385,-1.663,-1.802,0.256,145.29,24.008,-207.832,39,116
57446,-2,-1.093,-0.291,112.374,166.977,-116.031,0,138
57505,-2,-0.099,1.038,79.985,80.298,-12.023,0,134
57571,-0.385,1.139,-0.031,100.015,-244.908,12.718,0,165
57621,0.344,1.668,0.291,52.023,-54.992,102.74,18,157
57670,-1.079,0.768,1.223,-6.756,-83.84,250.13,18,126
57718,-2,0.274,1.118,-58.153,-38.702,219.954,16,116
57767,-2,-1.468,1.273,-105.71,-106.275,227.153,27,115
57817,-1.556,-1.632,0.189,-93.489,-229.71,106.397,16,128
57870,-0.274,-0.786,-0.38,-82.901,-72.58,9.786,25,0
57926,-0.134,-0.944,-0.257,-63.183,30.985,-27.939,10,0
57978,0.233,-0.571,-0.075,-20.389,16.672,-78.908,6,0
58035,0.005,-0.881,0.354,-22.71,29.527,-158.824,7,0
58098,-2,-2,1.79,-13.42,122.725,-225.748,0,0
58162,-1.066,-0.634,1.022,41.191,186.534,-163.725,0,0
58218,-0.93,0.911,0.195,46.779,109.55,-133.534,8,0
58271,-0.371,2,0.2,28.122,114.634,-30.893,11,0
58327,-0.92,1.348,1.547,12.542,21.481,178.229,10,0
58375,-1.376,0.667,1.184,-46.878,-30.382,250.13,11,114
58424,-2,-1.368,0.177,-176.305,250.13,250.13,32,107
58476,-2,-2,0.569,-170.756,-113.366,151.237,30,111
58579,0.453,-0.603,-0.941,-70.053,-250.137,-18.947,0,151
58631,0.884,-0.913,-0.958,-11.26,72.878,-65.282,10,167
58694,-0.279,-0.801,0.359,47.725,14.321,-161.679,0,0
58758,-1.757,-0.554,1.305,-4.229,-17.237,-250.137,0,0
58812,-1.611,-0.683,2,32.84,79.26,-70.015,30,0
58868,-0.377,0.145,0.591,54.427,-113.489,-93.725,7,0
58921,0.081,0.998,-0.109,31.824,11.084,-69.26,7,0
58978,-0.138,1.684,0.637,32.603,68.282,41.252,9,0
59033,-0.713,0.465,1.7,70.191,-142.557,188.42,8,0
59089,-1.56,-0.571,2,17.511,8.649,182.863,7,0
59143,-2,-1.535,2,12.321,-52.802,194.13,17,0
59199,-0.59,-1.14,0.161,-9.641,-125.641,74.221,11,0
59252,-0.095,-0.965,-0.536,-56.588,132.748,33.435,9,0
59309,0.18,-1.043,-0.671,-61.275,145.481,-48.076,5,0
59361,0.481,-0.854,-0.428,-65.359,193.466,-167.542,6,0
59417,-0.863,-2,0.469,-86.588,231.756,-250.137,4,0
59482,-2,-2,0.544,66.481,250.13,-139.679,0,0
59548,-1.57,0.23,0.861,103.992,35.443,-48.046,0,0
59601,-0.104,1.949,0.049,93.412,-5.412,19.16,16,0
59665,-0.527,1.954,0.756,46.481,45.046,134,0,0
59715,-1.643,0.764,0.748,-76.588,16.107,250.13,41,113
59764,-2,-0.455,-0.256,-149.527,43.252,231.977,45,108
59813,-2,-2,-0.499,-245.107,37.519,213,33,111
59864,-1.227,-2,-0.773,-138.786,-250.137,67.496,39,119
59915,0.494,-0.828,-0.949,-60.718,-161.55,-7.771,35,128
59967,0.812,-0.871,-0.835,-22.817,77.954,-43.969,16,129
60016,0.29,-1.129,-0.172,30.588,158.191,-110.664,16,125
60076,-0.257,-1.402,0.111,92.053,100.962,-228.679,0,119
60135,-2,-1.021,-0.287,147.366,207.191,-250.137,0,115
60195,-2,-0.002,0.684,109.565,250.13,-90.802,0,145
60257,-0.886,0.786,0.146,96.046,-122.672,-45.809,0,148
60310,0.023,2,0.01,78.176,20.168,-1.916,17,0
60359,-1.092,1.728,0.919,-45.664,56.664,241.168,16,126
60409,-2,0.69,0.374,-179.573,-7.282,250.13,43,110
60462,-2,-0.828,-0.853,-250.137,56.244,193.466,44,106
60521,-2,-1.867,-0.41,-235.42,-183.87,144.595,0,113
60571,0.125,-0.696,-1.039,-123.405,-184.588,35.779,38,121
60631,0.686,-0.603,-0.818,-66.947,21.405,27.992,0,124
60691,0.307,-0.809,-0.14,18.267,95.244,-20.282,0,121
60740,-0.803,-1.642,-0.02,127.13,49.557,-80.084,37,116
60800,-2,-1.251,-0.343,139.893,249.466,-155.427,0,112
60855,-2,-0.194,0.533,191.427,36.16,-148.939,0,43
60913,-0.625,1.102,-0.548,154.153,-46.748,-142.122,0,42
60968,-0.007,1.247,-0.185,89.191,44.183,-70.74,0,45
61023,-0.288,2,0.846,36.832,35.397,6.885,0,46
61082,-1.49,1.244,1.166,-73.45,-47.366,215.153,0,111
61132,-2,0.119,-0.309,-153.733,51.679,194.939,45,107
61191,-2,-1.553,-0.348,-241.931,-143.977,155.786,0,113
61241,-0.392,-1.206,-1.338,-137.427,-250.137,9.786,30,122
61291,0.733,-0.471,-1.079,-98.626,-49.168,-3.374,16,129
61387,0.249,-1.348,-0.384,26.885,129.733,-84.206,28,123
61447,-0.284,-1.886,-0.014,98.198,101.87,-230.893,0,116
61506,-2,-1.524,-1.084,157.298,250.13,-229.321,0,112
61565,-2,0.269,1.251,128.702,98.481,-72.565,0,123
61626,-0.233,1.143,-0.259,89.656,-101.122,-33.351,0,138
61686,-0.15,1.667,0.306,34.641,69.282,36.405,0,129
61746,-1.353,1.456,1.535,-73.641,-47.252,188.458,0,114
61796,-2,0.631,-0.079,-147.481,-70.13,250.13,42,110
61855,-2,-0.626,-1.159,-219.359,-25.489,213.061,0,110
61908,-2,-1.979,-1.32,-218.779,-250.137,127.26,40,121
61960,0.536,-1.167,-1.35,-114,-220.458,18.405,30,130
62010,1.051,-1.229,-1.236,-62.672,39.969,-21.206,16,144
62060,0.414,-1.035,-0.528,39.038,220.229,-84.557,28,129
62111,-0.25,-1.223,0.022,110.573,107.908,-177.031,39,123
62171,-2,-2,-1.169,178.611,183.58,-250.137,0,115
62230,-2,-1.172,-0.421,153.267,250.13,-138.366,0,123
62295,-1.811,0.421,0.491,134.71,-37.947,-110.099,0,0
62362,-0.372,1.252,-0.16,65.26,-10.412,-5.092,0,0
62423,-1.245,1.67,0.98,-8.221,76.359,146.786,0,125
62482,-1.564,0.76,0.588,-110.824,-109.748,250.13,0,111
62532,-2,-0.408,-0.968,-211.527,70.908,233.313,46,108
62592,-2,-1.926,-0.281,-246.412,-223.206,155.771,0,117
62643,0.29,-0.974,-1.307,-128.969,-247.496,4.718,38,128
62703,0.867,-0.763,-1.054,-105.931,38.695,-8.74,0,131
62754,0.385,-0.92,-0.478,-11.282,214.305,-55.954,38,128
62812,-0.221,-1.799,0.139,93.74,75.603,-169.511,40,120
62868,-2,-2,-1.672,213.916,174.603,-250.137,0,115
62926,-2,-0.62,-0.178,148.641,250.13,-86.534,0,118
62987,-1.376,0.427,-0.025,108.176,-143.611,-61.855,0,137
63046,0.127,1.12,-0.191,85.802,16.031,38.122,0,133
63105,-0.821,1.899,1.417,35.282,57.176,98.679,0,120
63163,-1.364,1.05,0.729,-97.344,-124.992,250.13,0,113
63213,-2,0.032,-1.015,-202.954,64.565,194.511,43,110
63271,-2,-1.189,-0.399,-250.137,-153.397,141.58,0,116
63334,-0.287,-1.228,-1.709,-145.397,-250.137,36.855,0,128
63384,0.899,-0.943,-1.256,-98.237,39.542,40.084,30,132
63433,0.504,-0.957,-0.68,-11.908,199.481,-13.939,26,129
63492,-0.117,-1.687,-0.054,78.137,131.886,-123.954,0,122
63542,-1.715,-2,-1.508,212.534,129.153,-250.137,43,115
63600,-2,-1.153,-1.599,177.74,250.13,-172.84,0,113
63660,-2,0.446,0.403,150.031,-83.718,-86.573,0,133
63720,0.02,1.271,-0.342,130.992,-80.046,1.038,0,137
63782,-0.234,2,0.583,82.145,124.611,71.244,0,125
63841,-1.524,1.42,1.316,-135.71,-42.725,247.527,0,114
63890,-2,0.145,-0.831,-220.481,7.466,200.748,43,109
63948,-2,-0.93,-1.111,-250.137,-129.466,157.916,0,114
64008,-0.86,-1.48,-1.777,-172.061,-250.137,77.756,0,125
64068,0.821,-1.025,-1.072,-109.527,-16,20.794,0,130
64128,0.695,-1.287,-0.63,13.855,132.962,-88.214,0,128
64177,-0.076,-1.411,-0.05,117.718,130.29,-211.389,38,121
64279,-2,-1.556,-1.341,155.527,250.13,-192.534,0,114
64340,-2,0.371,0.501,123.443,10.74,-88.519,0,121
64405,-0.311,1.111,-0.042,74.076,-115.557,-19.389,0,0
64463,-0.348,1.91,0.41,41.756,117.679,64.412,0,125
64523,-1.971,1.339,1.451,-108.931,-58.16,250.13,0,114
64581,-2,-0.267,-0.955,-187.107,-49.809,221.183,0,109
64640,-2,-2,-0.983,-250.137,-15.618,124.557,0,113
64699,-0.622,-1.567,-2,-135.458,-250.137,20.763,0,124
64749,0.876,-0.677,-0.985,-95.328,-14.511,22.802,27,129
64812,0.603,-0.971,-0.332,-17.427,124.947,-8.733,0,128
64871,0.312,-1.34,-0.026,86.427,28.221,-168.931,0,122
64920,-1.846,-2,-1.638,152.977,242.473,-250.137,36,116
64979,-2,-1.488,-1.118,137.015,250.13,-113.542,0,115
65039,-2,0.414,0.326,134.962,-89.786,-64.74,0,131
65100,0.055,1.123,-0.209,105.916,-2.382,43.679,0,151
65161,-0.389,1.52,0.631,66.55,91.511,62.298,0,143
65209,-1.229,1.555,1.362,-122.206,-109.916,222.87,16,117
65261,-2,0.65,-0.837,-206.893,31.153,228.237,44,111
65319,-2,-0.896,-1.275,-250.137,-10.443,145.221,0,111
65380,-1.7,-1.482,-1.666,-230.176,-250.137,64.443,0,123
65430,0.896,-0.626,-1.219,-113.527,-105.321,34.038,30,130
65479,0.97,-1.237,-1.24,-34.038,106.374,-1.374,25,130
65529,0.321,-1.596,-0.519,42.137,160.779,-119.13,38,125
65589,-0.928,-2,-0.493,128.015,131.481,-247.573,0,116
65647,-2,-1.398,-1.533,159.504,250.13,-206.252,0,113
65708,-2,0.413,0.882,149.908,19.435,-86.55,0,130
65774,-0.365,1.172,0.094,73.962,-62.42,2.115,0,0
65833,-0.183,0.967,0.237,73.886,50.153,58.855,0,125
65893,-1.207,1.415,1.507,-11.115,-35.618,156.634,0,119
65942,-2,1.374,0.002,-173.992,-69.313,250.13,41,112
66000,-2,-0.636,-1.01,-250.137,18.008,180.267,0,112
66051,-2,-1.384,-1.493,-250.137,-250.137,65.588,37,121
66102,0.635,-0.987,-1.74,-115.878,-202.275,21.427,38,130
66152,0.702,-1.179,-1.181,-38.588,71.29,30.45,36,133
66205,0.365,-1.145,-0.634,54.244,178.099,-53.397,37,129
66265,-0.047,-1.626,-0.339,106.748,111.695,-190.679,0,122
66324,-2,-1.43,-1.577,198.58,250.13,-250.137,0,115
66383,-2,-0.321,0.18,175,250.13,-124.198,0,127
66448,-1.421,0.736,0.366,112.008,-132.336,-88.038,0,0
66511,0.042,1.207,-0.352,84.893,67.031,32.168,0,0
66571,-1.41,1.861,1.418,-17.023,80.084,164.374,0,120
66621,-2,0.858,0.331,-165.901,-159.023,250.13,44,112
66671,-2,-0.355,-1.417,-232.634,18.458,184.809,45,109
66733,-2,-1.562,-0.326,-250.137,-250.137,113.893,0,117
66783,0.321,-0.967,-1.719,-136.718,-250.137,22.985,28,127
66833,0.969,-0.69,-1.32,-80.473,16.443,46.023,26,131
66883,0.451,-1.19,-1.042,5.695,171.435,-20.084,36,128
66942,-0.144,-1.807,-0.398,63.397,110.015,-129.237,0,121
67002,-1.932,-2,-1.476,175.366,220.573,-250.137,0,114
67061,-2,-0.843,-0.697,218.191,250.13,-129.069,0,115
67169,-0.135,1.271,-0.122,110.305,-106.595,-20.13,0,0
67231,-0.084,1.631,0.021,68.695,137.092,47.756,0,131
67291,-1.848,1.616,1.458,-106.443,5.008,226,0,114
67341,-2,0.021,-0.796,-216.969,-56.435,205.534,46,109
67399,-2,-1.112,-1.395,-250.137,-148.084,150.779,0,112
67450,-1.382,-1.998,-1.664,-182.145,-250.137,64.336,42,122
67501,0.64,-0.874,-1.142,-72.779,-157.427,20.664,27,130
67551,0.901,-1.051,-1.194,-9.489,67.954,5.634,36,133
67601,0.36,-0.896,-0.36,50.015,170.473,-67.595,30,129
67663,-0.078,-1.222,0.026,78.344,74.046,-198.664,0,122
67723,-2,-0.895,-0.956,181.443,250.13,-250.137,0,116
67782,-2,-0.238,0.6,145.405,250.13,-103.336,0,118
67843,-1.278,0.513,0.312,95.603,-119.099,-113.977,0,133
67903,-0.367,1.354,-0.052,44.573,20.26,23.855,0,137
67962,-1.221,1.591,1.33,-24.053,44.679,151.855,0,118
68013,-1.764,0.856,0.398,-147.863,-129.687,250.13,44,112
68063,-2,-0.264,-1.266,-219.748,1.847,194.176,45,108
68122,-2,-1.785,-0.76,-250.137,-193.916,139.489,0,114
68175,-0.249,-1.23,-1.555,-156.092,-250.137,26.099,30,125
68226,0.848,-0.73,-1.149,-93.969,-71.832,27.13,30,131
68276,0.856,-1.027,-1.319,-4.748,139.931,-4.779,31,130
68327,0.216,-1.26,-0.546,50.962,222.267,-109.053,36,124
68385,-0.813,-1.917,-0.457,132.244,172.298,-250.137,0,114
68445,-2,-2,-1.675,173.527,250.13,-164.481,0,113
68505,-2,0.281,0.633,181.13,-16.702,-64.672,0,132
68566,-0.334,1.257,-0.179,119.298,-64.763,-11.931,0,135
68629,-0.25,2,0.427,67.336,114.427,67.527,0,124
68688,-1.456,1.446,1.477,-109.466,-77.87,210.298,0,115
68739,-2,0.074,-0.841,-220.962,-0.573,168.511,44,108
68797,-2,-1.121,-1.216,-250.137,-152.878,137,0,109
68847,-1.026,-1.094,-1.518,-195.214,-250.137,29.183,31,116
68897,0.269,-0.406,-1.069,-135.87,-178.092,14.672,30,122
68946,0.527,-0.98,-1.014,-66.153,-38.351,18.359,16,125
68996,0.439,-1.434,-0.849,12.008,96.924,-40.924,17,121
69048,-0.88,-2,-0.428,101.435,147.618,-180.603,16,114
69097,-2,-1.906,-0.294,135.527,250.13,-214.412,31,111
69147,-2,-0.322,1.028,157.374,250.13,-112.969,43,113
69198,-1.429,0.715,0.078,157.725,-91.74,-124.886,43,132
69254,-0.22,1.396,-0.236,82.954,-23.733,-36.634,36,0
69309,-0.403,1.688,0.792,15.977,32.267,74.718,36,0
69359,-1.147,1.016,1.396,-49.588,-123.634,195.168,44,123
69409,-2,0.179,0.274,-123.206,-151.45,209.664,30,116
69462,-2,-1.232,-0.024,-181.916,-117.763,170.389,30,113
69512,-1.802,-1.453,-0.378,-156.595,-250.137,102.779,29,128
69563,0.005,-0.783,-0.806,-92.084,-137.107,55.344,27,135
69613,0.184,-0.988,-0.502,-30.962,40.29,57.069,25,136
69662,0.147,-1.202,-0.452,31.84,42.29,-43.718,9,128
69713,0.114,-1.138,-0.239,54.679,21.008,-146.16,37,126
69778,-1.141,-1.868,-0.739,61.527,166.427,-250.137,0,0
69829,-2,-1.229,-0.489,104.496,250.13,-138.481,45,134
69934,-1.189,0.789,0.258,110.29,-8.618,-78.718,0,140
69997,-0.44,1.876,0.331,70.748,90.809,20.878,0,139
70064,-1.445,1.448,1.542,-84.664,-35.641,220.947,0,114
70113,-2,0.261,-0.712,-178.969,-7.435,219.718,45,107
70171,-2,-1.166,-1.149,-250.137,-17.29,212.74,0,108
70220,-1.958,-1.33,-1.256,-239.908,-250.137,98.763,39,117
70270,0.39,-0.584,-1.456,-138.71,-215.649,28.527,37,126
70321,0.857,-0.822,-1.278,-109.832,48.939,67.878,38,130
70369,0.525,-1.26,-0.885,-18.427,182.13,-16.122,16,126
70421,-0.034,-1.787,-0.266,85.42,162.985,-152.634,28,119
70471,-1.825,-2,-1.903,213.458,216.962,-250.137,43,112
70530,-2,-1.297,-1.634,189.573,250.13,-184.489,0,111
70589,-2,0.501,0.429,162.893,63.603,-61.13,0,131
70652,-0.573,1.172,0.162,109.504,-63.374,0.71,0,0
70716,-0.223,1.715,0.515,78.282,-22.489,76.611,0,0
70774,-1.177,1.362,1.24,-56.282,-50.214,230.687,0,114
70824,-2,0.36,-0.745,-157.115,-1.122,211.763,46,108
70883,-2,-0.573,-0.926,-250.137,-137.542,212.695,0,111
70931,-1.748,-1.407,-1.513,-237.931,-250.137,120.282,38,122
70981,0.28,-0.745,-1.221,-136.603,-147.672,45.252,36,131
71031,0.669,-1.187,-1.216,-96.527,14.908,44.924,29,134
71080,0.518,-1.327,-0.971,-3.359,163.145,-47.153,16,132
71130,-0.135,-1.373,-0.176,61.649,184.489,-172.496,16,124
71188,-1.924,-2,-1.287,175.962,178.611,-250.137,0,115
71247,-2,-1.314,-1.545,209.046,250.13,-172.901,0,114
71311,-2,0.464,0.515,170.115,11.847,-101.603,0,0
71378,-0.19,1.459,-0.096,101.733,-73.015,-26.122,0,0
71439,-0.407,1.547,0.399,45.397,118.099,76.099,0,140
71497,-1.362,1.185,1.369,-80.672,-53.389,222.74,0,116
71547,-2,0.571,-0.944,-162.618,1.908,202.153,46,109
71606,-2,-1.322,-1.377,-250.137,-59.786,179.145,0,111
71665,-1.16,-1.999,-1.638,-191.832,-250.137,87.42,0,124
71716,0.522,-0.907,-0.81,-89.634,-124.595,8.313,37,132
71767,0.774,-1.032,-0.896,-21.153,18.74,-20.191,36,135
71820,0.385,-0.982,-0.418,59.076,113.886,-112.557,16,132
71868,-0.001,-1.003,-0.162,111.985,98.916,-213.916,38,89
71924,-1.888,-1.646,-1.363,160.664,184.191,-250.137,0,80
71984,-2,-1.117,-0.806,75.893,250.13,-116.267,0,117
72048,-2,-0.107,0.908,84.908,50.634,-32.947,0,0
72109,-0.226,0.827,0.068,71.855,-86.656,3.252,0,147
72158,-0.197,1.602,0.468,24.237,36.702,42.832,16,127
72208,-0.882,1.448,1.041,-62.71,-17.733,153.634,50,118
72258,-1.937,0.605,0.058,-144.031,-75.26,222.481,48,109
72320,-2,-0.896,-1.079,-215.901,49.366,165.893,0,106
72379,-2,-1.948,-1.014,-240.939,-250.137,130.489,0,114
72429,-0.25,-1.242,-0.937,-141.886,-203.771,28,31,124
72479,0.353,-0.639,-0.592,-88.008,-107.29,5.313,29,131
72529,0.677,-0.535,-0.776,-18.031,-8.382,20.252,31,133
72581,0.498,-0.613,-0.408,75.702,114.183,-29.924,37,130
72640,0.015,-0.925,0.031,109.328,114.481,-144.992,0,123
72742,-2,-1.579,-0.868,158.389,250.13,-97.832,0,115
72805,-1.666,0.452,0.391,151.939,-125.763,-69.573,0,120
72864,0.098,1.558,-0.114,95.458,-52.985,-30.634,0,124
72916,-0.015,1.352,0.303,0.313,81.023,40.344,51,128
72967,-0.905,1.238,0.874,-121.267,-15.397,119.389,50,115
73017,-2,0.171,-0.407,-191.954,-18.275,173.603,50,108
73067,-2,-1.491,-1.214,-229.366,-26.534,82.824,51,107
73125,-2,-1.98,-0.933,-171.687,-250.137,82.45,0,114
73176,-0.333,-1.33,-0.785,-58.42,-201.985,2.756,31,123
73230,0.308,-1.013,-0.422,1.198,-94.214,-8.885,30,131
73289,0.434,-0.542,-0.482,102.13,-43.511,-42.031,0,136
73340,0.301,0.017,-0.438,200.313,-52.214,-72.626,36,136
73393,0.388,0.799,-0.338,208.45,-30.031,-46.885,36,145
73443,-0.848,-0.042,-0.448,178.328,160.153,-199.74,42,123
73493,-2,-2,0.511,-13.573,250.13,-17.725,43,113
73543,-2,-1.541,1.243,180.863,-250.137,-89.779,40,116
73593,1.082,2,-1.629,114.458,18.908,-118.534,39,119
73644,-1.124,2,0.096,-165.176,195,54.206,41,114
73697,-0.83,-0.334,-0.213,-166.557,-125.237,103.015,45,108
73746,-1.807,-2,-0.781,-132.886,179.649,13.366,42,102
73795,-2,-2,0.815,-101.397,34.221,-58.969,36,101
73844,-1.179,-0.145,0.077,-56.931,-94.366,-136.725,36,103
73894,-1.735,-0.141,0.323,-38.397,85.359,25.618,45,106
73954,-0.557,-0.746,0.177,53.504,-199.511,91.435,0,111
74003,1.428,-0.623,-1.165,37.313,-68.412,-7.58,38,113
74053,-1.391,-0.744,0.649,-145.244,250.13,-103.931,42,107
74106,-1.996,0.231,1.3,3.58,-129.855,-81.168,44,106
74156,-0.06,1.167,-0.075,-101.794,19.473,26.84,37,111
74205,-1.183,-0.803,-0.014,-109.985,-6.16,52.679,32,103
74254,-0.899,-2,-0.865,-65.458,-32.534,23.611,33,102
74303,-1.295,-2,0.239,-9.74,64.55,-42.969,33,101
74352,-1.2,0.099,0.116,58.687,-90.382,-93.916,34,104
74401,-1.34,-0.231,-0.296,56.221,-3.87,53.206,34,108
74450,0.075,-0.722,0.053,53.321,-135.122,29.191,31,111
74503,0.476,0.626,-0.934,-17.298,70.099,-2.153,30,111
74553,-2,-0.405,-0.066,-85.588,125.008,52.267,36,107
74602,-1.949,-1.266,1.005,-51.649,-53.809,92.725,31,106
74651,-0.93,-0.745,0.591,66.702,-55.87,75.695,30,109
74700,-1.514,0.514,0.131,43.344,-47.893,104.954,30,112
74750,-1.588,-0.089,0.225,22.595,-87.252,183.672,31,117
74801,-1.241,-1.053,0.921,88.511,-103.847,204.015,32,124
74856,-0.341,-0.1,0.009,141.565,-122.374,151.092,36,0
74910,0.318,0.809,-0.992,20.29,-17.679,65.206,32,0
74964,-0.666,-0.354,0.879,-70.359,45.824,-13.504,33,145
75017,-0.918,0.044,1.597,11.031,-49.275,-50.542,31,161
75072,-0.588,0.717,0.179,51.046,13.969,-19.718,33,0
75126,-1.113,0.563,0.331,39.74,-13.366,25.947,37,0
75182,-0.731,0.321,0.844,13.786,-10.756,29.885,36,0
75236,-0.65,0.454,0.307,18.641,-16.107,-19.832,37,0
75290,-0.812,0.478,0.353,-27.26,-1.282,-31.374,31,0
75398,-0.824,0.317,0.672,15.603,-17.206,37.962,0,0
75453,-1.106,0.402,0.681,44.748,-12.366,66.763,32,0
75510,-0.777,0.489,0.801,62.076,-56.191,96.137,33,0
75566,-0.562,0.519,0.583,77.176,-46.641,95.511,39,0
75619,-0.473,0.556,0.229,58.107,-82.16,66.817,16,0
75673,-0.267,0.798,0.044,49.672,-16.038,43.832,16,0
75726,-0.408,0.865,0.455,25.229,12.718,29.573,16,0
75780,-0.329,0.816,0.63,6.015,-9.87,1.092,16,0
75834,-0.294,0.926,0.324,10.45,5.282,-6.473,32,0
75898,-0.566,0.814,0.522,1.794,1.763,1.786,0,0
75953,-0.396,0.748,0.712,5.771,-10.878,-2.076,16,0
76019,-0.473,0.747,0.608,41.435,-32.137,2.008,0,0
76075,-0.308,0.867,0.102,53.076,-20.282,27.763,36,0
76129,-0.152,0.786,0.188,25.702,-1.298,13.756,16,0
76192,-0.468,0.851,0.638,12.756,22.458,-3.641,0,0
76248,-0.397,1.024,0.446,45.366,-12.977,23.588,33,0
76302,-0.246,1.026,0.367,11.389,-10.168,13.534,35,0
76357,-0.297,0.948,0.333,-0.809,-0.031,-7.763,38,0
76422,-0.399,1.043,0.224,13.305,-2.687,11.023,0,0
76486,-0.267,0.969,0.342,-15.282,-0.244,-4.954,0,0
76554,-0.478,0.946,0.473,-32.496,-3.344,-24.313,0,0
76618,-0.316,0.924,0.49,-25.733,-21.412,-11.122,0,0
76683,-0.309,0.658,0.411,0.511,-3.939,12.252,0,0
76753,-0.137,0.715,0.287,35.061,-11.466,14.656,0,0
76808,-0.258,0.931,0.28,19.863,2.092,10.962,33,0
76871,-0.321,0.946,0.432,21.679,6.023,4.458,0,0
76935,-0.298,1.158,0.357,12.855,7.176,7.336,0,0
76998,-0.264,0.928,0.346,2.351,7.099,10.168,0,0
77051,-0.262,0.906,0.329,6.687,4.893,9.42,36,0
77109,-0.315,0.881,0.376,14.13,4.328,15.359,37,0
77163,-0.224,0.936,0.236,31.412,4.473,22.244,33,0
77217,-0.218,0.945,0.284,25.672,-6.908,15.763,32,0
77271,-0.261,1.029,0.275,19.519,7.046,8.038,31,0
77324,-0.198,1.051,0.24,11.359,-5.198,8.069,31,0
77378,-0.185,1,0.226,7.458,-6.275,3.962,32,0
77431,-0.244,0.988,0.295,11.366,2.153,12.847,32,0
77489,-0.07,0.907,0.163,24.176,-4.847,11.626,16,0
77541,-0.165,1.036,0.124,23.26,-9.336,4.015,16,0
77598,-0.079,1.012,0.149,7.16,-2.527,-9.115,16,0
77655,-0.101,1.184,0.058,-7.977,-3.626,-36.71,17,0
77711,-0.404,1.366,0.136,0.038,13.206,1.153,16,0
77774,-0.09,0.965,0.261,-11.893,2.115,10.824,0,0
77829,-0.128,0.8,0.05,-17.954,1.832,-14.183,33,0
77882,-0.306,0.869,0.293,-13.298,7.466,-6.763,33,0
77936,-0.092,1.042,0.12,14.252,4.038,-0.107,33,0
77990,-0.333,0.95,0.315,0.336,3.519,2.084,33,0
78044,-0.252,0.978,0.205,0.863,1.313,-0.702,32,0
78098,-0.167,1.195,0.093,5.748,7.695,1.038,32,0
78155,-0.266,1.079,0.292,-11.534,7.55,4.344,33,0
78209,-0.243,0.888,0.338,-11.351,-0.176,-8.282,37,0
78305,-0.219,0.934,0.224,-15.038,5.817,-11.779,16,0
78369,-0.196,0.9,0.25,6.397,-13.931,2.969,0,0
78423,-0.177,0.891,0.152,13.122,13.42,-0.42,16,0
78475,-0.286,0.989,0.235,14.611,-8.13,2.069,18,0
78529,-0.107,1.143,0.049,13.718,15.198,14.611,38,0
78594,-0.186,1.032,0.101,-7.763,14.321,7.611,0,0
78657,-0.312,1.087,0.391,9.366,5.145,6.229,0,0
78714,-0.19,1.045,0.152,-20.672,6.473,1.366,37,0
78769,-0.291,0.808,0.286,-0.053,2.901,2.145,38,0
78823,-0.147,0.918,0.234,8.924,-0.443,-4.786,37,0
78877,-0.297,0.935,0.295,-0.595,-2.763,-7.031,38,0
78931,-0.185,1.058,0.12,8.626,-4.939,0.435,34,0
78986,-0.181,1.118,0.223,-9.771,-8,-8.702,34,0
79039,-0.23,1.083,0.166,5.405,-0.137,-0.634,33,0
79093,-0.185,1.043,0.141,-5.84,-1.359,7.786,33,0
79148,-0.185,0.831,0.282,-6.397,2.573,6.13,34,0
79202,-0.208,0.922,0.21,11.786,2.412,4.267,33,0
79257,-0.126,0.941,0.147,-2.023,8.504,1.885,34,0
79321,-0.297,0.999,0.326,1.26,19,-9.359,0,0
79384,-0.158,1.116,0.228,-0.794,-7.389,-2.481,0,0
79439,-0.212,0.932,0.108,6.176,5.878,4.137,38,0
79494,-0.163,0.987,0.183,-9.191,3.656,-3.145,37,0
79557,-0.277,1.052,0.347,1.649,2.527,-2.221,0,0
79611,-0.125,1.118,0.021,-18.206,10.053,-4.122,37,0
79676,-0.196,1.019,0.251,-29.237,4.344,-26.771,0,0
79739,-0.374,1.044,0.432,-10.183,-9.748,-5.931,0,0
79807,-0.127,0.743,0.175,1.603,-10.618,5.298,0,0
79861,-0.253,0.791,0.245,5.038,6.916,-1.328,36,0
79925,-0.227,0.972,0.266,9.046,14.366,4.443,0,0
79988,-0.126,1.072,0.142,8.412,4.282,7.756,0,0
80053,-0.23,1.045,0.243,8.832,15.16,13.603,0,0
80116,-0.25,1.008,0.243,0.092,14.824,6.542,0,0
80180,-0.168,1.005,0.144,-2.237,12.053,-4.84,0,0
80244,-0.257,1.106,0.288,-9.847,6.145,-2.511,0,0
80308,-0.176,0.946,0.194,-0.55,-1.771,0.885,0,0
80375,-0.223,0.909,0.199,-4.42,5.008,-5.275,0,0
80439,-0.278,0.902,0.361,4.634,-7.802,-0.702,0,0
80503,-0.187,1.024,0.201,9.458,-2.702,3.58,0,0
80567,-0.228,0.926,0.198,4.221,15.298,3.695,0,0
80630,-0.15,1.167,0.165,2.771,10.008,-4.458,0,0
80695,-0.262,0.982,0.331,-12.244,3.321,1.595,0,0
80758,-0.229,0.865,0.238,6.427,3.695,4.137,0,0
80823,-0.233,0.907,0.208,11.756,16.061,3.855,0,0
80886,-0.171,1.01,0.168,16.382,6.237,9.939,0,0
80950,-0.295,0.934,0.428,2.153,-8.595,-5.55,0,0
81017,-0.17,1.28,0.068,7.511,2.305,-4.229,0,0
81082,-0.141,1.035,0.208,-12.466,-5.924,5.87,0,0
81145,-0.214,0.884,0.244,2.13,-9.931,2.779,0,0
81201,-0.163,0.925,0.126,0.252,5.405,0.702,38,0
81255,-0.119,1.027,0.09,7.183,14.382,7.321,38,0
81352,-0.165,0.984,0.213,8.061,11.008,4.061,33,0
81406,-0.208,1.068,0.173,2.802,7,2.382,34,0
81461,-0.21,1.055,0.164,-8.321,14.939,3.084,37,0
81525,-0.152,1.063,0.204,-2.328,1.008,-9.069,0,0
81583,-0.207,1.158,0.083,-5.168,6.664,-3.588,33,0
81637,-0.202,0.885,0.242,-14.298,-8.924,-3.489,35,0
81692,-0.132,0.936,0.1,-1.305,-0.947,-10.015,33,0
81746,-0.26,1.033,0.171,-13.16,9.351,-5.809,33,0
81801,-0.259,0.956,0.346,-4.053,0.374,0.977,36,0
81855,-0.162,1.036,0.084,13.695,-8.267,7.305,33,0
81909,-0.165,0.948,0.113,-11.206,9.855,2.634,33,0
81965,-0.29,0.847,0.405,-11.603,5.939,-10.618,33,0
82019,-0.264,1.129,0.251,9.237,-7.748,-4.229,34,0
82073,-0.175,1.049,0.213,-6.794,4.16,3.412,33,0
82130,-0.245,0.864,0.213,6.099,3.412,0.191,33,0
82185,-0.178,0.986,0.218,-5.443,-5.679,-6.359,33,0
82240,-0.238,0.958,0.269,0.542,5.282,-2.687,38,0
82304,-0.195,1.059,0.199,4.466,-0.298,0.137,0,0
82368,-0.236,0.919,0.253,2.305,0.672,6.275,0,0
82422,-0.215,1.01,0.194,8.183,1.901,6.221,33,0
82487,-0.113,1.071,0.109,-3.221,8.947,1.504,0,0
82550,-0.289,1.024,0.286,-0.756,-6.221,0.038,0,0
82606,-0.13,1.042,0.14,-4.374,8.153,1.702,37,0
82673,-0.153,0.957,0.159,1.008,3.908,-0.71,0,0
82737,-0.231,0.961,0.229,-1.71,2.756,-0.916,0,0
82801,-0.223,0.969,0.236,0.534,6.557,-3.305,0,0
82866,-0.19,1.042,0.177,1.336,5.878,-0.023,0,0
82929,-0.209,0.975,0.202,0.748,0.176,-0.473,0,0
82994,-0.193,0.963,0.19,3.42,1.351,1.565,0,0
83058,-0.193,0.987,0.206,0.221,1.099,3.145,0,0
83122,-0.179,1.038,0.196,7.885,-3.885,1.565,0,0
83186,-0.163,1.044,0.14,-1.878,-2.435,-3.275,0,0
83251,-0.196,1.097,0.155,-8.031,9.336,-5.137,0,0
83318,-0.193,1.016,0.26,-1.908,-1.137,-0.664,0,0
83383,-0.288,0.934,0.188,-6.55,7.527,2.618,0,0
83446,-0.183,0.791,0.278,-0.023,3.305,0.046,0,0
83511,-0.21,1.023,0.163,9.427,2.771,0.992,0,0
83565,-0.181,0.982,0.198,0.573,-2.618,2.489,32,0
83630,-0.208,1.017,0.208,2.588,0.573,-2.924,0,0
83694,-0.224,1.105,0.175,5.191,0.321,3.099,0,0
83748,-0.079,1.097,0.082,-3.443,-3.229,-3.122,36,0
83813,-0.211,0.96,0.222,-10.359,4.13,-4.779,0,0
83880,-0.16,1.033,0.161,1.267,0.748,-2.13,0,0
83945,-0.179,0.934,0.18,-0.687,7.198,6.092,0,0
84016,-0.225,0.938,0.27,-0.603,3.542,-4.038,0,0
84079,-0.236,1.076,0.227,2.656,6.588,0.779,0,0
84143,-0.153,1.052,0.182,2.771,0.611,3.908,0,0
84206,-0.258,0.944,0.267,-1.412,-1.305,-1.092,0,0
84260,-0.237,0.926,0.221,-0.496,1.519,-2.176,37,0
84315,-0.134,1.01,0.149,5.282,4.618,-1.863,37,0
84412,-0.234,0.995,0.281,4.023,-0.885,-0.809,36,0
84466,-0.183,0.993,0.158,2.603,-2.305,-0.16,37,0
84523,-0.167,1.009,0.125,1.107,3.679,-5.191,37,0
84586,-0.202,1.13,0.188,-7.45,4.153,-10.145,0,0
84643,-0.241,1.03,0.258,-5.107,-1.725,-1.244,16,0
84707,-0.165,0.998,0.154,-1.214,-4.931,3.183,0,0
84770,-0.151,0.903,0.118,-3.321,4.153,2.779,0,0
84834,-0.27,0.938,0.257,3.969,4.023,2.405,0,0
84897,-0.232,1.032,0.232,4.725,7.817,5.374,0,0
84961,-0.178,0.962,0.17,1.565,1.305,5.038,0,0
85014,-0.179,0.982,0.187,4.992,0.443,-0.168,29,0
85071,-0.214,1.037,0.225,5.947,1.397,-2.443,30,0
85125,-0.152,1.043,0.145,2.901,-0.344,-0.626,30,0
85179,-0.241,1.01,0.183,-6.542,2.412,-3.252,30,0
85232,-0.164,1.027,0.154,-0.672,-0.298,-1.527,30,0
85286,-0.164,1.02,0.157,1.527,-4.237,-2.863,30,0
85340,-0.279,0.99,0.268,-2.481,6.901,2.389,28,0
85394,-0.1,0.988,0.101,4.931,-3.252,7.687,30,0
85447,-0.132,1.005,0.113,-10.832,10.229,-0.832,30,0
85501,-0.2,0.967,0.243,-9.053,8.198,-3.099,30,0
85555,-0.173,1.057,0.21,4.908,-0.725,1.985,28,0
85612,-0.196,1.053,0.15,-4.458,6.55,2.16,29,0
85665,-0.188,0.961,0.212,-10.069,10.137,-4.649,30,0
85720,-0.235,0.977,0.23,-6.496,3.702,-7.855,30,0
85773,-0.235,1.01,0.218,-0.931,5.176,-3.26,30,0
85827,-0.229,0.934,0.231,-1.473,3.481,-2.191,30,0
85880,-0.258,0.922,0.274,1.885,-1.809,-1.557,30,0
85935,-0.168,0.947,0.169,0.954,2.817,-2.435,30,0
85989,-0.283,1.004,0.236,5.374,-5.443,-2.336,37,0
86042,-0.18,1.087,0.205,0.359,6.84,0.427,30,0
86109,-0.236,1.031,0.236,1.992,-2.221,4.046,0,0
86172,-0.164,0.973,0.14,-1.947,2.672,6.588,0,0
86237,-0.194,0.955,0.234,-5.511,1.626,-1.656,0,0
86300,-0.244,0.992,0.263,5.221,0.527,-3.015,0,0
86364,-0.195,0.968,0.214,0.786,-7.725,-3.519,0,0
86427,-0.198,0.993,0.202,3.45,-9.588,-4.809,0,0
86491,-0.224,1.004,0.203,4,-2.084,-0.679,0,0
86546,-0.175,1.081,0.166,-3.229,2.366,-1.382,38,0
86599,-0.216,0.993,0.212,-6.008,0.221,4.198,33,0
86653,-0.214,0.978,0.222,-1.229,2.458,4.74,38,0
86721,-0.185,0.958,0.246,0.344,5.71,5.221,0,0
86785,-0.165,1.008,0.174,2.595,4.092,3.947,0,0
86848,-0.216,0.949,0.268,6.168,3.443,4.427,0,0
86912,-0.184,0.945,0.233,9.328,3.519,0.519,0,0
86975,-0.138,1.052,0.124,2.489,1.687,-3.405,0,0
87040,-0.177,1.05,0.195,4,4.069,-0.275,0,0
87103,-0.129,1.102,0.081,5.504,7.824,4.557,0,0
87166,-0.148,1.058,0.143,-11.092,12.031,1.321,0,0
87231,-0.253,0.959,0.227,-1.679,4.153,6.802,0,0
87287,-0.135,0.977,0.162,-6.298,9.573,1.794,16,0
87394,-0.228,0.992,0.239,2.748,3.496,-4.458,0,0
87457,-0.167,1.001,0.202,-1.466,-3.908,-1.221,0,0
87522,-0.208,1.013,0.138,0.702,0.122,-0.481,0,0
87585,-0.165,1.056,0.239,0.641,5.061,1.725,0,0
87649,-0.142,1.063,0.11,-5.802,4.031,-3.359,0,0
87713,-0.227,0.978,0.198,-10.122,2.298,-3.595,0,0
87777,-0.214,0.946,0.267,-3.107,5.55,0.473,0,0
87840,-0.229,0.86,0.271,2.328,-5.412,0.55,0,0
87905,-0.219,0.962,0.243,11.466,1.328,1.008,0,0
87981,-0.184,0.993,0.22,6.298,-0.908,-2.107,0,0
88047,-0.209,1.113,0.189,3.344,-2.58,-1.221,0,0
88114,-0.134,1.075,0.22,1.435,-4.366,1.534,0,0
88180,-0.135,1.045,0.09,-2.328,2.206,1.046,0,0
88247,-0.11,0.971,0.146,-6.565,7.863,1.802,0,0
88313,-0.165,0.982,0.212,2.099,1.893,-2.626,0,0
88379,-0.211,1.004,0.188,-0.443,6.977,4.244,0,0
88445,-0.182,0.946,0.192,-1.702,8.603,-1.656,0,0
88512,-0.169,1.056,0.158,0.229,3.595,-2.389,0,0
88579,-0.208,1.05,0.214,-0.359,1.305,-0.58,0,0
88649,-0.213,0.992,0.205,-6.137,3.305,-0.038,0,0
88705,-0.18,0.989,0.164,-5.084,6.733,2.756,16,0
88761,-0.154,0.991,0.227,-1.229,1.496,-1.137,16,0
88817,-0.221,1.033,0.208,-2.412,5.237,-0.855,16,0
88873,-0.183,0.981,0.189,-8.855,2.695,0.374,16,0
88939,-0.203,0.938,0.238,1.855,4.977,-0.992,0,0
88995,-0.169,0.992,0.182,3.237,-0.137,1.214,16,0
89052,-0.212,0.999,0.263,2.725,1.58,-2.443,16,0
89108,-0.216,1.022,0.208,-0.183,-1.763,-0.702,16,0
89167,-0.179,0.987,0.233,1.443,-1.511,-1.74,16,0
89224,-0.165,1.03,0.155,2.885,4.191,-0.206,16,0
89279,-0.158,0.993,0.183,-2.725,0.13,-2.344,16,0
89335,-0.165,1.007,0.172,5.084,2.427,-1.008,16,0
89402,-0.22,1.034,0.21,-5.053,4.878,1.901,0,0
89458,-0.184,0.942,0.216,3.053,2.641,0.885,16,0
89515,-0.219,1.057,0.185,0.267,0.962,-2.855,16,0
89570,-0.181,1.115,0.135,-11.794,13.229,-11.328,16,0
89637,-0.182,1.292,0.299,-45.901,-19.84,-44.557,0,0
89698,-0.116,1.174,0.01,-83.16,-3.504,-44.466,17,0
89764,-0.127,0.975,0.222,-126.992,-57.42,-71.511,0,0
89822,-0.061,0.784,0.187,-159.939,16.565,-51.824,26,0
89879,-0.444,0.517,0.52,-147.809,4.695,-43.13,32,0
89935,-0.448,0.348,0.673,-128.237,24.107,-20.397,16,0
89992,-0.593,0.364,0.849,-112.771,38.244,-8.962,16,0
90048,-0.594,0.375,0.815,-104.886,-5.168,3.107,33,0
90105,-0.56,0.37,0.803,-105.183,13.756,24.71,32,0
90163,-0.665,0.305,0.863,-110.443,8.985,39.344,31,0
90233,-0.583,0.253,0.822,-108.565,-21.534,45.504,0,0
90300,-0.527,0.04,0.899,-102.13,0.763,59.244,0,0
90366,-0.538,-0.117,0.998,-78.626,-2.985,54.817,0,0
90434,-0.459,-0.229,1.028,-53.908,-9.084,55.824,0,0