Timestamp(ms),AccelX(g),AccelY(g),AccelZ(g),GyroX(deg/s),GyroY(deg/s),GyroZ(deg/s),DistanceLeft(cm),DistanceRight(cm)
26425,-0.088,-1.010,0.138,-0.878,-1.794,1.252,39.0,129.0
26475,-0.092,-1.003,0.148,-0.802,-3.855,0.687,39.0,175.0
26521,-0.098,-0.997,0.151,0.252,-7.351,1.099,39.0,128.0
26571,-0.060,-0.999,0.116,0.420,2.046,1.702,40.0,176.0
26618,-0.095,-0.991,0.152,1.435,1.496,1.863,40.0,129.0
26664,-0.108,-0.995,0.156,1.611,-5.221,1.954,40.0,129.0
26712,-0.061,-0.996,0.117,1.099,-7.817,1.145,39.0,129.0
26762,-0.074,-0.996,0.115,0.695,3.641,2.687,39.0,128.0
26808,-0.105,-1.000,0.148,0.046,1.611,1.313,39.0,128.0
26857,-0.103,-0.982,0.146,-0.214,-4.527,1.298,39.0,175.0
26907,-0.068,-0.996,0.120,-0.130,-3.718,1.489,40.0,177.0
26957,-0.079,-1.004,0.129,0.443,-2.840,0.290,39.0,177.0
27006,-0.094,-0.995,0.135,0.000,-3.260,-0.458,39.0,175.0
27054,-0.087,-0.999,0.130,0.519,-6.786,-1.008,39.0,130.0
27101,-0.061,-1.001,0.113,0.282,-5.550,-0.588,38.0,130.0
27147,-0.085,-1.006,0.131,-0.046,0.550,-0.641,38.0,128.0
27197,-0.087,-0.993,0.129,0.893,-2.252,0.504,40.0,128.0
27244,-0.091,-1.000,0.141,0.313,-4.023,0.832,40.0,129.0
27290,-0.070,-0.999,0.114,0.679,-0.779,-0.534,39.0,128.0
27337,-0.081,-1.000,0.130,0.779,-0.053,-0.130,39.0,130.0
27384,-0.100,-1.005,0.141,0.901,-2.176,-0.794,39.0,130.0
27431,-0.074,-0.998,0.110,0.588,-3.351,-0.870,39.0,130.0
27478,-0.098,-0.982,0.145,0.748,-0.534,0.496,38.0,129.0
27525,-0.092,-1.000,0.135,1.061,-3.412,1.130,39.0,131.0
27572,-0.086,-0.988,0.135,0.153,-1.840,0.847,39.0,131.0
27624,-0.093,-1.003,0.139,1.275,-1.870,1.817,38.0,175.0
27674,-0.088,-1.002,0.129,1.672,-3.237,1.397,39.0,176.0
27723,-0.087,-0.990,0.128,1.656,-1.206,0.695,38.0,176.0
27773,-0.086,-0.999,0.139,1.260,-1.000,0.626,38.0,176.0
27821,-0.088,-0.993,0.121,1.351,-2.252,2.160,39.0,129.0
27868,-0.088,-1.001,0.136,1.160,0.534,0.351,38.0,131.0
27915,-0.093,-0.998,0.139,1.916,-0.344,1.527,38.0,132.0
27962,-0.097,-0.998,0.142,1.298,-1.031,0.847,38.0,130.0
28008,-0.086,-0.994,0.138,1.634,-2.985,0.702,39.0,129.0
28058,-0.102,-0.990,0.144,1.725,-0.053,1.153,39.0,131.0
28105,-0.089,-1.004,0.124,1.481,-3.046,-0.198,38.0,130.0
28152,-0.094,-0.990,0.145,1.687,-2.435,-0.038,38.0,131.0
28199,-0.083,-0.990,0.136,1.481,-4.382,0.679,38.0,131.0
28247,-0.094,-0.987,0.147,1.405,-2.489,1.008,39.0,131.0
28294,-0.071,-1.001,0.126,1.687,0.031,0.527,39.0,130.0
28341,-0.091,-1.002,0.128,0.908,0.786,-1.145,39.0,132.0
28388,-0.091,-0.978,0.137,0.603,0.450,-1.656,38.0,130.0
28435,-0.104,-0.993,0.142,-0.359,-3.656,-0.321,38.0,131.0
28485,-0.107,-0.997,0.146,-1.359,-4.427,-1.069,37.0,132.0
28532,-0.064,-0.996,0.122,-0.023,-1.519,-0.870,37.0,130.0
28579,-0.099,-0.990,0.161,0.473,2.748,0.695,38.0,131.0
28626,-0.108,-0.999,0.147,1.321,-1.687,-0.344,38.0,130.0
28674,-0.086,-0.994,0.134,1.656,-3.756,0.840,38.0,131.0
28721,-0.085,-1.003,0.114,1.038,0.328,1.145,38.0,131.0
28768,-0.094,-0.999,0.137,1.084,-0.298,0.351,38.0,131.0
28858,-0.064,-0.990,0.113,0.962,-3.817,-0.099,38.0,132.0
28905,-0.074,-0.995,0.125,1.076,4.176,0.099,38.0,130.0
28955,-0.111,-0.984,0.145,-0.153,3.817,-0.221,39.0,130.0
29002,-0.101,-1.006,0.140,0.626,-3.809,-1.046,39.0,129.0
29049,-0.083,-0.996,0.118,0.466,-2.725,-1.458,37.0,130.0
29096,-0.088,-1.006,0.125,0.397,-2.076,-1.191,38.0,129.0
29144,-0.092,-0.989,0.132,0.214,0.656,-1.244,38.0,130.0
29191,-0.103,-0.996,0.147,1.153,-0.809,1.771,38.0,130.0
29238,-0.101,-1.003,0.147,1.038,-2.832,-0.954,38.0,130.0
29285,-0.081,-0.978,0.113,1.260,0.344,0.198,38.0,130.0
29332,-0.114,-1.000,0.151,1.092,0.290,2.328,38.0,130.0
29382,-0.102,-1.000,0.136,1.115,-2.466,0.412,37.0,130.0
29429,-0.091,-0.993,0.127,-0.214,-1.618,1.626,39.0,131.0
29477,-0.090,-0.994,0.140,0.542,-0.336,2.214,38.0,131.0
29524,-0.093,-1.001,0.145,0.374,-4.008,1.603,38.0,131.0
29572,-0.080,-0.989,0.135,0.198,-3.061,-0.206,37.0,130.0
29619,-0.082,-0.989,0.135,0.160,-1.504,0.420,38.0,130.0
29666,-0.087,-1.019,0.137,1.145,0.725,-1.183,39.0,130.0
29713,-0.093,-0.988,0.131,0.435,-1.802,-2.595,37.0,131.0
29760,-0.099,-0.992,0.132,0.366,-2.916,-1.229,39.0,130.0
29811,-0.092,-0.994,0.128,1.878,1.733,0.878,37.0,130.0
29858,-0.112,-0.996,0.144,1.374,1.008,2.450,37.0,132.0
29905,-0.103,-1.005,0.133,1.496,-0.489,1.229,38.0,130.0
29953,-0.087,-0.994,0.121,1.427,-0.786,0.511,38.0,131.0
30000,-0.094,-0.992,0.128,0.405,-0.420,0.588,38.0,131.0
30048,-0.082,-1.005,0.134,0.489,-0.763,0.023,37.0,132.0
30095,-0.098,-0.997,0.134,0.641,-0.427,0.237,37.0,132.0
30142,-0.089,-1.005,0.143,0.824,-2.359,-0.916,37.0,132.0
30190,-0.088,-0.997,0.133,1.443,-2.496,-0.733,37.0,131.0
30240,-0.105,-0.994,0.137,1.084,0.237,-0.137,37.0,131.0
30287,-0.102,-0.982,0.139,1.626,-0.809,0.176,37.0,130.0
30334,-0.104,-1.008,0.141,1.305,-1.107,-0.313,37.0,130.0
30383,-0.095,-0.986,0.134,1.573,-1.901,-1.023,37.0,131.0
30430,-0.095,-0.988,0.133,0.412,-1.725,-0.611,39.0,131.0
30477,-0.088,-0.995,0.124,1.221,0.817,1.115,38.0,130.0
30525,-0.103,-0.993,0.153,1.267,-1.023,0.840,38.0,131.0
30572,-0.098,-0.992,0.136,1.229,-5.130,-0.580,38.0,132.0
30622,-0.092,-1.004,0.129,2.679,-4.160,0.473,37.0,176.0
30675,-0.078,-0.997,0.123,0.160,-0.802,0.611,37.0,175.0
30726,-0.106,-0.995,0.149,0.542,1.779,0.282,37.0,177.0
30776,-0.105,-0.996,0.158,-0.145,-2.618,0.870,38.0,176.0
30826,-0.080,-0.993,0.126,0.160,-2.565,-0.504,37.0,176.0
30876,-0.105,-0.986,0.154,0.534,1.015,0.901,37.0,177.0
30926,-0.107,-1.001,0.139,1.191,-4.267,0.977,37.0,177.0
30977,-0.082,-0.993,0.117,0.679,-1.267,0.145,37.0,177.0
31027,-0.094,-0.993,0.132,0.267,0.260,-0.206,37.0,177.0
31077,-0.104,-0.996,0.143,0.420,-0.947,-0.221,37.0,178.0
31131,-0.067,-0.999,0.111,-0.046,2.908,-0.641,37.0,177.0
31178,-0.117,-0.989,0.156,0.260,2.351,-0.748,38.0,133.0
31228,-0.103,-1.000,0.137,0.824,-2.473,-0.832,38.0,176.0
31320,-0.094,-0.993,0.136,1.565,1.824,-0.885,37.0,132.0
31368,-0.094,-0.994,0.123,1.260,-0.603,-0.160,37.0,131.0
31415,-0.087,-1.001,0.132,1.115,8.641,1.908,38.0,131.0
31463,-0.136,-1.010,0.170,1.298,-0.557,0.069,38.0,132.0
31510,-0.072,-0.988,0.116,1.489,-3.588,-1.061,38.0,131.0
31558,-0.107,-0.992,0.140,1.931,0.969,0.427,38.0,130.0
31608,-0.105,-0.987,0.134,0.588,-1.489,-0.786,39.0,131.0
31656,-0.085,-0.996,0.114,1.160,-1.969,0.473,38.0,133.0
31704,-0.107,-0.999,0.157,0.786,1.160,-0.275,39.0,130.0
31752,-0.073,-0.997,0.109,0.595,3.374,-1.290,37.0,132.0
31799,-0.126,-0.998,0.168,0.817,1.405,0.664,37.0,130.0
31847,-0.085,-0.996,0.114,0.916,-1.901,-0.542,37.0,130.0
31894,-0.094,-0.981,0.129,1.595,-0.672,0.321,37.0,131.0
31942,-0.108,-0.999,0.139,2.031,2.672,1.328,37.0,133.0
31990,-0.108,-1.002,0.134,1.511,-3.076,0.664,39.0,143.0
32043,-0.097,-0.992,0.134,1.191,-0.924,1.756,38.0,144.0
32091,-0.091,-1.000,0.122,1.183,-2.550,1.901,38.0,144.0
32139,-0.103,-0.988,0.137,0.916,-1.740,0.840,37.0,133.0
32186,-0.097,-0.999,0.142,0.863,-2.214,0.740,37.0,131.0
32234,-0.090,-0.997,0.139,0.939,-4.053,-0.244,37.0,131.0
32282,-0.085,-0.991,0.129,0.809,2.038,0.290,37.0,131.0
32329,-0.106,-1.005,0.147,1.061,-0.374,-0.916,37.0,132.0
32377,-0.103,-0.992,0.150,1.679,-3.023,-0.176,38.0,131.0
32425,-0.086,-1.002,0.105,1.168,-3.336,-1.969,38.0,131.0
32477,-0.099,-0.981,0.142,1.183,2.634,-0.466,39.0,143.0
32530,-0.100,-0.990,0.145,1.435,-1.374,-0.573,37.0,133.0
32577,-0.092,-0.987,0.127,1.374,-2.099,0.817,37.0,132.0
32624,-0.094,-0.995,0.127,1.221,1.718,-1.267,37.0,145.0
32672,-0.111,-0.994,0.140,0.672,-0.321,-0.344,38.0,144.0
32719,-0.092,-0.993,0.130,0.557,-0.397,-1.168,38.0,131.0
32766,-0.107,-0.990,0.143,0.931,-0.473,-0.962,39.0,143.0
32814,-0.092,-0.991,0.142,0.939,0.885,-0.672,38.0,132.0
32860,-0.107,-0.998,0.146,1.344,-1.298,-0.206,38.0,132.0
32910,-0.091,-0.990,0.129,1.252,0.870,-0.046,38.0,132.0
32956,-0.104,-0.992,0.142,0.931,0.878,-0.878,38.0,131.0
33003,-0.102,-0.988,0.142,0.985,1.328,-0.756,38.0,131.0
33050,-0.104,-1.009,0.142,1.611,-1.885,-0.298,38.0,130.0
33097,-0.093,-0.997,0.138,1.252,0.786,-2.076,38.0,131.0
33143,-0.111,-0.987,0.141,1.313,0.008,-0.641,39.0,129.0
33190,-0.093,-0.984,0.114,0.832,-0.344,0.191,38.0,131.0
33238,-0.102,-0.996,0.138,0.855,0.840,0.824,38.0,129.0
33284,-0.110,-0.979,0.144,0.374,0.282,0.076,38.0,129.0
33334,-0.094,-1.002,0.141,-0.115,-3.802,-0.137,38.0,130.0
33380,-0.084,-0.983,0.121,0.260,-0.160,-0.031,37.0,130.0
33427,-0.106,-1.003,0.136,0.122,-0.282,-0.893,39.0,130.0
33474,-0.101,-0.991,0.142,0.076,-2.496,-1.695,38.0,131.0
33521,-0.095,-0.991,0.143,0.519,-1.840,-0.160,38.0,130.0
33568,-0.107,-0.996,0.143,1.168,-2.916,0.481,38.0,131.0
33614,-0.078,-0.997,0.132,0.626,-2.863,0.672,37.0,130.0
33661,-0.082,-0.994,0.136,0.420,3.313,1.130,37.0,131.0
33755,-0.094,-1.004,0.138,0.542,-4.206,-0.275,38.0,132.0
33804,-0.070,-0.994,0.117,1.031,-3.069,-1.794,38.0,177.0
33851,-0.104,-0.991,0.147,0.542,2.466,-0.840,39.0,131.0
33901,-0.104,-0.995,0.146,1.427,-1.855,-0.374,37.0,179.0
33951,-0.093,-0.989,0.145,1.412,-1.511,-0.458,37.0,179.0
33998,-0.093,-0.981,0.135,1.374,0.053,0.962,37.0,131.0
34044,-0.095,-1.011,0.124,1.344,-3.855,0.061,37.0,130.0
34092,-0.079,-0.988,0.119,0.290,2.145,-0.008,37.0,131.0
34139,-0.110,-1.001,0.148,-0.450,-1.496,0.130,37.0,131.0
34189,-0.082,-0.990,0.131,0.237,-4.740,-0.206,37.0,130.0
34236,-0.080,-0.997,0.135,-0.107,-3.947,-0.504,37.0,131.0
34282,-0.077,-0.981,0.128,0.412,0.824,-0.366,37.0,130.0
34329,-0.095,-0.994,0.140,1.336,0.969,0.840,38.0,131.0
34376,-0.097,-1.000,0.142,0.473,-4.969,-0.779,38.0,130.0
34423,-0.074,-0.997,0.110,0.527,-1.008,-1.015,38.0,129.0
34470,-0.085,-0.992,0.116,0.359,1.229,-1.252,37.0,131.0
34518,-0.105,-0.993,0.137,0.038,-0.924,-0.649,38.0,130.0
34565,-0.100,-0.987,0.138,-0.565,-4.847,0.672,38.0,131.0
34615,-0.080,-1.003,0.119,0.313,-2.061,0.198,38.0,130.0
34661,-0.097,-0.987,0.138,-0.305,2.603,1.840,38.0,130.0
34708,-0.109,-1.010,0.143,-0.511,-2.000,1.160,38.0,131.0
34755,-0.084,-0.983,0.127,0.733,-1.504,1.733,37.0,129.0
34802,-0.087,-0.991,0.127,1.603,0.450,3.420,37.0,129.0
34849,-0.082,-0.997,0.135,1.710,1.237,1.336,38.0,131.0
34896,-0.101,-0.992,0.132,2.237,-4.191,-1.511,38.0,129.0
34944,-0.094,-0.987,0.108,0.824,-6.870,-1.962,38.0,129.0
34991,-0.078,-1.010,0.100,-1.099,-3.290,-2.298,38.0,130.0
35041,-0.089,-0.984,0.120,-1.832,4.840,0.069,39.0,129.0
35088,-0.124,-0.998,0.156,-1.847,0.397,-0.435,37.0,132.0
35135,-0.090,-0.999,0.128,1.053,-3.382,-0.565,38.0,131.0
35182,-0.090,-1.010,0.119,0.397,-0.366,1.282,37.0,130.0
35229,-0.099,-0.989,0.137,1.168,2.214,2.053,37.0,130.0
35276,-0.109,-1.004,0.135,1.580,-2.641,1.725,37.0,130.0
35323,-0.086,-1.000,0.123,1.855,-0.328,1.901,37.0,131.0
35371,-0.086,-0.994,0.112,2.519,2.015,0.962,37.0,130.0
35418,-0.125,-0.995,0.142,2.382,-2.351,-0.122,38.0,129.0
35468,-0.102,-0.995,0.120,1.672,-7.832,-2.000,38.0,128.0
35515,-0.095,-0.989,0.112,1.084,-3.198,-0.031,38.0,130.0
35562,-0.102,-0.997,0.131,1.191,-4.061,-0.618,38.0,130.0
35609,-0.104,-0.985,0.135,0.542,-7.198,-0.855,37.0,130.0
35656,-0.077,-1.003,0.120,0.626,-6.748,-0.565,39.0,130.0
35704,-0.094,-0.990,0.137,0.092,-3.466,-0.550,38.0,131.0
35751,-0.094,-0.996,0.146,0.382,-3.214,0.649,38.0,129.0
35799,-0.095,-1.004,0.140,2.023,-7.267,0.267,38.0,129.0
35846,-0.071,-1.005,0.129,1.802,-4.145,-1.710,37.0,130.0
35896,-0.090,-0.995,0.145,1.511,-0.511,-0.351,37.0,129.0
35943,-0.106,-1.005,0.160,2.832,-7.504,-2.435,37.0,130.0
35990,-0.071,-0.982,0.116,3.122,-8.069,-3.893,37.0,132.0
36037,-0.079,-0.976,0.108,1.305,0.565,-3.229,37.0,131.0
36085,-0.086,-0.973,0.130,-0.802,4.305,2.084,37.0,130.0
36175,-0.077,-0.996,0.130,-0.947,-2.122,2.611,37.0,130.0
36222,-0.095,-1.012,0.142,-0.321,-2.053,0.771,37.0,129.0
36270,-0.092,-1.007,0.148,-0.229,-4.542,-1.221,38.0,131.0
36318,-0.073,-0.991,0.137,0.252,-3.412,-1.321,37.0,130.0
36368,-0.092,-0.979,0.145,1.962,-0.359,0.519,37.0,130.0
36415,-0.105,-1.008,0.144,1.893,-6.382,0.412,38.0,131.0
36463,-0.069,-1.004,0.121,1.985,-5.359,-1.489,37.0,133.0
36510,-0.090,-0.999,0.134,2.084,-1.786,0.321,36.0,132.0
36557,-0.103,-1.000,0.151,2.840,-4.328,0.489,37.0,130.0
36604,-0.080,-1.003,0.131,2.481,-6.405,0.954,37.0,131.0
36653,-0.057,-0.990,0.117,1.573,1.412,1.351,37.0,131.0
36700,-0.089,-0.976,0.164,2.000,3.244,3.305,37.0,130.0
36747,-0.080,-0.994,0.161,3.198,-0.595,2.473,36.0,130.0
36799,-0.067,-0.991,0.128,4.160,1.702,-0.534,38.0,168.0
36849,-0.084,-0.994,0.122,2.153,1.328,-3.198,36.0,179.0
36899,-0.098,-0.991,0.133,0.947,-2.702,-4.214,36.0,179.0
36951,-0.102,-0.986,0.136,-0.458,-6.664,-5.092,38.0,178.0
37001,-0.079,-0.987,0.110,-2.374,-0.733,-1.779,37.0,179.0
37049,-0.117,-0.994,0.158,-3.084,-1.809,1.832,38.0,134.0
37099,-0.082,-0.997,0.163,-1.908,-3.183,4.084,36.0,181.0
37146,-0.070,-1.011,0.155,0.351,-0.702,5.321,36.0,132.0
37194,-0.069,-1.009,0.161,1.863,-0.878,2.931,38.0,130.0
37244,-0.069,-0.994,0.150,3.069,-1.153,1.053,36.0,131.0
37293,-0.078,-0.994,0.145,3.137,-2.046,0.557,36.0,132.0
37340,-0.070,-1.007,0.133,1.198,-1.786,-1.954,36.0,132.0
37387,-0.078,-0.995,0.136,1.893,3.321,-1.435,37.0,131.0
37435,-0.101,-0.985,0.144,1.885,1.458,-0.550,37.0,130.0
37482,-0.093,-0.993,0.136,2.015,-0.962,-0.168,37.0,132.0
37530,-0.091,-0.995,0.128,0.809,0.427,-1.374,37.0,131.0
37577,-0.107,-0.980,0.138,-0.412,0.840,0.076,37.0,131.0
37625,-0.085,-0.990,0.146,0.557,0.107,1.885,36.0,132.0
37676,-0.095,-1.003,0.153,0.641,0.458,2.168,36.0,135.0
37726,-0.077,-1.001,0.148,0.794,-3.008,0.595,36.0,180.0
37774,-0.070,-0.995,0.137,1.519,-2.137,-0.802,38.0,136.0
37824,-0.073,-0.991,0.120,1.099,0.176,-1.565,38.0,177.0
37875,-0.098,-0.994,0.148,0.374,-2.954,-1.702,38.0,176.0
37922,-0.076,-0.991,0.134,1.076,-1.992,-2.092,38.0,133.0
37974,-0.100,-1.000,0.152,0.046,-2.466,-1.221,36.0,180.0
38024,-0.078,-0.990,0.130,0.679,-0.718,-0.962,38.0,176.0
38074,-0.112,-0.998,0.164,0.656,-2.809,-0.718,36.0,179.0
38125,-0.069,-0.979,0.137,1.847,-4.565,0.618,37.0,132.0
38173,-0.079,-0.998,0.128,0.046,-3.130,1.466,37.0,133.0
38220,-0.071,-0.987,0.116,-0.275,1.160,1.031,36.0,132.0
38268,-0.085,-0.973,0.145,-1.511,3.122,4.023,36.0,131.0
38316,-0.096,-1.015,0.151,-1.366,-4.214,2.824,36.0,132.0
38364,-0.058,-1.001,0.127,-1.519,-2.992,-0.947,36.0,131.0
38412,-0.086,-0.986,0.138,-2.565,-2.214,-2.038,36.0,132.0
38459,-0.077,-1.030,0.133,-1.916,-4.702,-2.618,37.0,132.0
38513,-0.079,-1.000,0.135,-1.092,-0.038,-5.336,36.0,178.0
38561,-0.118,-0.996,0.161,0.176,-4.718,-3.450,36.0,134.0
38654,-0.067,-0.992,0.104,2.206,0.679,1.542,37.0,178.0
38706,-0.091,-0.999,0.132,1.244,1.695,3.046,37.0,178.0
38761,-0.094,-0.995,0.141,1.069,-5.863,1.534,36.0,178.0
38810,-0.052,-0.985,0.112,0.038,-2.160,2.076,36.0,179.0
38860,-0.085,-1.015,0.139,0.901,-0.550,1.870,36.0,180.0
38909,-0.093,-0.998,0.155,1.359,-3.130,0.947,36.0,179.0
38957,-0.077,-0.999,0.126,2.771,-4.809,-0.603,37.0,131.0
39006,-0.069,-0.987,0.118,2.649,1.305,2.779,37.0,131.0
39053,-0.093,-1.004,0.143,1.511,1.038,0.634,38.0,132.0
39100,-0.089,-0.984,0.138,1.580,-1.832,0.840,38.0,132.0
39146,-0.084,-1.000,0.148,1.626,-4.656,1.115,38.0,132.0
39193,-0.066,-0.993,0.123,1.504,-1.489,0.092,37.0,132.0
39240,-0.075,-1.006,0.139,0.756,-0.817,-0.023,38.0,132.0
39286,-0.086,-0.995,0.138,1.229,1.359,-0.824,36.0,131.0
39333,-0.086,-0.995,0.143,0.366,-1.527,-1.458,36.0,133.0
39380,-0.084,-0.999,0.142,1.420,0.656,-2.023,37.0,131.0
39430,-0.093,-0.992,0.135,1.275,-1.565,-1.725,36.0,132.0
39477,-0.086,-1.002,0.127,0.710,-1.794,-2.046,36.0,133.0
39524,-0.080,-0.984,0.115,1.511,1.122,-0.397,36.0,134.0
39573,-0.106,-0.997,0.141,0.893,0.847,0.366,37.0,177.0
39620,-0.080,-0.997,0.133,0.618,-1.298,0.855,36.0,135.0
39667,-0.086,-0.999,0.138,0.863,1.267,0.504,36.0,135.0
39716,-0.085,-0.997,0.141,0.977,-2.580,0.672,36.0,178.0
39763,-0.093,-1.004,0.153,2.092,-4.748,-0.015,36.0,132.0
39811,-0.063,-1.002,0.119,2.519,-4.954,-1.847,36.0,131.0
39860,-0.090,-0.990,0.133,1.527,-0.450,0.107,36.0,131.0
39907,-0.077,-1.001,0.121,1.252,-2.176,-0.435,36.0,131.0
39954,-0.079,-0.989,0.129,0.626,-1.053,0.817,38.0,131.0
40001,-0.078,-0.981,0.144,-0.061,-2.397,0.519,37.0,130.0
40047,-0.074,-1.002,0.134,0.351,-1.824,1.794,37.0,131.0
40101,-0.069,-0.998,0.132,1.252,-0.130,-0.359,37.0,131.0
40148,-0.092,-0.995,0.150,1.076,-1.733,-0.779,37.0,131.0
40195,-0.074,-0.985,0.136,1.939,-2.511,0.168,37.0,131.0
40242,-0.083,-1.001,0.148,1.496,-0.962,0.366,37.0,131.0
40291,-0.059,-0.995,0.115,1.565,-0.237,-0.252,37.0,133.0
40338,-0.090,-0.991,0.143,0.168,1.733,0.191,37.0,131.0
40385,-0.083,-0.999,0.140,1.122,-4.710,-1.840,37.0,131.0
40431,-0.073,-0.977,0.132,0.924,-0.771,-0.130,37.0,132.0
40478,-0.092,-1.011,0.148,0.481,-2.221,-0.443,36.0,132.0
40525,-0.058,-0.993,0.133,1.611,-0.511,-0.809,36.0,131.0
40571,-0.075,-1.004,0.153,1.290,0.718,0.145,36.0,131.0
40619,-0.089,-0.995,0.145,2.191,-2.466,-1.466,36.0,132.0
40665,-0.081,-0.990,0.142,0.863,-3.313,-0.618,36.0,131.0
40715,-0.078,-0.997,0.137,1.084,-3.313,0.855,36.0,131.0
40762,-0.062,-0.992,0.140,0.145,-0.565,0.458,38.0,132.0
40808,-0.071,-0.996,0.130,0.641,3.740,1.573,38.0,131.0
40855,-0.096,-1.003,0.161,0.740,-2.107,-0.374,37.0,131.0
40902,-0.059,-0.983,0.132,0.908,-1.183,-0.092,37.0,131.0
40948,-0.070,-0.997,0.134,0.893,2.626,0.740,37.0,131.0
40995,-0.085,-0.998,0.153,0.344,2.740,-0.168,38.0,131.0
41085,-0.074,-0.993,0.150,1.458,3.435,0.435,36.0,130.0
41133,-0.102,-1.013,0.158,1.695,-2.099,-2.176,37.0,131.0
41182,-0.068,-0.990,0.130,1.588,0.290,-1.740,37.0,132.0
41229,-0.073,-0.997,0.124,1.374,3.863,0.519,37.0,132.0
41276,-0.101,-0.990,0.144,0.992,3.397,0.710,37.0,131.0
41322,-0.080,-0.987,0.142,0.534,-2.885,0.153,37.0,131.0
41369,-0.066,-0.995,0.146,0.588,0.244,-0.473,37.0,132.0
41416,-0.086,-0.996,0.145,1.221,2.069,-0.725,37.0,130.0
41463,-0.091,-0.989,0.147,0.214,-0.298,-0.107,37.0,130.0
41509,-0.081,-1.007,0.138,1.031,-2.290,-0.344,37.0,131.0
41556,-0.077,-1.000,0.130,1.267,-0.412,-0.046,36.0,131.0
41607,-0.086,-0.996,0.148,-0.023,-3.496,-1.328,36.0,132.0
41654,-0.081,-0.986,0.141,0.824,-2.153,0.069,37.0,133.0
41701,-0.093,-1.006,0.150,1.366,-3.168,0.901,36.0,133.0
41750,-0.083,-0.994,0.137,1.435,-3.435,0.893,36.0,178.0
41800,-0.084,-0.993,0.147,1.160,-3.221,2.359,37.0,179.0
41849,-0.063,-0.995,0.144,1.115,-0.252,2.794,36.0,179.0
41900,-0.087,-0.989,0.143,0.702,-1.733,1.267,37.0,180.0
41950,-0.064,-0.991,0.148,0.992,-4.962,1.076,36.0,179.0
41999,-0.058,-1.002,0.143,0.947,-1.237,-1.557,36.0,180.0
42052,-0.086,-0.991,0.147,0.321,-0.275,-1.824,36.0,179.0
42102,-0.084,-0.993,0.151,1.229,-2.290,-1.878,37.0,179.0
42151,-0.074,-0.990,0.147,0.901,-1.168,-0.725,37.0,180.0
42202,-0.076,-1.004,0.142,1.183,1.954,-1.496,36.0,179.0
42252,-0.092,-1.001,0.144,1.351,-0.710,-2.504,37.0,178.0
42301,-0.083,-0.978,0.145,0.748,-1.557,-1.901,38.0,178.0
42351,-0.070,-0.991,0.134,0.893,-1.275,-0.954,36.0,177.0
42401,-0.077,-0.998,0.139,0.618,0.389,-0.573,36.0,178.0
42451,-0.073,-0.995,0.137,0.496,-0.038,-0.748,36.0,181.0
42504,-0.083,-0.996,0.131,0.397,-0.580,-0.901,36.0,180.0
42554,-0.073,-1.007,0.131,0.481,-0.237,-0.336,36.0,182.0
42604,-0.087,-0.992,0.149,0.550,-0.511,0.015,36.0,181.0
42654,-0.074,-0.994,0.141,0.267,0.924,0.275,38.0,178.0
42704,-0.095,-1.000,0.160,0.374,-2.107,-0.053,37.0,179.0
42754,-0.067,-0.993,0.131,0.733,-4.031,0.832,36.0,180.0
42804,-0.070,-0.995,0.136,-0.053,-0.344,1.893,37.0,178.0
42854,-0.079,-0.992,0.146,0.282,0.725,2.046,36.0,181.0
42904,-0.073,-1.006,0.134,0.466,-3.496,2.153,37.0,177.0
42956,-0.062,-0.998,0.123,0.427,-0.267,0.412,36.0,178.0
43006,-0.073,-1.002,0.142,0.206,-2.084,0.206,36.0,179.0
43057,-0.052,-1.002,0.117,0.137,0.008,-0.198,36.0,179.0
43107,-0.083,-0.994,0.153,1.298,1.092,0.344,36.0,178.0
43157,-0.061,-0.997,0.138,1.137,0.321,-2.191,37.0,179.0
43206,-0.081,-0.991,0.144,1.870,0.649,-1.443,36.0,179.0
43256,-0.092,-1.000,0.146,1.687,-0.611,-0.313,36.0,180.0
43307,-0.075,-0.999,0.114,0.832,-1.351,-1.817,36.0,179.0
43355,-0.086,-0.984,0.135,0.389,2.198,1.359,36.0,132.0
43405,-0.081,-1.008,0.138,0.992,-1.397,1.954,36.0,133.0
43452,-0.074,-0.993,0.138,0.611,-1.794,0.359,36.0,133.0
43499,-0.059,-0.990,0.125,0.046,1.412,-0.389,37.0,132.0
43589,-0.052,-1.006,0.115,0.870,0.153,-1.588,37.0,132.0
43637,-0.094,-0.992,0.158,0.985,2.107,-1.137,36.0,134.0
43684,-0.083,-0.998,0.130,0.962,-2.771,-2.229,36.0,132.0
43735,-0.075,-0.988,0.126,1.229,0.244,-0.786,37.0,179.0
43782,-0.078,-1.003,0.125,1.450,2.252,1.298,37.0,132.0
43832,-0.089,-0.989,0.147,0.634,1.679,0.573,37.0,179.0
43885,-0.069,-0.997,0.136,1.107,-2.344,0.466,37.0,178.0
43932,-0.079,-0.999,0.134,0.931,-1.573,0.702,37.0,132.0
43979,-0.066,-0.990,0.137,0.519,-0.145,0.031,36.0,132.0
44029,-0.084,-0.992,0.144,0.527,0.588,0.183,36.0,178.0
44077,-0.078,-1.000,0.131,1.183,-1.656,0.290,36.0,133.0
44125,-0.071,-0.989,0.128,1.053,-0.023,0.397,36.0,134.0
44172,-0.088,-0.996,0.146,0.748,-0.573,1.237,36.0,132.0
44219,-0.075,-0.997,0.123,1.733,-2.038,0.359,36.0,131.0
44266,-0.078,-0.985,0.128,0.336,0.931,1.534,36.0,132.0
44317,-0.083,-0.997,0.122,0.458,-1.718,0.298,37.0,132.0
44364,-0.080,-0.991,0.141,0.061,-0.183,1.229,37.0,131.0
44411,-0.080,-0.993,0.140,0.466,-1.496,0.160,37.0,132.0
44459,-0.090,-1.003,0.152,0.634,-2.214,0.481,36.0,132.0
44507,-0.066,-0.998,0.125,0.947,-1.740,-0.740,36.0,132.0
44554,-0.093,-0.994,0.150,0.809,0.519,0.756,36.0,132.0
44601,-0.081,-0.997,0.143,1.756,-3.351,0.076,36.0,133.0
44651,-0.074,-0.997,0.131,1.656,-0.359,1.229,36.0,178.0
44701,-0.085,-0.997,0.129,1.702,-0.420,0.489,38.0,177.0
44754,-0.089,-0.994,0.136,1.618,-2.137,0.664,37.0,177.0
44806,-0.063,-0.997,0.121,1.374,-0.328,-0.160,37.0,178.0
44856,-0.088,-0.996,0.151,1.687,0.656,0.137,37.0,178.0
44906,-0.082,-0.984,0.133,1.351,-2.450,-1.084,36.0,178.0
44956,-0.075,-0.996,0.137,1.557,-1.473,0.015,36.0,177.0
45006,-0.064,-0.999,0.121,1.023,0.000,-0.168,36.0,179.0
45057,-0.092,-0.991,0.146,0.954,-0.427,-0.473,36.0,178.0
45108,-0.071,-0.996,0.138,0.985,-2.130,-0.885,36.0,178.0
45158,-0.081,-1.010,0.144,0.336,-1.733,-1.221,36.0,178.0
45211,-0.078,-0.992,0.133,0.641,-0.282,-2.557,36.0,178.0
45261,-0.092,-1.000,0.156,1.244,-2.565,-1.160,36.0,178.0
45313,-0.078,-0.998,0.144,1.412,-3.893,-1.008,36.0,179.0
45363,-0.069,-1.000,0.131,1.511,-1.588,0.122,36.0,178.0
45413,-0.079,-0.987,0.137,1.115,0.817,0.290,36.0,178.0
45463,-0.073,-1.002,0.144,1.130,-2.229,0.206,36.0,178.0
45513,-0.061,-0.994,0.138,1.000,0.664,-0.145,37.0,179.0
45563,-0.084,-0.990,0.137,1.435,-1.542,-0.412,36.0,178.0
45615,-0.071,-0.995,0.142,0.687,-2.580,-0.779,36.0,178.0
45668,-0.062,-0.998,0.132,1.435,0.756,1.176,37.0,178.0
45718,-0.084,-0.994,0.151,0.695,1.389,0.511,36.0,178.0
45768,-0.075,-0.997,0.148,0.893,-1.603,0.328,36.0,179.0
45819,-0.086,-0.992,0.137,0.740,-1.145,1.466,36.0,178.0
45870,-0.079,-0.998,0.135,0.794,-0.466,0.092,37.0,177.0
45920,-0.093,-0.995,0.163,0.794,-2.290,0.947,35.0,178.0
45970,-0.054,-0.994,0.120,1.069,-1.710,-0.015,36.0,177.0
46020,-0.074,-0.997,0.151,0.290,1.641,0.916,36.0,178.0
46111,-0.078,-1.000,0.152,0.481,-2.130,-0.885,36.0,133.0
46162,-0.071,-0.993,0.146,0.954,-0.023,-1.290,36.0,132.0
46210,-0.089,-0.989,0.150,0.290,-2.366,-1.008,35.0,131.0
46258,-0.063,-0.984,0.137,0.611,-1.176,0.344,35.0,132.0
46305,-0.077,-0.996,0.133,1.267,0.000,0.710,35.0,131.0
46353,-0.073,-1.004,0.133,0.557,-6.931,-0.481,35.0,133.0
46401,-0.047,-0.996,0.109,0.763,3.344,-0.908,35.0,131.0
46453,-0.107,-1.001,0.153,0.595,-0.267,-0.786,35.0,132.0
46500,-0.080,-0.998,0.127,0.626,-6.107,-0.817,36.0,133.0
46550,-0.048,-1.002,0.110,1.084,-1.847,-0.313,36.0,178.0
46594,-0.077,-0.996,0.148,0.725,2.481,0.260,36.0,132.0
46643,-0.075,-1.002,0.150,1.061,-3.008,-0.092,36.0,178.0
46693,-0.062,-0.988,0.135,1.122,-1.504,0.595,36.0,178.0
46742,-0.063,-0.995,0.131,2.038,1.588,0.832,36.0,177.0
46791,-0.088,-0.990,0.151,1.305,-0.954,0.366,36.0,178.0
46841,-0.051,-0.999,0.125,0.702,-2.687,-0.664,36.0,179.0
46887,-0.070,-0.996,0.130,0.328,3.260,-0.527,36.0,133.0
46935,-0.087,-0.994,0.150,1.115,-0.611,-0.725,35.0,132.0
46985,-0.075,-1.003,0.141,0.481,-1.550,-0.389,36.0,132.0
47031,-0.071,-0.998,0.136,0.481,-1.282,-1.298,36.0,131.0
47078,-0.072,-0.994,0.151,0.450,2.389,-0.321,36.0,132.0
47124,-0.097,-1.006,0.164,1.229,-0.344,0.718,36.0,132.0
47171,-0.070,-1.001,0.132,1.855,-1.038,-0.351,36.0,131.0
47218,-0.084,-0.996,0.146,2.115,-0.160,1.115,37.0,131.0
47264,-0.076,-0.992,0.143,2.084,-1.420,0.473,36.0,133.0
47311,-0.073,-0.996,0.146,1.779,-0.023,2.626,36.0,133.0
47358,-0.075,-1.000,0.138,1.847,-1.328,1.183,36.0,131.0
47408,-0.078,-0.986,0.143,1.588,1.412,0.244,36.0,131.0
47455,-0.082,-0.999,0.141,1.382,-1.908,0.359,36.0,132.0
47502,-0.077,-0.987,0.140,1.137,-0.977,1.160,37.0,131.0
47548,-0.079,-1.003,0.135,0.794,-1.824,1.794,36.0,131.0
47595,-0.075,-0.989,0.151,0.649,0.053,1.046,37.0,131.0
47642,-0.091,-1.000,0.156,1.382,-1.641,0.519,37.0,133.0
47689,-0.073,-0.992,0.142,1.313,-2.107,0.664,37.0,132.0
47736,-0.094,-0.998,0.151,1.931,-1.931,1.328,37.0,132.0
47782,-0.074,-0.989,0.141,1.542,-1.519,0.656,36.0,131.0
47833,-0.085,-0.991,0.145,1.160,-1.779,1.336,36.0,131.0
47880,-0.082,-0.988,0.140,0.771,-0.015,0.305,36.0,132.0
47927,-0.095,-0.985,0.158,0.489,-1.763,0.779,37.0,133.0
47974,-0.082,-0.993,0.144,1.122,-2.611,0.229,37.0,132.0
48023,-0.092,-0.995,0.147,0.939,-1.191,0.313,36.0,178.0
48070,-0.084,-0.990,0.146,1.511,-1.275,0.466,36.0,135.0
48117,-0.094,-0.997,0.162,1.573,-1.244,0.962,36.0,133.0
48164,-0.081,-0.999,0.143,2.038,-2.328,0.412,37.0,133.0
48211,-0.086,-0.987,0.146,1.893,-0.053,0.344,36.0,132.0
48262,-0.087,-0.992,0.149,2.183,-2.824,0.496,37.0,132.0
48311,-0.080,-0.989,0.145,1.267,-0.137,0.015,37.0,178.0
48361,-0.086,-0.998,0.142,0.718,-1.916,-0.313,36.0,179.0
48410,-0.095,-0.981,0.156,0.679,-0.176,-0.084,36.0,177.0
48460,-0.098,-0.996,0.157,1.015,-2.534,-0.198,37.0,177.0
48553,-0.080,-0.998,0.141,1.107,-2.313,0.641,38.0,177.0
48603,-0.098,-0.985,0.160,0.588,1.908,2.374,36.0,178.0
48653,-0.106,-1.001,0.166,1.511,-3.725,2.519,36.0,178.0
48702,-0.074,-0.991,0.136,0.794,-0.855,0.504,36.0,177.0
48752,-0.114,-0.995,0.167,0.931,-0.939,1.160,37.0,132.0
48799,-0.084,-0.995,0.141,0.557,-4.137,0.847,37.0,130.0
48846,-0.092,-0.995,0.150,0.893,0.557,1.183,37.0,135.0
48893,-0.100,-0.989,0.157,1.122,-0.260,0.595,37.0,131.0
48941,-0.106,-0.995,0.151,1.550,-3.786,0.985,37.0,131.0
48988,-0.075,-0.988,0.138,1.557,-0.763,0.145,38.0,132.0
49036,-0.109,-0.990,0.157,0.435,1.359,-0.145,38.0,132.0
49085,-0.110,-0.988,0.165,1.588,-2.656,-0.557,37.0,177.0
49132,-0.088,-0.994,0.145,0.863,-1.840,-0.527,38.0,132.0
49185,-0.103,-0.990,0.147,1.321,0.992,0.015,37.0,179.0
49235,-0.105,-0.996,0.158,0.275,-2.160,-0.802,37.0,181.0
49286,-0.089,-0.990,0.139,0.863,-1.221,-0.504,38.0,176.0
49335,-0.101,-0.990,0.157,0.695,-1.748,0.221,38.0,177.0
49385,-0.081,-0.985,0.131,0.748,-4.618,-0.565,37.0,177.0
49435,-0.083,-0.992,0.141,0.137,1.244,-0.237,37.0,177.0
49485,-0.089,-0.991,0.155,0.145,-0.458,-1.336,37.0,177.0
49532,-0.094,-0.991,0.161,-0.191,-3.183,-0.969,37.0,134.0
49580,-0.069,-0.994,0.131,-0.115,-1.550,-2.237,38.0,131.0
49633,-0.096,-0.990,0.166,0.740,3.282,-0.763,37.0,179.0
49683,-0.103,-0.996,0.157,1.122,-3.763,-1.947,37.0,177.0
49733,-0.079,-0.998,0.135,0.885,-2.580,-2.901,37.0,178.0
49783,-0.102,-0.992,0.147,1.221,1.794,-0.794,37.0,178.0
49833,-0.110,-0.995,0.154,0.359,-2.427,0.008,37.0,178.0
49884,-0.080,-0.993,0.134,0.282,-1.191,1.008,37.0,178.0
49933,-0.097,-0.998,0.169,0.221,-0.405,1.282,37.0,179.0
49983,-0.075,-1.000,0.144,0.695,0.267,0.756,37.0,177.0
50033,-0.074,-0.988,0.154,1.137,1.901,0.290,37.0,180.0
50086,-0.088,-0.985,0.155,1.374,1.290,-0.679,37.0,179.0
50137,-0.071,-0.996,0.129,1.107,-0.084,-1.092,37.0,179.0
50185,-0.083,-0.992,0.146,0.786,4.382,-1.298,38.0,132.0
50232,-0.089,-1.001,0.155,0.656,0.298,-2.763,36.0,130.0
50279,-0.097,-0.991,0.153,-0.221,2.092,-2.511,36.0,131.0
50326,-0.094,-0.998,0.149,-0.130,-2.031,-2.443,37.0,130.0
50373,-0.073,-0.986,0.131,1.244,7.588,0.000,37.0,131.0
50420,-0.138,-0.999,0.188,0.870,-0.374,0.954,37.0,131.0
50468,-0.077,-0.985,0.122,1.473,-5.573,-0.260,36.0,130.0
50519,-0.074,-0.990,0.138,0.962,-0.527,2.130,37.0,129.0
50566,-0.083,-0.991,0.152,0.473,1.840,1.420,37.0,130.0
50613,-0.088,-1.003,0.169,0.420,-4.168,0.962,36.0,132.0
50660,-0.068,-0.996,0.135,0.458,-2.496,-0.481,36.0,132.0
50710,-0.078,-0.992,0.149,0.855,-0.565,0.763,38.0,178.0
50758,-0.074,-1.000,0.152,1.053,-0.229,-0.298,38.0,133.0
50808,-0.080,-0.996,0.151,1.481,-0.550,0.611,36.0,180.0
50856,-0.086,-0.995,0.146,1.252,-1.153,-1.046,36.0,134.0
50907,-0.085,-0.997,0.147,1.901,-0.473,-0.412,37.0,179.0
50960,-0.098,-0.991,0.156,1.725,-0.931,0.221,37.0,178.0
51053,-0.097,-0.995,0.149,1.305,-0.573,1.580,37.0,179.0
51103,-0.075,-0.988,0.128,1.069,-3.038,0.397,37.0,180.0
51153,-0.086,-0.991,0.136,0.947,2.519,1.985,37.0,178.0
51204,-0.097,-0.994,0.138,1.229,-0.931,0.710,37.0,179.0
51254,-0.093,-0.995,0.134,0.450,-1.718,-0.198,37.0,179.0
51305,-0.091,-0.988,0.131,-0.023,-1.908,-1.321,37.0,180.0
51355,-0.093,-0.999,0.157,-0.130,-0.328,-0.366,37.0,179.0
51405,-0.101,-0.992,0.149,0.580,-3.389,-0.656,38.0,177.0
51459,-0.083,-0.992,0.152,0.366,-1.412,0.008,38.0,177.0
51509,-0.094,-0.993,0.150,0.542,-2.313,-0.382,37.0,178.0
51560,-0.077,-1.004,0.146,0.160,-1.466,0.023,38.0,178.0
51610,-0.081,-0.996,0.153,0.901,-1.634,-0.908,37.0,179.0
51661,-0.086,-0.996,0.146,1.031,1.023,-0.412,38.0,178.0
51712,-0.096,-0.997,0.158,2.206,-2.511,-1.977,36.0,178.0
51762,-0.083,-0.996,0.131,1.260,-2.099,-2.664,37.0,179.0
51810,-0.092,-0.991,0.137,1.473,0.695,-0.802,37.0,132.0
51857,-0.084,-0.994,0.145,1.061,-0.168,-0.458,37.0,131.0
51908,-0.087,-0.996,0.150,1.359,-1.580,0.916,37.0,131.0
51955,-0.085,-0.989,0.145,1.000,-0.191,1.038,37.0,132.0
52003,-0.095,-0.996,0.160,1.008,-0.046,0.634,37.0,133.0
52050,-0.083,-0.990,0.147,0.916,-1.534,1.359,37.0,131.0
52099,-0.086,-0.999,0.147,0.733,-1.595,0.542,36.0,131.0
52146,-0.072,-0.988,0.149,0.809,0.466,-0.107,36.0,130.0
52194,-0.094,-1.000,0.157,0.664,-1.427,-0.153,36.0,131.0
52241,-0.070,-0.992,0.142,0.855,-1.664,-0.908,36.0,130.0
52289,-0.085,-0.988,0.154,0.672,0.794,-1.511,37.0,131.0
52339,-0.085,-0.991,0.154,1.466,-1.137,-0.595,37.0,130.0
52387,-0.082,-0.997,0.151,1.153,-1.137,-0.450,37.0,129.0
52434,-0.072,-0.984,0.143,1.115,0.473,-1.267,37.0,130.0
52483,-0.100,-0.990,0.160,1.084,-0.076,0.374,37.0,130.0
52530,-0.081,-1.002,0.132,1.046,-2.359,-1.107,37.0,129.0
52578,-0.086,-0.985,0.153,0.740,0.748,-0.893,37.0,129.0
52625,-0.095,-0.998,0.158,0.687,-3.252,0.405,37.0,130.0
52673,-0.068,-0.991,0.133,0.832,-0.702,-0.389,37.0,130.0
52725,-0.091,-0.991,0.161,1.389,0.229,1.137,36.0,130.0
52775,-0.077,-1.000,0.142,1.092,-2.611,-0.282,38.0,130.0
52822,-0.081,-0.988,0.139,1.092,0.092,0.649,37.0,131.0
52869,-0.084,-0.991,0.155,0.878,-2.221,0.328,37.0,133.0
52915,-0.081,-0.999,0.157,1.076,-6.603,-0.099,36.0,133.0
52965,-0.061,-0.991,0.130,0.702,0.275,0.084,36.0,180.0
53011,-0.101,-0.997,0.173,0.305,1.679,0.305,36.0,133.0
53058,-0.085,-0.995,0.163,0.916,-3.298,-0.725,38.0,133.0
53107,-0.072,-0.988,0.141,0.939,-0.733,-0.611,38.0,178.0
53157,-0.079,-0.993,0.137,1.214,-0.061,0.290,37.0,178.0
53210,-0.074,-0.994,0.141,0.840,-1.237,-0.389,37.0,182.0
53260,-0.074,-0.994,0.150,0.496,-0.626,-0.305,37.0,178.0
53309,-0.069,-1.007,0.151,0.840,-0.618,-1.924,37.0,177.0
53359,-0.088,-0.985,0.173,1.130,0.603,-0.740,37.0,182.0
53408,-0.086,-0.990,0.161,1.237,-4.557,-0.763,36.0,185.0
53458,-0.061,-1.000,0.139,1.168,1.115,0.771,36.0,179.0
53551,-0.081,-0.991,0.149,1.382,-1.046,0.038,38.0,177.0
53601,-0.083,-0.997,0.154,1.366,-3.053,0.252,37.0,183.0
53650,-0.066,-0.988,0.134,0.626,-0.649,-0.321,36.0,177.0
53703,-0.098,-0.990,0.157,0.511,-0.985,0.817,37.0,178.0
53752,-0.075,-0.999,0.145,0.687,-4.824,-0.443,38.0,183.0
53803,-0.067,-0.999,0.149,0.710,0.221,-0.519,37.0,177.0
53853,-0.088,-1.000,0.155,0.740,0.382,0.084,37.0,183.0
53902,-0.085,-0.996,0.149,0.824,-2.061,-0.626,36.0,184.0
53952,-0.075,-0.990,0.151,0.985,1.458,0.115,36.0,178.0
54001,-0.084,-0.998,0.156,1.489,-1.061,-0.214,36.0,178.0
54051,-0.078,-0.992,0.133,1.603,-1.695,-0.809,37.0,178.0
54102,-0.076,-0.993,0.137,0.763,-1.611,-0.542,37.0,134.0
54151,-0.076,-0.985,0.151,0.420,-1.305,-0.252,37.0,178.0
54201,-0.073,-1.002,0.159,0.244,-1.031,-0.198,36.0,178.0
54250,-0.091,-0.989,0.160,1.252,0.344,-0.595,36.0,178.0
54297,-0.082,-0.993,0.159,1.626,-3.458,0.160,37.0,131.0
54344,-0.076,-0.990,0.145,1.908,-1.802,1.023,36.0,131.0
54391,-0.073,-1.003,0.143,1.679,0.565,1.527,36.0,132.0
54438,-0.079,-0.989,0.152,1.374,1.427,1.458,37.0,135.0
54484,-0.079,-0.991,0.158,0.763,-3.947,0.061,36.0,133.0
54544,-0.061,-0.987,0.138,0.626,0.221,-0.656,36.0,132.0
54593,-0.080,-1.000,0.153,0.298,-0.763,-0.221,36.0,133.0
54642,-0.072,-0.993,0.150,0.214,-0.702,-1.214,36.0,133.0
54692,-0.072,-0.992,0.151,0.832,-0.580,-1.023,37.0,134.0
54745,-0.085,-0.996,0.161,1.527,-0.344,-1.580,36.0,179.0
54794,-0.069,-0.999,0.147,1.855,0.267,-1.618,37.0,134.0
54843,-0.092,-0.987,0.158,1.611,-0.275,-0.977,37.0,133.0
54893,-0.071,-0.993,0.141,1.496,-1.748,-1.466,36.0,131.0
54942,-0.075,-0.992,0.151,1.290,0.420,0.481,36.0,130.0
54994,-0.068,-0.992,0.144,0.855,-0.985,-0.809,36.0,131.0
55044,-0.082,-0.994,0.159,0.702,-0.580,0.046,36.0,132.0
55094,-0.070,-0.988,0.146,0.863,-2.588,-0.473,36.0,132.0
55143,-0.075,-0.996,0.158,0.420,-1.397,0.595,36.0,132.0
55192,-0.081,-0.996,0.154,1.252,-2.191,0.053,37.0,132.0
55244,-0.065,-0.988,0.132,0.756,-2.168,0.702,37.0,178.0
55294,-0.067,-0.993,0.158,0.634,-0.046,0.756,37.0,133.0
55346,-0.078,-0.997,0.147,0.550,0.519,0.733,37.0,178.0
55398,-0.076,-0.995,0.164,0.420,-1.954,0.160,36.0,179.0
55453,-0.068,-0.998,0.154,0.504,-1.450,-0.267,37.0,179.0
55506,-0.065,-0.994,0.152,1.069,0.664,-0.405,36.0,181.0
55559,-0.080,-0.995,0.162,0.992,-0.718,-1.290,36.0,184.0
55611,-0.068,-0.995,0.133,0.855,-1.176,-0.687,36.0,179.0
55663,-0.074,-0.999,0.152,1.053,-0.855,-0.344,36.0,179.0
55715,-0.076,-0.987,0.154,1.504,1.977,0.176,37.0,180.0
55769,-0.087,-1.002,0.156,1.214,-1.115,-0.969,37.0,179.0
55821,-0.069,-0.990,0.139,1.344,0.061,-0.962,36.0,184.0
55873,-0.075,-0.994,0.144,0.122,0.496,-1.008,36.0,180.0
55929,-0.084,-0.998,0.163,0.840,-0.435,-0.359,37.0,183.0
55982,-0.067,-0.989,0.144,0.527,-0.595,-0.389,36.0,182.0
56034,-0.081,-1.001,0.164,0.618,-0.420,-0.282,36.0,180.0
