Timestamp(ms),AccelX(g),AccelY(g),AccelZ(g),GyroX(deg/s),GyroY(deg/s),GyroZ(deg/s),DistanceLeft(cm),DistanceRight(cm)
284427,0.994,-0.281,-0.091,10.099,-1.351,-3.053,47.0,0.0
284511,0.958,-0.266,-0.043,16.496,-4.298,-4.382,47.0,0.0
284596,0.977,-0.180,-0.101,-0.061,-12.198,2.634,47.0,0.0
284680,0.996,-0.274,-0.140,1.840,-6.344,7.000,46.0,0.0
284765,0.965,-0.273,-0.133,7.351,-5.153,4.168,46.0,0.0
284849,0.942,-0.300,-0.120,5.817,-3.626,1.107,48.0,0.0
284934,0.962,-0.302,-0.129,-0.076,0.359,-1.656,46.0,0.0
285021,0.978,-0.287,-0.125,5.489,1.260,-3.824,48.0,0.0
285106,0.961,-0.242,-0.120,13.847,1.450,-0.641,47.0,0.0
285190,0.953,-0.253,-0.121,11.321,0.511,2.153,47.0,0.0
285275,0.910,-0.322,-0.098,20.962,2.534,2.573,46.0,0.0
285359,0.599,-0.353,-0.139,49.145,11.420,13.031,30.0,0.0
285452,0.597,-0.215,-0.186,51.710,40.305,5.595,0.0,0.0
285537,1.007,-0.354,-0.015,79.267,97.977,5.076,55.0,0.0
285631,1.114,-0.452,0.259,130.931,134.824,-27.206,0.0,0.0
285714,0.864,-0.112,0.427,98.756,161.122,-72.763,19.0,0.0
285810,0.537,-0.118,0.950,111.290,170.779,-92.290,0.0,0.0
285904,0.061,0.433,0.877,145.664,99.977,-91.389,0.0,0.0
285998,-0.152,0.822,1.098,166.260,25.115,-38.389,0.0,0.0
286092,0.385,0.914,0.236,-182.183,14.733,-19.023,0.0,0.0
286185,0.241,0.110,1.074,-0.282,-1.595,5.252,0.0,0.0
286279,0.206,0.636,0.741,30.412,-3.718,4.443,0.0,0.0
286372,0.256,0.543,0.831,-6.046,0.252,1.092,0.0,0.0
286466,0.252,0.434,0.873,-3.664,-0.718,0.122,0.0,0.0
286560,0.262,0.535,0.839,2.290,0.130,-1.069,0.0,0.0
286653,0.256,0.450,0.859,-0.695,-0.122,-0.214,0.0,0.0
286750,0.258,0.495,0.849,4.305,-0.679,-0.351,0.0,0.0
286843,0.259,0.492,0.844,1.069,-1.221,-0.763,0.0,0.0
286937,0.251,0.506,0.839,2.527,-0.504,-0.504,0.0,0.0
287031,0.254,0.498,0.846,1.687,-0.397,-0.405,0.0,0.0
287124,0.257,0.490,0.842,-0.992,-0.687,-0.626,0.0,0.0
287218,0.252,0.500,0.842,3.794,-1.420,-0.771,0.0,0.0
287311,0.259,0.512,0.829,0.588,-0.664,-0.672,0.0,0.0
287405,0.253,0.503,0.840,1.565,-0.260,-0.695,0.0,0.0
287499,0.253,0.505,0.851,2.817,-0.351,-0.733,0.0,0.0
287595,0.251,0.502,0.845,0.863,-0.504,-0.725,0.0,0.0
287689,0.258,0.509,0.838,1.939,-0.985,-0.656,0.0,0.0
287782,0.248,0.510,0.834,2.672,-1.153,-0.351,0.0,0.0
287877,0.257,0.522,0.832,1.130,-0.702,-0.374,0.0,0.0
287970,0.254,0.511,0.840,0.061,-0.496,-0.832,0.0,0.0
288064,0.254,0.516,0.832,4.901,-1.069,-0.496,0.0,0.0
288157,0.253,0.505,0.846,1.160,-0.802,-0.641,0.0,0.0
288251,0.259,0.512,0.826,3.115,-1.275,-0.298,0.0,0.0
288345,0.227,0.454,0.838,-6.763,-1.962,-2.168,0.0,0.0
288442,0.162,0.401,0.931,-21.855,-39.756,-1.931,0.0,0.0
288535,0.205,0.369,1.012,41.954,-68.397,-21.580,0.0,0.0
288629,0.304,0.416,0.791,61.176,-116.031,-47.237,0.0,0.0
288723,0.621,0.828,0.276,135.611,-119.000,-23.550,0.0,0.0
288817,0.490,0.967,0.116,-18.695,-33.908,-25.573,0.0,0.0
288911,0.591,0.769,0.361,18.687,-19.824,-5.290,0.0,0.0
289005,0.601,0.794,0.348,-0.870,-16.878,5.748,0.0,0.0
289091,0.530,0.741,0.310,27.481,-21.435,4.023,0.0,64.0
289184,0.486,0.731,0.306,22.397,-29.534,3.237,0.0,0.0
289278,0.759,0.797,0.195,79.107,-40.534,4.214,0.0,0.0
289370,1.136,0.811,0.062,50.489,-21.985,-2.389,0.0,0.0
289464,0.504,0.869,-0.033,10.840,43.443,29.458,0.0,0.0
289550,0.453,0.778,0.266,-52.168,-2.443,23.985,0.0,59.0
289636,0.597,0.775,0.107,-23.481,1.389,37.702,0.0,58.0
289721,0.861,0.498,0.048,-56.687,-25.595,0.817,0.0,57.0
289815,0.852,0.632,0.267,-9.595,13.832,-38.710,0.0,0.0
289909,0.364,0.850,0.200,-83.855,37.977,-33.802,0.0,0.0
289995,0.587,0.600,0.309,-39.473,-11.962,-10.473,0.0,57.0
290088,1.019,0.723,0.368,18.321,-31.183,-45.817,0.0,0.0
290186,0.635,1.009,0.343,3.427,-12.000,-41.817,0.0,0.0
290272,0.482,0.990,0.222,-38.000,-2.878,15.565,0.0,57.0
290366,0.517,0.622,0.382,-30.267,4.504,16.282,0.0,0.0
290459,0.536,0.700,0.380,-2.031,6.145,-5.618,0.0,0.0
290553,0.529,0.665,0.454,-6.458,0.298,-8.382,0.0,0.0
290648,0.439,0.712,0.457,-9.122,-9.046,-20.191,0.0,0.0
290742,0.521,0.702,0.458,5.611,-11.191,-29.924,0.0,0.0
290835,0.435,0.700,0.463,-21.198,-16.229,-58.076,0.0,0.0
290929,0.376,0.624,0.378,-45.969,-26.374,-72.908,0.0,0.0
291026,0.423,0.248,0.446,-79.519,-12.252,-154.229,0.0,0.0
291121,0.407,0.862,0.698,-34.466,56.794,-164.908,0.0,0.0
291215,-0.479,1.055,0.697,-74.115,-8.985,-116.229,0.0,0.0
291300,-0.964,0.761,0.500,102.336,-62.443,11.351,47.0,0.0
291394,1.088,1.697,0.611,-99.496,-62.275,-30.336,0.0,0.0
291488,0.222,0.917,0.526,77.649,-23.008,26.863,0.0,0.0
291582,0.224,0.854,0.606,133.481,-36.527,88.214,0.0,0.0
291676,0.079,0.811,0.297,202.710,-29.924,95.435,0.0,0.0
291770,0.585,1.496,-0.244,169.008,27.191,198.389,0.0,0.0
291868,1.461,0.292,0.379,45.847,-20.191,227.489,0.0,0.0
291961,-0.065,-0.110,0.457,41.435,-2.962,-89.969,0.0,0.0
292056,-0.116,1.178,-0.766,-136.908,-20.015,-38.718,0.0,0.0
292151,0.809,0.293,0.223,216.389,-53.229,-86.595,0.0,0.0
292245,0.417,0.952,-0.480,34.763,-44.275,-32.748,0.0,0.0
292339,0.562,0.887,-0.370,5.954,20.427,-42.168,0.0,0.0
292439,0.495,0.740,-0.013,-27.008,20.740,-34.359,0.0,0.0
292532,0.342,0.928,-0.147,-47.420,2.252,-69.420,0.0,0.0
292628,0.187,1.056,-0.016,-32.931,36.076,-39.954,0.0,0.0
292721,0.150,0.998,0.176,10.985,1.756,7.405,0.0,0.0
292813,0.244,1.026,-0.028,36.420,-26.168,30.985,0.0,0.0
292907,0.306,0.992,-0.071,86.359,-30.336,76.588,0.0,0.0
293000,0.499,2.000,-0.146,-67.489,61.626,45.832,0.0,0.0
293093,-0.407,-0.258,0.583,-250.137,-133.145,-64.206,0.0,0.0
293178,-0.339,0.498,-0.179,40.000,-202.069,-72.198,0.0,64.0
293272,-0.095,1.184,-1.319,250.130,-219.435,-75.153,0.0,0.0
293365,0.836,1.369,-1.074,-246.382,-0.099,14.023,0.0,0.0
293460,0.491,0.420,0.433,-65.458,65.901,-27.374,0.0,0.0
293543,0.219,1.033,0.604,-90.672,-14.687,-71.641,0.0,10.0
293630,0.496,0.802,0.577,-65.931,-39.649,-10.275,89.0,0.0
293724,0.340,0.905,0.172,-6.504,-49.168,-29.313,0.0,0.0
293808,0.841,0.665,0.658,-199.237,29.069,-70.977,38.0,0.0
293902,-0.349,0.536,-0.153,59.985,49.382,-37.794,0.0,0.0
293995,0.271,1.416,2.000,-29.000,-59.809,-133.947,0.0,0.0
294088,0.235,0.510,0.920,-197.176,32.748,-135.336,0.0,0.0
294164,-0.277,0.214,0.072,-250.137,120.000,-228.443,30.0,47.0
294250,-0.241,-0.611,0.446,-250.137,138.000,-125.542,162.0,50.0
294333,-0.459,-0.674,0.610,-136.153,114.809,-125.282,23.0,0.0
294417,-0.635,-0.873,0.491,-167.374,72.145,-135.328,27.0,0.0
294501,-0.738,-1.042,0.553,-69.824,29.061,-88.916,30.0,193.0
294584,-0.591,-0.825,0.267,-87.252,-16.519,-64.382,31.0,190.0
294668,-0.457,-0.768,0.276,-49.649,-23.649,-91.069,35.0,194.0
294752,-0.192,-0.560,0.200,-97.863,22.305,-95.939,36.0,190.0
294836,0.087,-0.487,-0.005,-133.366,98.252,-128.802,30.0,191.0
294923,0.364,-0.002,-0.527,-6.038,89.267,-222.344,30.0,0.0
295006,1.186,-0.177,-0.932,-147.832,18.260,-82.168,28.0,0.0
295087,0.996,-0.276,-1.077,59.137,-34.183,-148.160,31.0,129.0
295166,0.814,-0.144,-0.507,73.000,-2.084,-129.756,35.0,124.0
295250,0.978,-0.147,-0.372,179.817,21.817,-95.595,36.0,0.0
295335,1.104,0.669,-1.010,-250.137,26.298,-97.878,39.0,0.0
295421,1.032,-0.830,0.256,-115.183,51.550,-64.031,154.0,121.0
295506,0.903,-0.279,-1.044,250.130,21.855,7.740,43.0,0.0
295599,0.742,0.325,-0.611,-112.496,16.053,-114.221,116.0,0.0
295692,1.495,-0.149,0.082,-44.061,59.267,-98.809,0.0,0.0
295782,0.917,0.429,-0.179,76.160,89.160,-84.115,140.0,0.0
295876,0.804,0.542,0.087,-63.832,59.947,-87.687,0.0,0.0
295969,0.800,0.607,0.296,10.649,36.832,-21.298,0.0,0.0
296064,0.717,0.941,0.064,-26.084,12.649,-2.084,0.0,0.0
296157,1.029,0.534,0.000,97.855,-12.061,34.176,0.0,0.0
296251,0.641,0.426,-0.144,76.053,-39.328,34.947,0.0,0.0
296344,0.685,0.324,-0.004,83.725,-33.443,26.260,0.0,0.0
296438,0.661,0.481,-0.150,80.641,-23.115,-17.725,156.0,0.0
296532,1.118,0.594,-0.015,86.168,13.893,-125.534,0.0,0.0
296626,0.705,0.772,-0.156,-101.115,60.985,-91.450,0.0,0.0
296720,0.635,0.681,0.060,16.641,9.740,-11.466,0.0,0.0
296813,0.719,0.844,-0.068,-4.679,6.473,7.183,0.0,0.0
296907,0.714,0.604,0.005,-5.557,-6.588,0.573,0.0,0.0
297000,0.740,0.683,-0.064,7.740,-10.359,-2.840,0.0,0.0
297095,0.743,0.689,-0.090,1.969,-6.519,-4.313,0.0,0.0
297188,0.732,0.724,-0.114,0.069,-2.405,-2.450,0.0,0.0
297285,0.728,0.715,-0.088,2.458,0.420,0.962,0.0,0.0
297378,0.734,0.666,-0.069,5.305,-1.672,-2.046,0.0,0.0
297472,0.719,0.720,-0.109,-1.366,-1.092,-6.168,0.0,0.0
297566,0.718,0.742,-0.113,3.405,1.527,-4.718,0.0,0.0
297659,0.720,0.701,-0.070,-0.359,2.031,-0.359,0.0,0.0
297753,0.716,0.700,-0.082,4.779,-1.214,-1.260,0.0,0.0
297846,0.705,0.711,-0.094,5.885,-2.023,-3.641,0.0,0.0
297940,0.711,0.721,-0.095,-2.008,-1.565,-3.656,0.0,0.0
298035,0.712,0.727,-0.087,3.115,0.710,-2.122,0.0,0.0
298128,0.716,0.709,-0.072,5.267,-0.466,-0.115,0.0,0.0
298225,0.709,0.722,-0.092,6.519,-2.634,-0.954,0.0,0.0
298318,0.709,0.739,-0.110,0.061,-2.939,-1.672,0.0,0.0
298413,0.704,0.724,-0.116,1.198,-0.527,0.527,0.0,0.0
298506,0.703,0.713,-0.102,1.466,0.015,1.389,0.0,0.0
298600,0.708,0.708,-0.098,4.924,-1.382,-2.275,0.0,0.0
298694,0.707,0.743,-0.119,0.878,-1.023,-1.656,0.0,0.0
298787,0.709,0.723,-0.095,0.641,0.130,-0.328,0.0,0.0
298882,0.710,0.716,-0.101,1.595,-0.863,-1.802,0.0,0.0
298976,0.700,0.735,-0.112,2.992,-1.511,-2.160,0.0,0.0
299072,0.702,0.731,-0.116,1.107,-1.557,-2.313,0.0,0.0
299166,0.708,0.733,-0.104,5.573,-1.771,-2.023,0.0,0.0
299260,0.697,0.733,-0.118,0.305,-0.817,-1.336,0.0,0.0
299354,0.697,0.728,-0.114,1.710,-0.435,-1.504,0.0,0.0
299448,0.698,0.734,-0.113,3.756,-1.260,-2.389,0.0,0.0
299542,0.693,0.721,-0.114,2.183,-1.527,-1.710,0.0,0.0
299636,0.696,0.745,-0.118,0.832,-0.771,-1.015,0.0,0.0
299729,0.691,0.735,-0.125,1.092,-0.687,-0.710,0.0,0.0
299824,0.688,0.726,-0.111,1.397,-0.962,-1.282,0.0,0.0
299921,0.693,0.731,-0.119,-0.252,-0.053,-1.809,0.0,0.0
300015,0.688,0.736,-0.109,0.878,0.092,-1.282,0.0,0.0
300108,0.698,0.741,-0.107,-0.863,-0.183,-1.046,0.0,0.0
300203,0.689,0.747,-0.122,-0.489,0.115,-0.328,0.0,0.0
300297,0.690,0.738,-0.105,-3.534,2.863,0.534,0.0,0.0
300390,0.701,0.719,-0.087,-3.611,4.382,-2.550,0.0,0.0
300484,0.689,0.728,-0.080,0.405,2.527,-3.427,0.0,0.0
300578,0.678,0.753,-0.063,0.710,-1.321,-2.595,0.0,0.0
300673,0.683,0.749,-0.103,-3.275,0.702,-1.359,0.0,0.0
300766,0.703,0.707,-0.099,-15.221,6.374,-13.450,0.0,0.0
300863,0.802,1.028,-0.191,-161.122,16.992,-38.366,0.0,0.0
300957,0.802,0.522,0.226,-37.313,87.305,-41.611,0.0,0.0
301051,0.387,0.678,0.277,-164.008,104.313,-43.397,0.0,0.0
301146,0.251,0.785,0.609,-89.260,103.939,-16.153,0.0,0.0
301240,0.072,0.260,0.992,-81.351,66.817,-31.015,0.0,0.0
301334,0.038,0.498,0.882,-46.527,53.542,-32.099,0.0,0.0
301415,-0.080,0.324,1.065,-62.061,38.229,-24.466,19.0,155.0
301497,-0.081,0.407,0.965,-6.908,12.282,-4.115,19.0,155.0
301578,-0.045,0.290,0.912,-6.481,5.443,-8.489,18.0,155.0
301663,-0.066,0.320,1.071,28.878,-0.290,-6.985,19.0,155.0
301744,0.010,0.417,0.880,-0.511,5.817,-11.779,20.0,155.0
301826,-0.054,0.446,0.862,17.832,-1.855,-11.076,19.0,155.0
301906,-0.077,0.546,0.805,35.076,-3.595,-11.573,19.0,155.0
301988,-0.066,0.341,0.975,7.466,-0.969,0.122,20.0,155.0
302069,-0.115,0.502,0.859,19.725,-2.008,11.695,20.0,155.0
302161,-0.056,0.349,1.004,48.282,-1.710,10.198,0.0,155.0
302245,-0.051,0.669,0.792,50.832,-5.351,5.840,21.0,0.0
302332,-0.044,0.643,0.768,18.290,-2.084,2.977,23.0,0.0
302416,-0.041,0.603,0.802,2.687,-0.634,0.527,23.0,0.0
302500,-0.058,0.605,0.805,12.282,-1.443,0.206,23.0,0.0
302595,-0.048,0.643,0.780,15.229,-2.168,0.290,0.0,0.0
302689,-0.029,0.667,0.765,5.756,-2.084,-0.198,0.0,0.0
302783,-0.041,0.636,0.797,11.962,-2.496,0.023,0.0,0.0
302877,-0.029,0.667,0.753,15.389,-2.573,0.542,0.0,0.0
302971,-0.015,0.704,0.730,13.290,-1.901,1.198,0.0,0.0
303066,-0.040,0.684,0.749,9.160,-1.305,0.427,0.0,0.0
303160,-0.024,0.714,0.705,11.710,-2.000,0.763,0.0,0.0
303258,-0.013,0.717,0.718,12.977,-2.023,1.260,0.0,0.0
303352,-0.011,0.747,0.690,1.634,-1.244,-0.931,0.0,0.0
303447,-0.026,0.716,0.700,0.336,-0.305,-0.992,0.0,0.0
303541,-0.020,0.723,0.695,2.481,-0.786,-0.015,0.0,0.0
303635,-0.019,0.719,0.693,3.000,-0.969,-0.206,0.0,0.0
303729,-0.022,0.719,0.684,8.649,-2.046,0.954,0.0,0.0
303823,-0.012,0.740,0.682,-0.344,-0.038,-1.473,0.0,0.0
303918,-0.031,0.737,0.687,0.389,0.542,-0.695,0.0,0.0
304018,-0.016,0.776,0.680,13.618,-2.885,-0.565,0.0,0.0
304113,-0.006,0.771,0.663,-2.550,-0.656,0.527,0.0,0.0
304206,-0.021,0.715,0.701,-6.176,-0.061,-0.321,0.0,0.0
304301,-0.025,0.720,0.708,4.344,-0.977,0.847,0.0,0.0
304394,-0.004,0.745,0.674,-1.527,0.725,-0.389,0.0,0.0
304487,-0.023,0.740,0.687,-8.198,1.145,-0.901,0.0,0.0
304580,-0.033,0.718,0.713,-6.649,1.664,0.382,0.0,0.0
304673,-0.021,0.732,0.712,-6.221,1.573,0.130,0.0,0.0
304766,-0.031,0.702,0.717,-1.084,0.069,-0.794,0.0,0.0
304860,-0.028,0.716,0.721,-1.130,-0.679,-0.641,0.0,0.0
304956,-0.026,0.706,0.727,-0.924,-0.718,0.313,0.0,0.0
305049,-0.030,0.695,0.729,-2.534,0.015,-0.977,0.0,0.0
305142,-0.031,0.702,0.723,0.366,-0.450,-1.298,0.0,0.0
305236,-0.025,0.711,0.708,1.649,-1.382,-1.504,0.0,0.0
305330,-0.071,0.704,0.703,7.855,-10.939,-13.656,0.0,0.0
305423,0.020,0.764,0.693,18.466,-4.153,-2.679,0.0,0.0
305516,-0.011,0.748,0.671,-7.267,1.176,-2.580,0.0,0.0
305610,-0.020,0.711,0.719,-0.786,-0.397,-1.023,0.0,0.0
305703,-0.018,0.704,0.719,3.313,0.031,-0.832,0.0,0.0
305797,-0.024,0.720,0.708,3.260,-0.290,0.580,0.0,0.0
305893,-0.019,0.736,0.703,4.290,-1.214,-0.389,0.0,0.0
305986,-0.020,0.729,0.700,1.656,-0.779,0.015,0.0,0.0
306080,-0.018,0.713,0.716,11.908,-2.534,3.458,0.0,0.0
306173,-0.012,0.753,0.662,14.153,-3.718,1.626,0.0,0.0
306267,-0.010,0.750,0.665,2.573,-1.053,-0.603,0.0,0.0
306360,-0.010,0.759,0.682,-4.534,1.565,-0.939,0.0,0.0
306454,-0.013,0.752,0.683,-2.420,0.962,-0.687,0.0,0.0
306547,-0.017,0.739,0.679,-1.260,-0.206,-0.710,0.0,0.0
306640,-0.021,0.741,0.689,-0.015,-0.748,-0.847,0.0,0.0
306738,-0.023,0.745,0.692,-0.069,-0.740,-1.191,0.0,0.0
306831,-0.022,0.734,0.675,-1.947,-0.244,-2.412,0.0,0.0
306924,-0.001,0.746,0.599,-1.779,-2.099,-4.893,0.0,0.0
307018,-0.007,0.713,0.679,6.237,-0.359,-1.115,0.0,0.0
307111,-0.010,0.759,0.675,-11.275,2.511,-3.305,0.0,0.0
307205,-0.027,0.728,0.653,-13.382,1.969,-5.069,0.0,0.0
307299,-0.011,0.705,0.719,-14.832,4.420,0.260,0.0,0.0
307392,-0.062,0.681,0.772,33.687,-2.084,-1.969,0.0,0.0
307473,-0.117,1.350,0.253,-250.137,34.160,-4.649,23.0,154.0
307557,-0.201,-1.022,1.520,-153.595,-13.718,-30.061,17.0,155.0
307638,-0.010,0.587,0.336,250.130,-48.168,75.168,20.0,157.0
307719,0.068,-0.096,0.606,-250.137,38.031,-72.824,17.0,157.0
307801,-0.203,0.105,0.677,250.130,-36.145,47.115,17.0,158.0
307881,-0.047,-0.332,1.160,-74.870,-27.618,-9.145,17.0,159.0
307973,-0.002,0.815,0.708,169.107,-26.008,2.702,0.0,161.0
308067,0.683,2.000,-0.822,250.130,-20.679,93.221,0.0,0.0
308160,-0.070,-1.125,1.740,-46.626,-7.595,-26.664,0.0,0.0
308257,0.263,1.429,0.294,-168.099,-13.817,8.489,0.0,0.0
308352,0.439,1.302,0.138,124.718,-22.641,50.511,0.0,0.0
308445,0.276,0.259,0.760,-18.611,1.084,27.534,0.0,0.0
308539,0.201,-0.039,1.009,83.626,-11.863,25.985,0.0,0.0
308632,0.270,1.253,0.208,-91.527,6.542,-32.435,0.0,0.0
308726,0.242,-0.079,0.876,240.122,-15.145,20.580,0.0,0.0
308819,1.103,2.000,-1.029,79.916,-13.023,35.435,0.0,0.0
308914,0.271,-0.963,1.470,-178.939,15.527,-23.809,0.0,0.0
309008,0.695,2.000,-0.891,194.962,-5.962,14.802,0.0,0.0
309104,-0.005,-0.513,0.956,-48.947,12.008,-22.137,0.0,0.0
309198,0.502,1.774,-0.239,67.611,2.718,-22.008,0.0,0.0
309293,0.239,0.808,0.294,41.947,8.786,-38.107,0.0,0.0
309386,0.006,0.343,0.447,-40.481,38.252,-35.779,0.0,0.0
309480,0.086,1.167,-0.083,107.023,26.137,-8.282,0.0,0.0
309573,1.015,2.000,0.408,-153.260,26.061,-96.008,0.0,0.0
309667,0.021,0.690,0.720,-152.427,32.573,-23.435,0.0,0.0
309762,-0.280,0.426,0.987,138.298,-23.344,5.992,0.0,0.0
309855,0.169,1.470,-0.148,-59.443,20.649,10.244,0.0,0.0
309952,-0.170,0.658,0.795,86.718,-25.305,-19.756,0.0,0.0
310046,0.024,1.552,0.038,-236.718,36.740,-30.069,0.0,0.0
310129,-0.073,-0.285,1.344,26.473,3.534,-6.802,16.0,0.0
310223,0.107,1.300,0.349,-69.298,-17.008,29.267,0.0,0.0
310318,-0.429,-0.513,1.221,153.160,-21.382,24.511,0.0,0.0
310412,-0.109,1.959,-0.215,-250.137,39.931,29.664,0.0,0.0
310506,0.045,-0.875,1.678,226.145,-76.756,111.473,0.0,0.0
310599,0.148,1.467,0.373,74.656,-29.374,208.153,0.0,0.0
310693,0.664,0.061,0.719,-183.244,-7.504,97.046,0.0,0.0
310791,0.541,-0.218,0.778,-72.580,23.351,63.992,0.0,0.0
310885,1.036,-0.448,0.919,-66.076,-0.908,95.473,0.0,0.0
310974,0.185,0.457,0.671,79.672,7.489,140.779,125.0,0.0
311065,0.023,-0.219,1.050,-24.832,15.550,-87.328,147.0,0.0
311156,0.631,-0.069,0.778,-33.931,16.954,-14.573,146.0,0.0
311240,0.333,0.047,0.914,20.847,1.588,33.427,16.0,0.0
311329,0.381,-0.149,1.133,-49.573,-37.748,11.130,122.0,0.0
311413,0.540,-0.191,0.871,-232.832,-46.824,-39.351,16.0,0.0
311507,0.639,-0.916,0.927,-163.634,-49.031,-58.855,0.0,0.0
311605,0.644,-0.356,0.568,0.992,-89.443,-60.603,0.0,0.0
311699,0.805,-0.358,0.446,-73.809,-93.069,-55.748,0.0,0.0
311789,0.826,-0.364,0.238,-81.023,-92.863,-36.863,126.0,0.0
311876,0.804,-0.265,-0.024,-61.542,-95.344,-36.405,128.0,155.0
311963,0.931,-0.198,-0.280,-76.351,-83.298,-25.550,129.0,149.0
312051,0.966,-0.194,-0.397,-49.733,-50.076,-7.282,131.0,146.0
312138,0.925,-0.165,-0.403,-37.718,-29.038,-2.115,131.0,145.0
312229,0.853,-0.206,-0.382,-14.183,-27.534,-1.405,0.0,144.0
312320,0.833,-0.219,-0.449,-6.282,-29.924,0.977,131.0,143.0
312407,0.854,-0.220,-0.536,-4.198,-22.519,2.527,134.0,143.0
312494,0.817,-0.213,-0.558,11.038,-9.687,3.947,133.0,142.0
312581,0.878,-0.228,-0.528,-2.389,-4.496,-0.061,133.0,142.0
312668,0.869,-0.219,-0.510,3.672,-1.137,-0.267,134.0,143.0
312759,0.848,-0.267,-0.463,0.840,2.443,5.557,0.0,143.0
312846,0.845,-0.270,-0.468,-5.710,-0.595,0.435,132.0,143.0
312933,0.848,-0.194,-0.532,-3.924,-6.542,-4.298,132.0,142.0
313020,0.839,-0.202,-0.540,5.137,-5.679,-3.053,132.0,142.0
313110,0.828,-0.203,-0.541,8.977,-2.687,-1.878,132.0,142.0
313197,0.852,-0.232,-0.539,7.099,0.282,-2.519,133.0,142.0
313284,0.845,-0.216,-0.523,12.855,4.153,-1.756,134.0,142.0
313372,0.840,-0.271,-0.516,10.947,7.267,-4.962,135.0,142.0
313459,0.851,-0.312,-0.520,43.863,20.947,-10.916,135.0,142.0
313546,0.825,-0.252,-0.457,51.725,33.351,-18.687,133.0,142.0
313633,0.892,-0.226,-0.461,113.298,44.664,-21.099,136.0,143.0
313724,1.091,-0.037,-0.466,43.557,57.099,-31.481,135.0,0.0
313819,1.235,-0.053,-0.264,100.672,88.916,-16.023,134.0,0.0
313909,1.123,-0.140,0.053,136.115,121.855,11.389,133.0,0.0
314001,0.905,0.063,0.324,26.947,99.412,12.351,156.0,0.0
314092,1.042,-0.293,0.405,13.427,90.412,1.237,156.0,0.0
314184,0.932,-0.137,0.202,108.382,121.237,-13.359,157.0,0.0
314278,0.649,-0.232,0.560,115.397,130.458,-29.573,0.0,0.0
314373,0.404,-0.050,0.734,105.794,110.794,-59.344,0.0,0.0
314468,-0.270,0.150,1.016,112.458,67.481,-94.351,0.0,0.0
314552,-0.366,0.775,0.770,53.351,39.489,-52.847,0.0,30.0
314640,0.047,0.686,1.145,-11.008,53.588,-16.931,0.0,28.0
314724,0.098,0.521,1.148,-8.656,23.069,-24.466,0.0,24.0
314809,-0.017,0.935,0.795,-39.611,2.763,-1.885,0.0,22.0
314896,0.081,0.854,0.782,-109.886,2.893,10.267,0.0,69.0
314982,-0.403,0.807,0.615,19.260,-11.779,19.168,0.0,66.0
315077,-0.455,0.222,0.632,-53.893,-9.687,113.679,0.0,0.0
315171,-0.026,0.179,0.693,10.298,50.374,119.031,0.0,199.0
315264,-0.105,0.033,0.903,-82.321,64.473,63.924,176.0,197.0
315355,-0.113,0.026,1.010,3.344,47.137,65.229,173.0,159.0
315448,-0.123,0.101,1.045,56.824,28.893,49.847,160.0,159.0
315537,-0.119,0.365,0.995,-2.374,34.870,62.908,160.0,156.0
315635,-0.089,0.237,1.206,-22.641,10.542,50.374,160.0,196.0
315723,-0.353,0.098,1.108,-19.733,-28.809,24.977,161.0,154.0
315805,-0.190,0.092,0.876,-3.786,-36.443,-29.969,97.0,95.0
315887,-0.144,0.035,0.782,53.069,12.565,-71.000,99.0,90.0
315971,-0.417,0.007,0.952,29.740,19.863,-102.832,103.0,142.0
316058,-0.489,0.221,0.953,94.519,78.053,-71.985,110.0,179.0
316149,-0.272,1.138,0.452,40.771,61.450,21.939,119.0,179.0
316240,0.011,0.266,0.254,97.794,45.725,69.695,191.0,175.0
316334,-0.618,-0.005,1.187,51.282,-18.229,107.893,192.0,0.0
316418,0.094,1.744,0.272,22.519,-9.702,50.267,31.0,0.0
316511,-0.505,0.909,0.811,123.267,7.076,44.366,0.0,0.0
316598,-0.382,0.761,1.238,42.374,34.153,-9.687,85.0,0.0
316681,-0.716,0.544,0.251,250.130,-38.786,62.733,26.0,0.0
316756,0.586,0.197,0.405,-250.137,-250.137,-137.168,24.0,57.0
316843,0.353,0.173,-0.586,-32.038,-49.313,-237.626,0.0,72.0
316932,-0.544,0.793,-0.424,-96.023,0.931,-40.618,0.0,69.0
317008,-0.897,1.205,0.422,177.237,-27.374,6.908,37.0,66.0
317092,0.260,0.323,0.176,-30.969,-44.420,-13.099,17.0,0.0
317167,-0.469,1.211,0.282,42.099,-80.290,-35.405,17.0,64.0
317243,-0.565,0.730,0.943,-9.863,-69.947,-81.794,29.0,57.0
317327,-0.299,0.871,0.602,39.237,-74.870,-87.901,26.0,0.0
317420,-0.917,1.102,0.423,101.198,-136.115,-105.504,0.0,0.0
317514,-0.708,0.674,0.043,-143.916,-210.435,-241.267,0.0,0.0
317601,-0.464,0.606,0.968,6.893,-34.580,-250.137,27.0,0.0
317684,-0.474,0.055,1.308,-111.145,32.947,-250.137,27.0,0.0
317769,-0.565,-0.186,0.649,138.886,-71.962,-250.137,33.0,0.0
317846,0.228,0.129,0.360,136.321,-115.763,-250.137,49.0,59.0
317922,0.636,0.103,0.533,82.153,-81.206,-250.137,48.0,47.0
318016,-0.187,0.636,0.892,171.008,12.099,-157.824,0.0,0.0
318100,-0.559,1.072,1.001,-21.511,13.435,15.870,0.0,31.0
318184,-0.256,0.137,0.625,-250.137,30.893,-13.076,0.0,37.0
318262,-0.498,-0.459,0.741,-19.565,-20.710,19.710,57.0,63.0
318351,-0.106,0.280,0.515,131.305,-112.534,1.260,57.0,0.0
318444,0.113,0.009,0.833,-70.244,-146.947,-105.824,0.0,0.0
318528,1.233,-0.157,1.245,31.573,-9.809,-59.252,0.0,16.0
318611,0.171,-0.084,1.177,-43.588,-7.435,-86.198,0.0,17.0
318694,0.375,-0.560,1.122,72.672,-49.214,-41.137,0.0,16.0
318778,1.254,0.130,0.833,144.725,-65.267,-19.542,0.0,17.0
318860,0.277,1.093,0.063,28.534,-19.779,-78.412,0.0,5.0
318934,0.329,0.586,0.703,-143.893,-17.824,42.924,41.0,8.0
319019,0.720,-0.132,1.263,-74.603,-37.176,32.954,42.0,0.0
319095,0.656,0.115,0.903,124.527,-9.893,-36.878,46.0,10.0
319170,0.508,0.373,0.561,30.687,-28.985,-3.359,51.0,8.0
319245,0.682,0.444,0.655,45.527,-24.137,42.969,53.0,8.0
319328,0.806,0.532,0.730,-35.824,-14.634,58.519,0.0,13.0
319411,0.506,0.348,0.795,-109.924,-46.450,79.221,0.0,18.0
319497,0.601,0.021,0.754,-51.473,-93.710,109.099,51.0,0.0
319574,0.873,-0.450,0.521,-143.649,-83.840,56.740,54.0,57.0
319651,0.720,-0.463,0.260,-85.221,-80.458,48.053,54.0,60.0
319732,0.749,-0.366,0.039,-73.733,-70.221,38.031,57.0,62.0
319811,0.825,-0.499,-0.070,-72.206,-55.198,32.290,56.0,82.0
319897,0.923,-0.491,-0.116,-46.908,-36.160,24.015,57.0,0.0
319983,0.917,-0.556,-0.093,10.061,-15.595,26.130,57.0,0.0
320067,1.061,-0.568,-0.138,8.198,-8.565,18.534,54.0,171.0
320151,1.572,0.063,-0.395,154.855,-2.542,53.191,52.0,187.0
320235,0.930,0.116,-0.088,98.985,89.160,184.031,51.0,160.0
320326,0.209,-0.584,0.568,46.687,103.053,127.275,0.0,154.0
320418,-0.178,-0.757,0.680,250.130,102.962,63.763,0.0,174.0
320509,-0.260,-0.085,0.708,37.710,85.954,76.908,101.0,0.0
320604,-0.531,-0.643,0.815,-80.969,45.534,88.886,0.0,0.0
320696,-0.408,-0.679,0.668,-7.710,9.176,118.954,163.0,0.0
320787,-0.524,-0.410,0.430,-22.328,9.206,155.443,158.0,0.0
320878,-0.144,-0.257,0.504,-28.313,34.763,234.702,150.0,0.0
320964,-0.246,-0.010,0.368,115.702,43.397,241.031,66.0,0.0
321050,-1.096,0.238,-0.204,-159.122,68.626,123.573,58.0,0.0
321136,-2.000,2.000,0.999,-109.008,-180.954,167.870,54.0,0.0
321224,-0.943,-0.175,1.068,-98.313,-48.176,116.115,30.0,0.0
321307,-0.382,0.656,0.632,-8.847,-109.252,113.794,19.0,0.0
321391,-0.227,0.405,0.884,4.679,-85.969,104.878,18.0,0.0
321475,0.133,0.654,0.627,14.740,-92.260,92.191,20.0,0.0
321558,0.344,1.141,0.763,95.664,27.794,43.389,17.0,0.0
321642,-0.275,0.200,1.013,102.321,-10.206,32.084,15.0,0.0
321725,-0.003,0.875,0.559,147.618,-8.099,43.031,16.0,0.0
321809,0.232,1.401,-0.279,-29.008,7.634,9.985,15.0,0.0
321902,0.177,0.855,0.470,-2.420,-3.802,0.939,0.0,0.0
321999,0.051,0.886,0.501,94.748,-9.244,16.015,0.0,0.0
322082,0.176,1.108,-0.139,31.565,-4.206,5.359,16.0,0.0
322177,0.104,0.885,0.445,29.885,0.244,9.115,0.0,0.0
322271,0.099,1.122,-0.094,124.069,8.260,45.397,0.0,0.0
322365,-0.044,1.026,-0.152,216.061,74.435,132.137,0.0,0.0
322459,0.934,1.905,0.054,250.130,157.756,125.740,0.0,0.0
322544,0.265,0.903,-0.723,-89.275,-0.015,34.718,0.0,59.0
322631,1.211,-0.007,-0.329,22.344,49.809,29.443,0.0,60.0
322716,0.639,0.699,-0.385,25.542,70.802,4.931,0.0,57.0
322805,0.678,0.419,-0.207,-1.244,5.344,-4.198,0.0,57.0
322891,0.779,0.499,-0.348,8.771,-26.122,-11.412,0.0,57.0
322977,0.725,0.585,-0.535,21.260,-22.328,-2.947,0.0,57.0
323063,0.607,0.859,-0.442,-104.374,-15.573,-45.351,0.0,57.0
323147,0.829,0.405,-0.309,98.710,-34.359,17.313,0.0,17.0
323231,0.659,0.702,-0.688,-18.489,-15.511,6.885,0.0,16.0
323314,0.636,0.396,-0.511,5.885,-6.748,-4.237,0.0,16.0
323398,0.718,0.566,-0.519,15.847,-5.053,-4.924,0.0,16.0
323482,0.658,0.582,-0.558,-1.206,-7.977,-3.069,0.0,16.0
323571,0.692,0.547,-0.586,5.611,-5.863,3.412,0.0,59.0
323657,0.669,0.510,-0.567,-0.061,1.855,0.756,0.0,58.0
323743,0.676,0.507,-0.520,3.420,3.244,-2.809,0.0,58.0
323829,0.653,0.535,-0.526,2.275,-1.366,-2.008,0.0,58.0
323915,0.666,0.574,-0.534,-6.023,-5.168,0.573,0.0,58.0
323999,0.679,0.549,-0.541,1.702,-7.267,6.290,0.0,16.0
324082,0.676,0.533,-0.572,-21.191,-7.618,-2.015,0.0,16.0
324166,0.646,0.557,-0.576,-6.145,-8.878,-0.015,0.0,16.0
324260,0.634,0.526,-0.525,-17.237,-13.412,2.466,0.0,0.0
324358,0.467,0.554,-0.458,-22.069,-41.023,-10.420,0.0,0.0
324452,0.656,0.648,-0.679,-21.115,-73.740,4.550,0.0,0.0
324546,0.676,0.442,-0.759,5.870,-40.588,25.328,0.0,0.0
324630,0.684,0.561,-0.902,-27.214,11.435,26.122,17.0,0.0
324724,0.527,0.419,-0.601,-11.389,25.008,1.588,0.0,0.0
324808,0.580,0.461,-0.528,-19.595,-14.687,-34.603,17.0,0.0
324902,0.336,0.705,-0.621,-81.695,21.824,-44.008,0.0,0.0
324986,0.275,0.928,-0.538,41.450,24.969,13.557,16.0,0.0
325081,0.552,0.615,-0.490,-4.802,20.916,-17.244,0.0,0.0
325178,0.428,0.977,-0.516,-6.000,27.008,-9.008,0.0,0.0
325252,0.546,0.571,-0.320,-14.122,23.443,11.511,17.0,11.0
325324,0.501,0.796,-0.251,-35.183,17.702,-24.137,17.0,14.0
325398,0.536,0.847,-0.219,-45.443,-12.527,-34.878,12.0,16.0
325480,0.551,0.864,-0.281,-37.847,-23.710,-24.115,176.0,17.0
325565,0.453,0.807,-0.097,-67.710,-14.733,-34.756,16.0,0.0
325649,0.384,1.049,-0.095,-56.305,-33.969,-23.176,16.0,0.0
325733,0.609,0.682,-0.184,-76.847,-19.824,-40.718,16.0,0.0
325817,0.053,0.866,-0.010,-21.008,29.634,-60.153,17.0,0.0
325904,0.256,1.246,-0.034,-42.191,26.855,-37.847,17.0,0.0
325998,0.126,0.996,0.110,-22.924,4.397,-41.496,0.0,0.0
326092,-0.044,1.073,0.155,-19.924,9.344,-20.695,0.0,0.0
326188,0.129,0.988,0.121,2.275,-4.031,-8.779,0.0,0.0
326282,0.104,0.962,0.251,1.008,7.565,0.374,0.0,0.0
326376,0.109,1.014,0.114,17.718,0.344,1.351,0.0,0.0
326460,0.112,1.009,0.098,2.954,0.069,-2.359,16.0,0.0
326559,0.098,1.001,0.120,6.168,-1.939,-0.435,0.0,0.0
326652,0.117,0.959,0.092,3.939,-1.412,0.824,0.0,0.0
326749,0.128,0.985,0.166,4.038,3.069,1.435,0.0,0.0
326832,0.119,0.987,0.095,6.618,-1.725,-4.687,24.0,0.0
326915,0.120,0.999,0.100,-1.397,-3.344,-2.122,23.0,0.0
327008,0.109,1.000,0.095,0.389,-1.336,-0.290,0.0,0.0
327091,0.108,1.009,0.095,5.565,-2.740,2.824,20.0,0.0
327184,0.114,1.005,0.059,-0.779,1.405,-4.229,0.0,0.0
327268,0.120,1.002,0.072,12.229,-3.237,0.282,22.0,0.0
327351,0.113,0.998,0.083,5.015,-2.885,0.641,22.0,0.0
327434,0.079,1.004,0.076,2.336,-2.618,-0.779,19.0,0.0
327517,0.142,0.996,0.095,6.771,-4.885,3.374,20.0,0.0
327603,0.117,1.032,0.069,11.916,-5.748,3.115,21.0,0.0
327686,0.111,1.062,0.127,35.137,-14.809,18.870,21.0,0.0
327780,0.097,1.019,-0.015,78.687,-29.962,50.611,0.0,0.0
327873,0.631,0.900,-0.083,81.969,-28.427,56.573,0.0,0.0
327966,-0.287,0.937,-0.583,80.198,-39.649,-2.137,0.0,0.0
328060,0.342,0.833,-0.595,50.908,54.137,45.916,0.0,0.0
328154,0.607,0.983,-0.423,59.611,30.313,5.611,0.0,0.0
328247,0.434,0.738,-0.485,67.298,21.763,34.565,0.0,0.0
328340,0.517,0.682,-0.610,54.672,21.809,35.435,0.0,0.0
328437,0.607,0.475,-0.528,14.870,11.656,21.076,0.0,0.0
328522,0.605,0.563,-0.619,10.588,6.550,18.901,0.0,62.0
328608,0.538,0.524,-0.596,13.649,-8.557,5.176,0.0,62.0
328694,0.628,0.705,-0.675,0.389,13.336,18.550,0.0,62.0
328779,0.758,0.446,-0.515,0.534,19.099,37.229,0.0,62.0
328852,0.768,0.476,-0.373,1.176,3.092,40.656,17.0,17.0
328935,0.695,0.388,-0.535,-2.985,-21.137,26.046,0.0,17.0
329011,0.523,0.383,-0.756,-55.481,-29.931,-13.359,16.0,64.0
329094,0.775,0.431,-0.861,-77.634,-12.198,-69.664,0.0,11.0
329168,0.410,0.984,-0.586,-3.473,34.519,-57.000,16.0,8.0
329241,0.655,0.773,-0.266,-69.382,21.229,-8.550,17.0,9.0
329314,0.602,0.610,-0.358,-46.153,2.427,-25.191,13.0,10.0
329385,0.605,0.638,-0.396,-56.992,3.122,-51.244,17.0,6.0
329468,0.515,0.823,-0.129,-100.214,1.000,-61.267,0.0,5.0
329540,0.457,0.990,-0.182,-91.611,-25.740,-49.183,17.0,8.0
329624,0.342,0.964,-0.073,-70.122,-37.374,-37.733,17.0,0.0
329717,0.478,0.934,-0.121,-120.718,0.527,-35.168,0.0,0.0
329804,0.241,0.780,0.399,-43.191,22.092,-69.985,16.0,0.0
329887,0.310,1.588,0.095,54.496,-12.260,-108.336,12.0,0.0
329970,0.189,0.962,0.167,-179.802,41.221,-26.649,13.0,0.0
330053,-0.069,0.594,0.894,-53.458,8.366,-14.435,14.0,0.0
330137,0.016,1.041,0.229,10.176,-3.603,-2.198,17.0,0.0
330220,-0.003,0.840,0.539,6.076,-5.466,-9.565,17.0,0.0
330304,0.066,1.060,0.231,0.702,-13.298,-14.198,23.0,0.0
330387,-0.026,0.870,0.484,-38.947,10.641,-19.603,27.0,0.0
330472,-0.129,0.722,0.588,-2.771,19.290,-21.168,31.0,0.0
330559,-0.055,0.979,0.556,-20.023,14.458,-23.634,32.0,0.0
330643,-0.218,0.925,0.922,118.763,6.260,-23.053,29.0,0.0
330737,0.129,1.642,0.344,58.863,-40.611,95.748,0.0,0.0
330830,0.108,0.670,0.616,-122.298,-37.985,43.626,0.0,0.0
330914,0.247,0.562,0.465,-66.550,-1.771,17.550,33.0,0.0
330998,0.179,0.469,0.449,-50.916,21.489,-20.687,30.0,0.0
331083,0.298,0.420,0.590,-118.092,57.046,-58.656,37.0,0.0
331167,0.021,0.467,0.657,47.206,85.153,-50.420,31.0,0.0
331252,-0.371,1.134,0.391,-4.198,62.618,-60.985,37.0,0.0
331339,-0.871,0.365,0.991,22.687,43.374,16.565,35.0,0.0
331424,-0.705,1.101,0.597,-65.176,-33.252,45.847,33.0,0.0
331508,-0.064,1.070,0.789,16.031,-27.847,41.435,31.0,0.0
331592,-0.328,0.385,0.948,25.870,3.786,29.267,30.0,0.0
331677,-0.215,0.970,0.395,-13.000,18.366,6.649,30.0,0.0
331761,-0.246,0.771,0.675,30.756,-16.382,14.458,41.0,0.0
331846,-0.180,0.710,0.803,-8.786,-9.595,-3.687,28.0,0.0
331931,-0.213,0.636,0.848,52.687,0.000,0.863,44.0,0.0
332016,-0.081,1.083,0.412,75.321,10.198,-15.092,45.0,0.0
332103,-0.216,0.748,0.562,49.740,-7.092,-23.802,36.0,0.0
332188,-0.481,0.843,0.548,26.878,4.786,-12.046,39.0,0.0
332273,-0.635,0.656,0.631,-47.588,-26.924,67.779,47.0,0.0
332367,0.085,0.814,0.488,-108.260,-50.397,102.107,0.0,0.0
332452,0.231,0.093,0.358,-132.198,-10.214,20.962,36.0,0.0
332547,0.225,0.190,0.308,-120.832,45.924,-47.290,0.0,0.0
332631,-0.101,0.004,0.866,-112.237,72.443,-53.802,31.0,0.0
332716,-0.665,1.029,0.844,188.443,40.374,23.061,36.0,0.0
332800,0.013,-0.323,0.603,-43.252,7.298,34.473,30.0,0.0
332887,-0.136,0.256,0.740,-27.191,40.107,54.908,20.0,0.0
332971,-0.122,0.526,0.739,6.099,18.191,31.481,14.0,0.0
333053,-0.070,0.709,0.703,-18.870,-1.550,0.557,17.0,0.0
333137,-0.087,0.582,0.809,-36.198,-12.763,-12.786,16.0,0.0
333221,-0.096,0.518,0.826,-64.718,-4.420,-28.534,17.0,0.0
333304,-0.188,0.265,0.951,-66.397,-4.649,-29.855,16.0,0.0
333388,-0.181,0.178,0.985,-17.344,-4.573,-9.573,19.0,0.0
333472,-0.141,0.273,0.968,-13.756,-0.656,-6.702,19.0,0.0
333556,-0.176,0.275,0.963,-24.634,-5.718,-3.107,20.0,0.0
333643,-0.357,0.379,0.935,-62.198,-10.252,10.656,22.0,0.0
333727,0.168,-0.151,0.938,-117.427,7.840,11.664,23.0,0.0
333811,-0.440,0.485,0.732,250.130,-4.618,-42.908,22.0,0.0
333895,-0.304,-0.506,0.731,-250.137,-31.351,43.985,22.0,0.0
333979,-0.338,-0.849,1.723,250.130,44.122,-24.527,25.0,0.0
334064,-0.010,0.302,0.603,-250.137,-4.321,16.321,21.0,0.0
334147,-0.234,0.381,0.713,250.130,9.718,-7.389,20.0,0.0
334231,-0.049,-0.088,1.126,-98.122,3.260,-5.176,18.0,0.0
334318,0.264,-0.962,1.066,-175.580,-15.374,8.397,18.0,0.0
334405,-0.502,1.910,-0.094,250.130,-5.489,-30.687,75.0,0.0
334489,0.006,-2.000,1.685,42.626,9.450,-0.763,17.0,0.0
334573,-0.165,1.516,0.300,-250.137,-13.153,-2.374,18.0,0.0
334660,-0.176,-0.004,1.062,109.183,4.542,-36.137,75.0,0.0
334745,-0.029,-0.803,1.085,-98.939,-20.664,-5.122,39.0,0.0
334830,-0.290,0.001,0.900,32.260,-40.565,-55.817,36.0,0.0
334924,-0.224,-0.046,0.800,-113.710,-10.771,-115.779,0.0,0.0
335011,-0.047,-0.365,0.908,-5.389,20.229,1.817,79.0,0.0
335119,-0.050,-0.328,0.867,-45.878,-7.802,25.992,0.0,0.0
335215,-0.022,-0.530,0.855,7.626,2.962,1.282,0.0,0.0
335311,-0.044,-0.452,0.870,-10.832,-3.046,2.115,0.0,0.0
335409,-0.037,-0.409,0.876,4.069,0.504,-2.779,0.0,0.0
335505,-0.039,-0.452,0.880,2.870,-0.672,-0.664,0.0,0.0
335601,-0.032,-0.448,0.880,2.847,-0.924,0.183,0.0,0.0
335697,-0.034,-0.454,0.881,0.313,-1.107,0.382,0.0,0.0
335795,-0.041,-0.444,0.880,3.298,-1.611,0.672,0.0,0.0
335891,-0.025,-0.475,0.894,4.969,-0.031,-0.954,0.0,0.0
335991,-0.044,-0.456,0.885,2.962,-0.176,-1.153,0.0,0.0
336088,-0.032,-0.441,0.879,2.672,-0.107,-1.336,0.0,0.0
336184,-0.027,-0.468,0.893,2.786,-0.626,-0.802,0.0,0.0
336281,-0.034,-0.451,0.901,4.221,-0.794,-0.198,0.0,0.0
336377,-0.027,-0.438,0.901,6.198,-0.603,0.046,0.0,0.0
336474,-0.029,-0.426,0.897,8.824,-1.107,-0.214,0.0,0.0
336571,-0.026,-0.487,0.895,11.458,-0.695,0.084,0.0,0.0
336667,-0.005,-0.563,0.934,69.534,1.565,7.382,0.0,0.0
336756,0.029,-0.332,0.974,154.939,7.290,5.656,53.0,0.0
336846,-0.111,0.067,0.969,17.183,6.321,-1.992,37.0,0.0
336935,-0.034,-0.141,1.057,68.565,6.687,-10.679,54.0,0.0
337022,-0.201,-0.018,1.079,25.427,0.389,-22.458,27.0,0.0
337110,-0.085,0.087,0.883,-42.344,-21.176,-80.076,30.0,0.0
337197,0.039,-0.177,1.019,30.244,-1.725,-91.534,37.0,0.0
337288,-0.667,0.745,1.154,208.321,15.069,6.290,87.0,0.0
337375,-0.180,0.230,1.128,-73.656,1.313,-4.779,41.0,0.0
337469,-0.117,0.012,1.046,15.260,-0.397,0.336,40.0,0.0
337555,-0.093,0.299,0.942,3.870,0.198,0.313,40.0,0.0
337645,-0.107,0.175,0.991,5.710,0.061,0.557,39.0,0.0
337731,-0.100,0.218,0.971,-0.664,-0.412,-0.832,39.0,0.0
337817,-0.106,0.189,0.983,1.420,-0.191,-0.099,36.0,0.0
337904,-0.101,0.208,0.976,2.511,0.183,0.557,36.0,0.0
337990,-0.102,0.210,0.977,2.740,-0.053,0.328,35.0,0.0
338077,-0.108,0.209,0.976,1.168,-0.473,-0.115,44.0,0.0
