Timestamp(ms),AccelX(g),AccelY(g),AccelZ(g),GyroX(deg/s),GyroY(deg/s),GyroZ(deg/s),DistanceLeft(cm),DistanceRight(cm)
46689,0.924,-0.412,-0.138,0.840,-1.450,-0.557,30.0,0.0
46772,0.924,-0.354,-0.180,-7.099,-1.031,-1.947,30.0,0.0
46855,0.925,-0.325,-0.190,4.931,-1.099,0.282,30.0,0.0
46938,0.922,-0.367,-0.172,1.137,-1.275,-0.588,30.0,0.0
47021,0.922,-0.343,-0.187,-0.496,-0.939,-1.679,31.0,0.0
47104,0.935,-0.346,-0.174,0.344,-0.450,-0.832,45.0,0.0
47187,0.913,-0.347,-0.173,-0.282,-0.534,-0.107,45.0,0.0
47275,0.922,-0.362,-0.190,3.504,-0.542,0.015,46.0,0.0
47357,0.919,-0.367,-0.177,0.435,-0.252,-0.641,46.0,0.0
47440,0.928,-0.340,-0.185,-0.595,0.771,-1.649,30.0,0.0
47523,0.924,-0.340,-0.204,8.229,2.840,-1.389,31.0,0.0
47606,0.909,-0.390,-0.189,6.351,10.206,-4.840,31.0,0.0
47689,0.895,-0.318,-0.171,7.237,14.710,-8.214,30.0,0.0
47773,0.927,-0.322,-0.172,15.023,15.947,-5.191,32.0,0.0
47856,0.893,-0.383,-0.095,18.588,24.137,-8.511,36.0,0.0
47940,1.018,-0.413,0.018,16.046,30.198,-18.214,36.0,0.0
48024,1.158,-0.305,0.153,26.641,27.267,-26.519,40.0,0.0
48111,0.902,-0.259,0.087,29.878,13.397,-30.565,51.0,0.0
48195,0.801,-0.279,0.039,42.977,2.366,-24.176,41.0,0.0
48287,0.845,-0.101,-0.064,83.290,15.855,1.076,0.0,0.0
48372,0.928,-0.154,-0.014,-2.550,36.885,-0.527,50.0,0.0
48456,1.031,-0.184,-0.020,63.557,63.160,-14.046,47.0,0.0
48541,0.882,-0.193,0.136,76.481,103.046,-56.366,50.0,0.0
48625,0.605,-0.048,0.237,110.809,122.756,-95.710,53.0,0.0
48710,0.753,0.225,0.874,90.145,202.237,-142.000,56.0,0.0
48795,-0.175,0.641,0.847,23.366,155.221,-130.886,58.0,0.0
48891,-0.009,0.943,1.079,126.366,111.504,-70.855,0.0,0.0
48976,-0.015,1.044,1.020,-43.290,0.450,-30.695,62.0,0.0
49070,0.072,0.471,0.773,-106.489,3.336,-3.603,0.0,0.0
49155,0.092,0.243,0.941,-43.550,2.237,7.099,58.0,0.0
49240,0.010,0.316,0.971,2.275,0.122,0.038,58.0,0.0
49324,0.021,0.426,0.921,-30.679,-0.832,-0.878,58.0,0.0
49409,0.064,0.335,0.957,-26.618,-1.733,0.160,59.0,0.0
49494,0.033,0.245,0.985,-24.885,-2.878,0.443,58.0,0.0
49579,0.020,0.257,0.948,-25.863,-2.351,2.038,58.0,0.0
49665,-0.013,0.258,0.979,-39.359,-11.153,3.061,17.0,0.0
49746,-0.008,0.055,1.031,-74.344,-10.198,-4.450,17.0,0.0
49829,-0.015,-0.214,1.137,-66.924,-16.366,-30.977,11.0,0.0
49923,0.033,-0.325,1.165,-20.160,-28.740,-61.847,0.0,0.0
50016,0.064,-0.222,1.077,6.282,-32.260,-110.519,0.0,0.0
50099,0.097,0.024,0.948,32.855,-30.786,-126.748,29.0,0.0
50192,0.167,0.163,0.820,54.702,-24.832,-121.969,0.0,0.0
50285,0.016,0.250,0.692,63.664,-18.244,-131.504,0.0,0.0
50375,0.126,0.559,0.574,69.366,-8.374,-92.115,0.0,141.0
50459,0.118,0.844,0.543,88.794,4.489,-63.695,61.0,134.0
50540,-0.032,0.643,0.662,-13.427,10.901,-58.641,64.0,129.0
50629,0.104,0.517,0.827,29.282,22.573,-61.748,0.0,124.0
50718,-0.174,0.661,0.869,22.038,23.305,-83.282,0.0,119.0
50806,-0.301,0.811,0.821,16.321,23.229,-80.695,0.0,114.0
50894,-0.469,0.511,0.879,33.534,12.649,-94.611,0.0,109.0
50982,-0.514,0.544,0.751,36.916,-19.374,-68.580,0.0,105.0
51069,-0.363,0.760,0.521,71.794,-21.466,-52.710,0.0,101.0
51161,-0.551,0.182,0.638,219.336,-47.168,-1.977,0.0,101.0
51254,-0.249,1.412,0.163,132.611,-92.588,6.626,0.0,0.0
51347,-0.460,0.801,0.497,-45.885,-28.611,7.198,0.0,0.0
51440,-0.344,1.302,0.414,28.786,-67.359,86.427,0.0,0.0
51533,0.002,0.802,0.622,-71.496,-100.328,90.527,0.0,0.0
51620,0.042,0.096,0.501,-43.168,-115.527,-10.809,0.0,94.0
51714,-0.222,0.448,0.692,75.122,-111.550,-112.191,0.0,0.0
51808,0.168,1.592,-0.331,-159.855,-152.916,-12.595,0.0,0.0
51891,0.175,1.340,-0.193,1.046,-162.076,-6.534,19.0,0.0
51977,0.997,0.436,0.659,-147.176,-9.420,15.687,14.0,0.0
52059,0.853,1.124,0.606,-123.740,-21.397,17.550,12.0,0.0
52142,0.503,0.490,0.695,-46.244,-13.237,-0.282,12.0,0.0
52225,-0.252,0.880,1.250,-20.855,39.137,-106.153,13.0,0.0
52307,-0.705,1.229,1.038,-116.389,111.908,-109.382,25.0,0.0
52380,-0.008,1.388,0.419,-137.656,75.824,-250.137,17.0,28.0
52464,0.743,0.530,0.924,-185.939,154.427,-250.137,26.0,0.0
52547,0.146,-1.175,1.013,-250.137,-55.160,-250.137,20.0,0.0
52631,-0.308,-0.216,0.244,-33.031,3.298,-250.137,26.0,0.0
52724,-0.027,0.265,0.065,-127.489,-32.603,-250.137,144.0,0.0
52809,1.003,-0.694,0.484,-114.099,41.542,-250.137,59.0,0.0
52895,0.667,0.952,0.122,146.290,-74.611,-250.137,72.0,0.0
52989,1.397,1.178,-0.322,-114.473,-122.779,-223.275,0.0,0.0
53083,0.032,1.171,-0.272,92.550,-58.649,-103.313,0.0,0.0
53168,0.956,0.469,-0.102,-63.985,-34.435,-80.588,64.0,0.0
53254,0.666,0.694,-0.120,37.527,10.069,-63.160,59.0,0.0
53347,0.655,0.899,-0.220,15.466,-4.885,-62.924,0.0,0.0
53440,0.471,0.811,-0.148,13.817,11.534,-45.496,0.0,0.0
53536,0.417,0.982,-0.139,57.389,8.435,-17.244,0.0,0.0
53629,0.533,0.940,-0.165,44.313,1.885,-4.389,0.0,0.0
53724,0.500,0.820,-0.192,19.573,-19.191,0.840,0.0,0.0
53817,0.469,0.848,-0.266,6.168,-10.908,-5.053,0.0,0.0
53910,0.532,0.825,-0.337,17.947,-15.725,-5.718,0.0,0.0
54003,0.529,0.899,-0.412,4.763,-2.176,5.679,0.0,0.0
54096,0.373,0.839,-0.326,2.618,-6.489,0.321,0.0,0.0
54191,0.419,0.892,-0.388,8.061,-3.595,-0.458,0.0,0.0
54284,0.446,0.819,-0.368,5.061,-8.565,11.740,0.0,0.0
54380,0.334,0.872,-0.465,-23.115,9.863,-16.359,0.0,0.0
54474,0.536,0.889,-0.353,-1.344,4.183,-7.244,0.0,0.0
54567,0.458,0.892,-0.253,-18.473,16.687,-9.954,0.0,0.0
54661,0.423,0.891,-0.243,-31.641,10.534,-8.687,0.0,0.0
54755,0.442,0.782,-0.118,-74.954,1.206,-24.237,0.0,0.0
54848,0.361,1.139,-0.255,-37.000,7.145,-16.985,0.0,0.0
54941,0.354,0.834,-0.006,23.092,19.405,-5.107,0.0,0.0
55035,0.513,1.115,-0.083,-66.641,17.786,-2.832,0.0,0.0
55129,0.367,0.913,0.075,-41.908,22.687,-5.160,0.0,0.0
55226,0.324,0.794,0.226,-86.374,34.634,-34.664,0.0,0.0
55319,0.239,0.839,0.314,-5.107,36.344,-55.687,0.0,0.0
55412,0.205,1.051,0.365,-60.298,32.137,-57.885,0.0,0.0
55506,0.044,1.039,0.479,-48.908,24.664,-43.809,0.0,0.0
55600,0.041,0.729,0.506,-79.840,16.107,-16.405,0.0,0.0
55694,-0.051,0.582,0.793,-41.626,5.321,-14.947,0.0,0.0
55788,-0.099,0.637,0.750,22.000,-10.000,13.992,0.0,0.0
55881,-0.025,0.789,0.594,52.191,-12.641,8.969,0.0,0.0
55975,0.090,0.856,0.524,23.389,-1.458,7.794,0.0,0.0
56070,0.019,0.856,0.548,5.099,0.359,-2.382,0.0,0.0
56167,0.002,0.847,0.549,4.931,1.244,1.466,0.0,0.0
56260,0.021,0.848,0.546,8.160,-0.122,2.206,0.0,0.0
56354,0.026,0.861,0.521,8.565,-0.397,2.893,0.0,0.0
56448,0.037,0.881,0.515,1.870,-1.290,-0.626,0.0,0.0
56542,0.034,0.855,0.524,-5.282,1.145,-1.641,0.0,0.0
56636,0.032,0.841,0.539,6.908,0.092,0.832,0.0,0.0
56729,0.014,0.856,0.521,13.359,-0.473,3.130,0.0,0.0
56823,0.083,0.891,0.504,11.611,-3.321,0.649,0.0,0.0
56916,0.061,0.888,0.491,8.595,-3.168,1.634,0.0,0.0
57014,0.062,0.905,0.469,1.344,0.901,0.252,0.0,0.0
57108,0.025,0.866,0.522,-8.031,4.275,2.099,0.0,0.0
57201,0.057,0.891,0.490,8.473,-2.275,-1.588,0.0,0.0
57295,0.042,0.898,0.471,0.038,-4.130,-2.282,0.0,0.0
57390,0.054,0.878,0.497,-2.756,1.092,0.611,0.0,0.0
57483,0.043,0.875,0.497,0.321,-0.382,-0.550,0.0,0.0
57582,0.041,0.882,0.486,-0.145,-0.634,-1.214,0.0,0.0
57675,0.043,0.873,0.498,-1.282,-0.221,-2.130,0.0,0.0
57768,0.043,0.877,0.503,1.855,0.000,-0.870,0.0,0.0
57861,0.040,0.874,0.498,0.779,-0.198,-0.855,0.0,0.0
57957,0.036,0.870,0.505,0.779,-0.489,-0.916,0.0,0.0
58049,0.043,0.880,0.506,-0.618,-0.649,-1.008,0.0,0.0
58142,0.046,0.873,0.498,2.008,-0.916,-0.771,0.0,0.0
58235,0.031,0.872,0.510,1.473,-0.786,-0.389,0.0,0.0
58328,0.034,0.883,0.502,1.397,-0.702,-1.076,0.0,0.0
58421,0.040,0.864,0.503,0.916,-0.496,-0.893,0.0,0.0
58513,0.038,0.872,0.505,0.015,-0.351,-0.802,0.0,0.0
58606,0.037,0.875,0.501,1.718,-0.687,-0.481,0.0,0.0
58699,0.039,0.885,0.500,0.802,-0.504,-0.992,0.0,0.0
58791,0.037,0.876,0.501,1.450,-0.840,-0.634,0.0,0.0
58888,0.037,0.873,0.506,1.282,-0.641,-0.450,0.0,0.0
58981,0.040,0.876,0.515,0.374,-0.298,-0.802,0.0,0.0
59073,0.040,0.879,0.498,1.389,-0.649,-0.908,0.0,0.0
59166,0.040,0.875,0.505,-1.351,-0.053,-1.695,0.0,0.0
59259,0.032,0.871,0.507,1.282,-0.649,-0.802,0.0,0.0
59353,0.027,0.865,0.510,1.038,-0.634,-0.855,0.0,0.0
59445,0.028,0.871,0.509,1.473,-0.771,-0.405,0.0,0.0
59538,0.024,0.868,0.512,3.092,-1.092,0.527,0.0,0.0
59631,0.041,0.872,0.496,1.427,-0.634,-0.725,0.0,0.0
59726,0.035,0.869,0.518,1.595,-0.573,-0.702,0.0,0.0
59820,0.040,0.876,0.510,0.214,-0.244,-0.687,0.0,0.0
59913,0.038,0.875,0.502,1.885,-0.840,-0.489,0.0,0.0
60006,0.042,0.870,0.516,1.076,-0.725,-0.534,0.0,0.0
60098,0.035,0.871,0.510,0.977,-0.511,-0.519,0.0,0.0
60191,0.043,0.872,0.507,2.076,-0.809,-0.351,0.0,0.0
60284,0.043,0.872,0.507,1.344,-0.832,-0.702,0.0,0.0
60378,0.033,0.874,0.511,1.046,-0.679,-0.809,0.0,0.0
60471,0.037,0.873,0.506,2.656,-0.885,-0.412,0.0,0.0
60564,0.036,0.875,0.505,0.817,-0.740,-0.977,0.0,0.0
60659,0.034,0.867,0.511,1.870,-0.863,-0.504,0.0,0.0
60752,0.040,0.874,0.513,1.145,-0.672,-0.328,0.0,0.0
60846,0.025,0.897,0.498,-0.252,1.008,4.504,0.0,0.0
60939,0.034,0.967,0.500,29.031,-4.282,30.947,0.0,0.0
61032,0.021,1.115,0.415,49.290,-8.725,66.137,0.0,0.0
61125,0.281,1.265,0.288,28.443,-8.634,113.053,0.0,0.0
61218,0.552,1.113,0.415,-71.649,11.420,110.962,0.0,0.0
61308,0.688,1.043,0.324,-60.450,32.191,131.008,0.0,141.0
61399,0.489,0.757,0.326,-71.466,45.382,138.710,0.0,153.0
61492,0.416,0.568,0.350,16.214,42.901,139.725,133.0,0.0
61580,0.431,0.217,0.521,-108.656,67.802,125.450,121.0,0.0
61674,0.398,-0.032,0.560,9.504,55.015,113.718,0.0,0.0
61767,0.132,0.069,0.517,17.206,103.374,120.267,0.0,0.0
61860,-0.076,-0.293,0.722,-120.763,124.099,94.809,0.0,0.0
61944,-0.314,-0.588,0.839,-2.336,108.962,69.298,39.0,0.0
62028,-0.334,-0.546,0.866,-55.870,93.099,59.214,34.0,0.0
62111,-0.439,-0.906,0.947,-16.649,71.977,56.656,26.0,0.0
62194,-0.493,-0.662,1.072,-9.718,50.344,45.435,22.0,0.0
62281,-0.823,-0.742,1.083,53.519,0.573,18.107,20.0,0.0
62370,-0.938,-0.444,0.823,118.389,-49.580,29.153,141.0,0.0
62459,-0.442,-0.180,0.885,-37.840,-34.809,14.374,146.0,174.0
62548,-0.215,-0.411,0.943,-26.397,-43.473,-1.878,143.0,173.0
62639,-0.125,-0.204,0.827,49.511,-40.076,-15.282,148.0,0.0
62730,-0.153,-0.076,0.892,41.542,-39.687,12.908,157.0,0.0
62821,-0.024,0.031,0.811,-19.099,-21.496,39.061,160.0,0.0
62912,0.060,-0.128,0.975,-19.771,-17.725,43.664,162.0,0.0
63003,-0.097,-0.170,1.111,-40.359,-14.084,35.267,162.0,0.0
63097,-0.165,-0.322,0.936,-31.832,-46.519,33.397,152.0,0.0
63182,-0.170,-0.391,0.823,33.252,-59.779,39.527,153.0,108.0
63267,0.026,-0.189,0.720,-26.702,3.076,16.626,37.0,0.0
63351,-0.116,-0.389,0.821,-55.023,81.229,-25.405,37.0,0.0
63438,-0.381,-0.302,1.054,45.298,74.695,-11.840,88.0,0.0
63519,-0.285,0.167,0.419,116.031,61.573,36.099,90.0,91.0
63600,-0.385,0.407,0.656,52.374,-4.649,37.427,91.0,89.0
63681,-0.350,0.231,1.032,50.931,37.084,19.672,91.0,89.0
63762,-0.589,0.024,0.748,28.473,47.237,28.725,90.0,89.0
63846,-0.236,0.353,0.984,79.985,18.901,32.237,90.0,89.0
63924,-0.702,-0.273,0.927,21.244,35.885,46.076,43.0,89.0
64003,-0.538,0.069,0.829,11.244,20.435,63.748,44.0,88.0
64080,-0.642,0.276,0.784,46.595,11.267,67.191,39.0,87.0
64164,-0.590,0.207,0.814,79.275,7.855,66.565,40.0,0.0
64248,-0.459,0.464,0.871,15.137,38.595,50.924,32.0,0.0
64342,-0.594,0.583,1.232,92.092,69.496,48.466,0.0,0.0
64425,-0.341,0.729,0.500,121.626,31.527,111.634,30.0,0.0
64509,-0.017,0.783,0.243,-111.977,3.122,146.779,30.0,0.0
64596,0.072,0.630,0.176,-190.863,0.634,95.191,28.0,0.0
64670,-0.344,0.673,0.535,-130.496,-9.435,40.870,29.0,16.0
64743,-0.291,0.564,0.996,-44.290,-9.389,20.977,28.0,14.0
64817,-0.291,0.683,0.822,-68.664,-15.702,30.733,35.0,12.0
64890,-0.022,0.324,1.038,24.962,-5.626,12.595,30.0,12.0
64974,0.198,0.356,0.906,47.420,9.122,33.458,27.0,0.0
65049,-0.037,0.594,0.953,133.565,-20.076,34.618,54.0,16.0
65132,-0.006,1.043,0.346,88.504,-19.321,29.855,23.0,0.0
65216,0.041,0.865,0.573,28.389,-13.122,30.176,19.0,0.0
65302,0.079,0.828,0.715,3.802,-1.389,-5.840,19.0,0.0
65385,0.296,0.871,0.505,-4.191,-21.298,35.305,16.0,0.0
65469,0.179,0.660,0.659,24.305,-5.023,10.809,22.0,0.0
65552,0.285,0.954,0.432,13.611,27.947,-54.038,16.0,0.0
65635,0.406,1.195,0.575,26.260,23.557,-69.840,17.0,0.0
65719,0.044,1.235,0.593,-19.763,40.977,-116.656,23.0,0.0
65804,0.023,0.664,1.092,77.702,90.412,-109.702,58.0,0.0
65879,-0.238,1.056,0.739,78.809,136.740,-86.931,63.0,3.0
65961,-0.993,0.788,0.511,117.015,67.420,250.130,0.0,16.0
66039,0.130,0.142,0.051,-153.176,-107.809,250.130,38.0,12.0
66112,-0.030,0.243,0.175,-127.710,-11.748,250.130,28.0,17.0
66186,-0.189,0.281,-0.273,-182.244,42.191,159.779,27.0,18.0
66259,0.559,0.820,0.389,50.626,-25.763,77.282,30.0,16.0
66335,0.552,1.220,1.107,-32.092,-58.344,149.947,30.0,42.0
66420,2.000,-0.252,1.159,-44.374,-18.985,48.733,0.0,57.0
66506,0.458,-0.244,0.526,-75.359,7.405,-35.031,0.0,50.0
66596,0.185,0.022,0.283,-18.374,46.740,-28.947,0.0,138.0
66694,0.528,0.107,0.586,-91.046,53.412,-32.565,0.0,0.0
66787,0.595,-0.020,1.013,-76.252,33.756,-55.107,0.0,0.0
66881,0.391,-0.038,1.189,-18.672,32.061,-51.840,0.0,0.0
66975,-0.031,0.187,0.947,-33.595,28.733,-77.198,0.0,0.0
67068,0.310,-0.070,0.800,68.160,-96.275,22.282,0.0,0.0
67152,1.770,0.086,0.749,18.664,-55.603,53.191,0.0,16.0
67246,0.482,0.081,0.551,82.153,14.718,-35.084,0.0,0.0
67340,0.648,0.453,0.531,26.198,57.397,-14.756,0.0,0.0
67433,0.455,0.234,0.748,-48.214,45.374,-11.008,0.0,0.0
67517,0.462,0.188,1.026,-11.756,68.794,-17.626,0.0,12.0
67603,0.145,0.146,1.083,-104.985,52.053,-12.504,0.0,16.0
67687,0.139,-0.162,1.163,20.687,-2.832,-7.710,0.0,16.0
67770,0.349,0.195,0.981,55.527,-15.489,4.908,0.0,11.0
67844,0.236,0.211,0.917,-17.931,-15.244,0.511,46.0,11.0
67918,0.299,0.022,0.978,-6.595,-11.740,-1.634,45.0,16.0
67993,0.331,0.042,0.962,12.840,-20.519,0.985,47.0,17.0
68068,0.384,0.053,0.927,18.511,-22.557,5.031,51.0,9.0
68143,0.522,0.245,0.850,58.519,-22.656,-3.069,54.0,10.0
68218,0.374,0.465,0.719,22.832,2.695,0.893,58.0,17.0
68296,0.461,0.299,0.925,-44.359,3.031,24.550,58.0,7.0
68379,0.409,0.144,1.033,-63.511,-0.504,38.992,0.0,16.0
68463,0.375,0.168,1.021,-21.977,-15.527,66.641,0.0,16.0
68557,0.471,0.012,0.921,-59.969,-32.588,96.595,0.0,0.0
68648,0.565,-0.364,0.770,-51.099,-30.985,112.359,0.0,63.0
68742,0.646,-0.421,0.791,-82.534,-2.443,109.397,0.0,0.0
68835,0.582,-0.643,0.876,-55.580,-2.244,79.000,0.0,0.0
68927,0.310,-0.368,0.738,6.824,15.893,69.359,0.0,0.0
69011,0.102,-0.457,0.670,-24.450,11.718,53.069,41.0,0.0
69098,0.019,-0.620,0.644,-3.802,14.023,51.366,39.0,0.0
69182,-0.090,-0.625,0.621,-5.672,20.023,47.153,39.0,0.0
69265,-0.115,-0.711,0.644,-34.366,28.901,56.870,37.0,0.0
69349,-0.178,-0.855,0.630,-49.962,5.473,57.595,35.0,0.0
69433,-0.177,-0.772,0.606,5.725,-3.351,52.015,36.0,0.0
69516,-0.162,-0.634,0.569,-18.748,0.031,58.397,35.0,192.0
69600,-0.178,-0.552,0.533,20.237,-12.344,80.275,36.0,0.0
69683,-0.114,-0.413,0.539,27.145,-4.427,120.794,34.0,0.0
69767,-0.109,-0.369,0.628,14.206,14.832,135.924,38.0,0.0
69854,-0.221,-0.317,0.648,51.985,38.733,116.710,37.0,0.0
69939,-0.376,-0.184,0.539,88.519,63.916,114.588,55.0,0.0
70023,-0.759,0.255,0.344,-59.443,38.893,107.427,50.0,0.0
70108,-2.000,-0.219,0.693,-58.420,35.740,68.924,56.0,0.0
70193,-0.673,-0.193,0.150,-9.702,-120.634,190.122,56.0,0.0
70277,-0.364,0.383,0.453,-27.763,-70.473,124.763,36.0,0.0
70361,-0.336,1.522,-0.363,21.305,-138.840,67.420,44.0,0.0
70445,-0.286,0.323,1.163,10.771,-110.954,63.305,23.0,0.0
70530,-0.124,0.614,0.832,11.542,-60.443,62.832,18.0,0.0
70612,0.042,0.399,0.755,78.260,21.061,105.649,16.0,0.0
70695,0.072,0.887,0.585,10.137,1.221,34.573,17.0,0.0
70777,-0.029,0.660,0.712,19.656,12.000,31.458,17.0,0.0
70860,0.082,0.603,0.541,100.366,-1.435,58.496,16.0,0.0
70943,0.256,0.756,0.365,243.260,-33.611,46.809,18.0,0.0
71026,-0.679,0.657,0.519,107.069,23.450,-3.099,36.0,0.0
71119,0.290,1.053,0.222,213.420,49.443,91.137,0.0,0.0
71213,0.485,0.850,-0.262,165.115,51.809,141.748,0.0,0.0
71297,0.161,1.200,-0.167,219.634,75.771,195.962,34.0,0.0
71375,0.712,1.460,-0.956,-10.878,119.282,76.168,37.0,59.0
71461,0.715,0.100,0.059,1.115,144.687,110.901,0.0,66.0
71538,1.076,0.193,0.051,-19.847,131.084,80.145,59.0,67.0
71617,1.408,0.053,0.115,68.214,100.702,48.840,66.0,70.0
71695,1.627,0.697,-0.039,6.321,114.618,51.084,72.0,71.0
71782,0.808,0.615,0.009,-121.282,121.855,66.565,0.0,78.0
71865,0.120,0.131,0.249,-157.328,67.084,53.115,71.0,145.0
71951,0.212,-0.122,0.418,22.702,12.718,20.160,71.0,0.0
72039,0.271,-0.519,0.492,76.176,-33.527,86.718,71.0,0.0
72125,0.537,-0.660,0.586,-69.053,31.382,71.153,67.0,0.0
72211,0.452,-1.049,0.693,-58.038,6.641,32.435,73.0,0.0
72298,0.405,-0.757,0.590,148.046,-10.336,5.519,83.0,0.0
72399,0.522,-0.425,0.540,-6.588,-6.130,-22.008,0.0,0.0
72493,0.284,-0.563,0.427,-34.962,-11.611,-52.427,0.0,0.0
72579,0.406,-0.585,0.504,-0.511,-59.107,-94.664,0.0,87.0
72665,1.228,0.107,0.522,165.351,23.855,-112.916,0.0,72.0
72750,0.961,0.411,0.565,-23.718,50.107,-217.985,0.0,60.0
72838,0.317,0.753,0.455,108.985,31.878,-118.267,0.0,53.0
72930,0.793,0.850,0.542,-9.153,15.595,-116.405,0.0,0.0
73023,0.420,0.955,0.654,0.183,49.504,-130.115,0.0,0.0
73116,0.372,0.764,0.767,56.939,21.695,-49.038,0.0,0.0
73209,0.244,0.810,0.595,-19.573,33.031,-52.992,0.0,0.0
73303,0.086,0.823,0.692,-37.672,43.908,-40.641,0.0,0.0
73395,0.015,0.695,0.789,-10.458,28.710,-31.870,0.0,0.0
73488,-0.111,0.670,0.897,-8.405,1.321,-7.969,0.0,0.0
73581,0.032,0.778,0.618,33.939,-12.954,15.504,0.0,0.0
73674,0.095,0.687,0.595,12.275,5.427,-15.527,0.0,0.0
73769,-0.092,0.959,0.692,-26.809,3.954,-27.786,0.0,0.0
73863,0.010,0.685,0.629,0.443,-1.473,3.237,0.0,0.0
73956,-0.051,0.758,0.726,9.382,-0.924,-4.489,0.0,0.0
74049,-0.031,0.769,0.643,20.763,-2.947,0.328,0.0,0.0
74142,-0.014,0.821,0.596,0.496,-0.420,0.336,0.0,0.0
74234,-0.031,0.755,0.662,-1.099,0.099,-0.824,0.0,0.0
74328,-0.030,0.788,0.638,8.366,-1.153,0.427,0.0,0.0
74421,-0.025,0.813,0.616,2.947,-0.550,-0.244,0.0,0.0
74513,-0.022,0.788,0.627,-0.313,-0.534,-1.008,0.0,0.0
74609,-0.022,0.798,0.615,1.672,-0.985,-0.947,0.0,0.0
74702,-0.037,0.902,0.583,-3.565,-4.863,7.015,0.0,0.0
74796,-0.071,0.891,0.682,-41.641,-20.260,15.000,0.0,0.0
74889,-0.057,0.924,0.826,-0.092,-65.046,51.015,0.0,0.0
74982,0.071,0.935,0.736,-30.603,-115.908,81.092,0.0,0.0
75074,0.377,0.544,0.506,-29.420,-145.122,91.977,0.0,0.0
75167,0.687,0.431,0.348,-32.313,-103.511,68.115,0.0,0.0
75252,0.781,0.386,0.351,-26.588,-80.221,50.519,0.0,57.0
75337,0.828,0.321,0.334,-8.756,-82.252,50.992,0.0,58.0
75426,0.934,0.237,0.165,-12.046,-62.901,49.336,0.0,62.0
75511,1.000,0.184,0.070,-7.344,-48.336,30.420,0.0,63.0
75597,0.994,0.184,0.075,-6.214,-34.985,18.427,0.0,65.0
75682,1.030,0.137,0.019,0.015,-27.298,13.443,0.0,66.0
75768,1.016,0.129,-0.010,-0.527,-14.557,7.107,0.0,67.0
75853,1.021,0.135,-0.020,-0.221,-6.740,3.374,0.0,66.0
75939,1.016,0.126,0.006,6.374,-0.168,1.405,0.0,67.0
76024,1.002,0.121,0.027,-0.145,1.344,0.214,0.0,66.0
76110,1.003,0.122,0.033,4.000,1.252,1.038,0.0,66.0
76195,0.998,0.114,0.038,4.298,0.137,0.779,0.0,66.0
76284,1.005,0.140,0.006,7.557,0.252,0.099,0.0,67.0
76369,1.002,0.120,0.024,10.023,1.443,-0.954,0.0,67.0
76455,1.003,0.156,0.007,0.969,2.137,-2.901,0.0,66.0
76540,1.000,0.156,0.032,3.420,1.779,-0.504,0.0,66.0
76626,0.994,0.149,0.037,2.786,1.374,2.542,0.0,66.0
76711,1.003,0.114,0.048,8.481,0.107,4.336,0.0,66.0
76797,1.006,0.113,0.040,2.725,0.458,1.847,0.0,67.0
76882,1.010,0.095,0.043,6.748,2.145,0.183,0.0,66.0
76967,0.999,0.124,0.039,-2.000,1.634,-1.733,0.0,66.0
77057,0.998,0.129,0.041,5.603,-0.221,0.947,0.0,67.0
77143,1.002,0.091,0.050,7.107,-1.099,1.550,0.0,66.0
77228,0.998,0.049,0.080,14.405,1.137,0.214,0.0,65.0
77314,1.002,0.236,-0.025,-2.954,1.031,-2.328,0.0,66.0
77399,0.997,0.047,0.089,17.603,0.863,0.031,0.0,65.0
77485,0.999,0.141,0.042,-16.542,-1.099,-2.878,0.0,65.0
77571,1.008,0.082,0.056,42.221,-1.870,4.985,0.0,65.0
77656,1.001,0.074,0.067,-17.985,-2.328,-5.252,0.0,65.0
77742,1.006,0.151,0.017,11.160,-2.519,-1.321,0.0,65.0
77827,0.995,0.082,0.061,-7.107,-2.160,-2.702,0.0,65.0
77916,1.010,0.161,0.002,-1.031,-1.924,-1.282,0.0,65.0
78002,1.010,0.130,0.014,18.344,-0.076,-0.191,0.0,65.0
78087,1.003,0.105,0.053,6.092,0.695,-2.802,0.0,65.0
78173,1.004,0.128,0.048,0.901,-0.664,-2.153,0.0,65.0
78259,1.003,0.096,0.056,-0.313,-1.137,-0.893,0.0,65.0
78344,0.999,0.158,0.021,-3.893,-1.115,-1.336,0.0,65.0
78430,1.002,0.135,0.032,7.267,-0.557,-0.191,0.0,65.0
78516,1.000,0.113,0.039,-2.611,-0.840,-1.107,0.0,65.0
78601,1.003,0.146,0.022,0.672,-0.511,-0.244,0.0,65.0
78690,0.993,0.114,0.049,2.855,-0.229,-0.527,0.0,65.0
78776,1.006,0.119,0.028,1.809,-1.496,0.099,0.0,65.0
78861,1.001,0.114,0.041,-4.298,-0.855,-1.389,0.0,65.0
78947,1.001,0.152,0.027,2.198,-0.298,-0.206,0.0,65.0
79033,1.000,0.132,0.027,-0.992,-0.504,-0.382,0.0,65.0
79118,0.997,0.135,0.027,-4.931,-0.542,-1.153,0.0,66.0
79204,1.002,0.106,0.040,6.802,-0.336,0.901,0.0,65.0
79290,1.005,0.093,0.057,2.275,-0.878,-0.702,0.0,65.0
79376,1.007,0.135,0.033,-6.695,-1.351,-1.107,0.0,65.0
79461,1.008,0.164,0.021,8.153,-0.832,0.603,0.0,65.0
79550,0.999,0.079,0.063,7.031,-0.771,0.809,0.0,65.0
79636,1.008,0.114,0.041,-5.397,-0.580,-1.397,0.0,65.0
79722,1.004,0.136,0.023,-0.053,-0.374,-0.321,0.0,65.0
79807,1.005,0.151,0.024,2.214,-0.542,-0.458,0.0,65.0
79893,1.001,0.102,0.052,2.618,-1.321,0.084,0.0,65.0
79979,1.009,0.096,0.056,-1.992,-1.137,-0.595,0.0,66.0
80065,0.996,0.123,0.032,-2.832,-1.198,-1.427,0.0,65.0
80151,1.006,0.165,0.014,-0.168,-0.992,-1.046,0.0,65.0
80236,1.001,0.114,0.041,4.687,-0.863,0.214,0.0,65.0
80325,1.005,0.143,0.027,-10.634,-1.237,-1.786,0.0,65.0
80411,1.002,0.098,0.052,-12.817,-2.771,-1.656,0.0,65.0
80497,1.004,0.135,0.027,-0.840,-4.130,-0.336,0.0,66.0
80583,1.007,0.095,0.050,-4.298,-4.351,-0.435,0.0,66.0
80670,1.001,0.142,0.016,1.275,-3.626,-0.153,0.0,67.0
80755,1.005,0.142,0.012,0.176,-2.740,0.664,0.0,66.0
80841,0.996,0.120,0.017,2.695,-1.359,1.084,0.0,67.0
80927,1.006,0.114,0.023,0.153,-0.756,0.344,0.0,66.0
81013,1.005,0.115,0.026,3.702,-1.031,0.275,0.0,66.0
81099,0.998,0.070,0.050,-2.321,-0.962,-0.542,0.0,67.0
81183,1.007,0.132,0.013,-5.366,-1.351,-0.733,0.0,66.0
81269,1.006,0.110,0.017,-11.832,-1.351,-1.748,0.0,67.0
81355,1.006,0.117,0.010,-9.260,0.954,-3.229,0.0,67.0
81441,1.021,0.106,-0.016,2.626,5.824,-3.069,0.0,66.0
81528,1.022,0.084,-0.006,-9.061,14.366,-13.305,0.0,67.0
81614,1.032,0.127,-0.006,16.847,34.092,-16.985,0.0,65.0
81700,1.008,0.106,0.028,7.366,60.969,-34.580,0.0,63.0
81785,0.952,0.123,0.126,34.229,96.542,-55.985,0.0,59.0
81871,0.786,0.293,0.254,43.901,135.115,-76.305,0.0,56.0
81960,0.631,0.504,0.387,62.771,133.267,-78.649,0.0,57.0
82054,0.382,0.640,0.584,18.656,129.328,-78.198,0.0,0.0
82148,0.069,0.677,0.916,-48.206,104.870,-58.916,0.0,0.0
82242,0.090,0.579,0.917,-34.153,53.557,-29.573,0.0,0.0
82335,0.080,0.500,0.862,22.565,32.710,-21.656,0.0,0.0
82429,0.021,0.454,0.859,3.145,32.756,-40.740,0.0,0.0
82524,-0.180,0.760,1.053,74.511,0.992,-7.756,0.0,0.0
82617,0.034,0.422,0.785,62.702,2.588,-3.076,0.0,0.0
82711,-0.082,0.772,0.685,74.908,-11.832,5.344,0.0,0.0
82808,0.009,0.880,0.532,28.374,-4.733,1.687,0.0,0.0
82902,-0.005,0.819,0.587,-10.137,1.481,-1.947,0.0,0.0
82996,-0.028,0.776,0.635,2.626,-0.046,-0.595,0.0,0.0
83089,-0.016,0.823,0.591,9.832,-1.824,0.748,0.0,0.0
83183,-0.014,0.827,0.590,-2.565,-0.595,-1.412,0.0,0.0
83277,-0.021,0.803,0.611,0.160,-0.786,-1.366,0.0,0.0
83371,-0.020,0.813,0.602,1.679,-0.901,-0.374,0.0,0.0
83465,-0.020,0.808,0.605,1.038,-0.550,-0.710,0.0,0.0
83558,-0.021,0.812,0.595,1.473,-0.542,-0.420,0.0,0.0
83660,-0.027,0.806,0.605,1.229,-0.771,-0.504,0.0,0.0
83753,-0.018,0.814,0.597,0.832,-0.885,-1.084,0.0,0.0
83847,-0.021,0.807,0.596,1.153,-0.756,-0.840,0.0,0.0
83939,-0.022,0.808,0.604,1.458,-0.740,-0.618,0.0,0.0
84032,-0.021,0.809,0.601,1.634,-0.603,-0.855,0.0,0.0
84124,-0.018,0.813,0.597,1.466,-0.840,-0.489,0.0,0.0
84217,-0.020,0.807,0.607,1.435,-0.710,-0.496,0.0,0.0
84311,-0.024,0.812,0.599,1.252,-0.641,-0.702,0.0,0.0
84403,-0.021,0.807,0.606,1.954,-0.771,-0.511,0.0,0.0
84496,-0.022,0.808,0.603,1.099,-0.931,-0.595,0.0,0.0
84592,-0.026,0.808,0.604,2.053,-0.840,-0.725,0.0,0.0
84684,-0.027,0.804,0.606,0.748,-0.534,-0.527,0.0,0.0
84777,-0.021,0.822,0.602,1.802,-0.763,-0.336,0.0,0.0
84871,-0.025,0.810,0.602,0.908,-0.664,-0.718,0.0,0.0
84963,-0.023,0.810,0.603,1.595,-0.656,-0.450,0.0,0.0
85056,-0.022,0.813,0.603,1.206,-0.695,-0.580,0.0,0.0
85149,-0.025,0.805,0.598,0.992,-0.786,-0.672,0.0,0.0
85242,-0.017,0.815,0.600,1.740,-0.847,-0.702,0.0,0.0
85335,-0.022,0.805,0.604,1.580,-0.779,-0.656,0.0,0.0
85431,-0.026,0.815,0.599,1.427,-0.924,-0.618,0.0,0.0
85524,-0.017,0.810,0.605,1.855,-0.794,-0.573,0.0,0.0
85616,-0.026,0.810,0.596,1.107,-0.840,-0.702,0.0,0.0
85709,-0.015,0.808,0.599,1.542,-0.779,-0.489,0.0,0.0
85803,-0.023,0.808,0.609,1.229,-0.588,-0.809,0.0,0.0
85896,-0.015,0.803,0.602,2.145,-1.084,-1.573,0.0,0.0
85988,-0.028,0.804,0.604,1.046,-0.878,-0.595,0.0,0.0
86081,-0.027,0.813,0.604,-0.328,-0.489,-1.221,0.0,0.0
86174,-0.023,0.805,0.608,2.160,-0.641,-1.588,0.0,0.0
86267,0.001,0.793,0.615,0.985,0.084,-1.603,0.0,0.0
86364,-0.031,0.835,0.579,-7.206,0.260,-7.542,0.0,0.0
86456,-0.082,0.820,0.580,42.023,-20.313,-15.321,0.0,0.0
86549,-0.086,0.764,0.604,3.008,-8.435,-1.969,0.0,0.0
86642,0.029,0.843,0.573,24.382,-3.252,8.412,0.0,0.0
86735,0.081,0.957,0.404,8.832,-5.733,-2.137,0.0,0.0
86829,-0.158,0.937,0.454,-37.763,9.824,-10.031,0.0,0.0
86922,-0.506,0.575,0.848,52.321,-27.038,4.122,0.0,0.0
87015,-0.091,0.981,0.133,137.435,-43.527,3.893,0.0,0.0
87108,0.083,1.154,0.001,-52.008,17.244,-12.298,0.0,0.0
87196,-0.051,0.833,0.428,-168.282,24.863,-13.611,58.0,0.0
87281,-0.100,0.552,0.814,-50.405,9.672,-4.557,59.0,0.0
87366,-0.101,0.699,0.709,60.137,-10.931,1.641,59.0,0.0
87452,-0.033,0.873,0.518,54.969,-13.504,6.863,59.0,0.0
87537,-0.016,0.909,0.419,-1.229,0.160,-5.076,60.0,0.0
87622,-0.071,0.730,0.627,-41.916,7.046,-5.160,60.0,0.0
87707,-0.048,0.697,0.679,19.947,-3.076,2.191,57.0,0.0
87792,-0.023,0.852,0.531,18.115,-3.031,0.534,55.0,0.0
87877,-0.031,0.887,0.541,14.695,-2.511,2.160,57.0,0.0
87965,0.010,0.952,0.443,15.298,-2.305,3.000,58.0,0.0
88050,-0.014,0.877,0.503,-10.397,0.191,0.542,55.0,0.0
88135,-0.017,0.836,0.528,10.992,-1.595,2.664,52.0,0.0
88219,-0.010,0.874,0.506,7.321,-0.656,2.031,31.0,0.0
88302,-0.015,0.863,0.520,-1.053,0.313,0.435,30.0,0.0
88386,-0.007,0.892,0.476,-7.863,0.214,0.504,29.0,0.0
88469,-0.024,0.823,0.558,-10.458,1.076,3.015,30.0,0.0
88553,-0.033,0.802,0.563,8.786,-1.214,3.969,30.0,0.0
88636,-0.028,0.809,0.583,18.191,-3.344,1.641,30.0,0.0
88720,0.074,0.996,0.457,7.603,-1.710,-1.359,32.0,0.0
88806,-0.004,0.848,0.513,-0.198,1.626,-5.511,23.0,0.0
88889,0.017,0.912,0.450,6.603,-1.550,-8.626,23.0,0.0
88973,0.000,0.902,0.415,14.702,-3.847,-5.992,29.0,0.0
89056,-0.026,1.060,0.236,39.832,-7.550,-1.931,22.0,0.0
89139,-0.031,0.832,0.537,6.237,-2.824,-1.656,21.0,0.0
89222,0.001,0.902,0.438,3.298,-0.985,0.557,22.0,0.0
89305,0.015,0.940,0.397,20.389,-3.122,3.603,16.0,0.0
89390,0.020,0.974,0.312,-4.779,-1.130,-1.519,46.0,0.0
89473,0.025,0.918,0.391,10.618,-1.137,-0.061,17.0,0.0
89559,0.027,0.960,0.346,0.794,-1.595,-2.824,16.0,0.0
89641,-0.004,0.891,0.446,-7.580,-10.756,-11.573,16.0,0.0
89724,0.033,0.914,0.467,-70.305,-7.305,-26.573,13.0,0.0
89807,-0.010,0.825,0.559,24.481,-10.679,-4.664,13.0,0.0
89890,0.015,1.037,0.340,39.252,-14.626,-27.420,13.0,0.0
89973,-0.094,0.872,0.505,21.405,-12.641,-36.023,13.0,0.0
90056,-0.155,0.948,0.442,65.115,-16.427,-29.511,16.0,0.0
90139,-0.048,0.911,0.204,40.366,-21.206,-36.458,16.0,0.0
90222,-0.182,0.947,0.150,31.771,-19.435,-31.794,18.0,0.0
90310,-0.255,0.884,0.267,-11.931,-18.420,-57.763,49.0,0.0
90395,-0.338,0.922,0.208,25.794,-29.969,-65.718,54.0,0.0
90470,-0.470,0.975,0.180,14.916,-37.756,-64.511,51.0,17.0
90556,-0.372,1.070,0.111,48.427,-50.824,-45.618,55.0,0.0
90641,-0.305,0.734,0.225,39.313,-38.916,-22.481,56.0,0.0
90716,-0.453,0.773,0.054,63.389,-20.252,-41.863,59.0,16.0
90802,-0.656,0.910,0.029,60.489,-8.885,-68.496,52.0,0.0
90886,-0.562,0.646,0.135,74.275,-5.328,-52.802,37.0,0.0
90979,-0.678,0.729,0.051,55.153,-2.450,-59.977,0.0,0.0
91067,-0.746,0.594,-0.034,22.092,5.076,-71.748,43.0,0.0
91152,-0.830,0.529,-0.082,14.458,4.931,-60.916,46.0,0.0
91237,-0.790,0.489,-0.087,-9.954,-2.115,-38.687,37.0,0.0
91321,-0.928,0.408,-0.085,1.084,-12.267,-48.779,36.0,0.0
91405,-0.949,0.416,-0.127,32.771,-17.534,-48.618,36.0,0.0
91490,-1.005,0.254,-0.118,40.519,-24.267,-49.992,34.0,0.0
91574,-1.053,0.208,-0.110,78.901,-15.153,-37.031,33.0,0.0
91658,-1.000,0.328,-0.137,44.313,-8.328,-6.603,33.0,0.0
91742,-0.875,0.147,-0.017,52.092,-14.588,9.855,31.0,0.0
91830,-0.906,0.199,-0.037,62.939,-9.527,-14.924,29.0,0.0
91914,-1.049,0.153,-0.045,78.160,-23.618,-21.359,29.0,0.0
91999,-1.124,0.255,-0.114,25.756,-17.160,12.351,58.0,0.0
92083,-1.025,0.110,0.010,-31.565,-52.710,22.115,23.0,0.0
92166,-1.031,0.073,0.031,22.740,-76.221,17.840,19.0,0.0
92250,-1.214,0.195,-0.000,48.740,-120.687,13.298,19.0,0.0
92333,-1.192,0.491,0.118,38.595,-155.405,18.695,20.0,0.0
92417,-0.964,0.563,0.326,-37.916,-173.817,-16.985,22.0,0.0
92500,-0.374,0.318,0.712,-76.069,-128.504,-67.641,23.0,0.0
92590,0.250,-0.009,0.832,-91.511,-43.794,-109.855,63.0,0.0
92675,-0.052,-0.138,0.891,27.275,1.969,-56.939,38.0,0.0
92759,-0.289,0.040,0.745,-87.840,4.397,-33.611,37.0,0.0
92843,-0.341,-0.513,0.801,-90.771,-1.939,-3.214,28.0,0.0
92929,-0.468,-0.543,0.730,21.832,-20.969,6.137,57.0,0.0
93015,-0.433,-0.375,0.739,17.267,24.748,-3.573,57.0,0.0
93099,-0.539,-0.427,0.777,-1.573,32.969,-25.115,36.0,0.0
93185,-0.513,-0.344,0.785,-2.344,10.931,-47.046,58.0,0.0
93272,-0.382,-0.259,0.737,-54.321,10.695,-59.427,22.0,0.0
93356,-0.390,-0.539,0.751,-109.359,21.359,-54.061,24.0,0.0
93440,-0.448,-0.668,0.712,5.573,36.664,-22.260,21.0,0.0
93523,-0.504,-0.555,0.551,-59.420,31.176,-6.145,22.0,0.0
93606,-0.450,-0.896,0.462,-103.435,18.382,2.756,20.0,0.0
93690,-0.529,-0.800,0.296,-75.573,20.527,22.550,18.0,0.0
93774,-0.531,-0.804,0.168,-48.435,12.290,30.359,17.0,0.0
93857,-0.620,-0.895,0.255,-6.702,-9.321,5.565,16.0,0.0
93940,-0.593,-0.705,0.177,-45.779,-28.160,5.305,15.0,0.0
94027,-0.509,-0.854,0.198,-20.206,-16.672,-7.344,16.0,0.0
94111,-0.487,-0.892,0.197,12.427,-14.550,-24.191,17.0,0.0
94194,-0.409,-0.972,0.294,76.886,-13.260,-22.947,17.0,191.0
94278,-0.290,-0.726,0.327,177.412,-7.893,11.107,18.0,0.0
94361,-0.332,-0.400,0.531,69.275,-8.450,22.939,17.0,0.0
94445,-0.405,-0.548,0.700,21.733,-22.809,44.023,16.0,0.0
94528,-0.359,-0.418,0.693,44.008,-25.076,70.214,17.0,0.0
94612,-0.463,-0.340,0.697,24.374,-14.176,66.458,17.0,0.0
94701,-0.410,-0.310,0.676,16.885,1.000,66.977,21.0,0.0
94787,-0.350,-0.279,0.670,35.198,34.397,60.008,30.0,0.0
94870,-0.701,-0.014,0.502,31.542,71.198,36.725,30.0,0.0
94963,-0.845,-0.059,0.494,4.137,32.458,22.702,0.0,0.0
95047,-0.773,-0.006,0.334,64.504,53.985,24.489,38.0,0.0
95139,-0.828,-0.045,0.318,-61.748,81.069,-37.611,0.0,0.0
95233,-1.390,-0.451,0.110,111.466,83.573,-6.687,0.0,0.0
95326,-1.110,-0.248,1.530,123.618,-41.053,77.748,0.0,0.0
95410,-0.851,-0.247,0.127,-45.557,25.076,12.206,40.0,0.0
95494,-0.915,-0.115,0.225,3.473,-2.580,33.557,41.0,0.0
95581,-0.866,0.367,0.283,-16.328,7.511,32.519,42.0,0.0
95665,-0.907,0.355,0.122,1.725,-4.290,33.634,42.0,0.0
95749,-0.796,0.274,0.275,18.443,-13.046,41.595,44.0,0.0
95842,-1.466,0.395,0.603,45.794,-75.053,168.160,0.0,0.0
95935,0.749,0.946,0.056,-107.351,-36.580,250.130,0.0,0.0
96018,-1.346,0.406,0.856,-42.221,0.069,172.664,26.0,0.0
96101,-0.584,0.980,-0.041,-108.176,1.534,164.779,25.0,0.0
96194,-0.397,0.281,1.665,-97.733,-58.290,54.420,0.0,0.0
96287,0.026,0.942,0.671,54.183,-3.725,7.817,0.0,0.0
96384,0.171,0.866,0.534,11.794,38.000,27.282,0.0,0.0
96476,-0.082,0.719,1.127,-23.618,37.756,17.015,0.0,0.0
96561,-0.040,0.818,0.576,218.802,-4.305,74.802,48.0,0.0
96654,-0.010,0.778,0.306,198.649,26.328,34.504,0.0,0.0
96747,0.766,1.473,-0.234,170.450,1.809,-5.840,0.0,0.0
96840,-0.472,1.308,-0.002,203.786,-19.710,12.076,0.0,0.0
96933,-0.126,2.000,-1.542,126.496,205.718,177.809,0.0,0.0
97016,1.108,-0.034,-0.051,215.519,159.290,250.130,0.0,31.0
97100,0.978,0.494,-0.682,101.435,250.130,250.130,0.0,43.0
97197,0.100,-0.410,-0.000,-147.832,119.092,250.038,0.0,0.0
97281,0.205,-0.409,0.438,39.916,73.763,141.099,41.0,0.0
97364,0.011,-0.582,0.353,20.771,32.282,80.122,39.0,0.0
97458,0.266,-0.897,0.446,-7.947,28.908,42.573,0.0,0.0
97543,0.328,-0.905,0.306,-4.015,51.870,43.710,45.0,200.0
97626,0.305,-0.970,0.315,-32.931,23.664,19.817,42.0,187.0
97710,0.465,-0.791,0.299,-4.702,25.771,55.229,42.0,190.0
97793,0.402,-0.830,0.209,5.511,4.664,75.290,37.0,192.0
97876,0.160,-0.790,0.231,76.237,2.809,85.550,36.0,197.0
97972,-0.059,-0.723,0.377,99.420,17.061,104.893,31.0,0.0
98068,-0.274,-0.674,0.580,94.931,58.290,102.176,0.0,0.0
98154,-0.836,-0.515,0.776,72.992,97.756,110.244,36.0,0.0
98249,-0.847,-0.877,1.012,44.092,16.618,51.672,0.0,0.0
98345,-0.851,-0.356,0.619,8.863,7.290,10.382,0.0,0.0
98441,-0.676,-0.373,0.603,13.664,6.298,-5.473,0.0,0.0
98537,-0.626,-0.422,0.618,-34.031,-8.038,-9.466,0.0,0.0
98632,-0.595,-0.560,0.611,-51.137,-6.137,-12.626,0.0,0.0
98728,-0.513,-0.606,0.591,-42.206,-14.580,-6.366,0.0,0.0
98827,-0.471,-0.600,0.477,-38.389,-3.137,-3.557,0.0,0.0
98922,-0.483,-0.736,0.521,-17.282,-2.458,-0.855,0.0,0.0
99008,-0.498,-0.686,0.463,9.611,10.534,2.954,18.0,0.0
99093,-0.593,-0.665,0.473,7.473,3.977,-1.916,16.0,0.0
99188,-0.579,-0.671,0.491,-3.863,-2.351,-3.870,0.0,0.0
99284,-0.596,-0.474,0.409,-45.962,-5.824,-7.779,0.0,0.0
99369,-0.544,-0.801,0.436,-102.702,-19.275,-14.847,17.0,0.0
99466,-0.479,-0.823,0.282,-89.282,-15.344,-6.214,0.0,0.0
