Timestamp(ms),AccelX(g),AccelY(g),AccelZ(g),GyroX(deg/s),GyroY(deg/s),GyroZ(deg/s),DistanceLeft(cm),DistanceRight(cm)
35898,-0.245,-0.968,0.049,2.450,-0.870,-4.107,0.0,0.0
35945,-0.291,-0.966,0.096,6.779,8.511,-5.931,0.0,0.0
35991,-0.306,-0.996,0.105,7.817,-5.115,-4.771,0.0,0.0
36037,-0.252,-0.964,0.057,12.130,-3.733,-4.229,0.0,0.0
36084,-0.254,-0.961,0.093,3.557,-7.588,-1.618,0.0,0.0
36130,-0.203,-0.997,0.025,9.481,3.511,6.366,0.0,0.0
36176,-0.244,-0.928,0.120,1.214,4.374,6.214,0.0,0.0
36222,-0.218,-0.997,0.067,1.130,-2.870,1.282,0.0,0.0
36272,-0.243,-0.973,0.114,0.779,-10.756,-4.542,0.0,0.0
36319,-0.201,-0.945,0.085,1.939,-6.748,-4.305,0.0,0.0
36365,-0.249,-0.969,0.104,0.061,4.382,-3.069,0.0,0.0
36411,-0.230,-0.991,0.087,0.916,4.137,-3.069,0.0,0.0
36457,-0.248,-0.948,0.104,5.008,9.802,-5.000,0.0,0.0
36504,-0.250,-0.908,0.127,0.809,5.809,-3.603,0.0,0.0
36550,-0.261,-0.967,0.137,1.099,8.656,-4.458,0.0,0.0
36596,-0.286,-1.022,0.153,-1.359,5.435,-8.916,0.0,0.0
36643,-0.267,-0.985,0.121,2.504,8.397,-8.718,0.0,0.0
36692,-0.312,-0.916,0.177,-1.191,4.893,-8.359,0.0,0.0
36739,-0.287,-0.907,0.146,3.214,-4.809,-6.366,0.0,0.0
36785,-0.277,-0.921,0.120,1.466,-6.565,-7.443,0.0,0.0
36832,-0.264,-0.935,0.114,-0.756,-1.359,-9.282,0.0,0.0
36878,-0.236,-0.908,0.101,2.069,7.611,-6.618,0.0,0.0
36925,-0.263,-0.887,0.150,-2.641,15.260,-8.046,0.0,0.0
36971,-0.287,-0.916,0.121,0.168,13.588,-9.450,0.0,0.0
37018,-0.293,-0.902,0.137,-2.664,7.031,-15.000,0.0,0.0
37064,-0.244,-0.922,0.083,-5.664,8.198,-15.771,0.0,0.0
37131,-0.255,-0.930,0.096,-6.137,23.145,-13.382,0.0,0.0
37178,-0.359,-1.105,0.154,-9.748,17.595,-22.580,0.0,0.0
37224,-0.391,-1.211,0.147,-4.885,-1.435,-33.634,0.0,0.0
37271,-0.361,-1.169,0.142,-6.046,-22.947,-31.458,0.0,0.0
37318,-0.200,-1.030,0.032,-3.733,-23.305,-4.252,0.0,0.0
37364,-0.163,-0.886,0.036,-1.038,-4.794,20.069,0.0,0.0
37411,-0.164,-0.879,0.010,-0.328,4.244,40.977,0.0,0.0
37457,-0.239,-1.061,0.004,2.634,0.710,46.267,0.0,0.0
37505,-0.294,-1.141,0.014,2.504,-26.679,36.550,0.0,0.0
37554,-0.237,-1.012,-0.043,-0.786,-51.580,22.260,0.0,0.0
37601,-0.152,-0.951,-0.113,2.046,-43.511,17.954,0.0,0.0
37647,-0.183,-0.883,-0.055,4.130,-20.748,10.023,0.0,0.0
37694,-0.215,-0.929,-0.030,4.389,-16.450,8.916,0.0,0.0
37741,-0.213,-0.914,-0.013,8.206,-15.397,8.481,0.0,0.0
37787,-0.197,-0.923,-0.029,2.855,-14.969,3.260,0.0,0.0
37834,-0.186,-0.906,-0.002,1.802,-6.328,1.237,0.0,0.0
37880,-0.242,-1.028,0.023,5.779,6.046,-6.679,0.0,0.0
37927,-0.234,-1.085,0.021,7.107,10.565,-14.885,0.0,0.0
37975,-0.311,-1.227,0.132,0.366,16.168,-25.321,0.0,0.0
38024,-0.280,-1.354,0.099,0.412,7.718,-35.740,0.0,0.0
38071,-0.272,-0.976,0.190,13.756,8.466,-44.962,0.0,0.0
38118,-0.183,-0.677,0.192,8.809,-13.985,-20.901,0.0,0.0
38164,0.022,-0.837,0.021,11.511,-12.076,17.115,0.0,0.0
38211,0.083,-1.067,-0.106,20.847,41.710,25.000,0.0,0.0
38315,-0.272,-0.970,0.175,0.740,77.962,4.618,0.0,0.0
38362,-0.317,-0.761,0.240,5.328,13.237,-6.321,0.0,0.0
38408,-0.210,-0.781,0.118,-0.206,-5.824,-8.267,0.0,0.0
38455,-0.196,-0.802,0.084,3.740,15.939,-8.107,0.0,0.0
38522,-0.309,-0.901,0.152,-4.824,18.183,-10.908,0.0,0.0
38569,-0.377,-0.985,0.184,-1.145,1.634,-17.344,0.0,0.0
38616,-0.361,-1.114,0.133,-3.145,-12.771,-20.069,0.0,0.0
38663,-0.312,-1.290,0.073,-3.824,-7.191,-19.321,0.0,0.0
38710,-0.292,-1.240,0.052,-1.748,9.679,-14.855,0.0,0.0
38757,-0.277,-1.034,0.063,3.328,19.672,5.458,0.0,0.0
38803,-0.311,-0.752,0.152,-3.557,5.344,24.435,0.0,0.0
38850,-0.318,-1.034,0.063,-4.191,-30.649,32.450,0.0,0.0
38897,-0.276,-1.095,-0.011,9.237,-55.450,25.046,0.0,0.0
38947,-0.177,-0.980,-0.074,0.115,-57.656,22.183,0.0,0.0
38994,-0.176,-0.887,-0.064,-1.092,-36.420,27.435,0.0,0.0
39042,-0.163,-0.874,-0.071,-4.855,-36.168,36.298,0.0,0.0
39089,-0.164,-0.842,-0.051,-5.748,-19.977,37.603,0.0,0.0
39136,-0.219,-0.882,-0.005,-9.328,-17.351,26.901,0.0,0.0
39183,-0.197,-0.844,0.014,-3.534,-16.954,13.954,0.0,0.0
39230,-0.216,-0.929,0.036,0.855,-9.137,5.656,0.0,0.0
39276,-0.215,-1.131,0.014,2.359,1.702,-6.511,0.0,0.0
39323,-0.287,-1.392,0.050,3.962,10.412,-28.237,0.0,0.0
39391,-0.305,-1.302,0.089,1.809,13.290,-48.641,0.0,0.0
39438,-0.193,-1.005,0.124,-0.656,-4.237,-51.275,0.0,0.0
39485,-0.125,-0.655,0.131,13.618,20.580,-28.847,0.0,0.0
39532,-0.189,-0.777,0.142,0.405,27.183,-7.916,0.0,0.0
39579,-0.243,-0.949,0.126,-2.985,15.412,-0.565,0.0,0.0
39626,-0.159,-1.013,0.040,-3.473,-3.275,8.221,0.0,0.0
39673,-0.095,-0.809,0.045,1.954,29.504,0.198,0.0,0.0
39720,-0.247,-0.816,0.149,-6.282,41.794,-9.153,0.0,0.0
39768,-0.299,-0.836,0.146,4.015,24.221,-13.321,0.0,0.0
39818,-0.332,-0.860,0.168,-2.130,-3.588,-19.344,0.0,0.0
39865,-0.288,-0.989,0.089,-10.382,-15.046,-22.824,0.0,0.0
39912,-0.286,-0.968,0.080,-5.053,1.069,-17.802,0.0,0.0
39959,-0.321,-1.061,0.108,-8.145,4.626,-13.733,0.0,0.0
40006,-0.338,-1.168,0.096,-4.695,9.748,-13.947,0.0,0.0
40053,-0.381,-1.224,0.117,-4.046,6.122,-15.954,0.0,0.0
40101,-0.400,-1.137,0.111,7.229,-8.298,-7.069,0.0,0.0
40148,-0.244,-0.755,0.057,10.550,-19.557,25.626,0.0,0.0
40196,-0.356,-1.081,0.095,-3.534,-38.023,42.374,0.0,0.0
40263,-0.149,-1.187,-0.156,11.725,-51.534,59.313,0.0,0.0
40310,-0.158,-0.974,-0.080,-1.298,-16.931,59.298,0.0,0.0
40357,-0.215,-0.962,-0.050,-2.580,-15.641,57.557,0.0,0.0
40406,-0.233,-0.848,-0.010,-1.061,-33.679,48.382,0.0,0.0
40451,-0.148,-0.800,-0.066,-9.740,-39.847,39.344,0.0,175.0
40512,-0.132,-0.794,-0.071,-4.076,-15.611,28.458,0.0,195.0
40571,-0.207,-0.920,0.003,-2.092,-2.366,4.084,0.0,174.0
40633,-0.269,-1.143,0.019,0.374,-7.908,-31.924,0.0,0.0
40680,-0.313,-1.334,0.041,0.366,0.275,-73.908,0.0,0.0
40748,-0.325,-1.186,0.122,5.832,12.038,-81.344,0.0,0.0
40852,-0.136,-0.738,0.081,5.992,-15.863,-32.046,0.0,0.0
40900,-0.057,-1.084,-0.031,2.244,45.244,1.061,0.0,0.0
40947,-0.193,-0.982,0.070,2.679,82.122,9.626,0.0,0.0
40994,-0.337,-0.851,0.218,-8.542,59.855,7.954,0.0,0.0
41041,-0.335,-0.784,0.187,-7.878,9.191,-0.145,0.0,0.0
41089,-0.273,-0.787,0.154,-6.237,-22.084,-9.847,0.0,0.0
41136,-0.135,-0.870,0.009,-5.160,-14.656,-15.511,0.0,0.0
41184,-0.217,-0.878,0.088,-1.588,17.618,-21.344,0.0,0.0
41251,-0.301,-0.980,0.125,-7.557,10.458,-14.221,0.0,0.0
41299,-0.359,-1.173,0.118,-3.641,5.504,-12.595,0.0,0.0
41347,-0.337,-1.192,0.063,-13.947,-9.916,-14.183,0.0,0.0
41394,-0.355,-1.203,0.080,-8.260,-7.374,-9.893,0.0,0.0
41442,-0.272,-0.995,0.053,1.565,-16.969,6.718,0.0,0.0
41489,-0.252,-0.786,0.091,2.626,-9.351,27.198,0.0,0.0
41536,-0.337,-1.140,0.037,-3.176,-41.321,33.458,0.0,0.0
41584,-0.237,-1.116,-0.027,9.649,-64.886,34.557,0.0,0.0
41631,-0.119,-1.011,-0.109,3.275,-56.168,35.573,0.0,0.0
41682,-0.129,-0.936,-0.077,8.947,-16.122,42.962,0.0,0.0
41728,-0.195,-0.855,-0.012,2.084,-17.282,48.557,0.0,167.0
41789,-0.151,-0.813,-0.054,0.427,-11.489,47.374,0.0,0.0
41837,-0.194,-0.853,0.005,-4.336,-5.023,31.443,0.0,0.0
41884,-0.176,-0.936,-0.021,8.160,4.985,15.992,0.0,0.0
41931,-0.244,-1.082,0.046,6.580,8.443,-11.565,0.0,0.0
41979,-0.303,-1.261,0.042,7.817,6.504,-41.641,0.0,0.0
42027,-0.315,-1.342,0.076,7.206,3.702,-64.198,0.0,0.0
42094,-0.308,-0.905,0.171,4.557,6.298,-68.664,0.0,0.0
42143,-0.188,-0.859,0.125,1.511,-4.137,-19.901,0.0,0.0
42190,-0.122,-0.990,0.039,9.809,21.832,0.550,0.0,0.0
42236,-0.162,-1.033,0.019,6.878,59.809,6.313,0.0,0.0
42283,-0.253,-0.869,0.114,0.779,61.214,9.267,0.0,0.0
42329,-0.313,-0.782,0.173,-1.992,29.496,2.305,0.0,0.0
42375,-0.275,-0.772,0.157,-5.641,-5.817,-10.427,0.0,0.0
42422,-0.161,-0.812,-0.006,4.458,-0.282,-20.450,0.0,0.0
42468,-0.259,-0.801,0.121,-3.321,12.046,-30.779,0.0,0.0
42514,-0.282,-0.981,0.047,0.267,10.702,-27.237,0.0,0.0
42561,-0.368,-1.088,0.131,1.237,10.366,-27.824,0.0,0.0
42610,-0.319,-1.185,0.060,-3.107,0.733,-27.534,0.0,0.0
42656,-0.352,-1.297,0.047,0.763,16.153,-26.336,0.0,0.0
42702,-0.333,-1.131,0.067,6.809,16.427,-14.160,0.0,0.0
42749,-0.316,-0.820,0.086,10.679,13.420,13.420,0.0,0.0
42796,-0.373,-1.001,0.138,-6.771,-27.000,33.786,0.0,0.0
42842,-0.302,-1.150,0.000,6.305,-55.092,41.374,0.0,0.0
42889,-0.197,-1.035,-0.051,-0.244,-71.122,43.527,0.0,0.0
42935,-0.093,-1.008,-0.149,6.847,-38.985,51.679,0.0,0.0
42982,-0.203,-0.843,-0.031,-1.947,-20.061,57.153,0.0,0.0
43048,-0.141,-0.794,-0.094,-8.985,-27.282,57.656,0.0,0.0
43095,-0.185,-0.748,0.010,-10.672,-14.298,44.069,0.0,0.0
43140,-0.147,-0.886,-0.080,-4.443,-7.061,30.206,0.0,167.0
43200,-0.223,-1.031,-0.023,4.664,8.191,3.786,0.0,0.0
43247,-0.322,-1.401,0.014,1.496,0.534,-41.969,0.0,0.0
43350,-0.333,-1.046,0.182,-1.282,-17.885,-79.321,0.0,0.0
43397,-0.200,-0.728,0.227,3.832,-26.015,-37.336,0.0,0.0
43444,-0.054,-0.946,0.019,8.015,2.206,-4.840,0.0,0.0
43490,-0.123,-1.055,0.051,4.580,58.443,0.244,0.0,0.0
43556,-0.284,-0.930,0.171,1.023,49.252,6.962,0.0,0.0
43603,-0.206,-0.800,0.095,-0.382,17.511,-7.107,0.0,0.0
43650,-0.214,-0.704,0.103,1.443,17.000,-17.802,0.0,0.0
43697,-0.237,-0.786,0.075,-0.015,12.191,-26.130,0.0,0.0
43743,-0.298,-0.880,0.119,-1.298,8.695,-31.282,0.0,0.0
43790,-0.335,-0.995,0.121,-8.107,-1.397,-32.542,0.0,0.0
43836,-0.345,-1.112,0.111,-10.412,-1.634,-29.924,0.0,0.0
43883,-0.402,-1.302,0.146,-8.702,-4.000,-29.267,0.0,0.0
43930,-0.325,-1.313,0.030,0.359,-5.313,-26.817,0.0,0.0
43979,-0.264,-0.956,0.053,8.115,22.443,0.626,0.0,0.0
44026,-0.280,-0.754,0.110,-2.260,26.466,42.198,0.0,0.0
44072,-0.430,-1.069,0.198,-10.962,-21.328,55.809,0.0,0.0
44120,-0.220,-1.183,-0.066,7.084,-65.328,62.137,0.0,0.0
44166,-0.123,-0.984,-0.097,7.519,-43.366,54.031,0.0,0.0
44213,-0.113,-0.949,-0.115,3.733,-11.046,54.435,0.0,0.0
44260,-0.211,-0.854,-0.025,8.847,5.534,51.664,0.0,0.0
44305,-0.229,-0.772,0.013,0.252,-10.977,43.504,0.0,172.0
44364,-0.171,-0.773,-0.041,-2.053,-13.511,34.244,0.0,176.0
44426,-0.206,-0.926,-0.012,-4.053,-9.695,12.168,0.0,167.0
44484,-0.311,-1.187,0.048,4.802,-3.061,-22.687,0.0,161.0
44542,-0.291,-1.459,-0.031,13.198,-3.053,-66.427,0.0,163.0
44603,-0.309,-1.021,0.173,8.847,10.450,-87.328,0.0,178.0
44663,-0.188,-0.774,0.122,12.214,15.489,-39.092,0.0,0.0
44710,-0.171,-0.989,0.096,-4.275,28.916,-5.153,0.0,0.0
44758,-0.269,-1.019,0.139,-4.160,44.160,0.786,0.0,0.0
44804,-0.261,-0.941,0.151,0.420,20.580,3.924,0.0,0.0
44851,-0.182,-0.730,0.101,7.267,25.702,-5.550,0.0,0.0
44901,-0.259,-0.723,0.125,-0.473,21.679,-8.718,0.0,0.0
44947,-0.271,-0.857,0.084,5.107,9.740,-17.641,0.0,0.0
44994,-0.310,-0.854,0.113,0.420,1.992,-24.176,0.0,0.0
45041,-0.287,-0.930,0.086,-4.939,-2.191,-19.916,0.0,0.0
45088,-0.358,-1.087,0.110,-6.496,2.534,-16.008,0.0,0.0
45134,-0.396,-1.281,0.125,-8.412,-2.527,-18.527,0.0,0.0
45181,-0.435,-1.258,0.159,-6.313,-17.244,-26.435,0.0,0.0
45229,-0.222,-1.050,-0.041,9.405,1.618,-3.015,0.0,0.0
45276,-0.343,-0.753,0.179,-0.580,8.267,24.908,0.0,0.0
45343,-0.369,-1.172,0.025,-1.641,-35.145,38.672,0.0,0.0
45390,-0.211,-1.040,-0.034,1.191,-71.069,41.817,0.0,0.0
45437,-0.069,-0.952,-0.148,-0.107,-38.237,48.237,0.0,0.0
45485,-0.187,-0.853,-0.007,-3.061,-10.160,57.824,0.0,0.0
45532,-0.108,-0.786,-0.090,-4.221,-10.725,59.992,0.0,0.0
45578,-0.128,-0.735,-0.041,-4.641,14.023,50.443,0.0,0.0
45625,-0.213,-0.828,0.017,-8.038,9.176,30.061,0.0,0.0
45672,-0.222,-0.945,0.026,4.183,1.481,2.756,0.0,0.0
45719,-0.304,-1.252,0.062,6.954,0.695,-27.870,0.0,0.0
45769,-0.307,-1.459,0.021,15.595,3.038,-70.870,0.0,0.0
45873,-0.360,-0.784,0.232,14.977,10.000,-81.076,0.0,0.0
45921,-0.136,-0.893,0.055,14.450,11.565,-11.214,0.0,0.0
45968,-0.121,-1.013,0.021,6.977,54.870,4.244,0.0,0.0
46014,-0.302,-1.015,0.152,2.733,73.519,6.443,0.0,0.0
46061,-0.397,-0.880,0.211,10.908,36.595,4.221,0.0,0.0
46108,-0.308,-0.720,0.169,4.985,-11.824,-1.710,0.0,0.0
46155,-0.180,-0.737,0.030,-3.237,-18.435,-9.718,0.0,0.0
46202,-0.231,-0.826,0.044,2.351,3.840,-14.802,0.0,0.0
46270,-0.295,-0.882,0.098,-2.656,-3.237,-20.489,0.0,0.0
46317,-0.348,-1.034,0.102,-6.450,-5.481,-23.496,0.0,0.0
46365,-0.326,-1.197,0.049,-8.092,-7.901,-24.702,0.0,0.0
46412,-0.326,-1.226,0.039,-5.519,10.137,-23.244,0.0,0.0
46459,-0.381,-1.143,0.105,-5.939,16.214,-18.092,0.0,0.0
46507,-0.305,-0.889,0.064,4.634,14.183,7.969,0.0,0.0
46554,-0.475,-0.934,0.246,-11.328,-15.931,26.000,0.0,0.0
46601,-0.349,-1.220,0.032,-4.626,-73.733,40.832,0.0,0.0
46648,-0.168,-0.994,-0.006,0.069,-72.282,55.634,0.0,0.0
46698,-0.111,-0.929,-0.057,-13.290,-42.718,66.038,0.0,0.0
46745,-0.112,-0.882,-0.076,-2.160,-7.992,78.695,0.0,0.0
46793,-0.162,-0.752,-0.007,-10.053,-0.641,72.847,0.0,0.0
46840,-0.188,-0.806,-0.016,-9.847,1.718,53.336,0.0,0.0
46887,-0.234,-0.885,0.023,-1.756,-4.908,24.061,0.0,0.0
46934,-0.207,-0.984,-0.015,9.847,-7.084,-6.374,0.0,186.0
46995,-0.333,-1.295,0.040,13.321,0.244,-43.893,0.0,0.0
47042,-0.319,-1.355,0.036,26.389,1.031,-94.718,0.0,0.0
47089,-0.344,-0.943,0.214,17.229,0.840,-103.008,0.0,0.0
47140,-0.270,-0.734,0.188,11.916,-13.290,-63.725,0.0,0.0
47187,-0.111,-0.843,0.094,6.687,-1.977,-9.893,0.0,0.0
47235,-0.109,-1.029,0.052,-5.641,47.008,6.924,0.0,0.0
47282,-0.254,-1.091,0.143,-2.061,57.740,7.053,0.0,0.0
47329,-0.264,-0.797,0.167,10.420,41.962,-6.969,0.0,0.0
47377,-0.302,-0.676,0.197,0.740,18.634,-12.779,0.0,0.0
47424,-0.266,-0.754,0.122,-0.122,-5.908,-16.779,0.0,0.0
47471,-0.208,-0.870,0.035,2.015,-4.718,-21.641,0.0,0.0
47518,-0.281,-0.903,0.077,-1.069,14.244,-29.832,0.0,0.0
47587,-0.401,-1.065,0.153,-7.908,-3.122,-29.481,0.0,0.0
47634,-0.362,-1.220,0.133,-9.489,-27.000,-25.924,0.0,0.0
47682,-0.345,-1.197,0.122,-13.069,-21.450,-16.611,0.0,0.0
47729,-0.262,-1.079,0.067,-2.802,-4.870,3.870,0.0,0.0
47776,-0.278,-0.834,0.166,5.496,7.092,33.466,0.0,0.0
47824,-0.372,-1.148,0.132,3.817,-27.389,41.939,0.0,0.0
47872,-0.135,-1.086,-0.064,18.038,-35.802,59.046,0.0,0.0
47919,-0.114,-0.928,-0.043,4.099,-8.733,60.321,0.0,0.0
47967,-0.152,-0.936,-0.039,-0.458,3.878,65.359,0.0,0.0
48017,-0.171,-0.802,-0.004,0.771,-2.649,62.282,0.0,0.0
48063,-0.138,-0.786,-0.005,-7.802,-7.947,46.183,0.0,181.0
48123,-0.166,-0.841,0.012,-5.641,-10.168,25.229,0.0,174.0
48184,-0.193,-0.957,-0.006,8.084,-3.275,1.176,0.0,181.0
48245,-0.300,-1.292,0.029,2.435,5.458,-32.321,0.0,0.0
48292,-0.362,-1.288,0.104,-3.603,-4.588,-71.183,0.0,0.0
48397,-0.259,-0.775,0.198,-3.786,-16.634,-54.511,0.0,0.0
48445,-0.116,-0.981,0.082,-8.206,-11.435,-19.466,0.0,0.0
48513,-0.115,-1.009,0.082,-1.267,45.504,-5.031,0.0,0.0
48562,-0.289,-0.877,0.183,-2.397,34.565,-5.122,0.0,0.0
48608,-0.272,-0.740,0.140,-2.412,9.466,-10.908,0.0,0.0
48654,-0.193,-0.779,0.049,-1.176,3.580,-13.817,0.0,0.0
48701,-0.232,-0.844,0.065,5.885,21.740,-22.870,0.0,0.0
48747,-0.313,-0.905,0.084,1.664,15.176,-27.298,0.0,0.0
48793,-0.321,-0.945,0.095,0.382,15.939,-21.031,0.0,0.0
48839,-0.410,-1.177,0.116,-9.450,-1.084,-17.649,0.0,0.0
48886,-0.229,-1.261,-0.050,-4.847,7.198,-7.656,0.0,0.0
48932,-0.350,-1.239,0.063,-6.443,35.687,-8.901,0.0,0.0
48982,-0.359,-1.067,0.053,3.542,18.237,2.053,0.0,0.0
49028,-0.371,-0.823,0.165,3.435,-6.038,24.267,0.0,0.0
49075,-0.305,-1.144,-0.006,-3.275,-46.580,37.603,0.0,0.0
49121,-0.221,-1.015,-0.032,7.000,-49.725,44.809,0.0,0.0
49167,-0.129,-0.855,-0.101,-5.878,-42.702,53.496,0.0,0.0
49214,-0.182,-0.906,-0.038,-5.534,-21.511,59.122,0.0,0.0
49260,-0.176,-0.869,-0.041,-7.344,-35.740,61.504,0.0,0.0
49307,-0.069,-0.837,-0.123,-0.733,-10.321,59.756,0.0,0.0
49353,-0.175,-0.832,-0.049,-7.969,7.496,42.901,0.0,0.0
49402,-0.218,-0.922,-0.017,3.107,4.359,20.252,0.0,0.0
49446,-0.262,-1.132,0.027,6.832,-4.702,-5.046,0.0,148.0
49503,-0.278,-1.365,-0.058,16.786,-3.420,-36.115,0.0,134.0
49563,-0.294,-1.277,0.033,15.588,20.611,-73.733,0.0,0.0
49610,-0.402,-0.854,0.209,6.985,6.702,-79.504,0.0,0.0
49656,-0.201,-0.730,0.122,6.534,-17.313,-37.626,0.0,0.0
49703,-0.113,-0.899,0.011,4.061,7.092,-8.336,0.0,0.0
49750,-0.148,-0.979,0.010,-2.527,59.885,-2.153,0.0,0.0
49796,-0.329,-0.930,0.108,1.282,63.595,-0.779,0.0,0.0
49843,-0.408,-0.769,0.218,0.023,19.489,-8.038,0.0,0.0
49892,-0.316,-0.792,0.107,-5.008,-26.992,-17.519,0.0,0.0
49939,-0.228,-0.866,0.018,-0.542,-22.130,-24.580,0.0,0.0
49985,-0.230,-0.868,0.008,2.214,4.565,-25.450,0.0,0.0
50032,-0.328,-0.864,0.109,-3.672,10.817,-22.832,0.0,0.0
50078,-0.340,-1.117,0.070,-2.008,2.008,-18.664,0.0,0.0
50125,-0.354,-1.199,0.075,-0.756,0.779,-16.496,0.0,0.0
50171,-0.368,-1.242,0.081,-8.244,-4.466,-11.748,0.0,0.0
50219,-0.326,-1.128,0.037,3.802,2.359,1.748,0.0,0.0
50265,-0.292,-0.762,0.093,2.771,-5.748,29.130,0.0,0.0
50332,-0.371,-1.112,0.037,-2.702,-24.244,39.634,0.0,0.0
50379,-0.187,-1.052,-0.095,6.214,-64.344,41.450,0.0,0.0
50425,-0.077,-0.874,-0.146,6.702,-22.382,47.725,0.0,0.0
50472,-0.211,-0.894,-0.029,-1.374,8.565,52.519,0.0,0.0
50518,-0.243,-0.776,0.005,-0.809,-8.099,54.183,0.0,179.0
50577,-0.214,-0.762,-0.017,-8.153,-23.076,45.809,0.0,172.0
50637,-0.154,-0.879,-0.070,-6.443,-22.511,28.160,0.0,0.0
50698,-0.233,-1.077,0.004,6.863,-0.191,2.740,0.0,199.0
50757,-0.305,-1.426,-0.015,17.634,14.382,-35.863,0.0,181.0
50822,-0.312,-1.148,0.073,8.260,9.588,-73.595,0.0,0.0
50925,-0.221,-0.849,0.065,-2.794,-25.321,-17.939,0.0,0.0
50972,-0.090,-0.936,-0.008,-9.221,28.595,0.504,0.0,0.0
51019,-0.311,-1.015,0.107,-5.374,52.786,-3.290,0.0,0.0
51065,-0.330,-0.864,0.143,3.298,21.359,1.870,0.0,0.0
51112,-0.278,-0.751,0.133,-3.328,3.847,-4.863,0.0,0.0
51160,-0.249,-0.867,0.047,-4.527,-1.313,-11.557,0.0,0.0
51206,-0.266,-0.834,0.054,6.374,13.824,-17.550,0.0,0.0
51253,-0.330,-0.859,0.086,-1.771,2.985,-27.237,0.0,0.0
51318,-0.386,-0.965,0.089,1.344,-10.450,-31.618,0.0,179.0
51380,-0.296,-1.195,-0.033,3.855,-6.382,-27.130,0.0,0.0
51427,-0.399,-1.229,0.078,-2.817,13.611,-25.321,0.0,0.0
51474,-0.326,-1.113,0.009,8.153,17.786,-9.885,0.0,0.0
51520,-0.371,-0.776,0.132,5.649,10.008,15.191,0.0,0.0
51567,-0.380,-1.023,0.074,-4.840,-20.168,34.466,0.0,0.0
51614,-0.391,-1.163,0.045,4.290,-59.229,33.756,0.0,0.0
51661,-0.153,-0.964,-0.133,-1.252,-76.771,45.099,0.0,0.0
51708,-0.098,-0.920,-0.139,-4.137,-30.519,51.779,0.0,0.0
51773,-0.224,-0.852,-0.043,-14.198,-21.733,59.626,0.0,164.0
51832,-0.171,-0.811,-0.063,-15.702,-27.573,58.443,0.0,164.0
51894,-0.199,-0.875,-0.037,-17.214,-23.840,38.412,0.0,0.0
51941,-0.237,-0.972,-0.014,-0.695,-4.389,12.626,0.0,0.0
51986,-0.349,-1.195,0.012,2.992,-5.298,-17.962,0.0,171.0
52045,-0.369,-1.310,0.020,1.641,-18.534,-48.519,0.0,170.0
52105,-0.387,-1.091,0.133,-4.695,-23.168,-83.321,0.0,182.0
52166,-0.260,-0.758,0.109,-4.634,-37.878,-52.511,0.0,0.0
52216,-0.134,-0.914,0.019,-0.427,-14.412,-9.092,0.0,0.0
52263,-0.128,-1.020,-0.009,-0.534,37.427,-2.244,0.0,0.0
52311,-0.312,-1.028,0.122,0.023,47.611,-1.718,0.0,0.0
52358,-0.355,-0.870,0.196,-1.618,5.794,-1.206,0.0,0.0
52405,-0.207,-0.783,0.056,-1.473,-9.221,-7.557,0.0,0.0
52452,-0.219,-0.781,0.088,-4.153,-0.725,-11.565,0.0,0.0
52499,-0.240,-0.832,0.060,3.855,6.389,-13.481,0.0,0.0
52546,-0.365,-0.914,0.144,-5.802,-11.321,-21.695,0.0,0.0
52593,-0.319,-1.033,0.052,-4.466,-27.344,-21.649,0.0,0.0
52640,-0.345,-1.136,0.063,-5.053,-27.053,-22.840,0.0,0.0
52690,-0.318,-1.211,0.015,-7.031,-28.198,-22.053,0.0,0.0
52738,-0.326,-1.239,0.005,-0.924,-16.588,-17.351,0.0,0.0
52785,-0.244,-0.876,-0.010,3.542,-13.321,2.473,0.0,0.0
52832,-0.311,-0.824,0.067,-7.252,-17.947,26.473,0.0,0.0
52879,-0.287,-1.130,-0.084,-3.534,-46.687,33.038,0.0,0.0
52927,-0.273,-1.026,-0.053,-1.649,-71.595,28.786,0.0,0.0
52974,-0.118,-1.010,-0.221,-4.740,-72.405,27.649,0.0,0.0
53021,-0.162,-0.957,-0.120,-3.305,-40.924,28.214,0.0,0.0
53071,-0.156,-0.902,-0.135,-8.023,-49.237,30.786,0.0,0.0
53118,-0.161,-0.856,-0.111,-9.092,-36.603,26.130,0.0,190.0
53180,-0.204,-0.878,-0.062,-16.573,-39.931,17.038,0.0,0.0
53227,-0.208,-1.038,-0.049,-3.550,-22.779,13.634,0.0,0.0
53274,-0.271,-1.156,0.015,-5.473,-23.595,-0.282,0.0,0.0
53321,-0.267,-1.210,0.033,-2.557,-22.427,-10.855,0.0,0.0
53369,-0.260,-1.224,0.068,-2.130,-20.252,-23.351,0.0,0.0
53473,-0.162,-0.778,0.071,-1.076,-35.733,-6.260,0.0,0.0
53521,-0.158,-1.083,0.026,-6.359,-17.954,9.351,0.0,0.0
53588,-0.156,-1.030,0.025,-7.725,-12.824,5.962,0.0,0.0
53636,-0.273,-0.833,0.125,-10.443,-13.939,-1.328,0.0,0.0
53684,-0.270,-0.835,0.087,-9.099,-43.244,-12.649,0.0,0.0
53731,-0.249,-0.808,0.067,-2.000,-42.878,-17.198,0.0,0.0
53778,-0.283,-0.908,0.047,-7.992,-49.809,-20.611,0.0,0.0
53825,-0.241,-0.917,0.030,-3.702,-42.687,-18.107,0.0,0.0
53873,-0.271,-1.021,0.039,-5.771,-34.107,-16.443,0.0,0.0
53920,-0.254,-1.036,0.009,-5.855,-20.962,-7.557,0.0,0.0
53967,-0.365,-1.219,0.074,-17.435,-20.695,-5.023,0.0,0.0
54019,-0.221,-1.194,-0.084,-12.679,-22.962,4.137,0.0,0.0
54066,-0.273,-0.830,0.051,-10.313,-6.046,15.038,0.0,0.0
54114,-0.315,-0.876,0.067,-23.450,-36.893,30.466,0.0,0.0
54161,-0.327,-1.256,-0.033,-7.450,-63.557,27.802,0.0,0.0
54208,-0.250,-1.042,-0.079,-13.580,-95.763,17.885,0.0,0.0
54256,-0.118,-0.958,-0.186,-8.542,-74.908,21.550,0.0,0.0
54303,-0.195,-0.858,-0.057,-12.145,-51.038,33.145,0.0,0.0
54351,-0.136,-0.906,-0.127,-15.397,-58.840,39.901,0.0,0.0
54398,-0.133,-0.962,-0.106,-12.168,-33.405,32.893,0.0,0.0
54467,-0.163,-0.915,-0.084,-11.771,-26.084,19.901,0.0,0.0
54514,-0.250,-0.956,0.014,-7.336,-14.382,3.710,0.0,0.0
54562,-0.238,-1.145,-0.029,-1.481,-17.656,-8.649,0.0,0.0
54609,-0.276,-1.219,0.020,2.092,-10.840,-26.656,0.0,0.0
54658,-0.309,-1.360,0.022,-4.634,-9.229,-41.779,0.0,0.0
54705,-0.279,-0.728,0.166,-2.458,-13.382,-41.153,0.0,0.0
54753,-0.097,-0.780,0.023,-1.000,-14.435,-6.626,0.0,0.0
54800,-0.132,-0.956,0.025,13.725,17.527,-1.069,0.0,0.0
54847,-0.222,-1.082,0.057,5.237,29.252,-0.847,0.0,0.0
54903,-0.307,-0.952,0.147,-4.641,10.351,3.626,0.0,0.0
54949,-0.284,-0.846,0.142,-9.137,-28.687,6.573,0.0,0.0
54996,-0.144,-0.810,0.001,-9.573,-29.763,3.244,0.0,0.0
55043,-0.183,-0.789,0.048,-5.763,-2.756,-0.198,0.0,0.0
55089,-0.316,-0.854,0.109,-4.420,-12.412,-9.427,0.0,0.0
55135,-0.291,-0.905,0.038,-2.618,-29.053,-16.779,0.0,0.0
55182,-0.310,-0.953,0.058,-9.382,-30.344,-21.855,0.0,0.0
55228,-0.222,-1.066,-0.067,-3.122,-15.427,-16.267,0.0,0.0
55275,-0.360,-1.131,0.077,-9.427,2.702,-17.092,0.0,0.0
55324,-0.313,-1.234,-0.046,-6.939,-15.527,-15.603,0.0,0.0
55370,-0.283,-1.035,0.011,6.168,-1.939,-0.840,0.0,0.0
55416,-0.291,-0.901,0.038,-7.412,-8.679,23.489,0.0,0.0
55463,-0.414,-1.164,0.071,-10.069,-45.672,25.977,0.0,0.0
55510,-0.186,-1.052,-0.123,-7.672,-81.076,35.176,0.0,0.0
55557,-0.136,-0.886,-0.127,-11.290,-53.359,32.191,0.0,0.0
55603,-0.196,-0.938,-0.078,-10.137,-36.252,32.130,0.0,0.0
55650,-0.194,-0.868,-0.073,-2.527,-32.519,34.366,0.0,0.0
55696,-0.201,-0.899,-0.055,-7.802,-32.496,26.840,0.0,0.0
55746,-0.168,-0.889,-0.083,-4.252,-28.481,19.725,0.0,0.0
55792,-0.200,-0.926,-0.034,0.794,-10.053,12.710,0.0,0.0
55838,-0.263,-1.042,-0.029,1.305,-16.344,2.389,0.0,0.0
55940,-0.270,-1.329,-0.038,2.908,-11.878,-31.084,0.0,164.0
56000,-0.238,-0.987,0.047,-2.153,0.710,-35.878,0.0,0.0
56047,-0.268,-0.692,0.163,-8.153,-11.031,-18.504,0.0,0.0
56094,-0.084,-0.904,-0.018,-12.275,-7.885,8.168,0.0,0.0
56140,-0.148,-1.026,0.047,-9.908,27.137,4.160,0.0,0.0
56187,-0.281,-1.044,0.117,-9.191,25.130,-3.366,0.0,0.0
56237,-0.310,-0.831,0.164,-1.977,1.160,-12.160,0.0,0.0
56284,-0.269,-0.788,0.111,-4.855,-13.344,-12.420,0.0,0.0
56330,-0.225,-0.834,0.037,-1.221,-8.397,-9.038,0.0,0.0
56377,-0.280,-0.878,0.055,2.015,2.863,-15.824,0.0,0.0
56423,-0.327,-0.935,0.072,-1.718,-7.313,-22.618,0.0,0.0
56470,-0.292,-1.040,0.003,5.672,-1.427,-24.947,0.0,0.0
56516,-0.384,-1.151,0.074,4.954,0.878,-32.191,0.0,0.0
56563,-0.369,-1.208,0.049,4.870,-6.725,-30.511,0.0,0.0
56609,-0.355,-1.247,0.042,1.458,-6.420,-18.794,0.0,0.0
56677,-0.288,-0.875,0.029,4.458,-0.855,7.565,0.0,0.0
56723,-0.348,-0.897,0.085,-12.260,-23.198,42.336,0.0,0.0
56770,-0.292,-1.171,-0.061,-2.282,-54.290,44.992,0.0,0.0
56817,-0.181,-0.996,-0.064,-6.038,-65.855,39.267,0.0,0.0
56863,-0.060,-0.985,-0.188,-3.389,-39.099,37.183,0.0,0.0
56910,-0.125,-0.869,-0.060,-2.756,-7.321,41.061,0.0,0.0
56956,-0.147,-0.873,-0.037,-5.977,-15.786,32.382,0.0,180.0
57017,-0.123,-0.829,-0.036,-4.779,-10.351,22.168,0.0,0.0
57064,-0.200,-0.886,0.010,-4.908,-9.756,6.985,0.0,0.0
57131,-0.237,-1.060,-0.018,7.321,-5.160,-7.779,0.0,0.0
57178,-0.304,-1.182,0.041,2.756,-10.015,-33.992,0.0,0.0
57223,-0.289,-1.331,-0.010,8.901,3.672,-47.969,0.0,175.0
57284,-0.350,-1.193,0.139,1.779,-5.099,-61.466,0.0,0.0
57330,-0.197,-0.621,0.108,7.275,6.511,-30.115,0.0,0.0
57377,-0.233,-0.802,0.128,-20.916,-17.244,-1.740,0.0,0.0
57424,-0.070,-1.100,-0.092,-6.099,1.534,7.473,0.0,0.0
57472,-0.132,-0.931,0.041,-12.015,29.901,5.252,0.0,0.0
57518,-0.227,-0.870,0.120,-19.000,21.168,-2.840,0.0,0.0
57585,-0.219,-0.761,0.140,-7.687,23.382,-1.740,0.0,0.0
57632,-0.219,-0.839,0.066,4.366,4.282,-14.695,0.0,0.0
57679,-0.290,-0.839,0.104,-1.832,-10.977,-23.908,0.0,0.0
57726,-0.259,-0.981,0.014,3.687,-11.458,-19.695,0.0,0.0
57773,-0.321,-1.151,0.035,3.611,-0.214,-22.832,0.0,0.0
57820,-0.348,-1.212,0.004,4.817,-0.908,-23.008,0.0,0.0
57867,-0.363,-1.165,0.050,-1.405,-5.588,-18.695,0.0,0.0
57914,-0.283,-1.121,-0.035,5.260,2.908,1.099,0.0,0.0
57961,-0.344,-0.831,0.096,5.481,-0.176,24.092,0.0,0.0
58011,-0.314,-1.181,-0.061,2.870,-34.885,41.840,0.0,0.0
58057,-0.204,-1.001,-0.082,3.863,-53.985,45.656,0.0,0.0
58104,-0.136,-0.887,-0.134,-10.336,-40.802,49.565,0.0,0.0
58151,-0.145,-0.928,-0.096,-9.519,-18.160,56.992,0.0,0.0
58199,-0.163,-0.839,-0.056,-4.779,-7.481,57.275,0.0,0.0
58246,-0.200,-0.793,-0.023,-9.221,-8.275,47.718,0.0,0.0
58293,-0.192,-0.840,-0.016,-10.931,-15.008,33.107,0.0,0.0
58340,-0.186,-0.946,-0.031,1.931,-5.878,14.992,0.0,0.0
58443,-0.316,-1.310,0.007,10.084,-6.977,-33.687,0.0,0.0
58494,-0.288,-1.277,0.026,12.718,-4.626,-68.939,0.0,0.0
58542,-0.290,-0.917,0.088,7.504,5.962,-66.290,0.0,0.0
58589,-0.276,-0.700,0.188,-1.649,-2.221,-32.527,0.0,0.0
58636,-0.177,-0.938,0.067,-6.099,-13.855,-3.542,0.0,0.0
58683,-0.081,-1.095,-0.071,4.794,29.649,-5.519,0.0,0.0
58730,-0.211,-0.886,0.047,6.473,66.603,-6.183,0.0,0.0
58776,-0.342,-0.766,0.166,-0.916,43.817,-9.634,0.0,0.0
58823,-0.376,-0.803,0.183,-3.321,-8.496,-20.466,0.0,0.0
58870,-0.241,-0.850,0.055,0.496,-36.870,-31.008,0.0,0.0
58939,-0.127,-0.792,-0.028,4.206,1.160,-28.206,0.0,0.0
58986,-0.281,-0.998,0.057,1.321,31.748,-12.885,0.0,0.0
59033,-0.392,-1.187,0.118,5.977,22.710,-15.450,0.0,0.0
59080,-0.359,-1.226,0.081,-2.626,1.099,-17.481,0.0,0.0
59127,-0.287,-1.288,-0.020,-0.733,9.664,-13.504,0.0,0.0
59174,-0.341,-0.978,0.102,10.397,17.282,-0.649,0.0,0.0
59222,-0.272,-0.930,0.030,13.290,9.687,25.389,0.0,0.0
59269,-0.378,-1.152,0.065,8.351,-27.664,22.282,0.0,0.0
59316,-0.147,-0.969,-0.117,7.954,-53.053,36.573,0.0,0.0
59366,-0.127,-0.844,-0.073,-5.420,-20.473,43.214,0.0,0.0
59414,-0.188,-0.907,-0.047,-2.863,-6.130,54.931,0.0,0.0
59461,-0.237,-0.866,0.029,-1.802,-18.092,46.863,0.0,0.0
59508,-0.197,-0.861,-0.044,-4.397,-31.901,32.817,0.0,0.0
59555,-0.139,-0.873,-0.070,-1.557,-22.565,25.794,0.0,0.0
59602,-0.164,-0.967,-0.044,5.214,-0.672,15.840,0.0,0.0
59650,-0.297,-1.239,0.023,1.603,-0.420,-4.214,0.0,0.0
59697,-0.265,-1.342,0.011,0.573,-12.557,-25.664,0.0,0.0
59745,-0.256,-1.229,0.097,-12.366,-18.832,-51.153,0.0,0.0
59812,-0.250,-0.833,0.157,-9.130,-31.115,-57.771,0.0,0.0
59860,-0.044,-0.879,0.011,-4.496,-14.198,-14.084,0.0,0.0
59908,-0.068,-1.063,0.006,-1.931,42.786,-3.267,0.0,0.0
59955,-0.281,-0.993,0.167,-1.947,54.221,-8.611,0.0,0.0
60002,-0.312,-0.853,0.237,-4.840,9.756,-12.748,0.0,0.0
60050,-0.182,-0.856,0.088,-1.557,-2.565,-18.947,0.0,0.0
60097,-0.217,-0.828,0.099,3.275,9.466,-28.626,0.0,0.0
60144,-0.172,-0.828,0.045,13.832,28.221,-30.389,0.0,0.0
60191,-0.292,-0.848,0.125,10.550,31.809,-34.779,0.0,0.0
60242,-0.282,-1.035,0.035,11.763,23.092,-29.450,0.0,0.0
60290,-0.360,-1.156,0.095,2.176,16.893,-27.023,0.0,0.0
60338,-0.263,-1.414,-0.093,6.511,28.412,-20.534,0.0,0.0
60385,-0.342,-0.987,0.101,6.206,39.176,-6.023,0.0,0.0
60432,-0.271,-0.815,0.074,-3.931,23.321,27.817,0.0,0.0
60479,-0.460,-1.068,0.239,-18.847,-28.435,35.687,0.0,0.0
60527,-0.195,-1.178,-0.047,-5.618,-78.359,42.756,0.0,0.0
60574,-0.094,-0.982,-0.068,-4.328,-52.168,42.351,0.0,0.0
60622,-0.083,-0.938,-0.083,-8.229,-20.634,50.840,0.0,0.0
60690,-0.189,-0.885,0.006,2.237,-3.038,48.221,0.0,0.0
60738,-0.177,-0.784,-0.007,-7.733,-23.954,38.702,0.0,0.0
60785,-0.145,-0.857,-0.040,-0.725,-16.366,25.450,0.0,0.0
60833,-0.169,-0.886,0.000,3.725,-6.641,10.496,0.0,0.0
60933,-0.294,-1.501,0.033,2.748,4.427,-21.405,0.0,129.0
60994,-0.296,-1.241,0.123,6.412,14.008,-49.405,0.0,0.0
61042,-0.176,-0.801,0.085,2.718,-3.878,-39.588,0.0,0.0
61089,-0.108,-0.837,0.085,5.191,8.038,-0.908,0.0,0.0
61137,-0.094,-1.064,0.001,-7.115,34.794,4.519,0.0,0.0
61205,-0.289,-1.015,0.161,-8.359,38.359,0.260,0.0,0.0
61258,-0.249,-0.784,0.132,1.763,-8.710,-17.954,0.0,0.0
61305,-0.199,-0.772,0.079,0.275,-8.870,-25.000,0.0,0.0
61351,-0.201,-0.823,0.020,13.435,17.603,-28.267,0.0,0.0
61398,-0.338,-0.849,0.105,8.817,25.122,-28.931,0.0,0.0
61445,-0.280,-0.967,0.050,3.878,19.038,-21.496,0.0,0.0
61491,-0.387,-1.060,0.117,6.893,27.282,-18.313,0.0,0.0
61537,-0.369,-1.170,0.075,-0.656,0.115,-21.450,0.0,0.0
61583,-0.297,-1.249,-0.018,6.107,17.794,-21.710,0.0,0.0
61633,-0.312,-1.088,0.049,6.336,19.870,-15.580,0.0,0.0
61679,-0.247,-0.810,0.010,12.183,36.321,18.351,0.0,0.0
61725,-0.488,-1.138,0.204,-10.275,-16.107,18.122,0.0,0.0
61772,-0.186,-1.142,-0.114,9.977,-59.382,24.504,0.0,0.0
61818,-0.096,-0.866,-0.048,-3.145,-36.305,32.534,0.0,0.0
61864,-0.109,-0.919,-0.085,-12.611,-12.160,47.084,0.0,0.0
61912,-0.215,-0.858,0.003,-4.534,-7.855,52.977,0.0,0.0
61958,-0.218,-0.761,0.010,-16.947,-32.618,46.550,0.0,0.0
62005,-0.151,-0.854,-0.074,-13.198,-29.511,38.450,0.0,0.0
62071,-0.192,-0.898,-0.021,-6.275,-25.305,17.092,0.0,0.0
62118,-0.263,-1.104,-0.009,5.977,-24.069,-11.405,0.0,0.0
62164,-0.336,-1.278,0.035,1.595,-35.489,-35.527,0.0,0.0
62212,-0.362,-1.291,0.058,5.122,-43.908,-50.168,0.0,0.0
62258,-0.380,-0.981,0.193,-1.489,-61.985,-48.634,0.0,0.0
62305,-0.383,-0.767,0.271,2.237,-96.504,-20.840,0.0,0.0
62351,-0.422,-1.041,0.230,8.496,-153.595,5.244,0.0,0.0
62398,-0.280,-1.104,0.104,18.481,-174.450,11.588,0.0,0.0
62444,-0.134,-0.947,0.125,14.489,-147.939,16.641,0.0,0.0
62494,-0.126,-0.944,0.174,23.015,-121.687,35.405,0.0,0.0
62540,-0.283,-0.873,0.381,43.603,-136.855,28.718,0.0,0.0
62578,-0.042,-0.813,0.299,42.015,-126.985,45.779,50.0,0.0
62630,-0.145,-0.875,0.467,47.145,-109.870,44.771,51.0,0.0
62668,-0.167,-0.884,0.547,68.183,-121.901,36.053,50.0,0.0
62729,-0.034,-0.835,0.506,65.893,-113.069,42.458,0.0,0.0
62768,-0.115,-0.944,0.624,73.840,-83.275,33.847,49.0,0.0
62819,-0.093,-0.875,0.666,78.168,-74.336,50.634,50.0,0.0
62857,-0.107,-0.949,0.645,74.405,-38.298,43.481,46.0,0.0
62912,-0.142,-0.807,0.759,71.420,-32.954,56.840,47.0,0.0
62950,-0.169,-0.688,0.800,77.573,-47.298,60.878,48.0,0.0
63001,-0.199,-0.716,0.814,70.847,-70.771,50.786,47.0,0.0
63040,-0.059,-0.610,0.719,69.481,-59.611,51.061,48.0,0.0
63091,-0.153,-0.725,0.765,71.771,-47.198,40.450,48.0,0.0
63130,-0.032,-0.449,0.746,82.206,-49.634,40.206,50.0,0.0
63191,0.010,-0.366,0.697,75.489,-26.985,36.969,0.0,0.0
63238,-0.082,-0.309,0.797,59.802,-21.015,33.214,0.0,0.0
63284,-0.037,-0.197,0.814,50.588,-32.504,35.542,0.0,0.0
63390,0.064,-0.090,0.867,24.496,-23.916,23.977,0.0,0.0
63437,-0.031,-0.143,1.038,16.527,-26.458,16.794,0.0,0.0
63484,0.095,-0.269,1.028,10.038,-45.870,12.046,0.0,0.0
63532,0.289,-0.171,0.929,0.580,-1.160,-3.359,0.0,0.0
63578,0.111,-0.306,1.009,1.008,17.588,3.176,0.0,0.0
63625,-0.016,-0.270,1.065,7.779,-14.221,11.885,0.0,0.0
63671,0.156,-0.279,0.882,10.885,-14.382,4.473,0.0,0.0
63718,0.141,-0.246,0.913,8.115,8.092,1.183,0.0,0.0
63765,0.056,-0.152,0.983,14.840,11.435,6.710,0.0,0.0
63814,0.135,-0.128,0.885,14.305,-12.565,13.939,0.0,0.0
63861,0.161,-0.085,0.867,12.527,0.038,13.458,0.0,0.0
63908,0.136,-0.091,0.900,15.527,2.473,15.588,0.0,0.0
63955,0.167,-0.087,0.892,14.779,-3.511,10.809,0.0,0.0
63993,0.205,-0.046,0.915,15.397,7.061,16.939,45.0,0.0
64054,0.114,-0.034,1.004,16.069,0.939,18.634,0.0,0.0
64091,0.242,-0.090,1.008,18.023,-3.802,7.160,21.0,0.0
64141,0.181,-0.076,1.053,22.962,22.206,6.931,20.0,0.0
64188,0.015,-0.029,1.195,8.725,14.191,3.008,0.0,0.0
64234,0.005,-0.060,1.137,2.359,2.824,9.053,0.0,0.0
64274,-0.127,-0.035,1.112,2.870,-7.794,22.031,19.0,0.0
64324,-0.090,-0.034,1.029,0.214,-26.901,16.084,18.0,0.0
64361,0.003,-0.043,0.944,-2.878,-15.168,15.076,18.0,0.0
64411,0.005,-0.031,0.933,-4.710,-0.145,13.786,19.0,0.0
64448,-0.038,-0.056,0.997,-4.763,-14.756,13.305,18.0,0.0
64498,0.079,-0.042,0.886,-1.038,-12.473,16.710,21.0,0.0
64545,0.030,-0.003,0.946,-1.656,-5.420,18.084,0.0,0.0
64592,0.127,-0.011,0.895,-1.954,-11.809,15.779,0.0,0.0
64628,0.150,0.020,0.895,-0.939,-3.565,11.382,17.0,0.0
64692,0.138,0.034,0.978,-2.198,-11.641,7.435,17.0,0.0
64741,0.164,0.045,1.025,-0.603,-16.206,4.191,0.0,0.0
64807,0.177,-0.023,1.029,2.244,-12.115,0.916,0.0,0.0
64846,0.126,0.006,1.104,-4.382,7.771,3.405,17.0,0.0
64899,0.138,-0.150,1.065,-8.260,4.580,9.763,17.0,0.0
64937,0.057,-0.191,1.057,-1.275,-15.229,12.382,17.0,0.0
64991,0.198,-0.238,0.908,0.649,-8.855,1.679,17.0,0.0
65030,0.122,-0.193,0.971,7.786,24.305,-1.969,16.0,0.0
65082,0.039,-0.101,1.020,8.771,13.809,-0.718,16.0,0.0
65135,0.119,-0.044,0.917,7.008,-10.893,15.565,0.0,0.0
65202,0.147,-0.003,0.878,3.473,-11.756,18.420,0.0,0.0
65241,0.201,-0.030,0.868,6.282,-1.893,16.038,16.0,0.0
65294,0.200,-0.057,0.901,7.198,2.763,13.099,16.0,0.0
65343,0.154,-0.005,0.973,8.183,-1.573,18.168,0.0,0.0
65410,0.186,-0.041,1.033,4.725,-4.458,17.855,0.0,0.0
65448,0.159,-0.039,1.128,5.687,0.443,20.687,17.0,0.0
65512,0.164,-0.064,1.102,-3.237,5.504,12.847,0.0,0.0
65562,0.024,-0.026,1.105,-4.672,16.374,19.893,0.0,0.0
65632,-0.026,-0.057,1.029,-4.305,-21.863,16.573,0.0,0.0
65682,0.009,-0.056,0.967,-10.267,10.771,9.771,0.0,0.0
65748,-0.068,-0.111,1.050,-6.702,3.275,10.519,0.0,0.0
65787,0.062,-0.067,0.951,-1.626,-4.145,14.405,16.0,0.0
