Timestamp(ms),AccelX(g),AccelY(g),AccelZ(g),GyroX(deg/s),GyroY(deg/s),GyroZ(deg/s),DistanceLeft(cm),DistanceRight(cm)
42612,-0.633,-0.073,0.757,-0.282,-0.748,0.206,0.0,28.0
42665,-0.637,-0.070,0.760,0.298,0.275,-0.321,0.0,28.0
42716,-0.615,-0.074,0.756,-0.412,-2.824,-0.817,0.0,27.0
42770,-0.607,-0.083,0.762,-0.939,1.298,0.351,0.0,27.0
42820,-0.601,-0.065,0.752,0.679,8.496,-0.374,0.0,27.0
42873,-0.667,-0.058,0.763,0.687,5.710,0.687,0.0,27.0
42924,-0.630,-0.072,0.737,-0.618,-3.214,0.321,0.0,27.0
42978,-0.616,-0.068,0.746,0.237,-0.076,-1.107,0.0,27.0
43031,-0.609,-0.068,0.745,0.969,3.977,-0.664,0.0,27.0
43084,-0.632,-0.068,0.739,0.420,5.305,-0.565,0.0,29.0
43134,-0.628,-0.070,0.738,1.183,5.466,-1.053,0.0,28.0
43189,-0.664,-0.069,0.747,-0.550,-0.847,0.687,0.0,28.0
43239,-0.626,-0.068,0.734,-0.901,-4.756,1.748,0.0,27.0
43293,-0.609,-0.074,0.736,-0.733,-1.053,0.878,0.0,28.0
43343,-0.642,-0.044,0.737,-1.427,2.573,1.427,0.0,27.0
43406,-0.635,-0.073,0.739,-1.832,0.656,-1.282,0.0,183.0
43462,-0.639,-0.070,0.738,-2.359,2.947,-1.008,0.0,127.0
43521,-0.594,-0.063,0.742,-5.382,17.382,-2.328,0.0,127.0
43577,-0.559,-0.079,0.709,0.832,53.336,1.046,0.0,127.0
43633,-0.800,-0.036,0.810,6.137,67.412,4.153,0.0,124.0
43683,-0.932,-0.117,0.689,1.649,15.466,0.176,0.0,21.0
43737,-1.000,-0.106,0.754,3.855,-59.527,-5.534,0.0,20.0
43787,-0.815,-0.049,0.746,13.511,-108.145,-6.939,0.0,18.0
43840,-0.602,-0.203,0.610,25.198,-130.557,-5.542,0.0,21.0
43890,0.002,-0.140,0.406,30.931,-18.634,-28.076,0.0,23.0
43945,-0.177,0.208,0.293,29.763,245.130,-13.260,0.0,39.0
43998,-1.269,-0.014,0.794,12.038,201.649,36.153,0.0,12.0
44051,-1.576,0.042,1.036,-0.824,-65.267,2.702,0.0,18.0
44101,-0.923,0.021,0.639,-18.031,-250.137,-1.031,0.0,24.0
44156,-0.102,-0.139,0.297,-1.107,-163.618,-5.427,0.0,31.0
44207,-0.248,0.069,0.548,-12.786,39.420,12.145,0.0,30.0
44261,-0.681,0.039,0.906,-11.870,40.962,28.061,0.0,24.0
44311,-0.825,-0.008,0.993,-15.298,-56.351,6.366,0.0,34.0
44365,-0.843,-0.072,1.009,-27.260,-229.458,-6.244,0.0,23.0
44417,0.237,-0.105,0.559,-13.206,-152.756,-16.038,0.0,38.0
44470,0.159,-0.017,0.555,16.656,170.450,5.053,0.0,22.0
44525,-0.680,0.026,0.821,20.359,229.290,31.832,0.0,38.0
44576,-1.123,-0.001,0.965,11.237,115.069,33.122,0.0,39.0
44627,-1.292,0.113,1.146,-22.809,-97.221,34.328,0.0,40.0
44679,-0.720,-0.016,0.835,-29.618,-219.802,41.107,0.0,40.0
44734,-0.080,-0.149,1.011,-23.542,-250.137,24.809,0.0,41.0
44779,0.856,-0.166,0.154,61.321,88.084,-42.290,91.0,42.0
44824,-0.447,0.237,0.521,54.901,250.130,-1.336,91.0,40.0
44872,-1.319,0.346,0.858,31.687,240.069,89.855,92.0,46.0
44917,-1.216,0.138,1.120,-23.191,-1.069,97.313,92.0,45.0
44963,-0.661,0.061,0.771,-13.863,-129.840,93.412,90.0,47.0
45008,-0.525,0.236,1.009,-19.038,-244.939,47.435,86.0,47.0
45053,0.394,0.032,0.352,1.634,-192.328,-18.321,83.0,47.0
45095,0.366,0.150,0.506,14.053,68.443,-48.840,37.0,48.0
45137,-0.704,0.292,1.120,17.313,94.328,-1.847,36.0,47.0
45225,-0.050,0.200,0.788,-3.275,-230.275,27.260,82.0,51.0
45271,0.805,0.297,0.408,1.740,-15.534,12.000,81.0,52.0
45319,0.350,0.288,0.514,2.282,203.412,-5.099,81.0,50.0
45364,-0.760,0.163,0.986,5.771,237.008,0.137,83.0,49.0
45409,-1.199,0.298,1.325,-0.298,-11.710,0.260,83.0,49.0
45454,-0.801,0.315,0.822,-33.885,-199.863,0.336,82.0,49.0
45499,0.116,0.282,0.394,-36.313,-178.481,10.229,82.0,51.0
45544,0.289,0.396,0.718,-40.168,33.679,35.725,76.0,52.0
45589,0.089,0.222,1.014,-27.824,87.756,36.092,76.0,52.0
45634,-0.096,-0.013,1.079,-0.534,129.130,6.023,78.0,52.0
45679,-0.416,0.032,1.125,4.374,75.435,-8.710,78.0,52.0
45727,-0.396,0.120,1.270,-15.756,-23.542,-19.931,79.0,52.0
45772,-0.140,0.144,1.115,-1.137,-60.840,-24.137,79.0,51.0
45817,-0.133,0.037,1.010,4.595,-19.206,-51.137,81.0,50.0
45863,-0.276,0.076,0.721,25.893,79.855,-64.496,83.0,50.0
45908,-1.017,0.262,0.926,30.977,68.710,-34.695,84.0,48.0
45954,-0.698,0.291,1.087,3.443,-52.786,20.359,84.0,49.0
45999,-0.008,0.139,0.939,-1.718,-134.725,11.931,83.0,51.0
46041,0.420,-0.008,0.374,40.954,33.107,-2.244,26.0,50.0
46086,-0.300,0.306,0.754,32.168,120.153,47.084,83.0,51.0
46135,-0.656,0.337,1.084,-8.389,-8.389,58.977,82.0,51.0
46180,-0.072,0.236,0.724,-22.298,-55.061,9.611,81.0,49.0
46225,0.021,0.253,0.541,1.305,97.092,0.947,82.0,49.0
46270,-0.921,0.315,1.257,-8.794,57.908,-7.046,83.0,49.0
46315,-0.779,0.216,1.179,-24.198,-156.344,-29.374,82.0,50.0
46358,0.207,0.171,0.643,-17.977,-187.397,-28.817,29.0,50.0
46400,0.486,0.051,0.564,-10.519,42.076,-37.031,29.0,49.0
46445,-0.566,0.063,1.279,-8.756,67.435,-33.771,83.0,48.0
46490,-0.516,0.088,1.192,-17.267,-114.061,-58.916,83.0,48.0
46539,0.389,0.152,0.583,-15.023,-31.573,-55.115,83.0,47.0
46584,-0.221,0.107,0.989,-4.359,81.229,-16.053,84.0,46.0
46629,-0.515,0.168,1.342,-4.954,-25.947,-8.931,85.0,46.0
46671,0.366,0.115,0.609,8.931,-17.252,-8.702,30.0,45.0
46717,0.310,-0.042,0.440,22.076,205.840,23.855,87.0,44.0
46763,-0.982,0.002,0.750,27.145,250.130,10.389,90.0,43.0
46808,-1.547,0.396,1.456,9.679,52.397,25.351,92.0,43.0
46854,-0.948,0.146,1.123,-28.725,-188.244,19.656,90.0,42.0
46899,-0.100,0.068,0.612,3.412,-157.298,-9.573,89.0,43.0
46948,0.158,0.193,0.597,30.336,64.290,-0.031,88.0,43.0
46993,-0.494,0.249,0.822,40.237,156.405,23.603,89.0,43.0
47038,-1.045,0.363,1.011,24.382,54.832,47.962,90.0,44.0
47084,-0.911,0.254,1.057,-19.122,-201.389,33.298,88.0,44.0
47126,0.205,0.218,0.368,-15.069,-250.137,-5.099,33.0,45.0
47169,0.824,0.214,0.220,-4.840,7.939,-17.046,35.0,46.0
47211,0.162,0.247,0.306,-3.679,250.130,-22.031,36.0,44.0
47257,-1.189,0.258,1.002,2.412,243.244,13.847,89.0,43.0
47305,-1.442,0.353,1.281,-33.809,-76.076,34.290,89.0,44.0
47351,-0.624,0.145,0.882,-53.687,-247.626,45.687,86.0,46.0
47396,0.487,0.172,0.608,-18.588,-198.443,28.603,83.0,47.0
47441,0.728,0.133,0.655,16.939,63.458,-15.031,83.0,46.0
47531,-1.137,0.215,1.177,32.000,179.901,2.359,88.0,44.0
47576,-1.269,0.281,1.237,-8.840,-68.229,7.115,88.0,45.0
47622,-0.451,0.023,0.754,-5.183,-205.542,15.336,86.0,45.0
47667,0.587,0.093,0.316,31.550,-56.153,24.985,84.0,47.0
47713,0.103,0.408,0.513,32.145,178.786,21.733,86.0,46.0
47762,-0.820,0.436,1.082,-5.870,155.290,13.229,88.0,46.0
47807,-0.887,0.191,1.277,-20.931,-75.901,-11.977,88.0,46.0
47853,-0.008,0.140,0.515,17.748,-120.084,-40.015,88.0,46.0
47899,0.038,0.368,0.407,9.519,95.840,-23.855,90.0,45.0
47944,-1.083,0.462,1.254,-44.557,45.931,12.626,91.0,45.0
47987,-1.001,0.088,1.181,-51.321,-226.687,11.160,38.0,45.0
48030,0.181,0.024,0.562,5.588,-250.137,-14.542,35.0,47.0
48075,0.818,0.276,0.474,8.634,3.092,-17.176,87.0,46.0
48118,0.289,0.154,0.553,5.527,211.855,-23.985,35.0,45.0
48164,-0.561,0.253,0.681,17.878,250.130,-20.756,36.0,44.0
48217,-1.266,0.159,1.192,-7.656,96.763,-13.504,0.0,43.0
48272,-0.672,0.105,0.682,-25.893,-128.031,-13.366,0.0,43.0
48318,-0.003,0.147,0.468,-24.183,-79.374,-3.634,91.0,44.0
48364,-0.123,0.209,0.672,-33.412,28.267,4.321,92.0,43.0
48416,-0.492,0.125,1.048,-45.931,44.397,-24.847,0.0,42.0
48472,-0.614,0.153,1.156,-32.092,12.489,-34.427,0.0,43.0
48524,-0.592,-0.066,1.006,-28.802,-29.191,-38.374,0.0,42.0
48579,-0.545,0.074,1.013,-25.298,-42.924,-15.290,0.0,42.0
48635,-0.188,-0.034,0.728,-18.656,-35.443,-16.527,0.0,42.0
48691,-0.237,-0.016,0.898,-33.412,17.038,-13.634,0.0,43.0
48748,-0.211,-0.097,0.983,13.160,63.183,4.061,0.0,40.0
48803,-0.894,-0.180,1.366,-5.611,85.733,2.458,0.0,40.0
48854,-0.569,-0.131,0.755,7.893,20.511,4.008,0.0,40.0
48909,-0.303,-0.003,0.703,10.786,29.595,-7.710,0.0,40.0
48959,-0.685,0.046,1.150,-4.275,85.489,4.519,0.0,40.0
49010,-1.168,0.055,1.607,1.450,29.779,2.916,0.0,40.0
49061,-1.208,-0.212,1.312,41.855,-113.672,-39.023,0.0,39.0
49116,-0.622,0.175,0.742,132.969,-95.511,-36.168,0.0,42.0
49170,-0.625,0.012,0.639,46.824,-117.206,40.565,0.0,38.0
49215,-0.217,-0.114,0.479,41.130,-158.969,80.626,91.0,41.0
49257,0.482,-0.092,0.274,61.168,-114.282,99.412,48.0,42.0
49299,0.440,0.237,0.433,40.115,49.649,73.511,43.0,43.0
49341,0.117,0.270,0.636,2.840,126.611,12.053,45.0,42.0
49384,-0.191,0.304,0.822,-11.382,147.992,-18.885,45.0,42.0
49428,-0.680,0.152,1.077,-17.771,49.496,-25.618,92.0,42.0
49473,-0.781,0.215,1.056,-28.878,-118.389,-33.817,92.0,40.0
49521,-0.279,0.182,0.739,-50.656,-220.031,-47.855,93.0,40.0
49572,0.289,0.183,0.605,-45.725,-102.046,-38.351,0.0,40.0
49627,0.184,0.125,0.960,-50.847,31.939,-16.053,0.0,40.0
49678,-0.035,-0.042,0.958,-25.092,125.191,-24.267,0.0,39.0
49733,-0.393,0.005,1.232,-8.985,114.221,-10.863,0.0,38.0
49783,-0.698,-0.068,1.376,5.542,20.252,0.893,0.0,38.0
49839,-0.312,-0.112,1.009,32.756,-53.756,4.824,0.0,38.0
49889,0.189,-0.038,0.510,56.130,42.267,13.756,0.0,37.0
49943,-0.218,0.310,0.644,21.130,165.962,41.542,0.0,38.0
50037,-0.824,0.154,1.203,-40.718,-93.718,-54.885,0.0,37.0
50092,-0.425,0.131,1.266,-25.008,-165.130,-53.290,0.0,38.0
50143,0.306,-0.277,0.773,33.183,22.351,-32.023,0.0,40.0
50197,-0.198,0.083,0.554,76.191,250.130,10.275,0.0,26.0
50248,-0.876,0.399,0.593,54.748,250.130,61.916,0.0,38.0
50299,-1.366,0.155,0.872,-15.809,22.031,30.481,0.0,38.0
50345,-0.876,0.137,0.453,-46.450,-236.504,-6.847,119.0,38.0
50397,-0.263,0.169,0.258,-55.053,-250.137,-14.420,0.0,39.0
50451,0.196,0.134,0.503,-66.489,-122.985,-0.588,0.0,40.0
50506,0.066,0.076,0.790,-62.305,19.962,7.855,0.0,40.0
50557,-0.428,-0.092,1.476,-74.153,6.359,-23.130,0.0,42.0
50613,-0.281,-0.356,1.642,-11.687,-55.840,-15.855,0.0,39.0
50664,-0.198,-0.281,1.357,2.802,-20.153,-6.122,0.0,38.0
50718,-0.116,-0.291,1.153,47.588,26.313,-13.641,0.0,38.0
50769,-0.086,0.004,0.725,71.718,94.183,-2.237,0.0,38.0
50825,-0.449,0.101,0.729,56.992,145.916,33.290,0.0,38.0
50870,-0.709,0.086,0.830,30.794,38.069,50.321,99.0,38.0
50918,-0.657,0.158,0.796,-4.786,-87.901,33.336,98.0,37.0
50963,-0.331,0.058,0.813,-20.763,-194.740,19.573,96.0,38.0
51014,0.372,0.010,0.442,-2.878,-140.267,0.977,0.0,40.0
51068,0.521,0.236,0.516,-13.740,66.534,-19.817,0.0,37.0
51116,-0.189,0.075,0.895,-18.122,163.855,-47.550,117.0,38.0
51162,-0.666,0.028,1.101,-16.023,103.168,-43.885,120.0,39.0
51213,-0.802,0.044,1.105,-28.679,-42.260,-37.427,0.0,37.0
51268,-0.332,0.010,0.864,-42.229,-100.298,-37.435,0.0,37.0
51319,0.010,-0.081,0.751,-39.137,-5.344,-34.916,0.0,36.0
51363,-0.187,-0.306,0.876,-21.969,70.794,-28.504,17.0,34.0
51414,-0.461,-0.025,1.222,-2.542,120.725,-3.504,0.0,22.0
51468,-0.869,-0.168,1.372,8.321,60.031,-3.893,0.0,22.0
51518,-0.609,-0.194,1.148,20.947,-29.252,-8.053,0.0,25.0
51571,-0.238,-0.200,0.743,53.573,-19.206,-5.450,0.0,19.0
51622,-0.373,0.008,0.646,51.176,91.802,26.489,0.0,18.0
51677,-0.694,0.109,0.731,29.221,79.450,38.366,0.0,31.0
51727,-0.862,0.132,0.897,5.496,-53.786,36.481,0.0,28.0
51781,-0.474,0.166,0.685,-15.130,-157.412,22.275,0.0,22.0
51835,0.085,0.063,0.607,-18.427,-99.328,1.519,0.0,40.0
51890,0.135,0.180,0.737,-16.626,72.786,-4.252,0.0,22.0
51941,-0.562,-0.033,1.038,-11.687,88.290,-15.443,0.0,38.0
51996,-0.682,-0.002,1.089,-14.130,-27.008,-8.229,0.0,38.0
52047,-0.351,-0.020,0.843,-25.756,-82.313,-3.282,0.0,36.0
52103,-0.047,-0.060,0.931,-29.092,-59.534,7.145,0.0,38.0
52154,-0.051,-0.142,1.144,-9.588,32.977,-5.183,0.0,35.0
52208,-0.202,-0.148,0.988,24.458,130.168,-25.397,0.0,28.0
52259,-0.895,0.008,1.088,47.321,110.260,9.519,0.0,34.0
52313,-1.054,0.165,1.040,28.122,-16.084,32.351,0.0,23.0
52368,-0.737,0.015,0.857,18.053,-204.992,51.618,0.0,40.0
52419,0.362,-0.092,0.461,28.305,-144.198,34.153,0.0,38.0
52474,0.350,0.283,0.472,35.450,155.969,11.580,0.0,39.0
52520,-0.634,0.177,0.768,11.153,223.893,22.420,114.0,30.0
52567,-1.095,0.187,0.993,3.740,57.382,24.168,95.0,40.0
52661,-0.248,0.213,0.786,-40.618,-199.954,21.489,0.0,40.0
52716,0.371,-0.035,0.620,-25.992,-79.206,18.290,0.0,42.0
52765,0.144,0.079,0.939,-16.779,97.634,-22.641,93.0,42.0
52810,-0.490,0.061,1.189,-7.565,135.725,-34.206,94.0,42.0
52856,-0.790,0.026,1.227,18.321,50.519,-14.931,95.0,42.0
52908,-0.881,0.119,1.081,29.389,-24.206,1.511,0.0,42.0
52960,-0.593,0.059,0.849,31.214,-106.763,41.595,0.0,41.0
53015,0.115,0.247,0.626,22.565,-60.542,24.931,0.0,41.0
53060,0.027,0.273,0.697,8.931,96.260,-9.733,89.0,41.0
53105,-0.408,0.132,0.835,4.298,102.130,-15.244,91.0,41.0
53150,-0.740,0.184,0.969,-0.298,46.168,-9.809,91.0,41.0
53199,-0.608,0.200,0.871,-8.130,-94.107,12.511,90.0,41.0
53244,-0.172,0.266,0.787,-22.328,-127.122,5.305,89.0,42.0
53289,0.171,0.158,0.795,-30.534,-73.282,-21.893,89.0,42.0
53336,0.229,0.039,0.765,-18.092,58.183,-52.733,90.0,41.0
53381,-0.371,0.024,0.949,-6.679,155.076,-31.817,92.0,41.0
53427,-0.956,0.062,1.155,16.221,72.008,6.443,93.0,44.0
53472,-0.909,0.195,1.024,10.099,-41.809,24.718,92.0,39.0
53517,-0.516,0.228,0.895,-4.985,-116.786,17.901,92.0,40.0
53563,-0.055,0.168,0.884,-19.710,-121.771,-15.702,91.0,40.0
53611,0.208,-0.068,0.759,0.466,4.679,-39.519,91.0,41.0
53657,-0.186,0.010,0.920,15.137,99.733,-20.527,91.0,40.0
53702,-0.608,0.159,0.910,31.092,128.244,8.527,92.0,40.0
53748,-0.702,0.292,0.774,26.229,70.260,15.634,92.0,42.0
53793,-0.824,0.344,0.946,-8.168,-25.435,13.641,92.0,42.0
53839,-0.453,0.219,0.955,-25.672,-167.664,1.824,90.0,48.0
53884,0.242,0.032,0.645,-14.023,-137.504,-17.481,88.0,42.0
53929,0.381,0.135,0.562,-1.107,69.412,-21.511,88.0,35.0
53976,-0.470,0.166,0.875,-5.885,154.046,0.710,90.0,41.0
54024,-1.254,0.112,1.346,-16.611,-11.710,9.137,90.0,42.0
54070,-0.819,0.111,1.170,-23.275,-233.351,-4.015,89.0,44.0
54115,0.687,-0.070,0.453,-6.336,-191.435,2.863,88.0,43.0
54161,0.594,0.115,0.455,21.374,169.611,-10.809,89.0,43.0
54206,-0.689,0.193,0.966,10.229,250.130,29.878,89.0,44.0
54252,-1.265,0.110,1.468,1.656,-29.427,29.931,89.0,44.0
54297,-0.281,0.062,0.908,-3.824,-184.107,7.733,87.0,43.0
54343,0.231,0.174,0.615,11.046,-17.840,3.275,86.0,44.0
54388,-0.468,0.244,1.243,9.565,13.664,38.687,86.0,45.0
54437,-0.216,0.072,1.216,12.534,-150.206,35.290,85.0,45.0
54480,0.783,-0.038,0.393,34.649,-12.008,-12.405,50.0,45.0
54524,0.030,0.222,0.650,25.305,250.130,-33.679,52.0,44.0
54569,-1.152,0.156,1.186,16.084,231.198,9.527,88.0,45.0
54616,-1.267,0.290,1.355,20.504,-118.000,46.221,90.0,47.0
54660,-0.202,0.220,0.888,11.969,-250.137,44.382,50.0,48.0
54704,0.946,0.192,0.188,30.206,-19.076,16.099,58.0,50.0
54748,-0.015,0.479,0.751,27.573,154.359,15.840,46.0,50.0
54791,-0.722,0.408,1.113,-4.916,19.267,40.611,47.0,50.0
54838,-0.303,0.209,1.057,-0.985,-224.458,13.634,45.0,55.0
54882,0.925,0.153,0.504,8.534,-49.870,-54.420,44.0,61.0
54927,0.059,0.381,0.742,-0.611,189.878,-37.756,46.0,64.0
55016,-0.469,0.216,1.257,16.916,-147.008,29.015,46.0,93.0
55063,0.800,0.280,0.394,45.916,10.298,4.489,79.0,84.0
55114,-0.695,0.733,1.366,-12.313,84.099,43.450,44.0,84.0
55159,-0.574,0.198,1.285,-19.710,-240.634,36.702,44.0,84.0
55205,1.374,0.303,0.123,29.275,-87.237,-43.771,81.0,86.0
55249,0.355,0.711,0.435,12.336,250.130,-26.038,41.0,84.0
55296,-0.921,0.451,1.004,-32.985,222.969,-1.023,43.0,63.0
55339,-1.441,0.228,1.468,-18.260,-118.824,-24.237,42.0,63.0
55383,-0.173,0.400,0.741,-11.412,-250.137,-20.374,46.0,66.0
55428,1.012,0.402,0.404,-4.145,-53.321,-4.053,44.0,85.0
55474,0.074,0.501,0.810,10.718,139.985,21.076,78.0,85.0
55519,-0.381,0.449,1.285,2.084,75.427,40.389,78.0,58.0
55564,0.004,0.083,0.712,27.351,34.695,26.649,78.0,55.0
55608,-0.382,0.538,1.032,2.504,66.351,7.366,78.0,56.0
55656,-0.680,0.253,1.034,-31.908,-101.130,2.130,77.0,58.0
55701,-0.032,0.338,0.756,-17.534,-232.504,4.168,51.0,87.0
55747,0.911,0.410,0.300,3.511,-61.198,-14.122,74.0,88.0
55793,0.383,0.437,0.617,-10.427,154.031,-12.076,75.0,71.0
55838,-0.385,0.329,1.109,-26.626,147.198,-18.145,75.0,64.0
55883,-0.601,0.261,1.186,-21.061,-22.527,-37.160,76.0,66.0
55929,0.091,0.350,0.833,-11.267,-81.290,-30.618,76.0,65.0
55973,0.212,0.216,0.738,-18.206,50.015,-26.885,77.0,56.0
56018,-0.420,0.207,1.058,-8.221,76.008,-9.695,78.0,53.0
56067,-0.513,0.217,0.929,-8.985,-37.878,4.214,78.0,53.0
56111,-0.270,0.245,0.695,-31.939,-71.595,22.947,77.0,55.0
56154,-0.028,0.329,0.745,-40.664,-66.542,46.977,39.0,53.0
56196,0.117,0.190,0.990,-34.450,-23.191,46.427,37.0,53.0
56239,0.210,0.261,1.171,-15.206,20.145,20.885,37.0,53.0
56281,0.196,0.251,1.394,-11.389,68.336,-21.718,38.0,52.0
56324,-0.034,0.065,1.253,15.000,114.450,-28.557,40.0,52.0
56367,-0.559,0.062,1.299,40.771,45.321,12.557,44.0,52.0
56409,-0.539,0.174,0.981,30.282,-47.000,23.237,41.0,52.0
56455,-0.253,0.225,0.849,9.656,-105.985,21.771,38.0,54.0
56498,0.384,0.353,0.747,6.511,-105.695,-5.947,38.0,58.0
56541,0.456,0.075,0.559,15.977,43.267,-50.275,38.0,56.0
56585,-0.087,0.369,0.862,6.641,114.603,-37.527,75.0,55.0
56630,-0.691,0.190,1.064,-1.336,24.672,-3.351,76.0,56.0
56675,-0.248,0.362,1.192,-9.344,-137.305,17.321,75.0,57.0
56718,0.550,0.174,0.519,-2.237,-84.893,-12.298,37.0,60.0
56761,0.334,0.263,0.700,6.634,119.229,-21.145,36.0,57.0
56805,-0.590,0.360,1.003,11.641,156.305,21.603,76.0,55.0
56853,-0.978,0.221,1.239,7.420,-75.924,84.405,75.0,55.0
56899,-0.145,0.298,1.197,-20.756,-250.137,55.931,73.0,69.0
56945,1.036,0.034,0.613,-18.725,-109.641,-33.542,73.0,92.0
56991,0.585,0.426,0.738,-11.458,126.534,-51.504,73.0,73.0
57036,-0.284,0.177,1.036,-9.504,153.931,-13.603,73.0,59.0
57079,-0.362,0.208,0.902,18.901,32.649,31.824,37.0,57.0
57124,-0.445,0.322,1.184,-11.313,-87.611,57.771,73.0,58.0
57167,0.368,0.396,0.763,-19.489,-165.176,22.115,35.0,67.0
57211,0.828,0.212,0.553,-16.817,19.931,-27.313,36.0,68.0
57300,-0.496,0.054,1.311,-12.779,75.344,-17.321,40.0,56.0
57354,-0.367,0.125,1.072,4.695,-94.031,11.924,78.0,56.0
57398,0.278,0.300,0.825,-3.519,-99.389,18.267,74.0,57.0
57443,0.462,0.260,0.700,2.466,38.771,6.450,75.0,57.0
57487,-0.108,0.371,1.117,-6.595,94.061,3.756,74.0,56.0
57532,-0.686,0.098,1.418,-6.290,-81.740,2.489,74.0,56.0
57578,0.091,0.311,0.956,-12.641,-189.405,-12.786,75.0,93.0
57625,0.830,0.120,0.514,-2.771,-37.359,-4.214,75.0,87.0
57672,0.410,0.281,0.850,6.954,161.359,2.740,76.0,60.0
57717,-0.309,0.149,1.164,11.527,148.954,16.084,73.0,57.0
57761,-0.591,0.190,1.325,19.122,-40.748,16.397,73.0,59.0
57807,-0.073,0.336,0.867,-8.641,-133.573,2.885,72.0,74.0
57851,0.441,0.289,0.800,-10.573,-91.084,26.725,38.0,88.0
57895,0.680,0.041,0.518,23.511,44.221,35.267,34.0,88.0
57938,0.321,0.235,0.670,14.206,188.237,9.809,38.0,63.0
57981,-0.305,0.256,0.997,5.695,163.824,18.473,38.0,62.0
58025,-0.671,0.159,1.411,-16.351,-47.351,8.458,71.0,59.0
58074,0.079,0.150,0.746,-18.885,-165.481,-24.626,71.0,63.0
58116,0.638,0.287,0.641,-21.664,-41.679,-18.031,29.0,61.0
58161,0.384,0.198,0.768,-27.282,84.412,-10.550,71.0,59.0
58206,0.061,0.069,0.984,-15.687,125.115,-9.885,74.0,57.0
58251,-0.154,0.053,1.069,-3.015,89.847,-22.824,75.0,55.0
58295,-0.311,0.087,0.970,-14.779,61.725,-21.015,77.0,54.0
58340,-0.524,0.127,1.003,-20.130,-31.802,1.031,74.0,53.0
58384,0.025,0.167,1.182,1.206,-27.031,21.336,73.0,53.0
58429,0.149,0.331,1.174,3.221,80.214,-18.489,74.0,53.0
58476,-0.271,0.069,0.997,14.221,117.870,-29.229,79.0,52.0
58521,-0.554,0.022,0.962,22.595,55.496,-40.046,81.0,51.0
58566,-0.271,0.193,0.686,15.122,9.443,-46.313,81.0,50.0
58610,-0.428,0.235,0.793,-12.573,-13.046,-14.000,83.0,49.0
58655,-0.281,0.046,0.617,-23.382,-46.198,-12.725,83.0,49.0
58700,-0.093,0.116,0.691,-25.160,22.626,-8.733,83.0,50.0
58745,-0.121,-0.011,1.098,-3.824,154.023,1.580,83.0,47.0
58790,-0.957,0.146,1.446,0.198,155.588,-10.603,85.0,52.0
58835,-0.997,0.054,1.148,14.015,-10.557,-7.122,86.0,46.0
58884,-0.783,0.081,0.814,15.939,-141.031,-14.687,85.0,47.0
58929,-0.341,0.155,0.571,-2.687,-154.618,-35.282,84.0,46.0
58973,0.084,0.112,0.537,-5.527,-74.130,-6.580,84.0,45.0
59018,0.118,0.097,0.605,-10.107,19.588,-1.992,84.0,46.0
59063,0.063,0.045,0.645,-24.595,138.382,-28.382,87.0,47.0
59114,-0.527,-0.074,0.975,-26.588,155.679,-58.069,0.0,45.0
59160,-0.844,-0.106,1.038,-16.000,16.015,-51.618,92.0,46.0
59210,-0.767,-0.073,1.071,-20.725,-53.595,-48.344,0.0,31.0
59266,-0.552,-0.137,1.051,-11.198,-71.718,-50.435,0.0,31.0
59319,-0.684,-0.277,1.290,18.901,-17.031,-15.794,0.0,35.0
59374,-0.330,-0.007,0.885,58.939,35.863,22.855,0.0,38.0
59419,-0.498,-0.008,0.723,43.985,50.481,60.893,91.0,47.0
59464,-0.591,0.009,0.764,16.489,-16.954,29.954,89.0,43.0
59509,-0.348,0.089,0.693,1.969,-86.939,-15.061,88.0,45.0
59554,-0.080,0.061,0.597,-6.244,-30.412,-20.748,88.0,37.0
59642,-0.526,0.129,0.945,-14.947,19.420,28.702,88.0,45.0
59687,-0.724,-0.008,1.079,-28.092,-67.092,-17.893,88.0,45.0
59736,-0.447,0.097,1.249,-31.313,-152.687,-35.771,87.0,45.0
59781,0.215,-0.081,0.909,-1.252,-117.725,-25.656,89.0,46.0
59824,0.069,-0.105,0.894,31.443,58.748,27.748,36.0,46.0
59872,-0.344,0.010,1.012,19.969,78.389,27.664,136.0,47.0
59917,-0.233,-0.011,1.110,7.351,-15.931,17.672,88.0,48.0
59965,-0.079,0.056,0.894,5.137,9.794,-22.237,136.0,48.0
60010,-0.375,0.020,0.869,17.718,4.168,1.008,88.0,47.0
60055,-0.481,0.160,0.989,0.748,-19.695,11.313,87.0,48.0
60100,-0.323,0.070,1.028,-3.687,-120.725,3.916,86.0,46.0
60148,0.261,-0.020,0.620,-6.611,-28.656,-26.298,87.0,45.0
60193,-0.455,0.006,1.243,-8.962,94.038,-32.489,87.0,47.0
60236,-0.364,0.130,1.222,32.473,32.282,56.206,38.0,46.0
60278,-0.576,-0.068,1.224,28.771,-24.496,50.130,36.0,48.0
60320,-0.182,0.083,0.938,19.496,-56.053,-0.328,32.0,49.0
60363,0.508,0.181,0.672,27.115,-43.038,35.076,30.0,50.0
60405,0.145,-0.018,0.804,21.443,17.198,-0.382,30.0,50.0
60450,0.134,0.011,0.744,6.290,33.366,-42.763,83.0,50.0
60496,-0.829,0.053,1.273,-5.053,-7.176,-70.687,83.0,61.0
60546,0.050,0.352,0.863,18.733,-135.527,21.969,83.0,60.0
60591,0.310,0.135,0.529,7.618,1.756,28.748,32.0,99.0
60633,-0.190,0.308,0.854,-9.450,118.702,-8.733,33.0,58.0
60676,-0.351,0.272,1.061,-5.649,47.168,32.519,34.0,60.0
60719,-0.368,0.067,1.144,-10.840,-65.511,20.496,32.0,51.0
60761,0.295,0.050,0.727,-23.809,-38.763,-36.313,32.0,51.0
60804,-0.080,0.152,1.049,-22.878,87.679,-50.023,32.0,51.0
60846,-0.591,0.115,1.180,7.771,45.565,23.947,33.0,50.0
60889,-0.280,0.087,1.021,18.557,-50.244,85.855,31.0,50.0
60934,0.068,0.153,0.808,-17.290,-37.412,14.053,29.0,50.0
60976,0.099,0.125,0.827,-5.802,37.519,-12.618,31.0,50.0
61019,-0.207,0.094,0.956,9.626,35.992,44.328,31.0,50.0
61061,-0.012,0.165,0.748,6.206,22.344,65.924,31.0,49.0
61106,0.024,0.022,0.740,-24.550,85.969,19.733,82.0,50.0
61149,-0.663,0.178,1.466,-44.573,78.656,-62.802,36.0,49.0
61191,-0.347,0.072,1.370,-1.458,-61.969,-16.725,36.0,49.0
61234,-0.309,0.016,1.061,11.878,-76.405,-29.160,41.0,49.0
61277,-0.199,0.162,0.866,7.626,-5.198,-30.427,41.0,49.0
61326,-0.065,0.140,0.841,29.000,8.107,62.557,82.0,49.0
61368,-0.253,0.063,0.911,3.702,62.626,4.824,39.0,48.0
61411,-0.749,0.104,1.136,11.420,-18.779,-22.756,39.0,48.0
61454,-0.146,0.262,0.968,9.069,-148.489,41.214,36.0,50.0
61497,0.095,0.045,0.681,-4.817,-98.511,20.237,37.0,50.0
61539,0.384,0.295,0.802,3.916,-9.718,13.924,34.0,51.0
61582,0.038,-0.004,0.975,-5.870,99.527,-2.466,33.0,51.0
61627,-0.495,0.058,1.162,17.695,70.618,-10.794,80.0,50.0
61673,-0.198,0.175,1.092,18.924,-55.527,39.328,81.0,51.0
61721,0.148,0.117,0.716,-7.443,-31.641,-24.794,81.0,51.0
61766,0.042,0.241,0.867,-7.779,12.443,-30.924,79.0,51.0
61809,0.060,0.180,0.891,-6.267,-1.603,-3.374,34.0,51.0
61898,-0.343,0.096,1.147,-12.267,61.313,-28.519,82.0,48.0
61943,-0.617,0.108,1.256,-0.115,-30.168,-17.405,82.0,48.0
61988,-0.070,0.171,1.003,-0.603,-112.504,-7.191,82.0,49.0
62034,0.392,0.085,0.619,-8.023,4.763,-29.069,82.0,47.0
62080,-0.077,0.115,0.844,-0.389,117.115,-16.985,81.0,47.0
62125,-0.853,0.031,1.234,12.840,16.557,29.565,82.0,46.0
62174,-0.110,0.180,1.020,-13.374,-137.534,7.351,83.0,47.0
62219,0.326,0.038,0.656,-42.802,7.031,-85.260,84.0,47.0
62265,-0.092,-0.033,1.097,-18.794,102.496,-40.603,85.0,47.0
62310,-0.750,0.037,1.307,11.015,69.748,-10.687,86.0,46.0
62356,-0.586,0.080,1.134,34.137,-57.725,38.427,85.0,48.0
62401,-0.186,0.158,0.768,20.802,-63.420,56.595,84.0,49.0
62447,0.306,0.203,0.782,9.351,-53.954,51.695,82.0,49.0
62492,0.233,0.167,0.751,-6.221,27.573,-6.687,82.0,49.0
62537,0.105,0.046,0.879,-13.588,37.626,-19.168,82.0,47.0
62586,-0.047,0.011,0.686,-4.290,99.771,-15.855,84.0,47.0
62631,-0.593,0.105,1.098,-9.527,88.382,27.450,85.0,40.0
62676,-0.768,0.087,1.186,-18.779,-59.809,19.672,85.0,46.0
62723,-0.161,0.147,0.942,-17.237,-132.756,19.595,84.0,47.0
62769,0.440,-0.047,0.518,-13.618,25.840,-2.237,84.0,47.0
62814,-0.056,0.195,0.785,-13.107,243.977,-22.130,84.0,46.0
62860,-1.102,-0.025,1.484,-0.443,149.000,10.542,86.0,46.0
62905,-0.937,0.052,1.261,15.954,-106.565,13.641,85.0,48.0
62954,0.064,0.043,0.533,1.611,-134.176,18.267,84.0,46.0
63000,0.279,0.124,0.465,0.809,28.053,14.443,84.0,47.0
63045,-0.264,0.111,0.876,-32.489,87.802,-31.313,85.0,46.0
63091,-0.484,0.011,1.142,-27.282,18.863,-52.939,87.0,45.0
63136,-0.437,0.000,1.224,-19.061,-41.046,-58.740,88.0,46.0
63187,-0.244,-0.138,0.939,7.466,6.305,-23.626,90.0,45.0
63233,-0.628,0.019,1.037,18.763,49.374,2.168,90.0,44.0
63278,-0.543,0.052,0.945,20.809,13.489,41.794,89.0,44.0
63322,-0.367,0.054,0.905,5.969,-32.122,28.168,89.0,42.0
63369,-0.203,0.043,0.775,-0.229,-25.962,-29.130,89.0,43.0
63414,-0.158,0.081,0.724,-1.489,25.153,-21.519,89.0,44.0
63459,-0.562,0.087,0.867,3.008,38.786,21.115,90.0,42.0
63503,-0.744,0.134,1.008,-15.000,-20.160,35.031,89.0,44.0
63548,-0.447,0.078,1.106,-23.267,-99.137,29.565,88.0,43.0
63593,0.055,-0.010,0.962,-5.458,-64.656,2.473,87.0,44.0
63637,0.197,-0.085,0.773,16.237,88.160,-19.160,87.0,45.0
63682,-0.467,-0.003,0.907,15.695,177.939,-13.061,88.0,44.0
63727,-0.926,0.020,1.062,21.214,55.748,14.855,89.0,45.0
63774,-0.663,0.065,1.023,-4.313,-104.924,23.328,87.0,45.0
63819,0.054,0.039,0.525,-6.756,-114.458,-0.786,87.0,47.0
63864,0.385,0.131,0.311,8.313,142.817,19.664,87.0,45.0
63908,-0.784,0.089,0.791,9.504,245.275,50.015,88.0,45.0
63953,-1.399,0.140,1.242,3.603,29.328,37.534,90.0,46.0
63998,-0.903,0.168,1.042,-31.817,-194.947,27.733,88.0,44.0
64044,-0.017,0.023,0.626,-8.176,-208.290,1.153,86.0,46.0
64088,0.364,0.156,0.572,1.924,17.565,-22.832,86.0,45.0
64133,-0.307,0.133,0.912,-10.282,136.832,-28.649,87.0,44.0
64224,-0.872,0.095,1.199,6.802,-117.115,-42.977,88.0,43.0
64269,-0.323,0.004,0.783,9.924,-133.679,-4.076,88.0,45.0
64314,-0.109,-0.013,0.646,30.450,-16.702,27.725,87.0,46.0
64359,-0.076,0.216,0.887,14.214,43.473,39.336,86.0,46.0
64403,-0.235,0.070,0.912,-4.038,55.656,-17.626,87.0,46.0
64448,-0.399,0.073,0.940,7.237,24.618,-41.885,87.0,44.0
64493,-0.536,0.118,0.984,4.679,-32.802,3.214,87.0,44.0
64537,-0.463,0.083,0.823,2.305,-72.466,34.061,87.0,44.0
64582,-0.136,0.258,0.938,-2.275,-49.092,36.229,86.0,44.0
64630,0.024,0.057,0.832,-14.275,11.084,-13.427,86.0,45.0
64675,-0.180,0.059,0.954,-9.786,78.053,-54.366,87.0,44.0
64720,-0.674,-0.007,1.081,7.992,50.763,-15.519,87.0,45.0
64764,-0.724,0.137,1.021,12.947,-20.489,27.473,87.0,45.0
64809,-0.502,0.052,0.913,9.580,-102.527,63.557,85.0,45.0
64855,0.090,0.162,0.803,-5.985,-118.702,33.878,84.0,48.0
64900,0.328,0.127,0.757,-5.427,8.794,-31.656,84.0,47.0
64945,-0.034,0.095,0.871,-1.382,83.366,-26.527,84.0,47.0
64989,-0.527,0.053,1.068,10.168,39.237,8.710,84.0,47.0
65037,-0.465,0.151,0.963,5.817,-51.656,39.565,84.0,47.0
65082,-0.181,0.257,1.012,-16.221,-103.985,31.511,84.0,47.0
65127,0.068,0.109,0.982,-24.656,-68.924,-19.267,83.0,47.0
65172,0.228,0.134,0.939,-15.687,25.977,-44.206,84.0,47.0
65217,-0.293,-0.122,1.032,1.160,86.901,-37.771,85.0,46.0
65262,-0.473,0.137,1.017,24.145,55.023,5.565,84.0,46.0
65306,-0.335,0.132,0.855,17.847,-7.527,62.221,83.0,47.0
65351,-0.008,0.165,0.857,-2.702,-38.893,46.664,81.0,47.0
65396,0.314,0.073,0.627,-10.603,38.779,-17.053,82.0,47.0
65444,0.208,0.098,0.615,-13.153,163.618,-33.229,84.0,47.0
65489,-0.827,0.011,1.113,-9.160,175.221,-6.771,86.0,47.0
65534,-1.089,0.123,1.330,-8.550,-62.901,-28.183,87.0,50.0
65580,-0.513,0.090,1.008,-19.962,-183.137,-29.817,87.0,50.0
65626,0.354,0.060,0.566,-8.756,-63.954,-24.153,87.0,48.0
65670,0.069,-0.014,0.648,10.626,128.939,-3.771,88.0,39.0
65715,-0.563,0.053,0.860,3.000,166.809,-1.634,90.0,43.0
65761,-0.891,0.010,0.966,-12.885,11.122,-18.397,91.0,45.0
65815,-0.650,0.136,0.881,-34.580,-131.847,-21.649,0.0,44.0
65870,-0.070,0.026,0.565,-39.687,-98.542,-23.794,0.0,41.0
65922,-0.077,0.013,0.873,-50.412,21.405,-18.450,0.0,33.0
65976,-0.406,-0.159,1.213,-39.229,34.947,-31.282,0.0,28.0
66027,-0.485,-0.312,1.355,-19.595,10.405,-27.718,0.0,37.0
66081,-0.409,-0.241,1.202,21.000,15.565,1.947,0.0,27.0
66132,-0.392,-0.181,0.995,35.916,33.328,21.382,0.0,36.0
66188,-0.459,-0.042,0.854,43.588,70.962,48.931,0.0,38.0
66239,-0.657,0.052,0.908,29.458,-0.374,49.954,0.0,39.0
66293,-0.546,0.082,0.894,6.924,-88.679,37.298,0.0,42.0
66349,-0.160,0.088,0.955,-9.618,-171.886,-3.153,0.0,43.0
66395,0.456,-0.111,0.529,3.924,-42.931,-50.634,89.0,44.0
66439,-0.024,-0.099,0.893,-2.389,112.687,-29.092,90.0,35.0
66484,-0.708,-0.020,1.135,20.313,98.382,10.962,90.0,35.0
66529,-0.705,0.024,1.100,27.336,-5.351,38.435,90.0,43.0
66618,-0.004,0.075,0.676,17.969,-5.817,56.168,86.0,46.0
66663,0.003,0.184,0.763,-2.809,26.557,24.489,86.0,46.0
66708,-0.082,0.099,0.784,-12.656,50.214,-17.794,86.0,48.0
66756,-0.247,0.047,0.824,-16.626,35.641,-28.031,87.0,44.0
66802,-0.631,0.021,1.094,-27.336,1.687,-48.481,89.0,43.0
66847,-0.567,0.136,1.199,-21.954,-78.565,-31.542,90.0,42.0
66892,-0.231,-0.083,0.957,-4.771,-59.229,0.710,90.0,43.0
66938,-0.125,-0.004,0.859,15.954,54.061,21.099,90.0,42.0
66983,-0.271,-0.016,0.833,21.031,107.931,34.542,90.0,44.0
67028,-0.645,0.115,1.114,4.450,48.580,17.817,89.0,43.0
67074,-0.568,0.036,0.949,-10.611,-105.886,-23.924,89.0,44.0
67126,0.017,0.089,0.655,-20.603,-94.641,-36.084,0.0,44.0
67175,-0.229,0.002,0.941,-16.931,26.817,-22.992,91.0,44.0
67220,-0.447,-0.004,1.039,-6.061,11.985,-7.679,91.0,43.0
67266,-0.396,-0.008,0.969,-4.122,-10.718,8.992,92.0,43.0
67317,-0.245,-0.087,0.752,-4.282,-13.870,15.405,0.0,44.0
67373,-0.185,0.094,1.102,-22.130,-5.733,23.458,0.0,43.0
67420,0.031,-0.105,0.876,4.336,76.389,-10.885,110.0,39.0
67471,-0.644,-0.107,1.231,7.420,97.649,-5.550,0.0,35.0
67526,-0.900,-0.025,1.206,26.328,-33.389,5.931,0.0,42.0
67578,-0.354,0.012,0.783,20.282,-107.618,31.870,0.0,44.0
67633,0.019,0.083,0.822,6.725,-43.794,11.420,0.0,43.0
67689,-0.109,0.100,0.904,19.053,45.115,-11.618,0.0,44.0
67734,-0.789,0.033,1.298,10.191,-7.580,24.176,88.0,43.0
67779,-0.414,-0.120,0.796,31.550,-129.985,25.725,87.0,46.0
67825,0.119,0.296,0.868,5.916,-91.031,24.145,85.0,45.0
67870,0.359,0.113,0.668,1.374,1.641,-3.580,85.0,46.0
67915,0.017,0.087,0.882,5.885,100.901,-28.496,85.0,45.0
67961,-0.557,0.018,1.009,9.534,89.046,-9.550,86.0,46.0
68006,-0.731,0.235,1.236,8.679,-57.313,26.969,85.0,45.0
68055,-0.269,0.150,1.090,-7.450,-212.519,32.435,84.0,46.0
68101,0.671,0.022,0.449,0.137,-117.008,-12.397,84.0,48.0
68146,0.633,0.215,0.513,17.748,168.061,-35.244,84.0,47.0
68191,-0.425,0.177,0.936,12.412,239.359,-3.397,84.0,45.0
68237,-1.116,0.138,1.289,20.863,50.008,40.878,86.0,44.0
68282,-0.759,0.206,1.055,-6.550,-185.206,49.542,84.0,46.0
68328,0.213,0.178,0.634,-16.351,-247.359,30.511,83.0,48.0
68373,0.892,0.243,0.454,1.496,1.160,-2.695,83.0,48.0
68418,0.336,0.267,0.737,-5.931,208.023,-29.389,83.0,47.0
68467,-0.605,0.069,1.108,-0.840,195.779,-36.122,84.0,44.0
68512,-1.113,0.122,1.416,3.603,-50.206,-29.947,85.0,44.0
68558,-0.675,0.193,0.984,-21.160,-250.137,-12.504,85.0,46.0
68603,0.510,0.055,0.312,-11.611,-232.122,5.427,85.0,47.0
68649,0.935,0.195,0.354,6.130,121.756,9.565,85.0,47.0
68695,0.013,0.164,0.770,-10.092,250.130,-7.901,86.0,45.0
68741,-1.105,0.023,1.218,5.412,232.542,0.595,87.0,45.0
68786,-1.160,0.200,1.469,11.145,-100.901,0.786,87.0,44.0
68835,-0.387,0.054,0.649,-11.176,-250.137,14.198,86.0,45.0
68880,0.575,0.103,0.304,-1.748,-152.359,30.771,85.0,46.0
68926,0.555,0.309,0.585,-12.046,87.115,29.939,85.0,46.0
69015,-0.536,0.004,1.211,-19.481,135.725,-22.718,86.0,45.0
69061,-1.026,0.075,1.605,-10.718,-109.878,-43.489,87.0,46.0
69106,-0.170,-0.003,0.930,-8.191,-228.481,-18.092,87.0,45.0
69152,0.578,-0.008,0.655,7.702,-58.763,-0.397,88.0,46.0
69198,0.421,0.147,0.624,14.939,186.672,13.183,86.0,45.0
69249,-0.523,0.087,0.861,16.863,250.130,28.740,87.0,44.0
69297,-1.455,0.070,1.638,24.954,-13.771,29.679,87.0,44.0
69341,-0.745,0.198,1.076,-11.939,-250.137,-4.191,86.0,45.0
69386,0.612,0.013,0.312,-5.176,-249.886,-24.344,85.0,47.0
69431,1.000,0.162,0.248,13.511,121.916,-10.649,85.0,46.0
69475,-0.113,0.171,0.791,11.214,250.130,2.580,86.0,45.0
69520,-1.162,0.037,1.449,22.282,148.092,21.847,86.0,44.0
69564,-1.266,0.208,1.468,3.855,-188.603,4.863,86.0,45.0
69609,-0.296,0.104,0.723,-17.359,-250.137,-10.725,86.0,46.0
69654,1.203,0.183,0.371,4.656,-120.534,-3.183,85.0,47.0
69709,0.488,0.222,0.488,13.313,250.130,-7.359,85.0,45.0
69756,-0.628,0.198,0.904,23.847,250.130,9.130,86.0,44.0
69804,-1.583,0.238,1.614,16.420,-50.863,5.053,89.0,44.0
69851,-0.871,0.228,0.903,-17.939,-250.137,-0.702,83.0,45.0
69898,0.772,-0.122,-0.152,2.252,-250.137,4.061,85.0,48.0
69945,1.027,0.344,0.296,23.702,154.847,17.817,84.0,48.0
69992,0.005,0.275,0.666,-3.313,250.130,14.550,82.0,45.0
70039,-1.000,0.175,0.994,8.344,241.237,19.229,89.0,44.0
70086,-1.277,0.256,1.462,-4.260,-112.122,-20.534,88.0,44.0
70136,-0.453,0.251,0.889,-39.344,-250.137,-25.664,85.0,46.0
70183,1.220,0.039,0.319,-18.359,-162.756,-19.748,85.0,48.0
70231,0.768,0.189,0.528,-4.351,240.382,-14.557,86.0,46.0
70278,-0.552,0.060,1.011,3.053,250.130,-10.069,87.0,44.0
70325,-1.494,0.127,1.632,23.786,58.786,0.214,88.0,43.0
70372,-1.244,0.111,1.118,-13.481,-250.137,-4.695,87.0,44.0
70420,0.248,0.129,0.265,-10.229,-250.137,17.939,86.0,47.0
70467,1.385,0.152,0.097,16.053,45.710,19.931,86.0,48.0
70514,0.264,0.333,0.702,6.290,250.130,-6.977,85.0,45.0
70564,-1.010,0.108,1.243,8.817,190.084,-11.351,87.0,44.0
70611,-1.121,0.192,1.406,-2.603,-130.618,-21.008,87.0,44.0
70659,-0.227,0.190,0.764,-13.718,-250.137,10.344,86.0,45.0
70706,1.395,0.003,0.511,-5.053,-102.374,17.053,86.0,47.0
70753,0.598,0.275,0.548,13.786,250.130,4.427,86.0,45.0
70800,-0.583,0.151,1.004,12.565,250.130,9.664,86.0,44.0
70848,-1.447,0.179,1.625,11.588,-0.504,-5.237,87.0,43.0
70895,-0.836,0.128,0.949,-18.344,-250.137,-13.947,86.0,43.0
70945,0.709,0.115,0.081,-10.244,-233.000,-2.214,86.0,47.0
70992,0.908,0.175,0.402,4.267,148.618,-1.382,85.0,46.0
71040,-0.257,0.187,0.939,0.794,250.130,-0.336,86.0,44.0
71087,-1.415,0.027,1.818,18.740,29.328,-5.847,87.0,44.0
71134,-0.923,0.241,1.045,-22.374,-250.137,-16.382,86.0,45.0
71182,0.454,0.057,0.304,-8.779,-250.137,15.458,85.0,49.0
71229,1.287,0.182,0.093,10.244,83.214,30.092,86.0,49.0
71276,0.133,0.243,0.832,-0.679,250.130,17.847,85.0,46.0
71324,-0.779,0.071,1.416,-1.824,143.061,4.405,86.0,44.0
