Timestamp(ms),AccelX(g),AccelY(g),AccelZ(g),GyroX(deg/s),GyroY(deg/s),GyroZ(deg/s),DistanceLeft(cm),DistanceRight(cm)
29732,-0.641,-0.036,0.733,-0.893,1.702,-0.863,0.0,110.0
29787,-0.657,-0.029,0.714,-0.466,0.412,-0.115,0.0,111.0
29842,-0.640,-0.036,0.728,-0.695,-1.313,-0.939,0.0,111.0
29897,-0.647,-0.033,0.725,-0.550,1.542,-1.237,0.0,109.0
29953,-0.660,-0.030,0.742,-0.198,-1.328,-0.328,0.0,111.0
30007,-0.646,-0.029,0.738,-0.527,-2.504,-0.832,0.0,110.0
30062,-0.630,-0.024,0.729,-0.687,-1.115,-1.130,0.0,110.0
30120,-0.641,-0.031,0.734,-0.626,0.634,-0.733,0.0,110.0
30175,-0.656,-0.031,0.727,-0.565,-0.198,-0.656,0.0,110.0
30230,-0.646,-0.028,0.726,-0.550,-0.748,-0.817,0.0,110.0
30285,-0.641,-0.029,0.737,-0.710,0.466,-0.733,0.0,111.0
30341,-0.649,-0.030,0.740,-0.771,0.427,-0.740,0.0,111.0
30395,-0.653,-0.033,0.734,-0.382,-1.198,-0.664,0.0,110.0
30450,-0.649,-0.031,0.730,-0.672,-0.634,-0.664,0.0,110.0
30505,-0.647,-0.034,0.733,-0.412,-2.344,-0.939,0.0,110.0
30561,-0.645,-0.032,0.724,-0.656,0.573,-0.832,0.0,110.0
30618,-0.659,-0.029,0.723,-0.458,-0.695,-0.405,0.0,110.0
30673,-0.643,-0.028,0.730,-0.893,-1.305,-0.252,0.0,110.0
30729,-0.639,-0.024,0.728,-2.031,-1.893,-0.397,0.0,111.0
30784,-0.646,-0.032,0.740,-1.893,-4.473,0.176,0.0,110.0
30839,-0.642,-0.030,0.744,-2.649,-3.191,1.076,0.0,110.0
30895,-0.616,-0.039,0.727,-1.420,-2.649,0.855,0.0,111.0
30950,-0.631,-0.028,0.757,-0.740,0.603,-0.748,0.0,110.0
31004,-0.644,-0.032,0.740,-0.260,-0.504,-1.191,0.0,111.0
31059,-0.629,-0.033,0.738,0.382,-0.481,-1.366,0.0,111.0
31118,-0.629,-0.035,0.741,0.504,3.649,-1.931,0.0,112.0
31173,-0.648,-0.032,0.733,1.252,3.954,-2.786,0.0,112.0
31228,-0.660,-0.037,0.729,0.511,0.641,-1.985,0.0,110.0
31284,-0.641,-0.028,0.729,-0.244,-4.031,-0.282,0.0,111.0
31339,-0.624,-0.031,0.723,-0.870,-2.977,0.740,0.0,110.0
31394,-0.647,-0.024,0.731,-1.031,3.000,-0.260,0.0,111.0
31450,-0.673,-0.024,0.744,-2.145,-1.748,-0.405,0.0,111.0
31505,-0.703,-0.032,0.757,-4.328,-16.008,-1.794,0.0,112.0
31560,-0.718,-0.003,0.835,-3.725,-27.252,-5.443,0.0,111.0
31619,-0.962,0.021,1.412,-1.794,-85.580,-8.130,0.0,114.0
31679,-0.601,-0.459,0.890,56.397,-158.328,-25.626,0.0,0.0
31735,0.173,0.169,0.473,68.962,33.473,-17.389,0.0,119.0
31792,-0.679,0.203,0.730,28.023,151.427,5.504,0.0,142.0
31852,-0.947,0.280,0.968,27.176,11.229,57.924,0.0,0.0
31911,-0.520,0.015,0.834,11.061,-160.160,74.473,182.0,0.0
31970,0.289,-0.220,0.242,51.405,-43.336,4.794,180.0,179.0
32029,-0.357,0.481,0.235,36.130,250.130,-55.168,182.0,0.0
32089,-1.510,0.443,1.010,-22.649,102.397,22.504,185.0,0.0
32151,-1.132,0.391,1.366,-37.176,-250.137,72.702,179.0,0.0
32209,0.460,-0.278,0.417,-0.076,-250.137,-36.038,176.0,180.0
32261,0.665,0.126,0.112,45.870,202.206,-73.817,53.0,180.0
32328,-1.046,0.438,0.402,24.137,250.130,36.282,181.0,0.0
32387,-1.513,0.351,1.237,-22.740,5.748,93.458,181.0,191.0
32443,-0.527,0.221,0.764,-8.908,-250.137,45.450,144.0,0.0
32502,0.672,0.255,0.031,20.061,-24.069,-61.427,176.0,0.0
32604,-1.487,0.476,1.072,-48.153,119.695,55.130,179.0,195.0
32661,-1.021,0.446,1.595,-38.489,-250.137,42.550,142.0,0.0
32722,1.088,0.036,0.308,13.183,-174.137,-67.985,172.0,0.0
32781,0.030,0.264,0.281,34.084,250.130,-51.038,175.0,0.0
32839,-1.533,0.458,0.686,16.023,250.130,22.641,178.0,194.0
32899,-1.350,0.480,0.906,-45.740,-152.924,65.221,176.0,197.0
32955,-0.222,0.405,0.458,-49.649,-250.137,40.763,139.0,0.0
33006,0.855,0.026,0.363,1.153,-14.282,-57.466,38.0,0.0
33064,-0.290,0.469,0.541,12.786,247.084,-40.466,171.0,0.0
33122,-1.332,0.443,0.955,-37.847,164.229,29.069,141.0,0.0
33181,-0.893,0.423,1.399,-48.130,-215.252,40.115,138.0,0.0
33240,0.789,0.208,0.668,-16.229,-249.336,-7.718,166.0,0.0
33298,0.976,0.171,0.369,54.473,114.206,-31.061,167.0,0.0
33356,-0.820,0.424,0.401,22.817,250.130,-34.618,170.0,0.0
33415,-1.409,0.513,0.957,-13.275,57.939,1.489,171.0,0.0
33458,-0.868,0.451,0.948,-48.504,-250.137,56.084,137.0,0.0
33514,0.076,0.404,0.772,-49.359,-250.137,36.573,137.0,0.0
33572,1.100,0.049,0.369,2.588,-10.870,-38.519,164.0,0.0
33631,-0.145,0.270,0.620,-7.023,250.130,-38.580,166.0,0.0
33692,-1.126,0.331,0.976,-15.863,176.939,4.511,168.0,0.0
33750,-1.080,0.309,1.333,-36.618,-193.153,59.344,138.0,0.0
33808,-0.125,-0.022,0.700,-34.710,-250.137,9.557,163.0,0.0
33858,1.516,0.119,0.281,19.160,2.550,-42.611,19.0,0.0
33916,0.300,0.333,0.664,14.115,250.130,-5.725,164.0,0.0
33973,-1.056,0.267,0.730,31.672,250.130,22.038,138.0,0.0
34029,-1.039,0.526,1.062,-13.634,-55.954,11.099,136.0,0.0
34086,-0.489,0.398,0.946,-48.740,-248.939,-1.840,135.0,0.0
34143,0.559,0.041,0.625,0.588,-205.878,-42.557,135.0,0.0
34204,0.599,0.333,0.692,15.466,92.817,-31.130,164.0,0.0
34263,-0.490,0.297,0.884,12.962,160.901,13.237,166.0,0.0
34321,-0.771,0.380,0.950,2.695,-12.046,-4.504,166.0,0.0
34379,-0.417,0.370,1.056,-43.931,-161.763,31.260,165.0,0.0
34429,0.832,0.092,0.688,-17.725,-179.893,4.695,21.0,0.0
34490,1.092,0.194,0.467,16.031,116.450,-40.000,0.0,0.0
34548,-0.326,0.314,0.581,-9.214,250.130,-20.786,167.0,0.0
34608,-1.507,0.195,1.083,-5.351,209.611,32.885,169.0,0.0
34664,-1.171,0.459,1.588,-54.763,-212.130,43.947,138.0,0.0
34725,0.068,-0.394,0.347,7.962,-250.137,-31.130,163.0,0.0
34784,1.102,0.400,0.317,10.252,32.916,-36.366,163.0,0.0
34842,-0.369,0.238,0.650,-6.237,250.130,4.344,165.0,0.0
34900,-1.215,0.175,1.075,13.366,88.527,52.458,165.0,0.0
34958,-0.648,0.362,1.428,-37.015,-245.397,50.443,135.0,0.0
35016,0.717,-0.009,0.448,28.000,-205.252,-47.824,163.0,0.0
35073,0.606,0.468,0.576,7.198,136.794,-28.557,135.0,0.0
35130,-0.577,0.217,0.850,-3.053,187.771,7.504,135.0,0.0
35176,-0.854,0.327,1.100,-16.656,-90.550,13.687,135.0,0.0
35232,-0.388,0.300,0.890,-48.351,-248.519,22.466,135.0,0.0
35291,1.062,0.328,0.621,-46.656,-117.252,-15.053,161.0,0.0
35349,0.591,0.101,0.927,-4.603,147.595,-37.527,161.0,0.0
35407,-0.454,0.114,1.136,25.260,155.366,3.115,163.0,0.0
35509,-0.413,0.272,0.999,-15.664,-181.137,26.313,162.0,0.0
35567,1.038,0.418,0.612,-21.618,-179.824,-7.527,163.0,0.0
35627,0.810,0.186,0.651,-2.344,178.794,-55.832,164.0,0.0
35685,-0.461,0.181,0.816,18.893,250.130,-9.534,164.0,0.0
35746,-1.125,0.349,1.286,7.450,71.069,37.870,165.0,0.0
35804,-0.818,0.237,1.157,-14.374,-250.137,23.107,136.0,0.0
35862,1.142,0.474,0.557,-1.748,-250.137,-17.931,162.0,0.0
35920,0.957,0.285,0.337,7.183,175.458,-21.824,161.0,0.0
35979,-0.520,0.278,0.880,2.580,250.130,10.397,164.0,0.0
36036,-0.925,0.268,1.230,-7.534,-19.702,24.145,138.0,0.0
36094,-0.321,0.300,1.116,-41.908,-236.664,0.244,163.0,0.0
36153,1.006,-0.017,0.483,3.206,-59.985,-24.817,162.0,0.0
36211,0.222,0.300,0.712,16.397,228.237,-14.450,163.0,0.0
36272,-0.839,0.170,1.012,4.160,168.351,21.908,137.0,0.0
36328,-0.806,0.396,1.326,-20.565,-111.863,53.092,135.0,0.0
36387,0.135,0.206,0.810,-31.023,-250.137,-4.557,161.0,0.0
36446,1.129,0.248,0.502,16.206,21.573,-36.176,161.0,0.0
36502,-0.042,0.102,0.684,14.282,250.130,-18.542,137.0,0.0
36559,-0.922,0.292,0.997,12.130,169.206,13.817,137.0,0.0
36617,-0.941,0.434,1.503,-26.489,-127.092,38.511,136.0,0.0
36674,0.147,-0.058,0.699,12.817,-237.443,-12.908,135.0,0.0
36731,0.913,0.566,0.483,32.672,76.069,-41.519,137.0,0.0
36793,-0.596,0.346,0.858,0.893,238.496,5.977,164.0,0.0
36850,-1.020,0.250,1.171,-7.076,-60.847,32.901,135.0,0.0
36893,-0.340,0.354,1.074,-35.153,-250.137,18.939,136.0,0.0
36951,1.232,-0.011,0.046,18.992,-94.229,-48.366,135.0,0.0
37009,0.175,0.522,0.450,-6.466,250.130,-42.847,163.0,0.0
37052,-1.660,0.074,1.286,-22.954,153.405,40.824,135.0,0.0
37109,-1.337,0.307,1.668,-22.458,-250.137,74.382,133.0,0.0
37167,0.920,0.045,0.252,-3.107,-250.137,-28.099,134.0,0.0
37228,0.996,0.623,0.215,28.466,210.397,-57.069,161.0,0.0
37272,-1.024,0.381,0.844,-9.344,250.130,22.985,134.0,0.0
37328,-1.311,0.288,1.607,-27.229,-33.435,40.374,134.0,0.0
37386,-0.300,0.012,0.643,-14.847,-250.137,39.695,133.0,0.0
37444,0.983,0.518,0.271,22.947,15.817,-96.084,162.0,0.0
37501,-0.567,0.439,0.987,-19.817,174.031,4.939,134.0,0.0
37559,-0.781,0.199,1.416,-4.924,-174.473,71.809,133.0,0.0
37617,1.013,0.309,0.272,7.924,-59.977,-27.000,161.0,0.0
37673,-0.175,0.626,0.883,-5.168,209.634,-16.076,132.0,0.0
37734,-0.672,0.413,1.633,-12.641,-98.221,76.763,131.0,0.0
37791,0.793,-0.136,0.610,21.298,-159.344,-9.710,131.0,0.0
37849,0.442,0.492,0.425,24.084,200.221,-44.977,132.0,0.0
37892,-1.088,0.316,1.417,-29.672,26.359,16.344,132.0,0.0
37948,-0.537,0.176,1.179,-8.351,-250.137,12.763,132.0,0.0
38007,1.344,0.211,0.172,36.794,38.504,-43.000,162.0,0.0
38065,-0.449,0.539,0.524,0.771,250.130,-67.107,134.0,0.0
38108,-1.488,0.411,1.370,-27.939,75.298,-41.725,136.0,0.0
38165,-0.419,0.669,1.285,-30.344,-149.313,7.885,135.0,0.0
38212,0.218,-0.373,0.405,45.588,-29.748,-0.740,135.0,0.0
38270,-0.093,0.663,0.705,46.588,129.038,-13.015,164.0,0.0
38373,0.146,0.121,0.522,9.305,-246.420,13.328,162.0,0.0
38431,-0.129,0.423,0.653,27.595,80.061,-39.740,163.0,0.0
38491,-0.402,0.639,1.368,1.046,-66.069,51.336,162.0,0.0
38547,0.784,0.190,-0.019,34.023,87.191,19.069,132.0,0.0
38606,-1.101,0.787,1.421,13.641,46.863,12.603,162.0,0.0
38651,0.148,0.553,0.435,-1.351,-250.137,39.557,160.0,0.0
38702,0.638,0.425,0.538,27.527,161.473,-8.084,19.0,0.0
38764,-0.241,0.597,1.302,8.328,42.237,44.809,159.0,0.0
38822,0.153,0.056,0.512,-1.901,23.389,-42.397,159.0,0.0
38881,-0.522,0.506,1.062,11.107,-116.183,6.733,159.0,0.0
38940,1.213,0.486,0.015,-9.718,-74.298,-3.328,159.0,0.0
38999,-0.447,0.787,0.862,0.939,190.534,-12.702,160.0,0.0
39057,-0.218,0.725,1.113,-21.427,-107.634,30.649,159.0,0.0
39116,-0.135,0.595,0.828,8.115,20.992,-20.275,159.0,0.0
39175,-0.271,0.391,1.147,-11.405,-250.137,76.931,158.0,0.0
39226,2.000,-0.239,-0.973,36.969,175.641,-76.267,18.0,0.0
39286,-0.795,1.261,0.722,-24.763,250.130,8.756,128.0,0.0
39329,-0.969,0.447,1.976,-42.977,-101.947,59.427,129.0,0.0
39387,-0.401,-0.410,0.184,40.863,-168.267,-55.779,129.0,0.0
39430,-0.182,0.765,0.864,-49.672,-86.130,-23.542,130.0,0.0
39489,-0.065,0.470,1.072,-40.412,-175.107,28.779,160.0,0.0
39542,0.927,0.197,0.129,15.328,67.038,-37.069,58.0,0.0
39599,-0.512,0.734,1.236,-21.527,102.153,16.374,131.0,0.0
39655,-0.209,0.432,1.354,-30.809,-250.137,63.603,20.0,0.0
39710,1.552,-0.219,-0.057,-9.649,5.618,-59.573,57.0,0.0
39768,-0.055,0.693,0.518,11.244,250.130,-52.962,162.0,0.0
39824,-1.362,0.390,1.736,-62.160,2.229,64.023,132.0,0.0
39884,-0.368,-0.159,0.605,-40.756,-250.137,32.115,0.0,0.0
39945,1.549,0.652,0.012,27.053,171.595,-118.374,0.0,0.0
40001,-0.887,0.715,1.235,-43.122,250.130,21.221,133.0,0.0
40043,-0.977,0.100,1.541,-28.458,-187.725,84.382,132.0,0.0
40101,0.221,0.105,0.510,-17.015,-250.137,27.725,163.0,0.0
40160,1.348,0.402,0.103,30.298,125.153,-73.267,162.0,0.0
40218,-0.751,0.944,0.971,-31.817,250.130,4.992,131.0,0.0
40261,-1.278,0.365,2.000,-68.878,-219.267,57.328,131.0,0.0
40322,-0.195,-0.963,-0.370,-5.710,-250.137,6.656,0.0,0.0
40381,1.367,0.311,-0.675,15.649,250.130,-132.298,0.0,0.0
40438,-0.993,0.536,1.348,-62.885,250.130,50.916,134.0,0.0
40480,-0.593,-0.120,0.904,-16.099,-207.473,81.908,132.0,0.0
40537,0.467,0.510,0.542,63.412,-3.160,-148.947,133.0,0.0
40593,-0.487,0.518,1.399,-21.534,59.702,-23.870,134.0,0.0
40650,-0.274,0.233,0.687,-40.756,-161.687,19.901,135.0,0.0
40710,-0.176,0.426,0.872,39.817,22.458,-58.092,137.0,0.0
40766,-0.111,0.364,0.748,3.763,-39.344,93.351,133.0,0.0
40822,1.065,0.535,0.412,-11.084,-12.679,30.710,133.0,0.0
40879,-0.285,0.404,0.819,19.710,197.481,-121.321,134.0,0.0
40922,-0.611,0.303,1.208,-5.328,-50.221,92.931,134.0,0.0
40978,-0.189,0.214,0.792,-15.206,-196.481,70.870,132.0,0.0
41034,-0.040,0.397,0.778,22.160,75.412,-71.046,131.0,0.0
41091,-0.245,0.392,1.106,13.634,-97.672,70.527,131.0,0.0
41184,1.079,0.045,-0.163,22.863,209.565,-104.366,18.0,0.0
41238,-0.428,0.640,0.629,-8.122,250.130,-14.115,132.0,0.0
41294,-1.260,0.187,2.000,-58.534,-35.992,100.443,132.0,0.0
41352,-0.760,-0.906,-0.181,-12.756,-250.137,18.137,131.0,0.0
41408,1.209,0.447,-0.307,13.985,103.977,-149.985,133.0,0.0
41464,-0.776,0.493,0.627,-18.931,250.130,-18.977,135.0,0.0
41507,-1.305,0.580,2.000,-44.695,-81.733,120.725,133.0,0.0
41564,-0.314,-0.067,0.160,-13.473,-250.137,76.740,133.0,0.0
41621,0.406,0.947,0.067,41.534,192.321,-122.557,133.0,0.0
41667,-1.333,0.638,1.999,-75.962,-10.504,59.885,133.0,0.0
41723,-0.965,0.253,1.373,-54.000,-250.137,125.496,132.0,0.0
41780,1.222,1.087,0.326,53.962,-5.534,-105.023,132.0,0.0
41836,-0.097,0.659,1.066,-14.832,106.374,29.527,131.0,0.0
41892,0.208,0.158,0.600,-28.893,-95.237,60.366,130.0,0.0
41950,0.280,0.589,0.217,83.221,250.130,-87.061,131.0,0.0
41992,-1.499,0.461,1.667,-77.534,76.443,14.672,131.0,0.0
42048,-0.969,0.535,1.756,-79.992,-250.137,57.000,131.0,0.0
42091,0.959,0.261,-0.017,117.458,-23.550,-151.168,132.0,0.0
42151,0.145,1.192,0.817,-12.069,234.107,-26.015,132.0,0.0
42208,-0.566,0.679,1.717,-65.489,-19.679,13.244,133.0,0.0
42251,-0.463,-0.359,0.352,68.519,48.550,-41.252,133.0,0.0
42307,-0.970,1.109,1.694,16.305,-43.687,-16.611,134.0,0.0
42357,-0.306,0.350,1.080,-16.168,-250.137,56.481,22.0,0.0
42408,1.604,0.119,-0.712,57.076,159.878,-54.847,21.0,0.0
42451,-0.791,1.438,0.856,1.718,250.130,18.221,133.0,0.0
42508,-1.344,0.373,1.679,-73.389,43.908,60.305,133.0,0.0
42554,0.195,-1.206,-0.742,25.069,-154.076,15.626,131.0,0.0
42610,0.133,1.247,0.786,24.298,78.168,-86.626,132.0,0.0
42667,-0.588,0.505,1.613,-64.374,-103.824,5.916,132.0,0.0
42724,0.763,-0.552,0.012,30.519,-46.405,-62.947,132.0,0.0
42780,-0.312,0.796,1.075,2.641,106.344,31.328,133.0,0.0
42836,-0.327,0.380,1.536,-31.679,-110.687,70.122,131.0,0.0
42881,0.202,0.267,0.463,34.244,111.969,-90.718,132.0,0.0
42937,-0.625,0.631,1.271,-14.893,112.443,40.527,131.0,0.0
42993,-0.569,0.078,0.863,-50.702,-250.137,13.611,131.0,0.0
43054,0.025,0.467,0.670,20.031,54.053,-75.855,132.0,0.0
43110,-0.047,0.449,1.211,-12.550,-36.740,86.252,131.0,0.0
43166,0.249,-0.089,0.617,-5.695,72.824,-53.382,131.0,0.0
43224,-0.468,0.581,1.273,16.382,-38.687,71.901,131.0,0.0
43282,0.170,0.303,1.124,-33.282,-250.137,21.672,161.0,0.0
43340,1.127,0.481,-0.023,12.924,207.702,-164.252,161.0,0.0
43397,-0.958,0.287,1.243,-26.496,184.542,58.893,133.0,0.0
43454,-0.751,0.197,1.447,-25.130,-250.137,75.618,131.0,0.0
43512,1.091,0.102,-0.076,16.458,86.206,-191.489,162.0,0.0
43573,-0.574,0.436,1.079,0.244,227.481,29.237,133.0,0.0
43629,-0.850,0.372,1.546,-32.336,-196.924,121.229,131.0,0.0
43686,0.676,-0.167,0.358,-15.298,-37.473,-139.275,133.0,0.0
43745,-0.261,0.696,1.177,-25.053,59.496,-17.076,162.0,0.0
43803,-0.312,0.314,1.320,-13.664,-204.023,114.809,161.0,0.0
43863,1.213,-0.420,0.039,0.496,148.733,-87.023,162.0,0.0
43962,-1.166,0.325,1.595,-40.916,12.191,112.099,132.0,0.0
44005,-0.627,0.014,1.012,-37.130,-250.137,109.038,131.0,0.0
44066,1.287,0.361,0.223,20.962,-132.290,-186.519,162.0,0.0
44126,0.166,0.457,0.898,-57.084,230.298,-71.168,162.0,0.0
44184,-0.588,0.098,1.127,-30.885,30.672,89.031,163.0,0.0
44241,0.453,-0.037,0.537,25.817,-203.947,29.328,133.0,0.0
44299,0.287,0.552,0.729,-19.687,150.305,-168.206,137.0,0.0
44344,-0.980,0.301,1.271,-31.779,59.412,4.618,164.0,0.0
44400,-0.527,0.155,1.576,33.977,-250.137,185.443,134.0,0.0
44462,1.787,-0.146,-0.490,-2.069,36.053,-36.947,0.0,0.0
44520,-0.170,0.410,0.725,-13.725,250.130,-94.038,163.0,0.0
44567,-0.958,0.428,1.335,-16.336,51.924,130.710,133.0,0.0
44623,-0.972,0.019,1.465,-12.779,-250.137,207.076,131.0,0.0
44681,1.300,0.303,-0.057,-18.504,-169.947,-79.863,131.0,0.0
44739,0.473,0.408,0.744,-63.733,174.893,-159.260,162.0,0.0
44790,-0.388,0.297,1.225,-28.099,49.427,58.885,21.0,0.0
44849,-0.516,0.003,1.375,54.099,-250.137,222.931,163.0,0.0
44910,1.543,-0.193,0.408,-28.748,73.214,-109.496,0.0,0.0
44960,-0.333,0.195,1.098,-28.351,250.130,-119.542,19.0,0.0
45019,-0.872,0.146,1.419,-23.511,58.107,103.573,162.0,0.0
45081,-0.075,0.302,0.887,-20.168,-250.137,125.695,164.0,0.0
45143,0.998,0.252,0.053,-57.702,111.015,-220.634,0.0,0.0
45193,-0.541,0.324,1.252,-35.977,155.473,-62.374,19.0,0.0
45244,-0.607,-0.301,0.962,22.206,-116.412,135.840,17.0,0.0
45304,1.328,0.828,1.715,-5.748,-250.137,65.603,0.0,0.0
45355,0.424,0.376,0.777,-41.802,214.122,-158.168,16.0,0.0
45406,-0.537,0.222,1.101,26.145,7.786,61.687,16.0,0.0
45456,-0.419,0.441,1.283,40.031,-250.137,149.886,16.0,0.0
45516,1.484,-0.402,0.210,-25.382,9.443,-71.321,0.0,0.0
45571,-0.155,0.409,0.973,-13.779,250.130,-54.542,18.0,0.0
45629,-0.739,0.277,1.136,-30.718,56.618,158.611,160.0,0.0
45686,0.751,1.178,1.246,-47.466,-237.656,-14.481,132.0,0.0
45737,0.120,-0.041,0.608,-66.679,145.099,-250.137,19.0,0.0
45788,-0.276,0.033,0.889,7.489,-52.084,43.748,20.0,0.0
45839,0.009,0.162,0.958,70.427,-150.504,144.115,20.0,0.0
45899,0.956,-0.098,0.574,-53.870,167.076,-45.580,0.0,0.0
45950,-0.625,0.379,1.245,-13.977,151.115,-46.351,22.0,0.0
46005,-0.613,-0.073,1.033,47.779,-159.084,118.267,19.0,0.0
46066,1.522,0.891,1.016,2.084,-202.122,37.519,0.0,0.0
46117,-0.307,0.297,1.282,-30.740,209.886,-116.710,19.0,0.0
46168,-0.823,-0.170,1.127,17.489,-54.122,41.695,19.0,0.0
46219,0.489,0.485,0.999,43.466,-250.137,90.496,19.0,0.0
46277,0.790,0.166,0.649,-42.588,185.794,-64.275,164.0,0.0
46328,-0.549,0.121,1.270,10.298,-16.763,15.611,19.0,0.0
46390,0.707,0.399,0.979,28.282,-193.008,43.756,0.0,0.0
46440,0.334,0.438,0.759,-12.496,250.130,-38.359,21.0,0.0
46502,-0.782,0.121,1.299,-1.847,-7.107,46.618,161.0,0.0
46562,0.994,0.541,0.807,11.084,-221.870,-1.260,162.0,0.0
46613,0.973,0.387,0.142,-7.099,250.130,-87.924,21.0,0.0
46671,-0.826,0.400,1.229,-18.847,236.718,15.756,163.0,0.0
46779,1.053,0.191,0.728,-1.237,-159.618,-44.618,162.0,0.0
46837,0.208,0.646,0.958,12.733,201.542,-115.916,163.0,0.0
46895,-0.924,0.133,1.088,-5.595,23.221,66.160,163.0,0.0
46945,-0.120,0.295,0.818,2.237,-250.137,56.702,22.0,0.0
47003,1.337,0.375,0.202,-21.580,29.687,-90.672,163.0,0.0
47064,-0.486,0.566,1.268,-26.687,163.786,6.679,163.0,0.0
47122,-0.893,-0.214,1.385,28.885,-250.137,115.366,164.0,0.0
47182,1.942,0.428,-0.648,-9.382,-90.832,-48.748,0.0,0.0
47241,0.093,0.629,0.947,-14.313,250.130,-45.046,164.0,0.0
47291,-1.148,0.013,1.301,-14.847,55.992,74.061,23.0,0.0
47348,-0.539,0.378,1.303,17.611,-250.137,68.832,164.0,0.0
47400,1.373,0.366,0.039,-19.809,21.252,-60.061,57.0,0.0
47451,-0.210,0.317,0.919,-0.908,229.053,-83.763,24.0,0.0
47509,-0.741,0.203,1.152,3.107,0.672,63.733,163.0,0.0
47563,0.282,0.467,0.894,-3.153,-216.145,65.580,57.0,0.0
47622,0.973,0.339,0.376,-16.137,62.695,-34.435,161.0,0.0
47678,-0.019,0.353,0.792,-11.000,170.511,19.366,132.0,0.0
47734,-0.642,0.235,1.170,-26.771,-12.672,38.557,134.0,0.0
47791,-0.251,0.233,0.857,-59.206,-216.718,38.275,131.0,0.0
47851,0.635,0.218,0.369,-52.977,-181.878,60.733,0.0,0.0
47911,1.327,-0.533,0.501,-46.237,250.130,95.527,0.0,0.0
47968,0.007,0.416,1.369,85.855,250.130,-0.336,131.0,0.0
48011,-0.716,0.366,1.180,3.588,183.603,-49.260,132.0,0.0
48070,-0.773,0.290,1.187,1.145,91.641,-17.634,133.0,0.0
48126,-0.987,0.208,1.357,2.740,-93.931,-6.084,134.0,0.0
48183,-0.466,0.057,0.875,5.939,-199.687,8.847,133.0,0.0
48239,0.094,0.327,0.669,44.557,-94.534,-43.634,132.0,0.0
48295,-0.032,0.371,0.654,-5.626,22.779,20.145,131.0,0.0
48352,-0.262,0.164,0.660,-35.847,22.313,56.924,129.0,0.0
48408,-0.003,0.089,0.667,-40.160,-37.992,69.344,127.0,0.0
48450,0.482,-0.030,1.183,-97.267,24.672,52.901,126.0,0.0
48506,0.261,-0.746,1.571,11.008,29.893,-36.740,126.0,0.0
48566,0.028,0.068,1.311,63.916,-13.908,-42.069,126.0,0.0
48608,-0.218,0.099,1.138,33.847,-47.191,-72.748,127.0,0.0
48664,-0.131,0.224,0.839,34.351,-36.420,-66.145,128.0,0.0
48720,-0.591,0.251,1.100,5.244,-106.267,6.748,128.0,0.0
48777,0.006,0.185,0.852,-11.298,-250.137,25.412,129.0,0.0
48824,1.489,0.204,0.033,12.947,-148.817,-19.145,0.0,0.0
48870,0.993,0.238,0.536,-5.504,122.267,-79.084,0.0,0.0
48916,0.100,0.243,0.872,-16.740,187.160,-61.481,0.0,0.0
48984,-0.357,0.136,0.987,-7.687,118.038,0.450,0.0,0.0
49041,-0.042,0.137,0.675,23.588,-51.557,95.099,158.0,0.0
49084,0.446,0.419,0.858,-11.565,-75.641,51.824,126.0,0.0
49139,0.626,0.430,1.004,-20.153,-33.473,-46.092,126.0,0.0
49186,0.572,-0.013,1.109,-31.489,39.221,-74.290,0.0,0.0
49233,0.536,-0.027,0.821,24.374,90.298,-40.023,0.0,0.0
49291,-0.048,0.245,0.936,30.305,140.221,35.969,156.0,0.0
49347,-0.337,0.125,0.964,-6.992,27.580,86.427,125.0,0.0
49405,-0.067,0.291,1.313,-22.756,-180.344,16.840,155.0,0.0
49453,1.095,0.084,0.574,15.427,-99.557,-97.031,155.0,0.0
49553,0.075,0.430,0.824,3.412,170.076,-44.412,156.0,0.0
49609,-0.629,0.210,0.810,-13.351,64.634,21.473,127.0,0.0
49668,-0.375,0.400,1.290,-26.924,-204.870,78.901,156.0,0.0
49718,0.900,0.141,0.431,-0.359,-250.137,-0.840,16.0,0.0
49768,1.570,0.494,0.386,-5.756,-11.725,-57.168,16.0,0.0
49804,0.664,0.261,0.611,-41.267,220.977,-61.107,16.0,0.0
49854,-0.178,0.074,0.882,-34.160,235.626,-36.107,17.0,0.0
49912,-0.545,0.071,1.064,-18.710,107.458,41.076,157.0,0.0
49966,-0.228,0.214,1.307,-6.634,-110.863,96.275,20.0,0.0
50016,0.536,0.190,1.109,-3.321,-219.565,15.679,19.0,0.0
50053,1.004,0.363,0.743,-5.267,-94.595,-87.519,21.0,0.0
50103,0.537,0.338,1.074,-28.557,-34.099,-55.382,16.0,0.0
50139,0.346,0.000,0.690,6.160,-1.618,-46.641,17.0,0.0
50189,0.338,0.189,0.652,32.817,38.863,-3.679,16.0,0.0
50239,0.304,0.111,0.723,31.603,-4.282,100.221,17.0,0.0
50276,0.746,0.323,0.858,17.710,-56.198,103.008,18.0,0.0
50325,0.795,0.197,0.777,9.275,-4.084,9.893,17.0,0.0
50365,0.685,0.273,0.822,1.878,21.664,-83.366,17.0,0.0
50414,0.556,0.284,0.795,-8.702,25.237,-73.130,16.0,0.0
50464,0.435,0.242,0.740,-16.534,55.336,-27.954,16.0,0.0
50514,0.069,0.120,0.796,-7.198,61.855,45.260,16.0,0.0
50565,0.108,0.253,1.177,1.366,-43.626,95.802,17.0,0.0
50601,1.002,0.294,0.730,16.435,-53.176,46.435,16.0,0.0
50652,0.891,0.178,0.842,9.405,46.588,-85.702,16.0,0.0
50688,0.537,0.235,0.783,-10.076,141.168,-109.702,17.0,0.0
50738,0.095,0.240,0.802,-18.977,175.504,-51.000,18.0,0.0
50798,-0.429,0.191,1.057,-16.672,60.313,67.412,126.0,0.0
50848,-0.146,0.201,1.233,-2.977,-189.542,105.084,19.0,0.0
50885,0.896,0.167,0.664,5.718,-142.954,-16.611,17.0,0.0
50946,0.783,0.479,0.938,-32.313,-30.115,-133.893,0.0,0.0
50996,0.266,-0.042,0.700,-23.992,58.038,-144.000,17.0,0.0
51046,0.078,0.253,0.735,8.611,94.588,-1.733,18.0,0.0
51096,-0.252,0.238,0.965,6.275,2.672,109.740,17.0,0.0
51146,0.125,0.251,1.138,-7.458,-127.321,115.954,16.0,0.0
51183,1.222,0.293,0.832,24.649,-75.099,-16.176,19.0,0.0
51236,1.136,0.289,0.840,-18.237,45.122,-133.359,16.0,0.0
51287,0.589,0.129,0.744,-23.565,147.550,-99.740,17.0,0.0
51338,-0.225,0.197,0.682,7.450,186.611,-22.962,20.0,0.0
51396,-0.807,0.208,0.812,1.420,97.099,64.496,159.0,0.0
51452,-0.436,0.349,1.301,-35.908,-221.901,84.718,129.0,0.0
51504,1.154,0.242,0.517,-2.725,-190.641,-18.511,20.0,0.0
51562,1.057,0.337,0.565,-39.504,69.634,-129.214,159.0,0.0
51612,-0.045,0.207,0.803,-19.786,188.405,-67.840,21.0,0.0
51663,-0.581,0.126,0.989,-5.252,98.771,46.847,22.0,0.0
51725,-0.503,0.176,1.147,-5.794,-108.947,103.565,158.0,0.0
51776,0.842,0.253,0.793,-2.092,-250.137,73.740,19.0,0.0
51826,1.260,0.337,0.673,18.985,-45.687,-31.061,17.0,0.0
51863,0.745,0.338,0.827,5.679,94.099,-12.153,17.0,0.0
51913,0.339,0.204,0.814,4.252,134.740,-6.649,17.0,0.0
51963,-0.141,0.245,0.929,7.931,95.977,7.382,18.0,0.0
52057,0.203,0.259,1.037,-17.504,-149.290,63.046,16.0,0.0
52104,1.104,0.126,0.647,1.786,-104.023,14.885,0.0,0.0
52151,1.052,0.264,0.675,-6.779,61.580,-88.206,0.0,0.0
52191,0.354,0.282,0.812,-20.672,172.031,-73.985,17.0,0.0
52241,-0.201,0.172,0.873,-15.130,149.008,-29.374,17.0,0.0
52292,-0.445,0.176,0.946,-5.740,15.702,40.924,18.0,0.0
52342,0.032,0.301,1.255,-41.282,-170.198,65.542,17.0,0.0
52392,1.073,-0.097,0.607,-14.802,-123.962,4.740,18.0,0.0
52454,1.024,0.212,0.768,9.076,64.198,-88.573,0.0,0.0
52512,0.141,0.139,0.774,-8.275,206.336,-56.771,159.0,0.0
52572,-0.652,0.241,1.028,1.794,102.191,27.321,160.0,0.0
52622,-0.550,0.231,1.366,-19.725,-168.847,56.405,20.0,0.0
52686,1.247,0.401,0.549,-0.099,-248.763,41.656,0.0,0.0
52733,1.063,0.322,0.632,6.977,106.000,-71.924,0.0,0.0
52781,0.190,0.244,0.852,-11.000,205.870,-52.557,0.0,0.0
52832,-0.452,0.197,0.899,-3.069,167.618,-2.061,21.0,0.0
52889,-0.814,0.232,1.170,-9.359,-11.656,81.809,133.0,0.0
52939,-0.027,0.352,1.017,-32.405,-250.137,105.366,19.0,0.0
53001,1.192,-0.240,0.337,-10.328,-164.511,-18.282,0.0,0.0
53048,0.957,0.086,0.540,-6.191,150.656,-120.069,0.0,0.0
53095,0.244,0.124,0.829,-19.374,250.130,-32.695,0.0,0.0
53149,-0.484,0.187,0.843,-2.931,181.687,59.069,20.0,0.0
53207,-0.905,0.089,1.280,14.748,-51.275,112.031,130.0,0.0
53258,0.173,0.427,0.879,-21.718,-250.137,27.282,19.0,0.0
53308,1.245,0.120,0.383,-11.420,-76.443,-87.344,17.0,0.0
53359,1.014,0.449,0.712,-2.099,138.527,-75.153,18.0,0.0
53409,-0.156,0.190,1.013,-10.603,217.153,-37.649,19.0,0.0
53472,-0.813,0.145,1.164,0.328,50.695,56.733,132.0,0.0
53522,-0.482,0.050,0.981,16.405,-250.137,96.779,21.0,0.0
53568,0.956,0.405,0.558,7.748,-250.137,52.473,0.0,0.0
53617,1.630,0.461,0.234,-16.847,-16.046,-74.191,0.0,0.0
53653,0.870,0.176,0.490,-29.588,221.023,-71.809,19.0,0.0
53702,0.189,0.181,0.789,-22.725,250.130,-59.832,20.0,0.0
53752,-0.475,0.189,1.085,-2.168,157.924,-7.115,22.0,0.0
53803,-0.745,0.201,1.272,-5.885,-77.794,30.863,23.0,0.0
53853,-0.259,0.107,0.923,-11.374,-250.137,46.176,20.0,0.0
53913,1.639,0.431,-0.057,13.924,-226.771,-5.924,0.0,0.0
53959,1.066,0.280,0.519,-50.275,212.489,-80.450,0.0,0.0
54005,-0.357,-0.116,1.016,-37.130,250.130,-72.794,0.0,0.0
54059,-0.516,0.062,1.046,13.641,85.061,34.427,22.0,0.0
54109,-0.467,0.143,1.074,37.687,-110.282,84.901,20.0,0.0
54166,0.395,0.319,1.186,-4.458,-232.466,85.969,158.0,0.0
54213,1.202,0.097,0.552,32.985,-142.763,-31.427,0.0,0.0
54259,1.134,0.366,0.360,14.893,81.168,-74.733,0.0,0.0
54295,0.223,0.344,0.618,-12.702,229.321,-54.344,22.0,0.0
54345,-0.383,0.224,0.928,-14.504,170.466,-8.519,20.0,0.0
54395,-0.521,0.022,0.840,11.000,-67.023,61.015,20.0,0.0
54453,0.240,0.242,0.907,-9.321,-250.137,100.519,159.0,0.0
54502,1.700,0.169,0.345,-10.092,18.679,-41.443,0.0,0.0
54549,0.744,0.218,0.707,-27.183,204.053,-100.176,0.0,0.0
54641,-0.441,0.154,0.982,3.160,41.481,-28.130,20.0,0.0
54691,-0.280,0.254,0.868,-9.359,-85.809,35.389,20.0,0.0
54750,0.118,0.187,0.901,-8.015,-156.412,96.298,160.0,0.0
54796,1.567,0.396,0.367,29.878,-23.496,62.099,0.0,0.0
54843,0.992,0.434,0.822,5.466,174.046,-57.588,0.0,0.0
54887,0.087,0.242,1.059,-6.420,181.298,-65.893,159.0,0.0
54944,-0.415,0.163,1.040,-1.374,69.756,-33.618,159.0,0.0
55005,-0.316,0.144,1.012,-15.366,-126.809,35.267,159.0,0.0
55066,0.757,0.075,0.756,5.489,-242.557,81.916,0.0,0.0
55112,1.550,0.366,0.486,0.550,77.733,-65.168,0.0,0.0
55158,0.504,0.260,0.741,-14.489,248.031,-95.221,0.0,0.0
55195,-0.425,0.229,0.901,6.206,197.969,-49.679,22.0,0.0
55252,-0.678,0.246,0.980,7.771,85.336,12.290,160.0,0.0
55303,-0.412,0.084,1.078,-18.000,-183.634,108.366,23.0,0.0
55354,0.929,0.000,0.867,25.580,-250.137,65.534,25.0,0.0
55400,1.701,0.455,0.306,7.351,-35.069,-74.588,0.0,0.0
55467,0.609,0.432,0.577,-30.893,243.008,-102.519,0.0,0.0
55518,-0.631,0.191,0.925,-7.336,170.924,1.160,25.0,0.0
55568,-0.726,0.187,1.255,-14.305,-88.641,71.802,25.0,0.0
55626,0.273,0.082,0.811,-18.969,-250.137,97.397,163.0,0.0
55673,1.597,0.374,0.397,-6.000,-87.046,-59.649,0.0,0.0
55719,1.026,0.257,0.547,-30.435,156.733,-84.733,0.0,0.0
55763,-0.062,0.046,0.830,-6.542,212.176,-51.603,163.0,0.0
55816,-0.429,0.097,1.050,19.344,90.672,19.023,58.0,0.0
55874,-0.248,0.273,1.103,16.344,-98.412,80.641,162.0,0.0
55938,0.990,0.539,0.604,8.107,-162.618,47.214,0.0,0.0
55985,0.891,0.460,0.744,-20.626,50.702,-71.130,0.0,0.0
56032,0.329,0.241,0.793,-10.466,115.702,-67.931,0.0,0.0
56091,-0.116,0.289,0.944,-9.947,67.519,-7.374,0.0,0.0
56153,-0.252,0.266,1.173,-22.664,-118.076,75.718,0.0,0.0
56199,1.284,0.267,0.349,11.718,-142.916,18.099,0.0,0.0
56246,1.194,0.410,0.562,-23.443,75.931,-95.168,0.0,0.0
56292,0.542,0.137,0.684,-34.924,177.863,-74.847,0.0,0.0
56339,-0.292,0.009,1.001,-7.504,113.015,4.962,0.0,0.0
56402,-0.321,-0.030,1.071,41.145,-90.435,87.908,0.0,0.0
56463,0.914,0.602,0.658,18.664,-139.626,18.489,0.0,0.0
56510,0.981,0.406,0.595,-26.901,91.115,-82.099,0.0,0.0
56556,0.097,0.215,0.989,-22.595,157.702,-55.412,0.0,0.0
56614,-0.426,0.043,1.023,10.565,43.038,40.435,162.0,0.0
56675,0.397,0.356,0.966,46.206,-133.267,109.107,0.0,0.0
56722,0.958,0.302,0.691,-27.763,-1.405,-85.061,0.0,0.0
56769,0.615,0.296,0.700,-23.580,101.206,-86.359,0.0,0.0
56827,-0.071,-0.161,0.720,7.046,93.260,13.275,162.0,0.0
56889,0.110,0.890,1.232,-6.779,-1.153,49.672,163.0,0.0
56947,-0.112,0.193,1.086,-70.870,-51.771,-116.389,163.0,0.0
56999,0.446,-0.021,0.561,7.260,-71.939,-9.473,57.0,0.0
57061,0.822,0.900,1.001,24.305,15.924,71.298,0.0,0.0
57113,0.016,0.153,1.159,-45.771,75.901,-72.275,57.0,0.0
57163,0.416,0.069,0.772,32.321,-36.580,41.496,19.0,0.0
57224,0.180,0.309,1.088,20.908,19.595,-5.252,0.0,0.0
57325,-0.121,0.155,1.265,-7.031,72.405,-24.046,161.0,0.0
57383,0.544,0.285,0.962,44.534,-23.901,43.672,160.0,0.0
57445,0.053,0.271,0.765,-15.511,67.130,-53.817,160.0,0.0
57503,-0.006,0.603,1.154,-8.664,0.107,-21.527,160.0,0.0
57562,0.286,-0.011,0.897,9.595,-10.947,76.305,160.0,0.0
57620,0.127,0.394,1.008,-19.840,36.038,-62.649,160.0,0.0
57679,0.221,0.393,0.948,-2.595,4.603,-7.137,160.0,0.0
57738,-0.081,-0.085,0.720,0.908,-2.389,60.321,161.0,0.0
57796,0.186,0.765,1.175,-17.008,-15.916,-80.626,161.0,0.0
57854,0.151,0.204,0.902,14.260,-8.718,28.969,162.0,0.0
57913,0.014,-0.015,0.936,7.511,57.267,32.756,161.0,0.0
57975,0.259,0.955,1.198,-8.695,-1.260,-88.099,161.0,0.0
58032,-0.156,-0.318,0.736,34.481,-25.977,73.305,131.0,0.0
58090,0.145,0.366,0.812,-6.496,19.031,-21.832,161.0,0.0
58147,0.273,0.670,0.967,7.389,-2.992,-18.000,131.0,0.0
58204,-0.081,-0.108,0.871,2.321,13.397,47.817,131.0,0.0
58261,0.419,0.984,1.095,-18.282,-22.412,-73.893,131.0,0.0
58319,-0.160,-0.332,0.597,25.817,5.008,77.634,161.0,0.0
58378,0.123,0.584,0.994,-20.878,3.427,-41.023,161.0,0.0
58435,-0.062,0.208,0.982,18.099,-7.153,27.901,130.0,0.0
58497,0.183,0.115,0.825,-8.672,28.092,-5.802,161.0,0.0
58554,0.211,0.714,1.094,1.214,14.099,-24.840,130.0,0.0
58610,-0.168,-0.145,0.959,5.084,11.977,33.664,132.0,0.0
58668,0.249,0.833,1.099,-8.397,-29.695,-55.565,133.0,0.0
58725,-0.214,0.051,0.837,23.366,6.099,61.969,131.0,0.0
58783,0.104,0.588,1.107,-14.351,-2.015,-44.748,161.0,0.0
58842,0.021,0.282,0.865,20.305,-8.565,29.840,161.0,0.0
58899,0.079,0.166,0.913,-18.756,11.084,-33.405,132.0,0.0
58956,0.146,0.749,0.937,-4.267,21.183,-24.389,131.0,0.0
59018,-0.243,-0.117,0.855,-15.153,21.221,42.443,162.0,0.0
59075,0.059,1.012,1.351,-24.893,-16.053,-70.733,132.0,0.0
59132,0.024,-0.424,0.525,27.305,-24.893,77.344,132.0,0.0
59190,0.056,0.615,1.167,-23.763,21.794,-48.626,132.0,0.0
59247,0.010,0.114,0.946,29.321,-20.099,27.267,131.0,0.0
59303,0.055,0.202,0.959,-5.740,35.786,-3.840,131.0,0.0
59361,0.055,0.776,1.105,-3.313,8.641,-40.992,132.0,0.0
59418,-0.124,-0.246,0.622,9.229,0.313,55.527,133.0,0.0
59475,0.084,0.733,1.089,-11.626,8.817,-54.733,132.0,0.0
59536,-0.035,0.012,0.709,25.588,-19.824,45.748,132.0,0.0
59592,0.016,0.368,1.000,-16.473,10.824,-32.481,132.0,0.0
59650,0.060,0.591,1.006,-2.634,13.634,-9.450,133.0,0.0
59707,-0.326,0.034,0.988,-9.626,0.107,12.649,134.0,0.0
59764,0.106,0.902,1.042,-11.008,26.069,-46.588,132.0,0.0
59822,-0.182,-0.087,0.672,24.031,-9.840,79.458,132.0,0.0
59879,0.022,0.435,1.073,-12.046,15.802,-62.916,133.0,0.0
59936,-0.044,0.260,1.043,26.328,-23.763,30.542,132.0,0.0
59993,-0.287,0.086,0.951,-11.565,4.565,10.267,132.0,0.0
60054,0.164,1.001,0.973,-9.840,18.901,-54.954,132.0,0.0
60110,-0.240,-0.161,0.759,9.695,-5.130,74.664,132.0,0.0
60168,0.003,0.565,1.041,-18.626,8.863,-57.427,132.0,0.0
60268,0.061,0.552,1.085,-9.687,21.351,-48.672,132.0,0.0
60325,-0.015,0.363,0.775,21.595,27.443,43.069,131.0,0.0
60383,-0.547,0.348,1.309,-21.809,22.534,-15.336,132.0,0.0
60440,0.039,0.684,1.167,24.649,-38.565,-12.702,131.0,0.0
60503,-0.296,-0.038,0.842,-14.733,-7.389,26.084,132.0,0.0
60559,0.105,0.872,0.895,-10.191,2.328,-58.947,131.0,0.0
60618,-0.156,-0.027,0.664,11.183,-12.748,55.649,132.0,0.0
60675,-0.015,0.567,1.045,-15.130,29.046,-27.924,132.0,0.0
60731,-0.208,0.408,1.018,11.702,-0.168,27.695,131.0,0.0
60786,-0.133,0.085,0.939,2.504,3.145,12.092,131.0,0.0
60843,0.186,0.966,1.040,-11.374,0.893,-52.435,131.0,0.0
60899,-0.221,-0.099,0.682,16.374,-1.710,56.214,131.0,0.0
60955,-0.042,0.706,1.031,-18.252,17.817,-59.809,131.0,0.0
61011,-0.273,0.221,0.874,21.908,-31.122,54.046,131.0,0.0
61079,-0.111,0.179,0.932,-8.756,8.031,-10.397,131.0,0.0
61137,-0.072,0.683,0.950,-6.687,0.763,-8.817,131.0,0.0
61196,-0.210,0.018,0.776,4.901,-3.336,29.389,131.0,0.0
61254,-0.006,0.623,1.025,-5.374,7.374,-26.992,131.0,0.0
61314,-0.084,-0.015,0.708,27.137,-20.076,48.214,130.0,0.0
61372,-0.036,0.503,1.063,-16.519,-3.687,-37.412,130.0,0.0
61430,0.005,0.417,0.912,23.489,-8.634,26.504,130.0,0.0
61490,-0.162,0.162,0.883,-11.458,25.130,-12.557,131.0,0.0
61548,-0.248,0.722,1.018,-7.435,17.237,3.931,130.0,0.0
61609,-0.220,-0.065,0.786,5.176,-37.595,3.435,131.0,0.0
61668,0.207,0.762,0.859,-11.763,26.290,-34.450,131.0,0.0
61727,-0.318,0.015,0.849,29.260,8.870,75.313,131.0,0.0
61786,0.042,0.531,0.987,-11.229,-16.008,-74.466,131.0,0.0
61844,-0.011,0.260,0.730,35.832,1.176,71.076,130.0,0.0
61903,-0.140,0.412,1.094,-16.985,-0.061,-38.160,131.0,0.0
61962,-0.067,0.581,0.881,15.366,-15.092,25.412,130.0,0.0
62020,-0.247,0.102,0.934,-14.550,17.000,11.573,130.0,0.0
62080,0.131,0.897,0.992,-1.641,-11.412,-13.870,130.0,0.0
62141,-0.221,-0.090,0.722,1.550,22.687,19.679,130.0,0.0
62199,-0.101,0.602,0.928,3.947,-1.450,-3.145,129.0,0.0
62259,-0.114,0.210,0.813,-5.374,-3.420,-0.061,130.0,0.0
62317,-0.212,0.227,0.898,-5.740,2.191,9.466,130.0,0.0
62375,0.034,0.741,0.959,6.672,13.748,18.382,129.0,0.0
62434,-0.120,0.318,0.979,-9.710,-13.878,-37.954,130.0,0.0
62493,-0.099,0.376,0.814,9.580,-4.641,5.046,130.0,0.0
62552,-0.174,0.564,1.007,-27.511,-13.847,-46.450,131.0,0.0
62611,-0.172,0.053,0.707,18.321,-3.840,32.099,131.0,0.0
62672,-0.178,0.837,1.101,-11.924,15.412,-19.443,130.0,0.0
62732,-0.263,-0.044,0.864,-2.740,-15.695,16.435,131.0,0.0
62790,0.284,0.958,0.936,-8.779,-13.137,-1.450,129.0,0.0
62850,-0.197,-0.127,0.939,-23.641,0.427,1.359,130.0,0.0
62908,0.281,0.772,0.998,4.237,-21.107,-11.901,130.0,0.0
62966,-0.010,0.073,0.822,-6.015,35.450,10.664,130.0,0.0
63026,-0.114,0.527,0.933,4.420,29.534,-8.198,131.0,0.0
63084,-0.144,0.362,0.837,9.855,-2.260,-0.718,131.0,0.0
63143,0.009,0.444,0.800,-8.031,-0.061,-27.702,132.0,0.0
