Timestamp(ms),AccelX(g),AccelY(g),AccelZ(g),GyroX(deg/s),GyroY(deg/s),GyroZ(deg/s),DistanceLeft(cm),DistanceRight(cm)
64881,0.158,-0.466,0.783,63.55,-12.244,21.389,0,48
64930,0.014,-0.639,1.097,42.885,2.824,11.527,119,49
64980,-0.028,-0.769,1.204,21.038,32.893,3.511,124,47
65031,-0.138,-0.611,1.266,16.771,14.069,8.084,119,47
65081,-0.002,-0.471,1.096,5.977,0.878,2.244,121,47
65130,0.018,-0.347,1.005,-2.023,17.489,6.756,122,47
65180,0.009,-0.332,0.881,4.137,-2.374,4.473,120,46
65238,0.104,-0.285,0.576,2.061,18.603,-4.13,0,46
65287,-0.056,-0.325,0.536,-17.115,45.824,-13.634,119,46
65336,-0.137,-0.459,0.555,-45.649,51.55,-32.069,117,45
65385,-0.182,-0.496,0.654,-59.038,40.679,-43.901,117,35
65439,-0.04,-0.363,0.598,-76.153,40.87,-56.992,0,31
65492,-0.152,-0.602,0.827,-96.26,48.893,-71.534,0,30
65546,-0.066,-0.594,0.824,-85.557,53.038,-79.183,0,30
65589,-0.181,-0.895,0.923,-75.336,67.985,-84.092,16,28
65632,-0.22,-1.011,0.983,-93.344,61.71,-82.145,8,27
65677,-0.189,-1.179,1.028,-133.405,51.74,-62.321,9,28
65720,-0.028,-1.087,0.79,-109.191,23.015,-33.649,16,29
65773,-0.019,-1.047,0.728,-83.527,23.389,-20.595,0,30
65826,-0.097,-0.978,0.655,-76.053,35.985,-28.069,0,30
65881,-0.055,-0.84,0.638,-11.191,-4.458,-6.099,0,30
65934,-0.004,-0.634,0.603,10.985,-18.634,8.176,0,30
65988,-0.01,-0.689,0.529,14.786,-20.718,15.046,0,30
66041,-0.039,-0.752,0.495,20.145,-35.198,13.649,0,29
66083,-0.026,-0.764,0.425,39.931,-48.031,26.099,9,27
66140,-0.016,-0.747,0.436,55.809,-29.679,32.71,0,27
66194,-0.025,-0.622,0.505,68.069,6.496,48.74,0,29
66236,-0.25,-0.667,0.702,85.244,-1.115,67.29,16,25
66289,-0.32,-0.953,0.818,83.221,-43.809,59.809,0,25
66343,-0.232,-1.347,0.824,60.031,-52,29.45,0,28
66397,-0.175,-1.279,0.78,61.382,8.198,24.084,0,29
66446,-0.19,-1.038,0.729,54.878,48.031,30.115,125,26
66495,-0.222,-0.651,0.833,56.641,37.58,39.405,125,32
66544,-0.184,-0.481,0.834,76.031,4.687,44.786,127,27
66596,-0.222,-0.398,0.773,113.298,7.038,58.061,127,28
66647,-0.375,-0.395,0.716,141.733,34.13,71.008,136,28
66696,-0.46,-0.115,0.712,146.924,46.802,71.664,128,30
66746,-0.44,0.132,0.689,126.802,9.824,52.275,127,41
66796,-0.431,0.234,0.742,96.534,-40.725,28.565,127,41
66841,-0.515,0.266,0.849,57.84,-39.023,20,38,42
66891,-0.614,0.283,1.131,10.924,-0.931,14.969,122,43
66940,-0.58,0.247,1.305,-0.969,5.802,52.824,119,45
66989,-0.333,0.245,1.188,-12.336,-14.504,67.756,30,48
67034,-0.177,0.136,0.996,-23.603,-25.298,48.061,30,49
67079,-0.22,-0.02,0.906,-15.328,-27.901,30.893,30,50
67129,-0.14,0.041,0.767,-2.382,-3.275,33.298,112,51
67179,-0.27,0.065,0.781,-6.931,26.29,46.145,114,52
67228,-0.253,0.107,0.786,-15.389,11.45,61.771,113,54
67279,-0.159,0.078,0.802,-20.16,-0.466,67.565,120,55
67330,-0.114,0.08,0.77,-13.672,3.45,67.664,117,57
67423,-0.208,0.132,0.71,-19.908,18.023,64.74,118,58
67489,-0.148,0.181,0.726,-36.611,49.366,74.733,0,0
67543,-0.559,-0.086,1.223,-51.595,62.183,26.878,28,0
67605,-0.686,-0.152,1.369,-7.977,47.931,-21.221,177,0
67667,-0.636,0.27,1.185,3.061,75.412,-2.16,179,0
67730,-0.621,0.325,1.069,-27.511,12.321,7.908,180,0
67792,-0.42,0.061,0.921,-18.58,-45.038,8.824,183,0
67856,-0.473,0.034,0.868,37.321,-44.473,-2.954,199,0
67918,-0.418,0.219,0.653,51.42,-40.244,-18.573,187,0
67973,-0.323,0.425,0.535,-12.626,-13.985,-2.13,27,0
68039,-0.35,0.28,0.876,-58.962,-25.305,15.687,194,0
68092,-0.522,0.06,1.529,-51.382,45.954,-0.153,27,0
68146,-0.722,-0.04,1.742,8.282,41.183,17.282,26,0
68200,-0.419,-0.051,1.264,57.397,-56.824,12.122,27,0
68263,-0.148,0.059,0.785,47.115,-69.763,-23.985,0,0
68327,0.019,0.11,0.596,10.321,-46.069,-44.687,0,0
68390,-0.115,-0.016,0.898,-15.031,6.031,-23.305,0,0
68452,-0.29,-0.062,1.093,37.427,14.405,-15.053,151,0
68507,-0.12,0.19,0.828,67.603,-13.115,-22.26,0,57
68574,-0.066,0.276,0.581,49.099,-22.42,-36.954,0,0
68619,-0.219,0.274,0.893,0.763,-19.305,-43.443,29,51
68674,-0.572,0.053,1.443,-15.71,1.397,-56.168,0,50
68728,-0.674,0.047,1.596,26.29,7.679,-51.672,0,46
68784,-0.394,0.324,1.23,59.115,5.809,-56.252,0,43
68838,-0.389,0.467,0.969,46.947,3.809,-58.366,0,41
68883,-0.393,0.386,0.832,18.542,-45.87,-65.489,32,38
68927,-0.409,0.083,0.772,24.725,-46.565,-47.351,31,36
68972,-0.386,0.074,0.735,52.87,-17.382,-28.237,32,36
69029,-0.369,0.152,0.606,68.855,0.908,-32.58,0,35
69073,-0.296,0.291,0.539,59.618,-11.939,-49.137,33,34
69118,-0.215,0.418,0.45,29.87,-30.115,-65.435,34,34
69173,-0.237,0.55,0.504,-30.489,-40.924,-81.069,0,34
69227,-0.568,0.319,0.876,-115.534,-66.481,-89.046,0,34
69281,-0.24,0.281,0.961,-171.198,-38.672,-80.45,0,34
69336,-0.106,0.053,1.058,-206.13,81.802,-51.626,0,35
69390,-0.671,-0.546,1.323,-201.198,105.771,-27.878,0,30
69447,-0.529,-0.451,1.14,-152.366,-22.855,-45.359,0,27
69500,-0.206,-0.424,0.851,-114.565,-77.168,-49.916,0,27
69555,0.026,-0.348,0.603,-114.481,-15.908,-7.115,0,28
69609,-0.285,-0.607,0.766,-104.321,5.389,14.435,0,27
69662,-0.22,-0.619,0.698,-62.267,-39.947,11.55,0,26
69716,-0.127,-0.475,0.635,-31.244,-28.328,16.382,0,28
69771,-0.19,-0.537,0.669,-12.16,6.511,36.763,0,25
69824,-0.506,-0.979,0.95,-8.427,23.084,27.992,0,23
69878,-0.622,-1.545,0.953,3.168,-6.435,-8.87,0,24
69935,-0.383,-1.249,0.757,36.046,-8.046,1.87,0,23
69989,-0.221,-0.917,0.654,17.763,17.695,0.153,0,24
70042,-0.242,-0.624,0.626,-0.603,33.107,-13.885,0,23
70096,-0.281,-0.447,0.624,6.374,14.145,-14.489,0,23
70150,-0.29,-0.473,0.575,22.969,-27.695,-23.756,0,24
70247,-0.196,-0.479,0.433,33.321,-2.962,-47.924,0,30
70301,-0.215,-0.466,0.483,18.496,35.84,-36.038,0,20
70354,-0.37,-0.712,0.682,1.656,41.748,-39.046,0,20
70408,-0.375,-1.085,0.978,-8.229,41.099,-56.13,0,19
70465,-0.367,-0.699,1.249,-16.87,69.863,-15.29,0,19
70518,-0.499,-0.943,1.332,-17.328,-5.656,13.374,0,20
70572,-0.215,-0.681,0.893,28.87,-51.252,17.405,0,21
70626,-0.108,-0.378,0.653,32.031,-6.122,26.55,0,21
70679,-0.262,-0.321,0.704,32.45,-2.198,43.069,0,19
70732,-0.262,-0.315,0.655,37.626,-31,51.679,0,19
70787,-0.245,-0.333,0.637,37.382,-41.489,58.656,0,20
70840,-0.2,-0.346,0.638,34.107,-37.107,58.779,0,20
70894,-0.195,-0.208,0.663,43.679,-25.16,73.702,0,30
70946,-0.478,-0.433,0.785,8.244,2.336,50.061,112,30
70995,-0.862,-1.086,1.032,-19.802,53.641,29.656,113,30
71050,-0.907,-1.131,1.027,8.641,50.053,41.374,0,31
71104,-0.594,-0.789,0.992,10.061,15.885,34.29,0,32
71159,-0.302,-0.351,1.009,-15.809,-4.214,29.45,0,33
71214,-0.176,-0.273,0.947,7.977,-27.855,19.229,0,33
71268,-0.184,-0.217,0.804,54.107,-32.901,-0.137,0,31
71322,-0.297,-0.179,0.737,81.58,-10.969,1.985,0,30
71376,-0.452,-0.17,0.802,96.237,-11.382,1.924,0,29
71434,-0.518,-0.017,0.985,104.137,-45.84,7.603,0,28
71488,-0.583,-0.195,1.037,96.863,-50.466,-16.008,0,27
71542,-0.464,0.121,1.194,50.519,-4.634,-29.466,0,27
71603,-0.486,0.203,1.259,28.687,-3.45,10.42,0,26
71651,-0.387,0.003,1.01,39.901,-44.771,18.771,122,28
71704,-0.209,0.076,0.772,42.565,-36.092,3.985,0,27
71757,-0.105,0.197,0.716,46.939,-2.344,9.321,0,27
71811,-0.132,0.316,0.759,43.718,13.481,16.031,0,27
71860,-0.216,0.41,0.858,33.29,1.588,28.557,127,27
71916,-0.233,0.482,0.964,28.725,-7.939,29.832,0,28
71969,-0.237,0.552,1.033,34.641,-10.374,37.832,0,27
72023,-0.248,0.417,1.067,48.931,-22.336,39.176,0,28
72076,-0.117,0.397,0.921,65.931,-36.916,38.473,0,27
72129,-0.1,0.306,0.913,46.16,-0.664,9.634,0,27
72182,-0.144,0.705,1.103,9.878,31.496,4.031,0,27
72236,-0.368,0.564,1.1,-0.42,23.634,9.511,0,27
72289,-0.362,0.562,1.002,0.214,-10.221,-4.351,0,28
72342,-0.272,0.599,0.918,-0.107,-26.336,13.473,0,27
72398,-0.237,0.419,0.839,5.534,-33.16,21.924,0,29
72453,-0.208,0.373,0.804,10.573,-35.229,22.336,0,30
72506,-0.162,0.515,0.846,1.611,-34.137,12.557,0,32
72559,-0.059,0.671,0.95,-8.405,-34.282,5.878,0,34
72613,0.015,0.573,1.034,-8.397,-30.809,-10.206,0,36
72668,0.081,0.573,1.089,1.176,-26.015,-18.802,0,38
72722,0.07,0.604,1.003,13.275,-21.13,-16.664,0,40
72776,-0.015,0.589,0.977,18.87,-21.42,-3.656,0,42
72830,-0.044,0.359,0.837,29.092,-20.55,-4.16,0,44
72888,0.069,0.581,0.76,32.176,-33.74,-10.26,0,47
72985,0.189,0.702,0.701,-2.718,14.046,-5.534,0,51
73040,0.055,0.576,0.782,-1.863,35.603,-19.374,0,53
73096,-0.144,0.445,0.906,11.092,17.435,2.198,0,56
73150,-0.121,0.501,0.839,39,-7.321,17.641,0,59
73206,-0.002,0.741,0.72,46.603,-1.557,19.221,0,63
73262,0.005,0.874,0.715,20.916,33.679,34.924,0,67
73318,-0.002,0.758,0.813,3.779,31.527,43.763,0,72
73374,0.078,0.543,0.776,18.992,28.084,42.427,0,75
73433,0.071,0.797,0.808,1.443,66.29,55.076,0,79
73488,-0.048,0.711,0.882,6.74,57.031,54.863,0,57
73543,-0.092,0.425,0.739,15.198,51.466,39.336,0,57
73598,-0.107,0.567,0.708,-3.206,59.588,37.015,0,59
73656,-0.123,0.651,0.827,-23.153,53.748,49.366,0,100
73719,-0.073,0.556,0.912,-33.702,28.656,34.405,0,0
73783,0.014,0.511,0.924,-40.42,19.786,21.618,0,0
73846,0.039,0.435,0.99,-45.679,7.092,11.672,0,0
73910,0.113,0.322,1.045,-41.321,-15.427,-8.504,0,0
73976,0.218,0.397,1.051,-36.924,-19.214,-35.985,0,0
74039,0.245,0.295,1.023,-46.542,-3.786,-52.198,0,0
74099,0.202,0.359,1.108,-37.954,3.313,-58.557,0,135
74156,0.156,0.311,0.967,-19.366,28.832,-88,0,72
74214,-0.083,0.307,0.817,-8.191,70.695,-81.122,183,136
74269,-0.399,0.321,0.838,-6.924,62.29,-43.954,181,68
74323,-0.458,0.43,0.795,-19.992,14.504,-14.916,172,67
74382,-0.417,0.444,0.937,-47.542,-19.55,4.16,176,144
74441,-0.264,0.284,1.049,-36.824,-30.099,9.71,172,149
74506,-0.216,0.352,1.227,-11.878,-9.359,27.023,167,0
74567,-0.238,0.408,1.186,21.573,10.74,40.267,163,0
74631,-0.309,0.521,1.098,39.802,12.191,49.511,0,0
74685,-0.278,0.498,0.889,40.733,8.336,56.015,0,37
74748,-0.256,0.393,0.886,35.237,7.206,61.534,0,0
74812,-0.075,0.504,0.914,53.092,4.183,53.534,0,0
74865,-0.03,0.633,0.814,48.137,39.015,38.55,0,29
74919,-0.141,0.694,0.782,14.092,69.122,36.053,0,27
74973,-0.239,0.632,0.798,7.26,61.015,35.947,0,30
75030,-0.371,0.502,0.75,-9.359,54.718,29.901,0,30
75083,-0.472,0.41,0.811,-45.718,51.931,46.656,0,28
75138,-0.448,0.32,1.034,-59.687,20.702,64.855,0,30
75191,-0.227,0.195,1.182,-36.809,1.511,65.336,0,33
75245,-0.026,0.204,1.193,-15.901,19.298,54.893,0,35
75299,0.034,0.201,0.86,4.58,49.26,43.183,0,37
75354,-0.141,0.385,0.622,-13.977,99.069,29.099,0,41
75409,-0.461,0.163,1.007,-52.023,71.366,28.099,0,43
75463,-0.386,0.075,1.283,-13.183,-1.672,16.916,0,47
75522,-0.133,0.459,1.199,22.351,1.298,-13.42,0,51
75577,-0.15,0.696,1.188,3.58,14.725,-38.885,0,53
75632,-0.192,0.431,1.025,10.962,0.069,-56.985,0,55
75687,-0.343,0.06,0.912,25.069,6.031,-50.252,0,57
75743,-0.285,0.281,0.866,26.473,-20.824,-45.275,0,60
75799,-0.12,0.435,0.911,7.115,-59.405,-51.634,0,62
75898,-0.135,0.429,0.856,-15.809,-26.221,-90.351,0,64
75950,-0.403,0.42,0.817,-7.359,14.679,-84.748,130,66
76002,-0.688,0.531,0.844,7.733,28.336,-54.809,121,67
76056,-0.748,0.767,0.648,1.145,21.122,-26.931,122,69
76108,-0.876,0.778,0.677,-37.45,12.466,17.725,127,70
76160,-0.741,0.668,0.643,-47.588,-8.344,46.229,125,72
76212,-0.59,0.551,0.708,-41.466,-7.672,64.626,123,73
76264,-0.495,0.435,0.699,-38.756,13.282,78.55,132,75
76317,-0.507,0.356,0.755,-37.458,26.374,82.679,124,77
76374,-0.57,0.392,0.575,-69.886,52.29,105.786,0,81
76422,-0.749,0.272,0.647,-116.466,84.748,146.901,43,85
76479,-0.95,0.184,0.597,-135.397,85.74,145.878,0,85
76530,-0.994,0.028,0.832,-158.626,69.313,154.641,42,87
76576,-0.896,0.021,0.645,-153.763,54.71,172.542,39,54
76622,-0.864,-0.099,0.544,-191.733,69.611,183.71,40,50
76668,-0.845,-0.272,0.581,-217.557,59.145,171.214,37,52
76723,-1.021,-0.564,0.799,-217.634,19.038,149.573,37,0
76771,-0.774,-0.468,0.584,-182.908,-37.725,102.153,39,78
76816,-0.78,-0.625,0.584,-179.084,-15.58,71.122,38,30
76860,-0.59,-0.499,0.485,-150.504,-35.748,38.137,39,26
76905,-0.537,-0.502,0.563,-153.321,-47.267,6.397,41,22
76961,-0.589,-0.752,0.64,-136.84,-92.305,-12.069,0,19
77015,-0.282,-0.725,0.547,-118.321,-86.809,-16.351,0,18
77069,-0.292,-0.797,0.567,-122.656,-35.031,-40.802,0,17
77122,-0.264,-0.856,0.539,-125.588,-21.626,-65.191,0,17
77171,-0.174,-0.959,0.504,-136.725,-21.084,-101.344,130,16
77219,-0.128,-1.199,0.513,-125.817,-32.809,-119.695,111,17
77268,0.116,-1.217,0.379,-103.443,-13.473,-113.435,111,17
77319,0.153,-1.327,0.335,-89.87,51.29,-99.977,141,16
77372,0.048,-1.156,0.374,-66.802,103.458,-77.939,148,17
77422,-0.123,-1.037,0.446,-29.954,99.214,-57.832,151,17
77475,-0.141,-0.95,0.416,-0.519,63.176,-39.191,165,43
77528,-0.071,-0.924,0.36,11.191,35.718,-17.84,163,36
77580,-0.037,-0.962,0.38,6.405,18.275,3.779,165,35
77632,0.038,-0.912,0.379,11.26,-4.588,22.244,162,36
77684,0.095,-0.781,0.417,22.664,-18.641,36.969,161,36
77736,0.117,-0.738,0.426,22.038,-22.855,36.756,159,36
77784,0.134,-0.703,0.431,5.176,-24.916,25.969,18,36
77828,0.099,-0.713,0.459,-8.649,-33.511,15.74,10,36
77881,0.081,-0.82,0.416,-15.565,-47.992,7.733,0,23
77935,0.159,-0.948,0.29,-10.374,-47.45,5.344,0,18
77988,0.157,-1.053,0.253,-12.588,-4.855,6.656,0,17
78042,0.041,-0.994,0.292,-13.588,15.992,4.412,0,17
78093,-0.065,-1.002,0.34,-13.809,4.145,6.443,151,17
78135,-0.097,-0.986,0.325,-2.267,-28.985,10.595,17,17
78186,-0.07,-1.085,0.268,9.107,-51.718,3.008,149,15
78239,0.058,-1.11,0.134,13.122,-32.046,-7.084,148,12
78288,0.062,-0.884,0.121,13.336,11.443,3.969,144,13
78339,-0.038,-0.864,0.191,10.153,28.519,16.58,141,13
78389,-0.111,-0.849,0.249,10.466,11.481,15.618,139,12
78481,-0.08,-0.722,0.252,37.229,-20.595,22.702,139,16
78531,-0.128,-0.813,0.293,47.618,10.191,45.038,140,14
78587,-0.254,-0.826,0.371,40.069,34.664,58.115,137,16
78637,-0.339,-0.744,0.47,25.145,25.74,55.908,137,16
78686,-0.368,-0.754,0.514,12.893,-6.695,37.397,139,16
78737,-0.273,-0.736,0.505,12.084,-48.878,18.092,135,17
78782,-0.214,-1.185,0.475,4.702,-63.527,-8.824,68,18
78827,-0.101,-1.37,0.457,-16.74,-46.344,-32.954,66,19
78873,0.043,-1.168,0.542,-11.328,-25.191,-6.763,72,22
78919,0.098,-1.01,0.497,19.076,3.817,17.763,82,26
78967,0.003,-0.927,0.46,10.214,36.84,-1.137,125,23
79016,-0.1,-0.777,0.444,-6.687,62.527,-16.107,125,23
79066,-0.203,-0.638,0.488,-1.824,51.153,-3.565,126,23
79114,-0.277,-0.679,0.571,-0.282,17.405,5.84,123,23
79166,-0.225,-0.673,0.52,15.557,2.458,13.42,124,26
79214,-0.269,-0.713,0.532,10.756,9.931,20.282,124,24
79263,-0.309,-0.729,0.573,23.427,14.214,58.176,123,26
79311,-0.364,-0.58,0.655,31.756,-2.893,70.832,123,24
79361,-0.355,-0.316,0.721,17.634,-44.244,58.588,122,28
79408,-0.39,-0.42,0.703,9.229,-74.786,52.489,103,24
79456,-0.651,-0.947,0.694,5,-39.542,44.084,103,30
79505,-1.123,-1.271,1.01,16.962,-4.42,62.733,128,26
79557,-1.142,-1.012,1.143,66.183,-60.031,97.534,119,30
79607,-0.852,-0.714,1.002,89.168,-76.878,123.687,119,60
79657,-0.803,-0.69,0.896,112.779,-67.092,142.725,82,86
79713,-0.958,-0.57,0.958,141.374,-66.176,179.092,65,0
79769,-0.802,-0.536,0.757,172.718,-89.794,204.275,65,0
79822,-0.544,-0.213,0.633,167.939,-77.977,201.305,32,0
79878,-0.356,-0.108,0.407,156.588,-50.573,183.389,58,0
79941,-0.256,0.334,0.542,106.031,-47.015,180.832,0,0
79994,0.038,-0.003,0.55,76.061,-82.611,139.42,17,0
80051,0.532,0.366,0.618,90.344,-35.321,77.206,23,0
80104,0.583,0.845,0.758,40.824,65.947,51.763,30,0
80156,0.202,0.757,0.894,-1.42,94.26,45.924,16,0
80220,-0.138,0.646,0.914,14.481,63.473,44.702,0,0
80273,-0.001,0.676,0.69,33.794,11.542,73.137,22,0
80336,0.223,0.626,0.464,27.115,25.725,73.176,0,0
80400,0.229,0.501,0.65,4.076,58.046,54.282,0,0
80452,0.211,0.365,0.86,-0.962,17.718,33.565,16,0
80516,0.349,0.266,0.846,16.168,-27.099,-4.26,196,0
80571,0.276,0.785,0.499,22.626,36.504,-24.237,16,0
80624,-0.242,0.946,0.497,-16.313,95.557,-1.45,9,0
80687,-0.265,1.141,0.895,-41.473,16.71,25.641,0,0
80740,0.275,1.114,1.057,-4.198,-46.992,39.13,16,0
80803,0.617,0.95,0.906,15.817,12.466,34.695,0,0
80856,0.166,0.665,0.908,10.084,36.595,14.153,16,0
80919,0.044,0.546,0.767,7.702,-37.618,-12.603,0,0
80983,0.106,0.54,0.482,-2.45,-41.916,-2.626,0,0
81046,0.189,0.607,0.508,0.595,-47.145,8.153,0,0
81099,0.496,0.692,0.565,21.687,-44.618,14,21,0
81199,0.478,1.008,0.512,24.603,-23.42,-9.939,16,0
81252,0.518,1.119,0.404,-8.824,0.473,1.527,24,0
81304,0.376,1.152,0.619,-31.542,67.481,28.908,17,0
81357,0.124,0.86,1.005,-29,73.947,52.74,16,0
81411,0.236,0.66,0.909,9.588,43.748,52.321,17,0
81474,0.361,0.644,0.651,24.191,45.84,54.321,0,0
81526,0.276,0.677,0.582,20.443,69.733,51.924,16,0
81580,0.152,0.668,0.662,19.748,59.557,50.718,17,0
81643,0.171,0.608,0.865,27.481,34.29,34.115,0,0
81707,0.341,0.62,0.838,27.489,39.076,-1.847,138,0
81766,0.041,0.593,1.06,6.145,35.947,-8.885,138,0
81826,0.13,0.504,0.982,0.511,-35.153,-22.466,138,0
81879,0.385,0.429,0.661,-13.489,-32.893,-61.603,16,0
81939,0.198,0.366,0.803,-28.519,10.267,-77.947,139,0
81992,-0.059,0.311,0.837,-20.756,-31.924,-85.267,16,0
82045,-0.067,0.451,0.624,-12.252,-55.122,-92.779,9,0
82098,-0.204,0.659,0.62,-6.359,-50.809,-87.214,9,0
82150,-0.139,0.887,0.932,-14.183,-68.015,-96.817,11,0
82206,0.089,1.265,0.996,-13.763,-81.099,-108.809,10,0
82259,0.151,1.005,0.92,-29.962,-44.687,-116.481,12,0
82312,-0.101,0.654,0.781,-37.71,-21.115,-139.092,13,0
82365,-0.339,0.332,0.643,-29.221,-18.031,-159.412,16,0
82429,-0.513,0.61,0.745,-22.405,-50.931,-149.053,0,0
82483,-0.395,0.404,0.632,-26.565,-85.45,-151.641,17,0
82536,-0.333,0.423,0.529,-37.427,-78.809,-166.74,24,0
82589,-0.406,0.305,0.572,-59.672,-51.618,-175.45,21,0
82647,-0.41,0.325,0.628,-95.008,-45.229,-187.382,24,0
82704,-0.42,0.171,0.674,-122.71,-0.053,-185.931,0,94
82752,-0.621,-0.06,0.85,-111.733,-12.565,-195.565,32,92
82798,-0.476,0.039,0.912,-119.931,60.908,-186.267,37,58
82852,-0.782,-0.333,1.158,-117.305,108.198,-185.733,0,42
82908,-0.758,-0.364,1.21,-109.679,105.443,-164.328,0,40
82962,-0.635,-0.535,1.196,-124.275,77.924,-126.115,0,39
83017,-0.533,-0.548,1.055,-105.435,-5.427,-106.298,0,40
83072,-0.246,-0.51,0.835,-104.901,-46.672,-81.153,0,41
83130,-0.094,-0.58,0.701,-111.42,-48.992,-66.061,0,43
83174,-0.104,-1.114,0.595,-105.191,-59.443,-56.794,17,42
83228,0.044,-1.032,0.458,-68.855,-60.588,-35.595,0,42
83283,0.197,-0.827,0.326,-23.565,-26.298,3.641,0,43
83338,0.098,-0.601,0.368,-4.573,18.191,34.023,0,41
83393,-0.022,-0.584,0.386,-3.45,28.305,33.198,0,42
83447,-0.148,-0.789,0.448,12.427,-1.13,25.321,0,40
83502,-0.077,-1.302,0.334,11.901,-4.947,3.687,0,39
83557,-0.05,-1.782,0.251,-24.954,46.511,-72.901,0,40
83615,-0.081,-1.185,0.311,-30.603,68.282,-28.969,0,50
83670,-0.218,-1.188,0.418,-38.198,20.672,4.969,0,48
83725,-0.236,-0.911,0.433,-25.031,-52.702,-20.412,0,48
83780,-0.055,-0.673,0.289,7.58,-81.26,-14.405,0,39
83834,0.099,-0.69,0.164,27.496,-32.824,-8.137,0,37
83878,0.064,-0.853,0.141,30.718,52.893,-14.534,16,38
83977,-0.156,-0.747,0.246,35.053,92.107,8.58,0,57
84033,-0.258,-0.711,0.334,18.122,67.237,13.756,0,57
84091,-0.255,-0.973,0.419,9.58,5.809,1.275,0,51
84147,-0.144,-1.385,0.45,8.313,-21.511,-14.168,0,52
84202,0.019,-1.249,0.624,-12.397,-0.87,11.107,0,59
84257,0.021,-1.144,0.714,16.481,-28.832,28.336,0,55
84314,0.1,-0.938,0.564,34.176,-24.45,10.794,0,57
84369,0.035,-0.786,0.53,27.351,7.099,1.595,0,57
84424,-0.051,-0.708,0.52,30.84,8.557,12.176,0,47
84480,-0.093,-0.659,0.474,27.58,0.481,12.649,0,45
84534,-0.09,-0.688,0.482,32.84,-10.031,10.771,0,46
84589,-0.088,-0.693,0.484,35.977,1.191,18.198,0,43
84647,-0.134,-0.579,0.538,34.519,22.748,33.725,0,43
84702,-0.217,-0.564,0.624,38.359,18.427,33.359,0,42
84757,-0.199,-0.544,0.725,52.351,7.809,40.58,0,41
84811,-0.305,-0.803,0.86,68.389,12.244,41.71,0,40
84867,-0.47,-1.216,0.988,68.863,18.458,24.252,0,38
84921,-0.456,-1.064,1.075,92.618,23.534,35.267,0,37
84975,-0.462,-0.785,1.16,101.573,9.687,30.893,0,37
85030,-0.472,-0.564,1.145,108.931,17.046,37.176,0,38
85085,-0.482,-0.411,0.997,135.588,8.466,45.824,0,38
85143,-0.496,-0.273,0.832,165.893,-4.359,63.42,0,39
85197,-0.53,-0.299,0.703,189.84,-41.053,69.16,0,41
85255,-0.442,-0.117,0.637,186.901,-46.534,60.695,0,82
85312,-0.294,0.098,0.53,162.107,-42.527,50.672,0,84
85369,-0.202,0.249,0.309,122.626,-34.321,20.053,0,85
85419,-0.206,0.462,0.32,69.954,-31,-8.71,38,86
85466,-0.326,0.823,0.664,12.832,-21.382,-27.298,34,87
85514,-0.348,1.178,0.879,-9.122,-19.206,-23.504,34,88
85580,-0.172,1.123,0.959,-12.244,10.084,-3.931,0,90
85628,-0.216,0.751,0.878,-32.847,48.519,14.008,37,90
85676,-0.329,0.469,0.873,-24.595,17.481,21.947,37,90
85723,-0.199,0.422,0.762,-9.87,-25.092,22.244,35,91
85771,-0.045,0.491,0.649,-11.794,-21.466,22.786,35,91
85818,-0.031,0.457,0.639,-18.069,-2.527,21.053,35,92
85865,-0.058,0.518,0.745,-28.603,0.687,13.71,35,91
85913,-0.01,0.487,0.741,-34.351,-5.863,10.733,34,91
85969,0.04,0.494,0.528,-48.344,9.573,7.412,0,90
86020,-0.117,0.278,0.353,-103.656,49.42,11.084,38,89
86067,-0.172,0.12,0.45,-120.046,21.214,9.824,37,89
86113,-0.233,0.018,0.586,-113.878,5.802,10.046,44,51
86169,-0.446,-0.261,0.838,-135.16,16.977,-44.725,0,88
86215,-0.396,-0.349,1.129,-170.565,68.427,-72.817,41,43
86268,-0.475,-0.494,1.086,-200.794,111.611,-82.55,0,39
86323,-0.772,-0.946,1.131,-203.794,123.115,-119.023,0,40
86377,-0.714,-0.743,1.033,-170.29,111.969,-123.687,0,41
86432,-0.775,-0.832,1.015,-114.405,71.359,-78.901,0,57
86493,-0.732,-0.53,0.93,-19.802,44.321,-20.817,0,86
86549,-0.787,-0.504,0.833,12.061,44.023,-1.267,0,81
86605,-0.785,-0.5,0.794,39.389,32.641,17.374,0,77
86705,-0.753,-0.36,0.683,32.206,19.992,26.534,0,87
86762,-0.708,-0.33,0.605,6.031,1.031,22.634,0,90
86819,-0.895,-0.637,0.717,-14.863,-29.198,-4.344,0,87
86877,-0.997,-0.819,0.895,-54.664,-48.863,14.817,0,95
86932,-0.867,-0.703,0.906,-68.26,-120.107,58.656,0,64
86986,-0.552,-0.701,0.632,-39.038,-188.511,58.046,0,50
87045,-0.169,-0.523,0.403,-5.695,-166.924,38.802,0,51
87102,-0.115,-0.46,0.434,-14.618,-89.107,37.153,0,102
87160,-0.344,-0.53,0.618,-38.061,-48.855,40.649,0,102
87218,-0.512,-0.47,0.681,-54.824,-72.634,48.618,0,103
87274,-0.524,-0.415,0.562,-71.809,-105.061,59.198,0,65
87329,-0.545,-0.475,0.491,-93.214,-117.802,65.298,0,58
87379,-0.629,-0.695,0.476,-115.649,-135.992,74.878,114,57
87430,-0.734,-1.123,0.392,-115.763,-172.099,70.481,111,57
87483,-0.701,-1.286,0.326,-86.733,-202.176,57.046,111,63
87541,-0.479,-1.137,0.199,-43.962,-198.046,63.031,108,0
87600,-0.288,-0.917,0.197,-13.649,-134.664,78.878,107,0
87658,-0.38,-0.883,0.314,-6.992,-81.168,85.985,106,0
87715,-0.473,-0.914,0.349,3.702,-78.779,76.756,104,0
87774,-0.477,-0.942,0.324,5.947,-68.931,58.298,102,0
87837,-0.504,-0.823,0.376,-9.015,-42.702,63.763,0,0
87901,-0.562,-0.775,0.467,-34.511,-55.061,77.282,0,0
87964,-0.514,-0.731,0.47,-47.702,-94.458,76.641,0,0
88030,-0.397,-0.79,0.437,-42.863,-105.809,76.573,0,0
88090,-0.271,-0.83,0.49,-30.115,-89.756,52.374,135,0
88148,-0.207,-0.927,0.533,-15.603,-75.412,38.649,118,0
88208,-0.163,-1.083,0.558,-13.13,-59.015,16.878,113,0
88265,-0.044,-1.025,0.576,3.817,-50.565,11.87,103,0
88323,0.049,-0.868,0.579,-9.489,-51.412,3.031,96,0
88380,0.151,-0.673,0.485,-14.634,-54.168,10.328,92,190
88436,0.06,-0.765,0.534,-25.695,-52.908,0.282,92,192
88497,-0.004,-0.865,0.54,-34.931,-29.695,-16.038,89,193
88553,-0.07,-0.844,0.562,-32.382,-11.397,-21.374,89,195
88610,-0.135,-0.809,0.599,-20.328,-9.695,-11.931,88,196
88660,-0.09,-0.777,0.611,-4.061,-18.137,0.168,90,62
88709,-0.094,-0.93,0.684,2.481,-21.16,0.947,90,58
88758,-0.061,-0.987,0.707,7.779,-12.794,9.771,90,53
88807,-0.066,-0.903,0.672,7.504,33.176,22.145,92,53
88864,-0.197,-0.922,0.713,-2.702,49.504,23.794,95,0
88913,-0.266,-0.948,0.631,2.756,32.031,22.733,95,59
88968,-0.271,-0.734,0.493,8.29,16.061,40.573,107,78
89025,-0.407,-0.758,0.496,-15.832,-5.26,40.366,93,0
89074,-0.471,-0.809,0.462,-22.244,-54.214,49.046,92,63
89123,-0.456,-0.851,0.396,-28.901,-84.267,39.962,89,59
89172,-0.355,-0.777,0.359,-36.557,-94.038,27.924,78,63
89220,-0.278,-0.712,0.351,-29.443,-92.573,36.107,74,47
89267,-0.203,-0.704,0.331,-15.145,-94.55,46.221,71,47
89315,-0.161,-0.858,0.316,-1.847,-92.656,41.634,69,48
89362,-0.088,-1.014,0.295,1.74,-76.962,31.481,68,50
89412,-0.041,-1.198,0.286,-3.061,-42.664,12.137,66,51
89502,-0.035,-1.132,0.309,-29.137,46.481,-24.863,65,52
89550,-0.176,-1.067,0.434,-55.206,57.74,-39.267,65,52
89597,-0.143,-0.934,0.448,-39.519,27,-42.183,65,52
89645,-0.004,-0.861,0.355,-10.977,13.534,-45.206,66,51
89693,0.058,-0.853,0.31,-2.519,38.405,-46.878,74,51
89741,0.036,-0.856,0.376,10.168,71.656,-32.221,78,50
89789,-0.082,-0.755,0.585,22.931,102.305,-13.13,76,51
89840,-0.339,-0.779,0.818,23.71,104.802,-17.756,77,51
89896,-0.424,-0.717,0.829,48.145,58.931,-16.443,78,0
89946,-0.375,-0.701,0.685,58.748,4.389,-5.198,78,59
90001,-0.292,-0.776,0.644,59.328,-21.924,-0.824,58,0
90048,-0.218,-0.81,0.602,66.42,-26.565,11.947,58,51
90094,-0.187,-0.748,0.636,55.718,-19.565,27.634,57,46
90142,-0.2,-0.758,0.695,42.16,-17.137,36.405,78,45
90188,-0.219,-0.85,0.683,23.023,3.214,32.992,58,43
90236,-0.397,-0.728,0.913,-0.939,32.55,39.962,76,46
90287,-0.62,-0.735,1.222,24.878,-14.26,80.802,77,43
90335,-0.668,-0.874,1.461,85.489,-69.71,74.603,76,43
90382,-0.535,-0.623,1.652,132.939,-63.16,92.611,76,40
90430,-0.653,-0.704,1.44,169.634,-27.435,103.16,77,40
90477,-0.826,-0.858,1.096,205.832,-58.168,103.962,78,41
90525,-0.615,-0.848,0.657,230.305,-96.687,99.214,78,44
90576,-0.384,-0.675,0.438,226.107,-95.122,82.023,130,46
90625,-0.204,-0.299,0.388,212.076,-90.672,43.565,76,51
90673,-0.054,0.467,0.584,160.992,-53.832,29.397,76,55
90724,-0.074,0.469,0.849,102.313,-38.168,22.939,75,59
90773,0.007,0.488,0.913,87.298,-69.015,16.794,72,70
90829,0.264,0.535,0.669,80.321,-70.282,22.924,71,0
90886,0.404,0.622,0.486,60.092,-18.099,32.527,70,0
90942,0.292,0.624,0.545,21.817,2.122,15.786,72,0
90998,0.278,0.499,0.516,7.626,-14.16,-4.779,70,0
91055,0.243,0.6,0.559,0.527,-8.458,-2.015,71,0
91111,0.219,0.592,0.582,6.153,-21.015,-0.992,70,0
91167,0.307,0.701,0.491,12.763,-11.153,4.702,70,0
91227,0.288,0.746,0.526,16.298,-0.84,5.267,70,0
91283,0.322,0.845,0.49,17.771,-0.611,5.45,69,0
91339,0.273,0.898,0.48,10.29,-0.122,7.206,68,0
91396,0.287,0.86,0.459,4.076,-18.183,0.366,68,0
91452,0.4,0.811,0.527,-3.466,-8.168,-3.115,67,0
91508,0.454,0.828,0.488,-3.626,3.786,4.382,66,0
91564,0.368,0.751,0.168,-13.847,24.107,27.076,65,0
91620,0.194,0.532,-0.076,-68.061,96.42,53.29,65,0
91673,-0.096,0.789,0.527,-153.405,121.412,61.397,65,151
91732,-0.221,0.118,0.864,-195.153,37.565,27.672,110,149
91790,-0.071,-0.089,0.937,-158.237,15.389,7.977,81,0
91839,0.121,-0.21,0.864,-130.87,64.244,30.26,63,72
91890,0.066,-0.09,1.02,-111.397,100.725,36.878,109,69
91948,-0.072,-0.04,1.266,-101.695,93.565,31.985,0,80
91999,-0.058,-0.144,1.491,-90.878,56.336,15.168,110,80
92051,0.063,-0.3,1.466,-78.061,29.443,-1.198,108,82
92143,-0.098,-0.63,1.317,-87.496,39.405,-36.45,58,76
92191,-0.281,-0.754,1.056,-93.183,61.389,-56.26,58,72
92242,-0.458,-0.822,0.878,-105.939,74.786,-105.458,57,63
92289,-0.537,-0.841,0.761,-102.443,84.809,-128.229,17,59
92336,-0.37,-0.666,0.582,-76.13,80.389,-128.214,59,57
92384,-0.19,-0.53,0.538,-69.962,97.221,-132.321,58,56
92435,-0.26,-0.628,0.582,-66.649,118.718,-135.389,16,55
92482,-0.165,-0.505,0.514,-59.725,118.817,-119.901,73,56
92530,-0.211,-0.625,0.548,-80.947,141.099,-111.45,80,56
92588,-0.298,-0.802,0.639,-96.977,128.763,-110.542,85,0
92647,-0.264,-0.918,0.653,-97.87,112.931,-81.344,94,0
92705,-0.326,-1.025,0.724,-73.687,78.618,-73.672,100,0
92760,-0.261,-1.032,0.686,-42.863,-10.229,-69.29,52,0
92815,-0.041,-0.994,0.472,-18.969,-54.664,-46.107,58,0
92873,0.136,-1.046,0.28,-4.221,-33.321,-9.282,117,0
92932,0.129,-1.304,0.23,-4.725,31.427,13.008,119,0
92991,-0.036,-1.065,0.355,-12.313,46.015,21.611,117,0
93048,-0.148,-0.981,0.384,12.573,-14.153,48.511,110,0
93107,-0.077,-1.04,0.233,29.16,-69.695,38.26,101,0
93166,-0.002,-0.847,0.15,28.359,-65.122,29.008,93,0
93215,-0.04,-0.68,0.191,15.908,-44.595,28.656,88,61
93264,-0.093,-0.734,0.25,22.435,-50.794,34.962,84,62
93313,-0.046,-0.88,0.19,35.718,-59.183,33.481,84,55
93360,0.032,-0.926,0.139,37.672,-39.718,24.397,80,51
93408,0.046,-1.042,0.131,21.336,-9.221,13.412,83,51
93456,-0.029,-1.153,0.226,2.74,5.954,0.031,79,51
93503,-0.042,-1.183,0.255,-9.397,-2.366,-13.366,83,50
93554,0.007,-1.341,0.188,-22.405,-1.573,-27.504,79,52
93602,0.026,-1.238,0.185,-40.046,18.931,-43.55,79,52
93650,0.046,-0.922,0.243,-28.168,23.733,-23.595,82,58
93700,0.101,-0.879,0.229,1.145,37.634,4.511,81,74
93748,0.107,-0.879,0.26,10.206,58.023,8.153,80,65
93805,0.078,-0.74,0.342,9.252,70.069,4.542,85,0
93861,0.034,-0.688,0.383,0.229,62.786,-7.977,88,0
93919,-0.031,-0.785,0.4,-13.45,48.359,-30.58,97,0
93977,-0.106,-0.833,0.472,-9.099,35.382,-40.557,102,0
94038,-0.193,-0.902,0.568,10.412,23.878,-27.397,107,0
94096,-0.269,-0.919,0.677,17.26,7,-0.267,106,0
94153,-0.265,-0.937,0.71,34.87,-27.466,26.16,101,0
94212,-0.26,-1.065,0.627,43.641,-37.588,44.718,98,0
94269,-0.344,-1.236,0.645,42.496,-23.687,61.718,97,0
94326,-0.359,-0.958,0.66,79.985,-52.099,100.924,93,0
94375,-0.347,-0.996,0.547,107.985,-79.916,102.588,100,57
94425,-0.325,-0.976,0.5,119.916,-75.321,109.031,90,54
94472,-0.346,-0.999,0.515,120.87,-58.214,101.84,78,43
94522,-0.301,-0.828,0.551,118.519,-27.115,83.023,76,43
94570,-0.251,-0.551,0.564,110.427,5.412,86.886,76,42
94617,-0.192,-0.26,0.585,102.779,27.527,110.626,75,44
94664,-0.333,-0.13,0.623,78.366,30.817,123.55,75,44
94709,-0.444,-0.125,0.614,58.855,19.595,120.962,37,45
94800,-0.679,-0.097,0.689,-9.183,45.023,83.664,76,51
94855,-0.828,-0.195,0.829,-38.244,44.344,58.313,159,80
94908,-0.754,-0.151,0.834,-62.176,85.076,22.71,155,70
94962,-0.744,-0.023,0.992,-67.672,107.344,47.664,152,81
95020,-0.678,-0.116,1.025,-48.695,29.542,49.183,148,88
95074,-0.504,-0.137,0.753,-38.832,22.115,36.458,145,86
95126,-0.549,-0.154,0.818,-37.664,3.305,31.183,118,97
95180,-0.519,-0.109,0.89,-17.817,-26.565,15.603,142,97
95236,-0.55,0.106,0.899,2.275,-46.389,22.389,141,101
95290,-0.597,0.215,0.838,3.985,-45.557,40.779,141,105
95338,-0.682,0.243,0.785,-2.153,2.015,82.427,23,99
95396,-0.847,0.186,0.862,1.84,-1.611,93.786,0,123
95462,-0.75,0.318,0.786,-5.015,-26.931,99.878,17,0
95517,-0.797,0.149,0.69,-14.893,20.313,88.221,23,0
95574,-0.858,0.177,0.838,-6.847,15.87,87.137,16,0
95629,-0.72,0.256,0.687,2.573,-18.229,67.061,19,0
95684,-0.502,0.299,0.545,7.74,5.191,47.817,17,0
95739,-0.43,0.342,0.594,-1.679,52.939,37.366,19,0
95795,-0.458,0.183,0.688,-13.206,44.489,24.847,17,0
95851,-0.463,0.192,0.626,-13.74,13.786,9.504,19,0
95906,-0.555,0.318,0.606,-17.733,20.573,-0.176,17,0
95965,-0.75,0.413,0.69,-18.344,22.427,4.573,19,0
96021,-0.806,0.383,0.768,-14.878,2.244,-1.695,20,0
96076,-0.708,0.272,0.706,-15.847,8.366,-29.13,20,0
96132,-0.617,0.361,0.639,-27.977,74.557,-56.267,18,0
96182,-0.957,0.323,0.753,-42.962,98.565,-62.496,19,99
96232,-1.079,0.247,0.706,-35.038,54.962,-42.305,21,97
96282,-0.969,0.183,0.554,-39.756,14.153,-27.015,25,98
96332,-0.819,0.065,0.582,-50.649,-5.229,-28.092,27,100
96382,-0.772,-0.01,0.587,-55.359,-9.519,-20.107,26,101
96436,-0.726,0.046,0.633,-57.893,-35.382,-5.863,28,102
96487,-0.661,-0.105,0.705,-61.29,-79.557,-10.969,28,105
96538,-0.465,-0.213,0.6,-55.588,-99.939,-28.977,30,106
96604,-0.325,-0.239,0.545,-55.473,-59.092,-47.954,0,0
96670,-0.329,-0.363,0.552,-52.397,4.191,-88.275,0,0
96730,-0.578,-0.502,0.674,-38,35.061,-103.13,91,0
96782,-0.586,-0.45,0.74,-26.374,24.702,-104.115,10,135
96833,-0.502,-0.416,0.771,-34.595,43.641,-84.214,11,129
96884,-0.529,-0.453,0.825,-44.069,30.924,-90.725,17,126
96943,-0.575,-0.609,0.767,-34.962,12.992,-85.603,86,122
96997,-0.62,-0.664,0.648,-25.336,22.351,-70.71,71,120
97050,-0.694,-0.821,0.559,-23.351,50.824,-72.611,64,119
97108,-0.813,-0.848,0.601,-27.198,66.748,-44.595,62,0
97162,-0.794,-0.775,0.551,-31.565,22.794,-16.702,63,116
97221,-0.65,-0.82,0.454,-29.405,-30.237,-30.702,75,0
97280,-0.452,-0.773,0.38,-14.794,-64.656,-25.031,70,0
97339,-0.277,-0.741,0.329,0.328,-63.611,-8.679,70,0
97400,-0.215,-0.719,0.456,2.832,-31.069,2.267,71,0
97457,-0.243,-0.725,0.567,9.252,-10.504,-2.084,16,0
97512,-0.315,-0.803,0.666,17.779,-18.45,-15.443,16,0