Timestamp(ms),AccelX(g),AccelY(g),AccelZ(g),GyroX(deg/s),GyroY(deg/s),GyroZ(deg/s),DistanceLeft(cm),DistanceRight(cm)
22318,-0.153,-0.983,0.103,-1.115,-3.092,1.275,0.0,77.0
22371,-0.146,-0.979,0.104,-1.160,-2.374,3.985,0.0,78.0
22423,-0.151,-0.998,0.091,-0.878,-1.198,6.008,0.0,78.0
22476,-0.162,-0.988,0.088,-1.061,1.573,8.145,0.0,78.0
22530,-0.196,-0.984,0.136,-1.412,-1.305,4.382,0.0,78.0
22583,-0.181,-0.977,0.106,-2.771,-13.939,7.031,0.0,83.0
22637,-0.170,-1.001,0.075,-0.725,0.786,11.290,0.0,84.0
22690,-0.374,-0.951,0.115,0.229,12.779,32.855,0.0,83.0
22748,-1.073,-0.900,0.392,25.985,122.557,85.679,0.0,110.0
22802,-2.000,-0.991,0.942,52.824,57.275,186.282,0.0,89.0
22856,-1.766,-1.591,0.395,72.191,-107.832,250.130,0.0,99.0
22910,-1.014,-1.648,-0.003,116.420,-76.443,250.130,0.0,88.0
22961,-0.292,-1.807,0.115,83.267,-179.443,250.130,137.0,83.0
23014,0.641,-1.210,-0.768,146.626,-131.053,204.107,0.0,89.0
23066,0.309,0.266,-0.286,46.863,102.046,90.664,0.0,58.0
23123,-0.737,0.208,0.564,-70.679,169.115,-0.565,0.0,89.0
23175,-1.218,-0.097,0.910,0.977,-59.817,22.313,123.0,59.0
23222,-0.718,0.159,0.583,7.229,-124.244,13.427,125.0,59.0
23274,-0.498,0.155,0.173,18.954,-19.771,-2.725,0.0,61.0
23330,-0.863,0.168,0.566,7.206,19.702,11.710,0.0,58.0
23384,-0.748,0.087,0.578,2.908,-35.748,8.168,0.0,83.0
23436,-0.611,0.188,0.524,5.038,-32.565,-14.107,0.0,60.0
23492,-0.820,0.224,0.675,5.084,-23.267,-9.885,0.0,68.0
23545,-0.745,0.180,0.613,15.565,-37.107,-14.809,0.0,72.0
23602,-0.741,0.193,0.568,17.863,-32.588,-10.794,0.0,71.0
23658,-0.656,0.159,0.525,4.351,-15.473,-15.649,0.0,79.0
23711,-0.763,0.176,0.660,4.069,-28.298,-20.084,0.0,71.0
23768,-0.700,0.157,0.636,-2.099,-42.916,-26.580,0.0,81.0
23821,-0.688,0.198,0.725,2.145,-19.641,-14.588,0.0,74.0
23875,-0.744,0.224,0.738,7.382,-21.130,-17.015,0.0,81.0
23928,-0.572,0.061,0.511,-0.160,-18.885,-16.366,0.0,80.0
23982,-0.603,0.039,0.653,-15.061,-17.466,-13.649,0.0,81.0
24036,-0.542,0.122,0.765,-10.664,-19.435,-25.099,0.0,83.0
24089,-0.591,0.055,0.784,-1.847,-4.336,-34.595,0.0,86.0
24146,-0.557,0.014,0.706,0.511,4.733,-37.069,0.0,85.0
24200,-0.720,0.045,0.689,2.603,18.656,-45.962,0.0,85.0
24254,-0.667,-0.024,0.612,-10.924,3.435,-34.885,0.0,84.0
24307,-0.647,-0.029,0.690,-25.695,1.771,-37.740,0.0,83.0
24361,-0.610,-0.103,0.725,-26.824,-6.298,-40.191,0.0,82.0
24415,-0.564,-0.208,0.724,-27.305,8.298,-46.229,0.0,82.0
24469,-0.716,-0.258,0.751,-19.115,0.176,-44.420,0.0,80.0
24522,-0.604,-0.180,0.670,-25.542,10.893,-40.473,0.0,78.0
24576,-0.652,-0.247,0.747,-18.580,2.435,-38.290,0.0,75.0
24632,-0.560,-0.307,0.620,-23.473,11.344,-39.672,0.0,76.0
24685,-0.655,-0.429,0.719,-18.527,8.053,-38.099,0.0,75.0
24738,-0.521,-0.469,0.633,-23.443,13.947,-42.893,0.0,74.0
24792,-0.613,-0.392,0.703,-16.443,15.595,-40.244,0.0,75.0
24846,-0.645,-0.466,0.640,-17.985,17.504,-41.351,0.0,77.0
24899,-0.621,-0.439,0.625,-20.366,6.832,-35.611,0.0,76.0
24952,-0.560,-0.555,0.595,-17.389,3.809,-33.809,0.0,74.0
25049,-0.584,-0.546,0.591,-20.939,17.221,-29.527,0.0,74.0
25102,-0.538,-0.638,0.577,-24.153,-4.618,-37.481,0.0,74.0
25159,-0.597,-0.684,0.535,-19.214,5.382,-30.779,0.0,93.0
25212,-0.568,-0.590,0.533,-23.099,-7.489,-22.031,0.0,80.0
25267,-0.526,-0.701,0.538,-25.664,-2.702,-17.420,0.0,82.0
25321,-0.549,-0.667,0.600,-21.618,-11.137,-11.069,0.0,81.0
25374,-0.437,-0.723,0.496,-13.939,-14.275,-12.824,0.0,84.0
25428,-0.368,-0.695,0.397,-16.000,-0.107,-12.176,0.0,82.0
25483,-0.401,-0.737,0.481,-24.832,-10.275,-16.611,0.0,84.0
25537,-0.305,-0.728,0.382,-23.855,-6.275,-24.763,0.0,83.0
25593,-0.373,-0.810,0.393,-26.695,9.023,-28.176,0.0,84.0
25649,-0.382,-0.799,0.387,-31.221,11.710,-29.397,0.0,91.0
25703,-0.345,-0.826,0.342,-37.046,13.412,-24.687,0.0,101.0
25758,-0.372,-0.833,0.323,-46.771,5.603,-41.206,0.0,99.0
25812,-0.317,-0.878,0.271,-49.405,26.229,-22.504,0.0,85.0
25867,-0.491,-0.930,0.442,-44.038,15.435,-12.000,0.0,97.0
25921,-0.223,-0.939,0.271,-39.298,-25.931,-16.405,0.0,86.0
25975,-0.209,-0.941,0.220,-33.679,12.450,-20.557,0.0,89.0
26031,-0.236,-0.888,0.193,-44.038,-7.809,-24.466,0.0,91.0
26088,-0.229,-1.113,0.152,-33.954,-19.870,-34.863,0.0,92.0
26139,-0.263,-1.110,0.201,-30.695,-46.611,-38.947,136.0,94.0
26190,-0.154,-1.098,0.149,-24.748,-51.405,-33.427,146.0,85.0
26242,-0.135,-1.025,0.079,-11.435,-16.214,-19.511,137.0,91.0
26293,-0.176,-0.930,0.040,-2.435,20.267,-2.763,139.0,93.0
26343,-0.347,-0.990,0.106,2.916,28.053,18.244,147.0,78.0
26394,-0.248,-0.968,0.025,4.511,23.542,44.748,149.0,77.0
26445,-0.241,-1.017,0.061,2.305,39.832,54.374,149.0,78.0
26500,-0.278,-0.968,0.101,12.725,50.076,50.099,0.0,93.0
26557,-0.332,-1.029,0.102,10.160,12.618,40.031,0.0,93.0
26612,-0.353,-0.967,0.090,20.275,2.214,44.053,0.0,93.0
26669,-0.360,-0.957,0.044,26.061,9.634,43.672,0.0,119.0
26723,-0.477,-0.897,0.110,26.672,12.519,42.023,0.0,97.0
26779,-0.475,-0.849,0.032,24.702,-2.656,43.733,0.0,114.0
26833,-0.521,-0.839,0.019,13.489,20.153,51.092,0.0,94.0
26889,-0.696,-0.813,0.133,3.160,9.840,61.985,0.0,93.0
26943,-0.731,-0.828,0.102,3.756,-7.344,75.847,0.0,93.0
26998,-0.797,-0.766,0.119,3.046,-1.924,91.420,0.0,96.0
27056,-0.960,-0.662,0.118,7.427,11.305,108.214,0.0,97.0
27108,-1.313,-0.502,0.018,-3.191,25.672,145.397,153.0,84.0
27159,-1.653,-0.305,0.176,-26.061,36.748,231.160,146.0,86.0
27210,-1.512,-0.516,0.248,-23.145,-27.366,250.130,139.0,93.0
27261,-0.785,-0.559,-0.022,2.649,-40.893,250.130,132.0,101.0
27314,-0.477,-0.502,0.132,5.527,-23.962,177.733,127.0,107.0
27365,-0.170,-0.103,-0.276,-8.145,-12.458,120.183,124.0,110.0
27417,-0.667,0.435,0.220,-14.221,44.962,60.092,123.0,115.0
27471,-0.833,0.246,0.182,-12.962,-20.763,44.534,122.0,117.0
27528,-0.721,0.653,0.195,-5.466,-40.855,24.893,123.0,187.0
27572,-0.770,0.365,0.222,-4.298,-5.527,20.191,30.0,68.0
27624,-0.829,0.509,0.181,9.137,-9.015,20.458,0.0,52.0
27679,-0.780,0.436,0.123,1.595,-16.664,14.695,0.0,51.0
27765,-0.768,0.417,0.335,3.504,-42.275,-6.947,30.0,51.0
27808,-0.663,0.542,0.238,19.244,-32.641,-12.183,30.0,51.0
27850,-0.720,0.473,0.149,20.321,-14.824,-11.557,30.0,51.0
27899,-0.840,0.573,0.347,21.176,-20.710,-22.885,145.0,51.0
27954,-0.852,0.560,0.242,25.626,-38.771,-21.351,144.0,70.0
28003,-0.784,0.527,0.200,29.313,-26.466,-17.107,145.0,51.0
28052,-0.795,0.465,0.292,25.817,-41.954,-21.695,146.0,51.0
28101,-0.696,0.525,0.207,32.656,-36.099,-23.389,145.0,51.0
28150,-0.742,0.567,0.182,29.153,-26.786,-26.710,146.0,51.0
28200,-0.830,0.625,0.187,19.405,-28.160,-35.427,145.0,52.0
28250,-0.874,0.502,0.465,3.191,-40.939,-21.748,146.0,53.0
28299,-0.642,0.570,0.271,27.069,-30.153,-21.962,146.0,54.0
28352,-0.727,0.518,0.174,23.260,-1.374,-18.771,146.0,53.0
28401,-0.825,0.526,0.365,7.924,-6.954,-21.420,147.0,51.0
28450,-0.862,0.503,0.334,4.840,-8.893,-25.748,146.0,53.0
28500,-0.742,0.373,0.286,7.282,-26.160,-15.733,147.0,54.0
28550,-0.620,0.378,0.322,11.748,10.015,-18.473,148.0,58.0
28601,-0.848,0.305,0.473,6.298,28.931,-27.931,148.0,73.0
28651,-0.878,0.368,0.421,8.702,6.977,-32.763,122.0,86.0
28695,-0.827,0.230,0.315,14.153,10.061,-19.840,30.0,69.0
28740,-0.870,0.286,0.453,17.550,3.092,-26.000,30.0,78.0
28793,-0.895,0.290,0.375,18.290,-3.649,-24.702,122.0,90.0
28845,-0.903,0.317,0.350,15.458,-8.565,-20.710,123.0,113.0
28897,-0.900,0.196,0.428,17.878,-20.328,-22.733,122.0,112.0
28949,-0.887,0.266,0.433,26.626,-14.427,-17.695,123.0,112.0
29006,-0.952,0.344,0.414,36.817,-7.885,-17.145,122.0,112.0
29058,-0.864,0.230,0.271,39.427,-26.641,-12.397,122.0,115.0
29107,-0.849,0.196,0.544,27.275,-11.153,-20.115,122.0,90.0
29158,-1.068,0.181,0.786,46.176,-5.878,-10.130,121.0,115.0
29206,-1.087,-0.081,1.002,56.893,-46.573,-6.695,120.0,83.0
29260,-1.105,0.007,1.090,93.389,-53.046,-21.015,119.0,119.0
29308,-1.051,0.012,0.406,175.130,-27.214,12.000,116.0,84.0
29358,-1.534,0.464,0.106,200.443,-40.000,27.786,113.0,81.0
29411,-1.175,0.380,-0.647,157.038,-135.740,78.290,0.0,85.0
29464,-0.663,0.618,-0.445,93.992,-164.542,71.115,0.0,83.0
29518,-0.281,0.586,-0.166,27.985,-84.962,54.351,0.0,87.0
29573,-0.464,0.575,0.295,5.427,-45.389,23.931,0.0,98.0
29627,-0.521,0.534,0.343,26.008,-61.344,12.359,0.0,100.0
29684,-0.432,0.598,0.234,27.954,-86.740,-9.237,0.0,104.0
29739,-0.325,0.629,0.064,26.573,-63.275,-15.115,0.0,103.0
29795,-0.301,0.728,0.187,25.863,-31.649,-29.435,0.0,121.0
29849,-0.250,0.911,0.505,-45.595,-18.389,-27.084,0.0,102.0
29904,-0.410,0.546,0.602,-33.969,-25.893,-39.809,0.0,105.0
29959,-0.594,0.728,0.776,6.481,0.183,-27.565,0.0,100.0
30013,-0.517,0.627,0.536,-4.519,6.626,-12.748,0.0,95.0
30067,-0.518,0.549,0.457,-20.359,-28.420,-20.298,0.0,96.0
30123,-0.445,0.665,0.523,-10.542,-32.405,-21.924,0.0,111.0
30180,-0.451,0.644,0.577,-10.389,4.908,-15.687,0.0,102.0
30235,-0.586,0.561,0.658,-14.336,7.786,-15.557,0.0,102.0
30289,-0.554,0.537,0.630,-2.641,-17.779,-10.366,0.0,94.0
30388,-0.392,0.621,0.382,-18.015,-5.496,-2.855,0.0,107.0
30442,-0.511,0.506,0.645,-38.221,-8.534,-16.695,0.0,95.0
30496,-0.449,0.420,0.551,-14.290,10.137,-5.565,0.0,99.0
30551,-0.428,0.463,0.323,-56.183,-6.542,-24.649,0.0,91.0
30605,-0.079,0.256,0.146,-94.412,-11.244,-58.756,0.0,92.0
30649,-0.213,0.354,0.410,-131.061,25.076,-100.527,38.0,82.0
30705,-0.360,-0.178,0.321,-147.298,47.664,-104.573,0.0,86.0
30759,-0.735,-0.295,0.481,-160.886,49.069,-124.420,0.0,78.0
30813,-1.052,-0.464,0.837,-174.969,46.389,-106.244,0.0,79.0
30866,-0.957,-0.520,0.786,-147.160,13.481,-78.733,0.0,76.0
30919,-0.851,-0.777,0.674,-117.053,26.290,-54.298,0.0,75.0
30973,-0.624,-0.783,0.528,-81.107,15.214,-33.397,0.0,88.0
31028,-0.692,-0.863,0.462,-63.382,21.115,-39.878,0.0,90.0
31082,-0.654,-0.909,0.457,-66.275,17.229,-27.580,0.0,88.0
31138,-0.638,-0.817,0.484,-53.496,3.328,-38.550,0.0,84.0
31194,-0.614,-0.829,0.378,-35.313,-3.076,-29.321,0.0,103.0
31249,-0.507,-0.793,0.285,-22.015,9.328,-23.969,0.0,102.0
31303,-0.610,-0.867,0.217,-20.901,7.985,-25.557,0.0,101.0
31358,-0.562,-0.835,0.244,-22.985,-2.389,-20.015,0.0,100.0
31413,-0.455,-0.828,0.188,-19.397,-3.855,-22.115,0.0,99.0
31468,-0.443,-0.913,0.124,-19.214,-3.908,-26.855,0.0,98.0
31522,-0.452,-0.854,0.101,-20.458,-3.847,-31.092,0.0,96.0
31577,-0.343,-0.927,0.083,-16.710,0.198,-35.595,0.0,96.0
31634,-0.110,-0.833,-0.066,-9.824,-6.214,-51.489,0.0,95.0
31689,-0.268,-1.071,0.090,-22.672,15.588,-77.847,0.0,99.0
31737,-0.318,-0.901,0.163,-38.954,-19.573,-84.748,59.0,122.0
31784,-0.229,-1.318,0.037,-33.809,-30.947,-96.855,56.0,120.0
31833,-0.118,-0.968,0.068,-26.206,-11.382,-69.550,57.0,121.0
31881,-0.082,-1.190,0.071,-29.305,-18.489,-77.458,58.0,120.0
31930,0.006,-1.066,0.046,-12.840,-7.389,-61.290,59.0,147.0
31982,-0.042,-0.969,-0.008,-14.756,-7.008,-64.931,60.0,0.0
32021,-0.017,-1.082,-0.033,-19.962,-9.176,-49.290,61.0,0.0
32077,0.015,-1.022,-0.008,-12.863,-13.573,-37.336,62.0,0.0
32116,0.066,-1.018,-0.015,-12.412,-5.863,-22.962,62.0,0.0
32164,0.061,-0.994,-0.034,-8.794,-10.168,-16.939,63.0,128.0
32218,0.138,-1.009,-0.058,-5.702,-16.740,-5.489,63.0,0.0
32257,0.189,-0.999,-0.107,1.427,-18.282,1.405,63.0,0.0
32309,0.180,-1.029,-0.093,0.740,-8.160,4.328,63.0,0.0
32348,0.211,-0.991,-0.102,1.565,-11.252,4.321,64.0,0.0
32401,0.215,-1.015,-0.156,1.305,1.809,3.962,62.0,0.0
32443,0.182,-1.010,-0.105,-3.771,-5.107,5.405,62.0,0.0
32495,0.187,-1.011,-0.146,1.160,1.847,5.779,62.0,0.0
32534,0.145,-1.003,-0.058,-2.611,-3.160,6.511,62.0,0.0
32583,0.164,-1.003,-0.057,0.176,-11.344,3.290,62.0,129.0
32631,0.163,-1.049,-0.068,1.588,-21.198,0.145,62.0,131.0
32685,0.211,-1.031,-0.065,2.580,-15.466,3.038,62.0,0.0
32723,0.165,-0.998,-0.085,8.130,-13.229,1.565,61.0,0.0
32776,0.175,-1.015,-0.122,5.649,-7.008,0.611,61.0,0.0
32815,0.129,-0.992,-0.066,6.069,-0.359,9.939,61.0,0.0
32863,0.162,-1.004,-0.091,2.000,-8.076,1.321,61.0,132.0
32958,0.111,-1.031,-0.034,3.710,-20.962,3.702,60.0,130.0
33007,0.130,-0.958,-0.094,5.992,-10.595,5.420,60.0,130.0
33055,-0.082,-0.835,0.099,11.397,-10.908,17.534,59.0,122.0
33104,-0.298,-0.878,-0.154,45.221,-21.847,31.282,60.0,151.0
33153,-0.385,-1.021,-0.147,10.267,-45.710,45.771,59.0,121.0
33203,-0.065,-1.062,-0.257,5.519,-33.023,66.458,90.0,124.0
33253,0.021,-1.287,-0.138,-13.244,-51.939,64.618,87.0,124.0
33302,0.156,-1.210,-0.035,-22.397,-64.977,56.557,84.0,103.0
33353,0.306,-1.318,0.077,-20.115,-70.061,32.710,81.0,103.0
33401,0.385,-1.352,0.098,17.473,-52.824,6.580,80.0,104.0
33451,0.147,-1.023,-0.208,45.168,34.374,-33.298,80.0,107.0
33500,-0.418,-0.813,-0.089,14.473,77.092,-18.695,81.0,131.0
33551,-0.649,-0.917,0.098,-1.565,-29.351,8.840,80.0,143.0
33601,-0.149,-0.948,-0.029,-15.870,-74.672,30.977,79.0,133.0
33649,-0.013,-1.035,0.066,-4.336,-30.969,25.260,78.0,90.0
33697,-0.105,-1.042,0.083,16.130,-9.718,23.947,78.0,109.0
33751,-0.239,-1.169,0.178,11.603,-11.328,26.191,149.0,111.0
33806,-0.210,-1.333,0.378,24.550,-35.115,27.649,147.0,94.0
33857,-0.242,-1.282,0.435,64.542,-17.282,31.344,147.0,94.0
33912,-0.298,-1.429,0.386,110.076,-18.046,32.260,0.0,93.0
33967,-0.328,-1.011,0.316,134.176,-11.748,48.901,0.0,82.0
34021,-0.395,-0.684,-0.038,117.496,-9.542,54.985,0.0,79.0
34074,-0.516,-0.781,0.090,92.427,-38.153,60.008,0.0,80.0
34129,-0.329,-0.475,0.542,61.855,-54.641,72.366,0.0,90.0
34184,-0.081,-0.636,0.457,90.832,-33.603,79.626,0.0,78.0
34241,-0.119,-0.537,0.345,71.756,8.702,44.641,0.0,81.0
34294,-0.370,-0.529,0.515,23.275,1.321,39.718,0.0,81.0
34350,-0.339,-0.303,0.508,15.656,-5.634,26.183,0.0,94.0
34404,-0.448,-0.454,0.597,0.450,23.908,19.420,0.0,81.0
34459,-0.573,-0.460,0.759,-11.267,1.695,20.473,0.0,109.0
34514,-0.383,-0.477,0.707,-10.244,-19.649,18.603,0.0,93.0
34570,-0.489,-0.371,0.732,-14.290,10.504,9.802,0.0,97.0
34624,-0.659,-0.368,0.687,-8.481,3.466,12.122,0.0,83.0
34678,-0.754,-0.481,0.862,-12.374,-14.992,32.771,0.0,86.0
34736,-0.635,-0.521,1.021,5.000,-15.435,51.198,0.0,88.0
34791,-0.325,-0.720,0.873,51.313,-41.756,57.626,0.0,91.0
34845,-0.271,-0.371,0.628,61.824,2.687,20.565,0.0,86.0
34899,-0.512,-0.201,0.601,41.107,21.229,28.718,0.0,86.0
34955,-0.531,0.015,0.549,27.107,5.649,14.153,0.0,86.0
35009,-0.698,-0.007,0.608,9.542,32.595,26.557,0.0,88.0
35063,-0.870,-0.063,0.765,12.916,32.565,55.802,0.0,92.0
35119,-0.754,-0.281,1.004,-5.687,-15.771,67.244,0.0,96.0
35174,-0.260,-0.312,0.754,27.649,-43.779,36.748,0.0,91.0
35232,-0.317,-0.201,0.701,15.855,9.656,11.519,0.0,89.0
35287,-0.504,-0.017,0.675,25.153,23.573,-4.664,0.0,90.0
35342,-0.609,0.061,0.554,14.863,29.015,-9.481,0.0,96.0
35397,-0.726,0.294,0.343,3.634,60.588,0.672,0.0,95.0
35451,-0.968,0.258,0.696,-42.618,48.664,19.733,0.0,89.0
35507,-0.776,-0.233,0.660,-53.290,-12.237,16.641,0.0,91.0
35562,-0.687,-0.136,0.878,-47.290,12.779,23.427,0.0,97.0
35659,-0.727,-0.144,0.432,-40.435,6.443,4.931,0.0,92.0
35715,-0.826,0.102,0.529,-68.893,10.344,27.794,0.0,99.0
35778,-0.651,-0.086,0.665,-82.481,-5.679,20.260,0.0,94.0
35833,-0.708,-0.179,0.784,-65.214,-13.878,5.656,0.0,109.0
35888,-0.664,-0.433,0.625,-55.237,-13.366,1.366,0.0,110.0
35934,-0.717,-0.483,0.737,-36.534,-28.321,-4.023,16.0,134.0
35980,-0.741,-0.325,0.800,-28.061,-51.527,9.237,17.0,137.0
36026,-0.443,-0.413,0.599,-1.573,-30.389,-4.061,16.0,138.0
36072,-0.545,-0.353,0.702,-3.779,3.198,0.588,17.0,139.0
36118,-0.654,-0.249,0.630,-5.679,-7.389,-25.183,17.0,138.0
36162,-0.623,-0.406,0.617,-31.481,-24.374,-26.412,16.0,101.0
36211,-0.501,-0.286,0.487,-26.893,2.618,-22.290,13.0,147.0
36257,-0.576,-0.458,0.605,-44.626,27.603,-28.023,16.0,133.0
36300,-0.601,-0.414,0.666,-39.504,8.947,-41.656,17.0,92.0
36346,-0.465,-0.516,0.402,-47.214,25.260,-47.504,16.0,128.0
36389,-0.644,-0.448,0.509,-51.634,40.374,-46.779,16.0,92.0
36433,-0.632,-0.685,0.494,-63.496,26.794,-46.382,16.0,97.0
36476,-0.515,-0.545,0.416,-49.748,41.740,-49.405,17.0,97.0
36520,-0.601,-0.663,0.441,-57.580,54.664,-48.718,11.0,95.0
36566,-0.637,-0.707,0.397,-51.656,47.122,-47.534,16.0,118.0
36612,-0.598,-0.659,0.283,-63.244,36.832,-46.481,17.0,92.0
36665,-0.535,-0.729,0.217,-70.176,45.817,-35.107,0.0,85.0
36719,-0.644,-0.732,0.324,-66.817,22.466,-35.977,0.0,84.0
36774,-0.452,-0.871,0.097,-62.748,20.542,-37.542,0.0,108.0
36829,-0.480,-0.873,0.095,-44.733,48.763,-34.374,0.0,105.0
36884,-0.767,-0.994,0.104,-24.901,48.626,-16.328,0.0,106.0
36939,-0.754,-0.818,-0.001,-19.183,35.435,7.733,0.0,104.0
36994,-0.602,-0.864,-0.027,-31.550,26.710,15.740,0.0,104.0
37051,-0.647,-0.949,0.085,-22.328,16.893,16.794,0.0,101.0
37106,-0.493,-0.944,-0.051,0.588,26.336,16.115,0.0,101.0
37163,-0.577,-0.926,-0.065,3.084,26.015,12.328,0.0,125.0
37217,-0.653,-0.851,-0.057,10.466,29.519,12.733,0.0,100.0
37273,-0.627,-0.838,-0.074,15.504,-4.046,14.771,0.0,125.0
37327,-0.532,-0.829,-0.103,18.504,21.458,9.122,0.0,99.0
37384,-0.438,-0.852,-0.059,28.267,65.458,7.527,0.0,124.0
37438,-0.645,-0.905,0.145,50.275,-2.771,7.267,0.0,98.0
37492,-0.399,-0.752,-0.097,59.847,-34.115,-12.374,0.0,96.0
37550,-0.393,-1.077,-0.235,58.519,7.473,-33.130,0.0,94.0
37604,-0.382,-0.849,-0.236,44.603,75.160,-42.328,0.0,94.0
37661,-0.652,-0.816,-0.084,28.305,56.863,-52.878,0.0,143.0
37718,-0.504,-0.761,-0.085,3.824,13.092,-40.832,0.0,118.0
37773,-0.394,-0.860,-0.092,-8.038,7.893,-28.344,0.0,111.0
37828,-0.332,-0.926,-0.028,-6.527,9.130,-5.603,0.0,116.0
37883,-0.365,-0.939,0.014,11.099,19.603,-19.115,0.0,108.0
37939,-0.280,-0.932,-0.026,20.748,21.565,-9.519,0.0,106.0
37994,-0.326,-0.922,-0.028,17.802,29.557,-32.252,0.0,109.0
38052,-0.344,-0.951,0.003,11.977,25.092,-43.466,0.0,109.0
38106,-0.326,-0.933,0.011,11.015,2.405,-40.130,0.0,77.0
38159,-0.321,-0.982,0.038,8.099,-15.084,-33.771,0.0,75.0
38212,-0.280,-1.077,-0.020,6.565,-26.565,-38.328,0.0,75.0
38308,-0.188,-1.071,-0.028,7.740,7.519,-55.870,0.0,70.0
38365,-0.200,-1.006,0.023,11.748,33.802,-51.893,0.0,128.0
38423,-0.246,-0.986,0.066,16.237,37.023,-32.985,0.0,152.0
38480,-0.227,-0.966,0.075,14.962,25.908,-6.580,0.0,152.0
38542,-0.202,-0.985,0.073,14.198,25.267,18.908,0.0,151.0
38599,-0.227,-0.971,0.108,11.618,22.405,34.901,0.0,151.0
38656,-0.244,-0.988,0.149,6.885,-1.206,35.840,0.0,129.0
38711,-0.217,-1.013,0.114,7.672,-21.908,30.748,0.0,100.0
38764,-0.176,-0.990,0.101,6.916,-23.435,32.763,0.0,73.0
38817,-0.157,-0.986,0.116,6.084,-14.084,32.099,0.0,71.0
38872,-0.182,-0.964,0.142,4.802,-13.664,27.855,0.0,100.0
38925,-0.172,-0.981,0.152,4.832,-14.855,17.038,0.0,74.0
38979,-0.172,-0.967,0.162,4.046,-14.977,1.817,0.0,73.0
39034,-0.198,-0.960,0.174,4.977,-11.328,-5.695,0.0,71.0
39089,-0.217,-0.967,0.175,5.870,-6.611,-7.863,0.0,72.0
39141,-0.218,-0.958,0.181,7.618,-5.092,-11.313,0.0,71.0
39194,-0.215,-0.932,0.158,9.481,0.405,-11.366,0.0,70.0
39247,-0.226,-0.948,0.168,9.237,6.595,-8.168,0.0,68.0
39301,-0.228,-0.958,0.166,7.863,9.366,1.328,0.0,68.0
39354,-0.246,-0.955,0.183,3.893,7.031,5.870,0.0,70.0
39407,-0.219,-0.954,0.199,1.901,0.206,6.809,0.0,71.0
39460,-0.135,-1.055,0.216,8.672,13.153,11.412,0.0,70.0
39517,0.005,-1.409,0.304,40.847,41.237,27.908,0.0,70.0
39570,0.024,-1.049,0.481,59.504,81.748,23.496,0.0,69.0
39622,-0.037,-1.280,0.140,77.229,118.298,13.443,0.0,67.0
39677,-0.427,-0.982,0.115,74.939,108.954,-69.374,0.0,95.0
39737,-0.429,-0.958,0.090,61.496,57.756,-105.214,0.0,178.0
39790,-0.375,-0.363,0.411,32.031,55.069,-56.122,88.0,177.0
39842,-0.406,-0.950,0.407,39.763,4.527,-46.565,77.0,180.0
39897,-0.164,-0.833,0.147,58.107,20.740,-80.237,78.0,0.0
39947,-0.158,-0.855,0.251,16.756,62.466,-50.756,56.0,170.0
40002,-0.284,-0.870,0.502,19.779,38.000,-31.557,57.0,175.0
40054,-0.158,-0.835,0.422,24.244,26.328,-4.878,58.0,0.0
40107,-0.149,-0.907,0.481,17.107,1.244,-8.649,58.0,0.0
40160,-0.142,-0.793,0.431,19.740,21.901,-43.748,59.0,0.0
40213,-0.059,-0.919,0.319,11.771,23.176,-40.901,60.0,0.0
40265,-0.061,-0.752,0.441,4.771,7.191,-31.565,62.0,0.0
40316,-0.109,-0.857,0.580,-4.435,16.435,-29.695,63.0,167.0
40370,-0.030,-0.867,0.502,11.137,10.076,-25.641,63.0,0.0
40421,0.038,-0.886,0.378,5.130,30.832,-30.626,65.0,163.0
40477,0.041,-0.903,0.401,1.977,19.206,-32.130,66.0,0.0
40530,0.006,-0.892,0.427,-4.832,5.573,-31.076,66.0,0.0
40583,-0.016,-0.932,0.428,-3.115,14.664,-39.901,55.0,0.0
40635,-0.100,-0.793,0.516,-7.427,19.229,-24.664,56.0,0.0
40688,0.074,-0.975,0.385,-6.824,4.786,-19.519,57.0,0.0
40740,0.125,-0.873,0.477,-8.725,-6.275,-7.145,57.0,0.0
40794,0.128,-0.881,0.518,-6.687,12.527,-18.023,57.0,0.0
40846,0.146,-0.986,0.460,4.122,22.374,-16.947,59.0,0.0
40899,0.092,-0.934,0.378,3.969,41.252,-29.893,60.0,0.0
40955,0.037,-0.885,0.448,-0.878,14.985,-22.573,59.0,0.0
41047,0.086,-0.853,0.491,-3.405,-1.084,-3.817,59.0,121.0
41100,0.146,-0.932,0.511,2.389,-1.412,-5.389,58.0,0.0
41152,0.237,-0.920,0.416,6.466,7.092,-5.634,60.0,0.0
41200,0.194,-0.875,0.439,4.840,25.252,-16.885,60.0,114.0
41248,0.137,-0.910,0.442,1.954,18.885,-26.489,62.0,112.0
41296,0.032,-0.847,0.489,0.435,4.679,-27.130,62.0,114.0
41349,0.237,-0.845,0.357,-4.084,1.893,-15.649,63.0,0.0
41403,0.133,-0.847,0.510,-1.664,20.229,-7.985,73.0,0.0
41459,0.162,-0.895,0.536,-3.580,9.634,-10.840,73.0,0.0
41507,0.180,-0.880,0.522,0.473,19.511,-17.573,73.0,107.0
41556,0.162,-0.922,0.518,0.359,9.908,-17.137,74.0,104.0
41610,0.108,-0.854,0.552,3.603,-4.237,-25.756,74.0,0.0
41664,0.236,-0.844,0.430,5.611,12.947,-19.405,75.0,0.0
41711,0.166,-0.892,0.488,4.885,7.817,-13.389,74.0,101.0
41760,0.143,-0.803,0.512,8.244,3.412,-12.496,76.0,103.0
41808,0.246,-0.846,0.459,2.435,-3.672,-4.145,83.0,98.0
41857,0.236,-0.847,0.474,4.023,11.893,-1.863,82.0,96.0
41908,0.187,-0.914,0.515,-3.344,14.244,-7.977,79.0,94.0
41956,0.126,-0.823,0.620,-0.008,8.725,-7.420,80.0,93.0
42010,0.124,-0.887,0.676,8.038,-22.206,-7.977,85.0,0.0
42064,0.235,-0.830,0.522,12.015,-6.679,-2.412,87.0,0.0
42119,0.215,-0.808,0.566,9.924,-1.985,5.321,87.0,0.0
42174,0.242,-0.805,0.604,10.344,-8.023,0.802,92.0,0.0
42228,0.273,-0.766,0.529,16.206,-3.076,-2.481,91.0,0.0
42284,0.272,-0.753,0.466,8.618,-14.191,-9.855,91.0,0.0
42338,0.295,-0.783,0.492,1.824,-10.511,-11.794,93.0,0.0
42398,0.267,-0.756,0.548,-1.420,1.282,-11.985,113.0,0.0
42454,0.275,-0.762,0.517,0.275,11.702,-7.412,109.0,0.0
42496,0.283,-0.775,0.516,-4.603,8.924,-9.069,106.0,0.0
42556,0.204,-0.797,0.599,-6.046,6.000,-12.450,100.0,0.0
42610,0.155,-0.778,0.634,-6.489,-4.992,-8.618,102.0,0.0
42665,0.329,-0.777,0.491,-1.046,-3.611,-5.122,111.0,0.0
42722,0.291,-0.833,0.567,-5.229,14.511,-0.282,131.0,0.0
42776,0.288,-0.820,0.574,-7.977,9.641,-10.595,112.0,0.0
42825,0.280,-0.803,0.570,-6.328,6.435,-12.893,117.0,82.0
42876,0.156,-0.821,0.655,-3.847,2.099,-10.840,119.0,82.0
42931,0.117,-0.799,0.596,1.458,5.603,-3.321,103.0,0.0
42986,0.063,-0.764,0.587,6.366,-5.198,8.168,121.0,0.0
43035,0.094,-0.766,0.570,1.328,-16.977,19.794,118.0,83.0
43090,0.105,-0.754,0.540,2.038,-24.519,33.519,116.0,0.0
43147,0.026,-0.730,0.469,0.931,-15.427,56.786,126.0,0.0
43197,-0.069,-0.660,0.471,-5.519,-27.962,82.611,146.0,84.0
43252,0.002,-0.702,0.394,-11.176,-28.053,76.122,124.0,0.0
43307,0.016,-0.958,0.416,-14.321,0.267,98.374,90.0,0.0
43363,-0.049,-1.187,0.524,-20.145,11.183,103.527,87.0,199.0
43411,-0.241,-0.994,0.639,-28.191,-51.672,76.473,83.0,87.0
43457,-0.151,-0.996,0.465,-25.359,-110.168,74.771,79.0,89.0
43504,-0.019,-1.012,0.313,-19.557,-109.519,80.679,75.0,94.0
43557,-0.006,-0.944,0.315,-18.481,-75.031,80.023,72.0,0.0
43608,-0.116,-0.938,0.393,-25.740,-62.664,77.710,69.0,159.0
43702,-0.072,-0.967,0.342,-21.756,-86.748,57.763,63.0,164.0
43757,-0.057,-0.925,0.337,-25.740,-71.824,47.405,121.0,0.0
43813,-0.082,-0.959,0.363,-25.931,-62.298,37.351,118.0,0.0
43870,-0.125,-0.961,0.379,-27.748,-67.939,24.191,117.0,164.0
43925,-0.053,-0.971,0.343,-20.191,-59.160,23.290,115.0,0.0
43977,-0.079,-0.942,0.357,-14.420,-33.740,28.168,113.0,136.0
44028,-0.171,-0.933,0.391,-12.832,-24.473,31.198,114.0,135.0
44081,-0.191,-0.899,0.389,-15.863,-36.733,25.427,113.0,135.0
44133,-0.183,-0.898,0.343,-16.802,-48.382,20.885,112.0,136.0
44184,-0.156,-0.916,0.314,-18.595,-46.824,14.405,112.0,137.0
44233,-0.105,-0.940,0.265,-11.473,-26.649,12.061,111.0,78.0
44284,-0.127,-0.912,0.296,-8.962,4.557,12.084,110.0,77.0
44333,-0.197,-0.933,0.346,-9.626,11.344,7.580,110.0,78.0
44381,-0.223,-0.927,0.377,-8.237,3.061,6.649,110.0,80.0
44431,-0.232,-0.936,0.381,-9.000,-5.748,2.786,110.0,121.0
44482,-0.175,-0.915,0.333,-4.122,2.412,1.985,110.0,135.0
44534,-0.232,-0.925,0.348,-3.076,13.924,0.466,110.0,133.0
44584,-0.251,-0.927,0.350,-0.901,7.603,-2.145,111.0,120.0
44636,-0.258,-0.926,0.327,1.046,6.168,1.779,111.0,119.0
44686,-0.252,-0.921,0.317,2.756,8.008,5.710,112.0,118.0
44738,-0.266,-0.901,0.312,3.534,13.031,7.328,112.0,76.0
44788,-0.312,-0.894,0.308,2.420,13.824,10.473,112.0,119.0
44839,-0.329,-0.895,0.324,0.557,5.656,11.496,114.0,117.0
44890,-0.306,-0.880,0.293,3.122,3.000,13.649,114.0,117.0
44942,-0.324,-0.887,0.311,1.641,9.214,15.092,114.0,131.0
44993,-0.358,-0.885,0.331,4.840,9.557,18.908,115.0,129.0
45045,-0.399,-0.871,0.355,8.198,13.115,31.855,115.0,129.0
45101,-0.493,-0.866,0.426,14.053,24.534,49.229,0.0,115.0
45156,-0.697,-0.872,0.508,23.137,44.405,87.290,0.0,107.0
45214,-0.872,-0.826,0.596,37.206,23.229,109.656,0.0,102.0
45267,-0.895,-0.924,0.539,63.443,-8.229,140.137,0.0,79.0
45322,-0.878,-1.140,0.531,102.473,-7.252,162.183,0.0,92.0
45378,-0.713,-0.689,0.449,144.160,22.084,167.168,0.0,113.0
45427,-0.614,-0.195,0.337,153.939,58.824,185.702,135.0,67.0
45478,-0.745,0.033,0.395,104.183,21.366,159.618,130.0,106.0
45528,-0.648,0.162,0.110,78.908,-5.847,149.618,127.0,69.0
45576,-0.632,0.239,0.023,49.656,1.115,110.748,126.0,71.0
45632,-0.562,0.468,0.261,21.588,18.008,85.870,0.0,74.0
45686,-0.697,0.452,0.288,0.412,16.618,44.221,0.0,75.0
45740,-0.749,0.371,0.372,-7.885,3.061,37.611,0.0,74.0
45793,-0.745,0.496,0.421,-0.038,-8.588,22.176,0.0,74.0
45846,-0.745,0.446,0.403,4.168,-29.389,9.206,0.0,76.0
45899,-0.637,0.451,0.400,-1.084,-20.313,-3.427,0.0,78.0
45954,-0.697,0.533,0.389,8.023,-8.779,-10.122,0.0,76.0
46007,-0.776,0.508,0.401,14.000,-22.939,-9.107,0.0,78.0
46061,-0.693,0.470,0.385,18.229,-25.023,-2.924,0.0,95.0
46115,-0.719,0.476,0.375,22.115,-22.878,-7.870,0.0,76.0
46172,-0.652,0.471,0.364,20.511,-33.565,-12.687,0.0,84.0
46226,-0.665,0.538,0.423,16.099,-17.443,-20.153,0.0,78.0
46280,-0.731,0.513,0.469,26.382,-23.137,-18.389,0.0,83.0
46377,-0.748,0.569,0.419,34.061,-24.885,-9.290,0.0,86.0
46431,-0.679,0.510,0.416,30.435,-28.565,-10.237,0.0,79.0
46485,-0.657,0.510,0.389,29.832,-27.008,-18.611,0.0,79.0
46539,-0.687,0.566,0.357,27.992,-19.405,-20.244,0.0,82.0
46593,-0.702,0.552,0.332,17.145,-21.565,-19.817,0.0,85.0
46650,-0.667,0.566,0.365,2.305,-20.328,-16.420,0.0,84.0
46696,-0.620,0.912,0.309,-0.275,-8.069,-12.962,50.0,86.0
46750,-0.651,0.915,0.084,3.443,8.420,12.092,0.0,84.0
46804,-0.664,0.794,0.030,-6.099,39.168,40.740,0.0,86.0
46850,-0.769,0.624,0.370,-88.908,45.679,16.947,52.0,83.0
46904,-0.823,0.349,0.562,-89.588,23.947,15.863,0.0,87.0
46950,-0.768,0.346,0.674,-46.641,4.534,24.458,50.0,91.0
46996,-0.707,0.365,0.681,-48.321,9.481,20.206,49.0,92.0
47042,-0.637,0.377,0.567,-35.107,13.260,21.267,50.0,94.0
47099,-0.615,0.375,0.520,-26.786,2.573,10.160,0.0,91.0
47145,-0.568,0.336,0.510,-34.344,-7.855,1.160,47.0,94.0
47192,-0.538,0.361,0.508,-32.832,-0.076,-15.053,45.0,98.0
47238,-0.645,0.339,0.639,-32.702,4.557,-20.466,47.0,101.0
47284,-0.654,0.401,0.637,-16.153,-5.305,-14.397,47.0,92.0
47338,-0.579,0.434,0.498,-2.779,-3.198,-12.931,0.0,92.0
47392,-0.626,0.378,0.513,-13.748,18.588,-15.122,0.0,88.0
47448,-0.707,0.362,0.605,-12.748,15.237,-16.496,0.0,90.0
47502,-0.669,0.353,0.585,-9.244,10.382,-16.695,0.0,89.0
47556,-0.656,0.451,0.470,-10.267,25.298,-16.557,127.0,99.0
47606,-0.791,0.390,0.506,-20.244,28.626,-13.679,127.0,92.0
47657,-0.789,0.412,0.522,-27.382,20.176,-1.626,127.0,93.0
47704,-0.719,0.402,0.461,-31.061,14.412,3.779,43.0,88.0
47749,-0.681,0.442,0.347,-37.634,25.176,3.412,36.0,95.0
47794,-0.693,0.335,0.253,-55.794,42.786,-0.405,38.0,84.0
47843,-0.750,0.301,0.155,-64.420,61.473,-10.015,120.0,85.0
47893,-0.795,0.602,-0.052,-60.321,67.519,1.214,121.0,89.0
47940,-0.931,0.380,0.068,-106.565,107.443,29.153,42.0,113.0
47990,-1.111,-0.231,0.359,-124.244,63.397,22.893,40.0,109.0
48036,-0.800,-0.306,0.166,-88.344,43.489,16.702,30.0,108.0
48082,-0.760,-0.089,0.081,-64.550,75.802,2.473,30.0,105.0
48134,-0.936,-0.208,0.042,-64.985,93.168,-15.954,130.0,102.0
48179,-1.005,-0.094,0.042,-51.756,45.099,-46.718,26.0,99.0
48224,-1.074,-0.038,-0.095,-60.794,112.573,-46.649,27.0,96.0
48269,-1.540,-0.110,0.306,-81.168,93.916,-29.298,25.0,93.0
48314,-1.330,-0.229,0.264,-69.893,29.031,-15.748,24.0,91.0
48361,-1.066,-0.187,0.176,-26.824,26.107,-4.611,23.0,90.0
48406,-1.108,-0.064,0.040,-3.618,16.008,-9.344,23.0,90.0
48450,-0.927,-0.002,-0.191,-8.084,-2.893,-11.267,22.0,90.0
48495,-0.944,0.040,-0.187,-14.466,29.206,-9.809,22.0,90.0
48539,-1.117,-0.106,-0.005,-15.374,7.519,-7.580,22.0,90.0
48584,-1.013,-0.096,-0.093,1.198,-3.466,-8.466,22.0,89.0
48628,-0.990,-0.070,-0.088,13.099,4.595,-5.573,22.0,88.0
48672,-0.999,-0.066,-0.110,18.802,-9.924,-5.947,22.0,89.0
48717,-0.882,-0.076,-0.148,21.863,-4.985,-10.191,23.0,88.0
48765,-0.933,-0.047,-0.120,28.649,3.450,-16.115,23.0,89.0
48852,-1.083,0.019,0.002,27.237,-5.985,-19.664,25.0,87.0
48898,-1.130,0.055,-0.063,21.870,-17.794,-35.267,29.0,87.0
48950,-1.024,0.029,-0.111,31.298,-29.656,-30.366,144.0,88.0
49001,-0.996,0.059,-0.257,28.695,-17.718,-13.305,142.0,89.0
49052,-0.894,0.014,-0.123,2.519,-50.504,-23.641,142.0,90.0
49104,-0.552,-0.172,-0.297,-9.710,-15.924,-60.618,142.0,89.0
49161,-1.058,-0.395,0.101,-28.038,-4.298,-64.122,143.0,88.0
49212,-1.251,-0.599,0.250,-34.718,-83.191,-61.519,144.0,89.0
49265,-0.822,-0.407,0.008,-11.298,-103.687,-16.382,145.0,90.0
49309,-0.753,-0.459,0.012,-10.031,-15.618,-8.275,19.0,90.0
49352,-0.936,-0.337,0.061,-1.771,-11.962,-8.916,20.0,90.0
49396,-0.850,-0.430,0.085,-20.969,-16.695,-7.748,21.0,89.0
49439,-0.867,-0.430,0.201,-17.023,-12.840,2.344,19.0,91.0
49483,-0.783,-0.553,0.211,-10.939,-14.534,-1.527,18.0,91.0
49526,-0.785,-0.456,0.276,-2.084,-4.244,-8.450,18.0,91.0
49569,-0.788,-0.466,0.156,8.763,2.473,-6.809,18.0,89.0
49615,-0.897,-0.386,0.096,4.870,-0.924,-12.023,19.0,90.0
49659,-0.881,-0.464,0.142,-9.870,-13.496,-6.397,17.0,90.0
49710,-0.811,-0.442,0.178,-2.847,-7.672,-14.031,146.0,91.0
49761,-0.792,-0.516,0.210,1.687,7.099,-5.435,146.0,89.0
49812,-0.835,-0.554,0.386,8.092,0.611,-8.206,147.0,91.0
49862,-0.661,-0.643,0.211,37.412,8.214,-3.389,147.0,89.0
49913,-0.597,-0.732,0.048,49.870,33.145,-12.870,147.0,87.0
49965,-0.580,-0.705,-0.117,54.672,58.786,-23.420,148.0,86.0
50016,-0.752,-0.586,0.074,44.176,59.351,-38.809,150.0,88.0
50069,-0.865,-0.540,0.124,36.832,36.588,-71.969,151.0,85.0
50123,-1.002,-0.536,0.142,28.603,5.580,-94.947,0.0,96.0
50178,-1.049,-0.600,0.043,43.374,38.427,-72.076,0.0,95.0
50232,-1.081,-0.688,0.207,24.511,5.069,-25.168,0.0,93.0
50286,-0.880,-0.559,0.225,44.053,-7.557,-5.611,0.0,92.0
50340,-0.867,-0.583,0.236,44.580,7.313,8.366,0.0,89.0
50395,-1.095,-0.558,0.420,75.244,42.977,61.626,0.0,92.0
50449,-1.203,-0.584,0.333,106.924,12.244,95.519,0.0,96.0
50499,-1.349,-0.479,0.240,116.985,20.870,157.252,142.0,94.0
50552,-1.251,-0.372,0.206,91.313,-12.939,185.939,136.0,71.0
50595,-0.900,-0.086,-0.035,65.588,-18.473,201.916,27.0,66.0
50646,-0.930,-0.052,0.021,24.435,5.344,196.221,125.0,111.0
50690,-0.730,0.210,0.195,0.519,-18.092,188.649,31.0,67.0
50734,-0.664,0.321,0.132,-10.931,-10.382,171.160,19.0,113.0
50781,-0.652,0.231,0.218,-24.351,3.321,155.481,19.0,136.0
50824,-0.624,0.451,0.239,-13.817,-11.794,141.924,26.0,74.0
50868,-0.383,0.447,0.260,-33.924,-22.298,111.626,29.0,86.0
50914,-0.182,0.670,0.318,-25.298,-19.756,79.634,16.0,82.0
50957,-0.330,0.473,0.220,-35.275,-4.092,29.183,17.0,82.0
51010,-0.505,0.679,0.288,-30.427,32.763,28.290,0.0,80.0
51063,-0.627,0.694,0.392,-46.565,26.443,29.229,0.0,80.0
51107,-0.474,0.674,0.458,-41.580,-23.336,23.695,26.0,80.0
51150,-0.303,0.694,0.375,-31.695,9.260,24.176,17.0,79.0
51193,-0.394,0.608,0.322,-24.267,36.748,28.573,16.0,81.0
51247,-0.376,0.681,0.480,-23.069,28.855,22.038,0.0,80.0
51334,-0.640,0.708,0.539,-12.366,65.275,11.496,26.0,80.0
51380,-0.685,0.726,0.560,-7.374,43.809,19.748,26.0,80.0
51429,-0.521,0.714,0.445,0.878,33.733,27.969,133.0,68.0
51472,-0.485,0.632,0.341,5.985,31.985,20.420,30.0,70.0
51516,-0.496,0.695,0.419,-1.084,35.038,11.328,24.0,80.0
51565,-0.576,0.677,0.376,1.733,29.206,1.092,133.0,80.0
51614,-0.656,0.691,0.518,-0.427,14.206,11.023,133.0,68.0
51657,-0.607,0.785,0.429,7.794,15.534,8.244,25.0,68.0
51700,-0.976,0.808,0.643,-4.885,21.061,6.725,24.0,67.0
51742,-1.220,0.834,0.943,0.298,-18.924,33.947,23.0,71.0
51804,-0.579,0.742,0.390,57.916,-144.168,61.817,132.0,83.0
51861,-0.267,0.779,0.054,36.908,-119.771,46.962,0.0,86.0
51917,-0.477,0.659,0.267,26.260,-64.221,49.817,0.0,87.0
51974,-0.204,0.772,0.181,20.061,-94.954,39.985,0.0,90.0
52031,-0.145,0.698,0.393,-1.321,-88.710,23.397,0.0,92.0
52087,-0.084,0.738,0.494,22.000,-93.672,-1.496,0.0,94.0
52145,-0.055,0.764,0.327,34.687,-95.092,-15.748,0.0,98.0
52202,-0.054,1.001,0.201,27.305,-82.252,-32.282,0.0,98.0
52259,-0.096,1.028,0.255,-0.069,-78.427,-29.489,0.0,100.0
52320,-0.031,1.056,0.350,-10.786,-71.344,-34.145,0.0,102.0
52381,0.031,0.989,0.326,-6.107,-71.702,-28.573,0.0,173.0
52443,-0.007,0.955,0.304,-7.672,-56.550,-26.275,0.0,175.0
52505,0.019,0.877,0.344,-18.649,-41.427,-25.565,0.0,176.0
52567,0.124,0.888,0.288,-23.885,-28.893,-35.321,0.0,177.0
52628,0.034,1.005,0.292,-29.748,38.947,-27.679,0.0,176.0
52690,-0.353,1.012,0.573,-53.099,27.985,-5.366,0.0,177.0
52750,-0.181,1.054,0.492,-46.282,19.023,35.397,0.0,147.0
52810,0.064,0.875,0.402,-70.237,40.893,42.015,0.0,147.0
52874,-0.303,0.528,0.807,-59.885,42.443,45.260,0.0,151.0
52934,-0.134,0.688,0.607,-41.924,35.740,38.542,0.0,149.0
52996,-0.051,0.470,0.627,-50.664,26.687,33.786,0.0,178.0
53056,-0.074,0.588,0.604,-58.183,55.733,12.237,0.0,151.0
53113,-0.315,0.441,1.019,-60.153,32.481,-1.198,0.0,98.0
53171,-0.188,0.605,0.776,-34.397,34.397,10.733,0.0,96.0
53228,-0.400,0.362,1.004,-40.282,21.031,21.489,0.0,99.0
53285,-0.032,0.373,0.817,-4.580,2.321,0.305,0.0,97.0
53343,-0.203,0.467,0.749,1.641,29.305,-8.893,0.0,95.0
53402,-0.248,0.568,0.751,-6.573,27.611,-5.504,0.0,94.0
53459,-0.402,0.499,0.934,-21.313,34.099,-1.534,0.0,95.0
53517,-0.243,0.454,0.854,6.015,5.916,-2.038,0.0,93.0
53573,-0.228,0.422,0.716,11.092,20.550,-5.191,0.0,92.0
53630,-0.329,0.474,0.758,-1.511,24.336,-11.565,0.0,92.0
53683,-0.390,0.428,0.780,-12.160,30.840,-11.496,0.0,8.0
53738,-0.293,0.548,0.714,-8.802,25.534,-8.740,0.0,5.0
53790,-0.373,0.472,0.701,-22.718,47.626,-3.710,0.0,3.0
53846,-0.404,0.428,0.746,-23.969,58.565,-4.435,0.0,3.0
53897,-0.442,0.395,0.733,-23.985,52.137,-9.298,128.0,4.0
53945,-0.491,0.318,0.709,-17.336,56.382,-14.901,132.0,4.0
53993,-0.500,0.303,0.654,-15.809,77.824,-15.374,130.0,7.0
54041,-0.500,0.342,0.572,-10.534,72.183,-16.855,131.0,6.0
