Timestamp(ms),AccelX(g),AccelY(g),AccelZ(g),GyroX(deg/s),GyroY(deg/s),GyroZ(deg/s),DistanceLeft(cm),DistanceRight(cm)
271397,0.128,-0.102,0.969,-1.519,-1.931,-1.679,38.0,0.0
271480,0.153,-0.135,0.988,9.534,-0.931,-2.305,37.0,0.0
271564,0.148,-0.107,1.013,1.046,-4.382,-3.817,37.0,0.0
271647,0.134,-0.118,0.985,12.328,-1.817,-10.053,37.0,0.0
271731,-0.047,-0.141,0.817,55.916,17.824,-4.542,39.0,0.0
271816,1.335,0.022,1.414,188.588,112.351,-80.214,52.0,0.0
271900,-2.000,-0.083,0.931,234.664,99.695,-45.305,57.0,0.0
271996,0.351,0.477,0.577,-108.427,-40.878,-10.824,0.0,0.0
272081,-0.454,0.706,0.628,-45.443,42.527,-9.565,57.0,0.0
272165,-0.256,0.228,0.967,-16.832,2.183,-13.641,50.0,0.0
272250,-0.192,0.630,0.758,-47.649,12.038,-14.718,51.0,0.0
272334,-0.292,0.223,0.822,-45.267,-8.443,-19.008,47.0,0.0
272419,-0.327,0.590,0.770,66.191,18.603,-4.679,50.0,0.0
272503,-0.420,0.300,0.824,-45.779,-30.931,9.718,44.0,0.0
272591,-0.392,0.333,0.831,-49.046,-33.885,5.084,101.0,0.0
272675,-0.676,-0.245,0.684,-113.550,-118.962,9.046,45.0,0.0
272772,-0.060,-0.066,0.992,138.886,-149.817,95.237,0.0,0.0
272857,1.041,0.417,0.775,-115.779,-62.641,65.206,45.0,0.0
272941,0.954,-0.271,0.926,-92.420,-57.710,72.718,42.0,0.0
273025,0.530,-0.266,0.654,-48.962,-58.710,67.206,42.0,0.0
273115,0.816,-0.408,0.703,-74.763,-34.198,70.878,145.0,0.0
273209,0.625,-0.688,0.690,-56.710,-8.099,-3.885,0.0,0.0
273302,0.512,-0.535,0.851,112.733,36.061,-55.252,0.0,0.0
273395,0.349,0.069,0.807,124.809,31.527,-65.557,0.0,0.0
273488,0.344,0.254,0.863,55.725,38.954,-70.069,0.0,0.0
273585,0.376,0.274,0.958,13.069,52.901,-64.473,0.0,0.0
273678,0.229,0.184,1.011,12.076,46.511,-49.802,0.0,0.0
273771,0.282,0.492,0.855,114.947,37.710,-21.802,0.0,0.0
273854,0.008,0.135,1.016,-99.252,43.076,-48.489,17.0,0.0
273947,-0.080,0.295,0.969,42.718,39.382,-32.168,0.0,0.0
274030,-0.126,0.285,1.038,-45.382,33.031,-41.710,17.0,0.0
274113,-0.256,0.398,1.017,34.023,-8.870,2.466,17.0,0.0
274196,-0.029,0.227,0.923,-30.344,-0.153,1.053,17.0,0.0
274279,-0.132,0.212,1.027,11.313,-2.122,-2.214,17.0,0.0
274364,-0.116,0.279,0.960,8.611,-1.870,-4.214,16.0,0.0
274458,-0.106,0.277,0.954,-2.473,-1.031,-0.313,0.0,0.0
274551,-0.100,0.271,0.964,5.458,-0.885,-0.313,0.0,0.0
274644,-0.102,0.289,0.958,1.687,-0.634,-0.489,0.0,0.0
274738,-0.105,0.280,0.958,-0.046,-0.786,-0.649,0.0,0.0
274831,-0.108,0.286,0.957,-0.252,-0.145,-0.160,0.0,0.0
274914,-0.108,0.293,0.951,-3.435,0.229,-0.115,16.0,0.0
274997,-0.103,0.265,0.968,-1.840,-0.405,-0.122,16.0,0.0
275080,-0.106,0.269,0.963,1.153,-0.443,0.527,16.0,0.0
275166,-0.108,0.280,0.959,2.710,-0.412,0.221,16.0,0.0
275248,-0.084,0.275,0.960,2.649,-0.206,0.939,16.0,0.0
275331,-0.092,0.286,0.958,-3.282,3.031,5.069,16.0,0.0
275414,-0.114,0.277,0.959,-3.176,-0.305,0.458,16.0,0.0
275496,-0.108,0.274,0.964,-1.115,-0.565,0.710,14.0,0.0
275579,-0.091,0.286,0.958,0.756,0.496,0.634,17.0,0.0
275662,-0.090,0.298,0.955,-0.260,3.244,0.771,17.0,0.0
275756,-0.181,0.409,0.952,-16.298,4.252,-4.527,0.0,0.0
275838,-0.139,0.159,1.012,-15.756,1.504,0.107,13.0,0.0
275924,-0.134,0.287,0.965,0.084,0.122,1.450,13.0,0.0
276007,-0.159,0.307,0.914,-12.092,7.290,-3.427,12.0,0.0
276089,-0.157,0.178,1.017,-26.924,6.840,-3.992,12.0,0.0
276184,-0.166,0.146,0.978,-1.427,-0.176,-0.015,0.0,0.0
276267,-0.151,0.229,0.957,3.443,-1.901,0.275,12.0,0.0
276348,-0.153,0.162,0.996,5.710,-3.137,-0.313,13.0,0.0
276431,-0.159,0.223,0.972,-0.771,-0.817,4.855,14.0,0.0
276514,-0.137,0.194,0.982,-0.198,-1.847,-0.924,14.0,0.0
276597,-0.148,0.185,0.983,10.443,-1.427,4.153,14.0,0.0
276684,-0.127,0.229,0.981,7.443,-7.214,0.908,16.0,0.0
276767,-0.114,0.184,0.971,21.748,-7.260,-2.565,17.0,0.0
276860,-0.098,0.308,0.938,24.939,-2.130,-0.015,0.0,0.0
276943,-0.120,0.315,0.935,-5.038,-1.389,-0.618,16.0,0.0
277026,-0.107,0.258,0.974,-1.122,-1.046,-0.237,16.0,0.0
277121,-0.107,0.296,0.950,3.611,-0.695,0.321,0.0,0.0
277203,-0.112,0.286,0.958,0.137,-0.695,-0.122,16.0,0.0
277286,-0.107,0.288,0.960,-0.382,-0.771,-0.198,16.0,0.0
277369,-0.103,0.297,0.955,-0.229,-0.435,0.267,17.0,0.0
277455,-0.110,0.292,0.959,0.122,-0.481,0.145,17.0,0.0
277538,-0.108,0.292,0.951,-0.237,-0.664,-0.038,17.0,0.0
277621,-0.112,0.290,0.961,-1.298,-0.366,0.053,17.0,0.0
277705,-0.108,0.293,0.958,-0.046,-0.565,0.237,17.0,0.0
277788,-0.111,0.296,0.955,-0.580,-0.473,0.023,17.0,0.0
277871,-0.107,0.298,0.956,-0.229,-0.473,0.191,17.0,0.0
277954,-0.108,0.282,0.955,-1.221,-0.420,0.153,17.0,0.0
278037,-0.116,0.292,0.957,0.298,-0.511,0.252,17.0,0.0
278120,-0.107,0.289,0.958,-0.908,-0.527,0.206,17.0,0.0
278204,-0.107,0.297,0.958,0.397,-0.863,-0.008,17.0,0.0
278290,-0.104,0.286,0.961,-0.947,-0.557,0.046,17.0,0.0
278373,-0.113,0.294,0.964,0.328,-0.489,0.313,17.0,0.0
278456,-0.111,0.286,0.959,-0.817,-0.389,0.122,17.0,0.0
278540,-0.115,0.292,0.954,0.275,-0.649,0.305,17.0,0.0
278623,-0.107,0.291,0.954,-1.298,-0.550,-0.008,17.0,0.0
278706,-0.118,0.289,0.950,0.382,-0.244,0.069,17.0,0.0
278790,-0.110,0.291,0.960,-0.458,-0.496,-0.130,17.0,0.0
278873,-0.114,0.273,0.952,0.015,-0.382,0.221,17.0,0.0
278956,-0.110,0.295,0.958,-1.573,-0.550,0.183,17.0,0.0
279043,-0.108,0.275,0.959,0.641,-0.282,0.458,17.0,0.0
279126,-0.105,0.292,0.959,-1.359,-0.496,0.290,17.0,0.0
279208,-0.106,0.293,0.953,0.779,-0.427,0.252,17.0,0.0
279292,-0.118,0.294,0.955,0.053,-0.534,0.145,17.0,0.0
279386,-0.114,0.286,0.962,-1.603,-0.656,-0.053,0.0,0.0
279470,-0.109,0.298,0.957,0.939,-0.527,0.122,17.0,0.0
279553,-0.110,0.292,0.960,-1.359,-0.542,-0.107,17.0,0.0
279635,-0.108,0.293,0.955,-0.405,-0.450,0.015,17.0,0.0
279719,-0.115,0.287,0.965,0.565,-0.679,0.137,17.0,0.0
279805,-0.114,0.289,0.955,-1.305,-0.611,-0.046,17.0,0.0
279889,-0.106,0.293,0.963,-0.008,-0.427,0.321,17.0,0.0
279972,-0.109,0.292,0.964,-0.092,-0.595,0.160,17.0,0.0
280056,-0.109,0.291,0.961,-0.962,-0.565,0.046,17.0,0.0
280140,-0.108,0.287,0.955,0.366,-0.473,0.046,17.0,0.0
280223,-0.110,0.291,0.959,-0.443,-0.573,0.137,17.0,0.0
280307,-0.112,0.280,0.955,-0.191,-0.695,0.092,17.0,0.0
280391,-0.103,0.289,0.957,-0.550,-0.664,0.031,17.0,0.0
280475,-0.104,0.289,0.956,-0.534,-0.427,0.107,17.0,0.0
280562,-0.113,0.298,0.952,-0.702,-0.275,0.267,17.0,0.0
280645,-0.113,0.289,0.959,0.160,-0.672,0.160,17.0,0.0
280729,-0.109,0.290,0.949,-1.336,-0.580,0.038,17.0,0.0
280813,-0.109,0.286,0.958,0.130,-0.496,0.191,17.0,0.0
280897,-0.106,0.291,0.960,-0.351,-0.718,-0.031,17.0,0.0
280981,-0.110,0.282,0.966,-0.313,-0.481,0.237,17.0,0.0
281064,-0.105,0.289,0.961,-0.756,-0.603,-0.023,17.0,0.0
281148,-0.112,0.286,0.961,0.763,-0.656,0.053,17.0,0.0
281232,-0.110,0.285,0.956,-1.000,-0.626,-0.168,17.0,0.0
281319,-0.106,0.287,0.956,0.748,-0.481,0.076,17.0,0.0
281403,-0.104,0.293,0.962,-0.191,-0.603,-0.031,17.0,0.0
281486,-0.111,0.290,0.960,-0.298,-0.458,-0.023,17.0,0.0
281570,-0.105,0.288,0.954,-0.344,-0.496,0.099,17.0,0.0
281654,-0.113,0.286,0.953,-0.412,-0.656,0.214,17.0,0.0
281738,-0.104,0.289,0.957,-0.573,-0.557,0.061,17.0,0.0
281822,-0.106,0.287,0.961,-0.321,-0.397,0.351,17.0,0.0
281906,-0.110,0.292,0.950,0.237,-0.611,0.084,17.0,0.0
282003,-0.113,0.285,0.960,-0.313,-0.504,-0.069,17.0,0.0
282088,-0.110,0.291,0.963,0.336,-0.473,0.145,17.0,0.0
282171,-0.111,0.275,0.957,-0.931,-0.183,-0.137,17.0,0.0
282254,-0.113,0.299,0.957,-0.405,-0.550,0.183,16.0,0.0
282337,-0.113,0.294,0.960,-0.740,-0.550,0.137,16.0,0.0
282420,-0.105,0.280,0.954,-0.069,-0.618,0.115,17.0,0.0
282503,-0.104,0.282,0.952,-0.260,-0.511,0.084,17.0,0.0
282585,-0.112,0.287,0.952,-0.183,-0.374,0.099,17.0,0.0
282668,-0.112,0.281,0.956,-0.664,-0.718,0.160,18.0,0.0
282750,-0.115,0.290,0.960,0.328,-0.542,0.252,17.0,0.0
282833,-0.114,0.297,0.957,0.076,-0.634,0.191,18.0,0.0
282919,-0.110,0.287,0.958,-1.374,-0.427,0.092,17.0,0.0
283002,-0.109,0.292,0.956,0.389,-0.443,0.321,16.0,0.0
283085,-0.110,0.293,0.949,-1.763,-0.374,0.122,16.0,0.0
283168,-0.112,0.295,0.949,0.611,-0.634,0.160,17.0,0.0
283251,-0.114,0.273,0.959,-0.374,-0.550,0.069,16.0,0.0
283334,-0.108,0.291,0.960,0.008,-0.595,0.076,16.0,0.0
283416,-0.110,0.279,0.968,-0.290,-0.588,0.031,16.0,0.0
283499,-0.108,0.294,0.958,-0.489,-0.504,0.313,16.0,0.0
283582,-0.108,0.293,0.961,-0.038,-0.557,0.183,16.0,0.0
283668,-0.110,0.293,0.950,-1.611,-0.420,-0.160,17.0,0.0
283751,-0.111,0.291,0.942,1.069,-0.252,0.344,16.0,0.0
283834,-0.111,0.280,0.964,-1.084,-0.580,-0.038,16.0,0.0
283917,-0.106,0.289,0.952,0.282,-0.687,0.069,16.0,0.0
284000,-0.110,0.288,0.963,-0.786,-0.565,-0.015,16.0,0.0
284083,-0.112,0.288,0.955,0.321,-0.458,0.092,16.0,0.0
284166,-0.104,0.289,0.949,-0.420,-0.565,0.153,16.0,0.0
284249,-0.111,0.286,0.952,0.099,-0.496,0.061,16.0,0.0
284332,-0.108,0.287,0.954,0.122,-0.519,0.382,16.0,0.0
284418,-0.114,0.283,0.951,0.046,-0.527,0.145,16.0,0.0
284500,-0.107,0.282,0.958,-1.275,-0.435,0.145,16.0,0.0
284583,-0.114,0.292,0.948,0.687,-0.496,0.214,16.0,0.0
284666,-0.115,0.293,0.951,-0.817,-0.473,0.137,16.0,0.0
284749,-0.109,0.287,0.962,0.275,-0.656,0.214,16.0,0.0
284832,-0.115,0.285,0.961,-0.863,-0.496,0.061,16.0,0.0
284915,-0.110,0.294,0.948,0.267,-0.397,0.084,16.0,0.0
284998,-0.106,0.285,0.967,-0.603,-0.565,0.061,16.0,0.0
285081,-0.109,0.286,0.962,-0.168,-0.542,0.137,16.0,0.0
285167,-0.105,0.292,0.953,-0.107,-0.374,0.374,16.0,0.0
285250,-0.110,0.293,0.963,-0.374,-0.450,0.000,16.0,0.0
285333,-0.104,0.292,0.957,-1.137,-0.397,-0.038,16.0,0.0
285417,-0.104,0.289,0.957,0.618,-0.450,0.160,16.0,0.0
285500,-0.107,0.294,0.947,-0.771,-0.489,-0.130,16.0,0.0
285583,-0.106,0.284,0.957,0.206,-0.634,0.237,16.0,0.0
285666,-0.105,0.289,0.957,-0.893,-0.580,0.038,16.0,0.0
285749,-0.110,0.289,0.958,0.053,-0.496,0.229,16.0,0.0
285832,-0.113,0.285,0.960,-0.412,-0.771,-0.092,16.0,0.0
285918,-0.107,0.293,0.955,-0.412,-0.420,0.221,16.0,0.0
286002,-0.109,0.294,0.957,-0.015,-0.450,0.359,16.0,0.0
286085,-0.112,0.285,0.957,-0.351,-0.618,0.084,16.0,0.0
286168,-0.112,0.289,0.956,-0.870,-0.450,0.229,16.0,0.0
286251,-0.108,0.296,0.951,-0.176,-0.511,0.160,16.0,0.0
286333,-0.107,0.289,0.951,-0.725,-0.702,0.206,16.0,0.0
286416,-0.113,0.287,0.954,0.137,-0.595,0.191,16.0,0.0
286500,-0.109,0.285,0.957,-0.733,-0.389,0.046,16.0,0.0
286583,-0.119,0.296,0.956,-0.092,-0.496,0.099,16.0,0.0
286666,-0.112,0.289,0.962,-0.733,-0.664,0.130,16.0,0.0
286747,-0.108,0.293,0.957,-0.023,-0.405,0.076,16.0,0.0
286830,-0.112,0.287,0.946,-0.099,-0.389,0.198,16.0,0.0
286914,-0.115,0.299,0.959,-0.733,-0.504,0.061,16.0,0.0
286997,-0.107,0.292,0.957,-0.611,-0.557,0.092,16.0,0.0
287080,-0.113,0.284,0.957,0.160,-0.458,0.046,16.0,0.0
287164,-0.106,0.296,0.948,-0.672,-0.588,0.061,16.0,0.0
287247,-0.108,0.283,0.958,0.252,-0.725,0.061,16.0,0.0
287330,-0.111,0.293,0.951,-0.992,-0.534,0.084,16.0,0.0
287413,-0.113,0.291,0.956,0.336,-0.290,0.191,16.0,0.0
287500,-0.108,0.293,0.953,-0.863,-0.519,0.183,16.0,0.0
287583,-0.115,0.292,0.959,0.130,-0.496,0.466,16.0,0.0
287667,-0.114,0.286,0.953,-0.260,-0.481,0.130,16.0,0.0
287750,-0.112,0.296,0.949,-0.183,-0.687,0.008,16.0,0.0
287833,-0.108,0.292,0.953,-0.695,-0.702,0.099,16.0,0.0
287917,-0.114,0.284,0.968,0.336,-0.290,0.374,16.0,0.0
288000,-0.111,0.289,0.952,-0.336,-0.458,0.244,16.0,0.0
288082,-0.109,0.289,0.961,-0.534,-0.595,0.221,16.0,0.0
288166,-0.106,0.291,0.958,-0.771,-0.496,0.076,16.0,0.0
288252,-0.112,0.298,0.959,-0.267,-0.351,0.099,16.0,0.0
288336,-0.107,0.291,0.957,-0.405,-0.611,0.206,16.0,0.0
288419,-0.110,0.291,0.952,0.527,-0.557,0.153,16.0,0.0
288503,-0.109,0.283,0.964,-0.076,-0.496,0.122,16.0,0.0
288586,-0.106,0.300,0.952,0.122,-0.603,0.038,16.0,0.0
288670,-0.108,0.280,0.961,-1.122,-0.466,0.099,16.0,0.0
288753,-0.114,0.292,0.953,-0.046,-0.458,0.336,16.0,0.0
288837,-0.113,0.291,0.957,-0.176,-0.534,0.000,16.0,0.0
288921,-0.108,0.293,0.947,-0.641,-0.618,-0.122,16.0,0.0
289007,-0.111,0.287,0.955,-0.244,-0.534,0.122,16.0,0.0
289091,-0.102,0.293,0.962,-0.130,-0.466,0.168,16.0,0.0
289174,-0.110,0.292,0.968,-0.656,-0.397,0.115,16.0,0.0
289258,-0.111,0.294,0.957,-0.168,-0.450,0.344,16.0,0.0
289341,-0.108,0.305,0.952,-2.267,-0.122,-1.214,16.0,0.0
289424,-0.092,0.112,1.019,30.336,-12.412,-33.489,17.0,172.0
289507,-0.154,0.974,0.643,-9.519,15.015,11.473,16.0,0.0
289589,-0.147,0.066,1.027,-162.580,17.863,-2.763,14.0,171.0
289682,-0.043,-0.254,1.040,15.229,-1.176,13.649,0.0,172.0
289767,-0.178,0.544,0.933,2.756,23.748,2.542,16.0,172.0
289849,-0.191,-0.067,0.876,-13.740,-11.466,-13.817,15.0,171.0
289931,-0.152,0.376,1.112,46.313,-17.237,-14.450,17.0,171.0
290013,-0.129,-0.157,1.025,29.977,-17.557,15.802,16.0,171.0
290096,-0.106,0.380,0.887,22.664,4.718,10.443,16.0,171.0
290178,-0.116,0.101,1.035,-6.382,-5.023,1.763,18.0,171.0
290259,-0.122,0.007,1.080,-31.641,-11.550,-4.496,16.0,172.0
290341,-0.149,0.214,0.861,25.985,3.718,1.244,16.0,171.0
290424,-0.071,0.050,1.024,-17.947,-2.397,5.397,17.0,171.0
290509,-0.118,0.446,0.875,-89.389,-16.855,-19.511,17.0,171.0
290603,-0.054,-0.166,1.012,-24.725,4.962,-3.786,0.0,172.0
290684,-0.165,0.087,1.065,10.084,-3.046,14.183,15.0,172.0
290766,-0.043,0.098,0.933,32.863,3.229,-5.252,17.0,171.0
290849,-0.132,0.053,0.986,-23.420,-4.985,1.069,16.0,172.0
290931,-0.172,-0.019,0.971,82.015,6.198,1.954,16.0,171.0
291013,-0.039,0.279,0.948,-15.931,-1.618,0.252,17.0,171.0
291095,-0.082,-0.100,1.070,74.344,5.427,7.015,17.0,171.0
291191,-0.066,0.538,0.867,4.443,-5.122,-0.076,0.0,170.0
291273,-0.126,0.152,0.977,-15.397,1.122,-5.641,17.0,171.0
291356,-0.140,0.190,0.970,35.611,1.229,7.443,18.0,170.0
291438,-0.119,0.116,1.031,34.046,-2.924,0.908,18.0,170.0
291522,-0.043,0.497,0.833,60.947,0.527,4.092,18.0,0.0
291606,-0.135,0.564,0.828,-49.603,-1.473,-7.282,18.0,0.0
291688,-0.125,0.094,1.040,-63.969,3.282,-3.641,16.0,170.0
291770,-0.058,0.134,1.000,23.947,1.527,-0.962,17.0,170.0
291853,-0.096,0.362,0.893,34.573,0.809,-3.153,16.0,171.0
291948,-0.137,0.291,0.900,30.344,3.695,6.115,0.0,171.0
292032,-0.124,0.423,0.956,-10.221,-2.573,0.504,17.0,0.0
292115,-0.131,0.213,0.961,-5.733,1.443,-4.191,22.0,170.0
292197,-0.154,0.283,0.926,9.489,0.053,3.664,18.0,171.0
292281,-0.100,0.366,0.953,-7.573,-1.260,-1.382,18.0,0.0
292364,-0.134,0.326,0.933,-11.397,5.260,5.420,19.0,171.0
292446,-0.072,0.367,0.913,-69.641,19.374,-0.656,21.0,171.0
292529,-0.106,0.033,1.089,-11.511,10.588,4.458,17.0,171.0
292618,-0.423,0.459,0.921,-250.137,24.802,-4.382,16.0,0.0
292704,-0.319,-1.122,1.255,12.473,-43.183,-38.840,19.0,0.0
292786,-0.095,0.306,0.798,144.237,-93.496,17.008,16.0,172.0
292869,-0.045,0.183,1.014,-95.809,-94.931,6.344,17.0,0.0
292957,0.254,-0.077,1.015,24.733,-127.015,51.931,116.0,0.0
293043,0.522,-0.081,0.697,-58.145,-126.626,54.229,57.0,0.0
293128,0.660,-0.419,0.518,24.817,-92.405,67.908,52.0,0.0
293213,0.736,-0.370,0.389,84.679,-33.069,49.863,49.0,0.0
293297,0.867,-0.650,0.683,47.702,21.763,19.595,46.0,0.0
293382,0.444,-0.342,1.062,57.405,87.649,-30.656,44.0,0.0
293470,0.099,1.213,0.626,67.977,37.061,-10.565,50.0,0.0
293563,0.327,-0.653,1.185,-111.191,39.893,-14.641,0.0,0.0
293651,0.167,-0.085,0.892,131.817,45.855,-36.290,100.0,0.0
293744,0.123,0.372,0.775,89.626,18.328,-53.626,0.0,0.0
293837,0.067,0.561,0.843,-22.656,16.550,-46.252,0.0,0.0
293926,-0.046,0.347,1.039,-4.160,-8.092,-13.603,105.0,0.0
294014,0.212,0.356,1.048,5.947,-51.214,3.076,108.0,0.0
294108,0.230,0.204,1.043,-15.687,-70.023,5.298,0.0,0.0
294201,0.351,0.229,0.912,-34.412,-48.244,25.107,0.0,0.0
294289,0.359,-0.021,0.911,-41.427,-25.794,46.122,43.0,0.0
294374,0.582,0.098,0.744,51.397,-6.565,52.214,45.0,0.0
294458,0.649,-0.012,0.704,-27.863,32.450,39.427,44.0,0.0
294543,0.635,-0.082,0.773,-13.847,60.947,27.420,44.0,0.0
294628,0.427,0.018,0.819,37.328,90.290,34.855,56.0,0.0
294713,0.109,0.065,0.929,-5.534,75.313,26.832,53.0,0.0
294798,0.037,-0.080,1.044,27.092,47.908,22.588,50.0,0.0
294883,-0.038,0.060,0.998,48.298,40.313,19.565,36.0,0.0
294967,-0.103,0.108,1.042,19.282,31.809,9.916,34.0,0.0
295054,-0.160,0.145,1.088,22.878,30.015,3.733,32.0,0.0
295138,-0.204,0.164,1.009,9.321,23.153,3.107,31.0,0.0
295222,-0.228,0.175,0.949,3.504,19.603,1.527,31.0,0.0
295306,-0.191,0.143,1.028,-14.679,18.603,-4.168,31.0,0.0
295390,-0.284,0.202,1.056,-6.603,7.679,-4.511,32.0,0.0
295474,-0.246,0.171,1.016,4.183,0.084,-0.374,31.0,0.0
295558,-0.214,0.154,0.979,-0.466,-1.443,0.504,32.0,0.0
295642,-0.232,0.167,0.990,3.069,-5.779,-0.924,32.0,0.0
295726,-0.197,0.150,1.004,2.771,-8.802,-3.420,32.0,0.0
295813,-0.202,0.190,0.990,7.443,-10.962,-1.763,33.0,0.0
295897,-0.169,0.167,0.980,-3.740,-10.962,-2.122,34.0,0.0
295981,-0.130,0.153,0.988,-6.351,-7.924,-3.290,34.0,0.0
296066,-0.106,0.131,0.990,-5.725,-8.626,-6.519,34.0,0.0
296150,-0.117,0.120,0.972,-3.718,-8.107,-7.229,36.0,0.0
296235,-0.082,0.103,0.959,-4.069,-1.489,-7.069,36.0,0.0
296318,-0.080,0.136,0.973,0.313,3.023,-6.878,36.0,0.0
296402,-0.124,0.118,0.975,7.748,1.656,-3.565,37.0,0.0
296487,-0.191,0.113,0.880,37.099,20.145,1.275,38.0,0.0
296576,-0.239,0.250,0.731,39.992,70.176,1.313,48.0,0.0
296659,-0.343,0.177,1.123,-26.618,73.099,-42.412,33.0,0.0
296743,-0.363,0.313,1.139,65.344,24.947,-13.435,32.0,0.0
296828,-0.294,0.247,0.900,-44.664,11.740,-27.916,32.0,0.0
296912,-0.429,0.248,0.871,4.962,8.031,-10.397,32.0,0.0
296996,-0.428,0.126,0.851,29.893,9.641,-16.344,36.0,0.0
297082,-0.550,0.145,0.871,-9.893,2.878,-18.115,49.0,0.0
297167,-0.488,0.157,0.880,-1.290,11.756,-1.366,50.0,0.0
297252,-0.544,0.205,0.886,-26.008,11.435,5.145,49.0,0.0
297340,-0.561,0.163,0.748,-10.939,3.977,11.718,50.0,0.0
297426,-0.551,0.038,0.800,-24.725,-12.321,3.511,51.0,0.0
297510,-0.494,0.111,0.826,24.427,-13.221,7.282,32.0,0.0
297605,-0.484,0.134,0.840,8.298,-24.313,10.275,0.0,0.0
297698,-0.245,-0.030,1.054,39.435,11.618,17.183,0.0,0.0
297783,0.149,0.519,1.229,23.580,-18.130,-6.771,47.0,0.0
297868,-1.225,0.046,0.544,61.794,-12.328,6.763,34.0,0.0
297953,-0.733,0.217,0.461,-13.298,-99.351,39.779,56.0,0.0
298039,-0.333,0.679,0.464,37.107,-42.412,25.496,56.0,0.0
298128,-0.165,0.449,0.734,20.580,-24.069,27.702,55.0,0.0
298213,0.012,0.410,0.868,-15.611,-16.573,21.389,54.0,0.0
298299,0.027,0.632,0.870,-7.229,5.382,6.626,54.0,0.0
298384,-0.104,0.450,0.706,30.420,-12.878,-3.985,55.0,0.0
298478,-0.283,0.425,0.570,42.931,-9.847,13.817,0.0,0.0
298564,-0.204,0.309,0.753,129.939,-71.145,67.198,59.0,0.0
298650,-0.178,0.457,0.258,59.405,-146.458,131.282,62.0,0.0
298736,1.067,1.187,0.295,-0.634,-21.160,-26.687,59.0,0.0
298821,0.970,0.901,0.677,33.191,26.481,-20.977,39.0,0.0
298903,0.307,1.042,0.534,-57.901,7.656,-37.725,34.0,0.0
298987,0.093,0.698,0.538,-30.427,-8.053,-8.962,29.0,0.0
299072,0.217,0.676,0.580,1.481,5.870,-38.221,26.0,0.0
299155,0.140,0.424,0.779,65.824,-20.878,-22.832,24.0,0.0
299249,0.042,1.226,0.210,80.710,16.916,-60.748,0.0,0.0
299343,-0.032,0.882,0.323,118.244,11.504,-28.878,0.0,0.0
299438,-0.055,0.909,0.205,37.351,0.763,5.626,0.0,0.0
299532,0.059,0.984,0.213,49.298,-8.420,-6.382,0.0,0.0
299625,0.035,0.997,0.156,47.137,-4.137,-10.809,0.0,0.0
299722,0.073,1.031,0.027,4.374,-3.313,-0.649,0.0,0.0
299816,0.050,0.997,0.132,-5.099,-1.298,0.076,0.0,0.0
299911,0.058,1.001,0.121,11.557,-3.985,-0.435,0.0,0.0
300005,0.048,1.038,0.090,16.679,-9.893,1.481,0.0,0.0
300099,0.066,1.018,0.055,6.679,-9.702,1.939,0.0,0.0
300192,0.075,1.014,-0.012,3.458,-3.924,-0.947,0.0,0.0
300286,0.063,1.013,0.057,-0.771,0.374,0.580,0.0,0.0
300381,0.068,1.010,0.030,0.366,-1.443,0.397,0.0,0.0
300475,0.063,1.008,0.057,-2.305,-0.092,-0.282,0.0,0.0
300571,0.074,1.008,0.049,-4.099,1.031,0.290,0.0,0.0
300665,0.069,1.014,0.061,-0.183,-0.450,0.405,0.0,0.0
300760,0.064,1.011,0.052,-0.511,-0.481,0.015,0.0,0.0
300854,0.065,1.009,0.044,-0.977,-0.321,-0.183,0.0,0.0
300948,0.062,1.005,0.062,-0.534,-0.328,0.305,0.0,0.0
301042,0.068,1.010,0.063,-0.611,-0.420,0.229,0.0,0.0
301135,0.059,1.011,0.052,-0.275,-0.603,0.115,0.0,0.0
301230,0.067,1.010,0.058,-0.168,-0.626,-0.008,0.0,0.0
301324,0.066,1.008,0.056,-0.366,-0.389,0.084,0.0,0.0
301418,0.063,1.005,0.062,-0.183,-0.496,-0.130,0.0,0.0
301510,0.062,1.009,0.058,-0.458,-0.435,-0.031,0.0,0.0
301604,0.072,1.019,0.027,-12.824,4.076,2.031,0.0,0.0
301698,0.053,1.033,0.073,-44.908,12.641,9.252,0.0,0.0
301792,0.069,1.215,0.080,-111.061,5.092,6.870,0.0,0.0
301886,0.114,0.939,0.413,-245.527,11.603,-22.756,0.0,0.0
301980,0.017,0.226,1.014,-220.122,-7.832,-30.634,0.0,0.0
302065,-0.024,0.278,0.978,-141.244,-25.252,-56.290,24.0,0.0
302148,-0.007,0.073,1.015,-93.977,-0.748,-87.053,30.0,172.0
302233,-0.127,-0.038,0.973,-20.229,-0.443,-81.634,35.0,0.0
302314,-0.136,0.315,0.833,15.214,19.542,-87.504,41.0,159.0
302397,-0.226,0.217,0.869,16.534,9.359,-74.359,45.0,153.0
302480,-0.101,0.518,0.828,15.916,10.344,-42.740,50.0,148.0
302563,-0.104,0.469,0.930,33.618,11.099,-6.366,51.0,146.0
302645,-0.253,0.514,0.961,6.061,11.763,7.496,50.0,146.0
302728,-0.189,-0.160,1.036,7.641,-1.053,11.656,47.0,147.0
302811,-0.270,0.166,1.174,21.344,-3.809,6.595,45.0,147.0
302893,-0.149,0.455,0.927,35.878,-2.046,8.351,45.0,147.0
302979,-0.157,0.433,0.891,7.450,-2.656,1.794,47.0,147.0
303062,-0.158,0.431,0.888,7.763,-2.718,1.099,48.0,146.0
303144,-0.122,0.457,0.889,4.557,-2.565,-0.221,47.0,147.0
303226,-0.134,0.404,0.914,-5.282,-1.366,-0.710,48.0,147.0
303309,-0.142,0.381,0.928,-1.588,-0.450,0.435,46.0,147.0
303392,-0.136,0.370,0.927,1.244,-0.588,0.802,47.0,147.0
303474,-0.140,0.384,0.913,1.031,-0.817,0.313,47.0,147.0
303557,-0.133,0.384,0.924,-0.534,-0.939,0.122,47.0,147.0
303640,-0.140,0.391,0.911,-1.748,-0.634,-0.282,47.0,147.0
303730,-0.144,0.395,0.922,1.473,-0.733,0.656,46.0,147.0
303812,-0.131,0.404,0.906,2.038,-0.542,0.473,46.0,147.0
303894,-0.141,0.413,0.910,-1.435,-0.176,0.267,48.0,147.0
303976,-0.135,0.389,0.924,-3.198,-0.221,-0.359,46.0,147.0
304057,-0.136,0.385,0.916,0.305,-0.313,0.282,48.0,147.0
304139,-0.134,0.395,0.919,-0.435,-0.481,0.359,48.0,147.0
304221,-0.139,0.405,0.906,-2.977,-0.260,-0.137,48.0,147.0
304303,-0.144,0.383,0.915,1.641,-0.374,0.427,48.0,147.0
304385,-0.140,0.392,0.924,-0.458,-0.282,-0.061,48.0,147.0
304468,-0.137,0.393,0.905,1.511,-0.130,0.588,47.0,147.0
304550,-0.142,0.372,0.925,-0.191,-0.443,0.130,47.0,147.0
304632,-0.136,0.396,0.907,0.672,-0.664,0.221,47.0,147.0
304714,-0.141,0.367,0.922,-0.092,-0.672,0.237,47.0,147.0
304796,-0.139,0.401,0.915,2.107,-0.603,0.672,47.0,148.0
304877,-0.140,0.394,0.921,-0.519,-0.458,-0.107,47.0,147.0
304959,-0.142,0.393,0.906,-0.351,-0.443,0.176,47.0,147.0
305041,-0.135,0.403,0.917,-0.076,-0.435,0.092,48.0,147.0
305123,-0.134,0.402,0.922,2.366,-0.542,0.702,48.0,147.0
305208,-0.138,0.375,0.922,0.954,-1.031,1.389,48.0,147.0
305290,-0.123,0.339,0.945,20.061,-2.916,7.359,47.0,147.0
305372,-0.113,0.468,0.921,21.122,-6.519,3.389,48.0,147.0
305454,-0.060,0.513,0.883,-1.710,-7.000,0.527,49.0,148.0
305536,-0.169,0.387,0.937,-3.916,-8.305,-0.679,53.0,147.0
305617,-0.255,0.006,1.130,88.015,-15.214,4.977,57.0,146.0
305703,-0.190,0.363,0.995,119.267,-57.473,0.557,66.0,0.0
305798,0.580,0.523,0.513,-134.519,-15.794,2.511,0.0,0.0
305880,-0.323,0.055,1.104,-200.840,84.267,-40.115,47.0,145.0
305965,-0.056,0.760,0.595,79.198,-20.313,2.473,52.0,144.0
306050,0.065,0.902,0.620,-81.137,2.595,3.595,56.0,0.0
306131,0.103,0.290,1.036,-179.634,9.672,-13.092,51.0,150.0
306214,-0.384,-0.080,0.962,-100.450,11.885,5.916,44.0,153.0
306295,-0.120,0.049,0.982,58.229,4.588,-10.641,37.0,150.0
306378,-0.026,-0.286,1.237,-46.092,-4.435,-23.053,62.0,150.0
306461,-0.224,-0.149,1.079,87.557,-12.763,-56.160,58.0,149.0
306544,0.273,1.100,0.668,-67.061,-2.557,-84.886,57.0,148.0
306630,-0.007,0.008,1.209,146.092,62.458,-43.573,58.0,148.0
306712,-0.254,0.609,0.742,-36.710,92.817,-96.542,58.0,149.0
306797,-0.608,0.434,0.906,98.382,73.573,-104.916,79.0,151.0
306888,-0.991,0.298,0.806,72.794,31.885,-33.076,0.0,156.0
306971,-0.834,0.672,0.515,-28.084,45.649,50.298,57.0,162.0
307055,-0.342,-0.178,0.527,-108.145,39.115,28.786,62.0,169.0
307147,-0.465,-0.109,0.582,-24.817,6.618,-3.176,0.0,175.0
307231,-0.534,-0.159,0.760,-44.008,-31.214,-39.282,48.0,178.0
307316,-0.791,0.073,0.834,43.557,-47.939,-10.634,49.0,180.0
307403,-0.671,0.201,0.861,11.374,-72.725,-9.878,54.0,183.0
307496,-0.322,0.039,0.893,4.916,-85.076,-2.733,0.0,186.0
307580,-0.435,0.111,1.091,-2.244,-59.718,-0.427,36.0,188.0
307664,-0.123,0.027,0.945,-31.649,-58.443,2.458,37.0,191.0
307746,0.139,-0.057,0.935,-33.603,-56.679,2.565,42.0,157.0
307830,0.099,0.018,0.961,-2.588,-50.779,-13.908,39.0,192.0
307924,0.105,0.066,0.966,-6.015,-31.985,-13.656,0.0,192.0
308008,0.135,0.032,0.971,7.099,-24.099,-0.397,40.0,192.0
308096,0.134,0.124,0.952,-10.366,-18.504,-3.489,41.0,192.0
308189,0.069,0.072,0.929,2.603,-6.756,-2.534,0.0,192.0
308283,0.122,0.008,0.980,-4.328,4.977,-3.321,0.0,192.0
308367,0.120,0.024,1.004,-1.893,9.885,-7.863,39.0,192.0
308460,0.045,0.047,0.842,35.763,15.496,-8.626,0.0,193.0
308553,0.104,-0.042,0.593,87.412,92.374,-9.870,0.0,193.0
308646,-0.240,0.354,0.809,33.794,156.565,-59.802,0.0,192.0
308741,-0.733,0.261,1.194,30.527,82.664,-34.618,0.0,0.0
308835,-0.589,0.371,0.868,83.656,29.191,1.405,0.0,0.0
308931,-0.595,0.458,0.685,-10.519,16.588,-6.573,0.0,0.0
309025,-0.564,0.431,0.673,45.664,1.527,11.916,0.0,0.0
309120,-0.579,0.400,0.697,19.557,5.870,7.870,0.0,0.0
309213,-0.526,0.477,0.681,33.847,15.992,8.832,0.0,0.0
309307,-0.514,0.520,0.625,36.641,6.122,3.405,0.0,0.0
309401,-0.600,0.519,0.592,17.221,1.206,-0.359,0.0,0.0
309494,-0.601,0.507,0.650,-15.641,-2.130,-2.107,0.0,0.0
309588,-0.590,0.456,0.655,-7.168,-1.015,2.557,0.0,0.0
309683,-0.578,0.549,0.609,7.481,-1.924,2.702,0.0,0.0
309779,-0.570,0.544,0.627,-8.733,-1.305,0.832,0.0,0.0
309873,-0.767,0.593,0.603,10.435,-0.779,11.885,0.0,0.0
309967,-1.054,1.234,0.933,9.527,32.122,-8.786,0.0,0.0
310052,0.727,0.282,1.269,-60.107,76.275,24.443,46.0,0.0
310137,-0.127,0.189,0.819,6.275,-91.573,-5.626,44.0,0.0
310232,-2.000,1.111,-0.038,-159.382,29.656,-8.847,0.0,0.0
310326,0.187,-0.123,1.193,121.153,43.504,-34.481,0.0,0.0
310411,-0.176,0.561,0.611,-99.886,-7.008,-28.145,40.0,0.0
310496,-0.601,0.828,0.442,32.252,61.740,-3.115,44.0,0.0
310582,-0.518,0.304,0.356,-121.802,-7.160,77.573,41.0,162.0
310664,-0.779,0.662,0.357,-34.053,-30.305,119.863,40.0,158.0
310747,-0.749,-0.566,0.313,11.244,-100.366,92.115,36.0,155.0
310832,0.655,0.667,0.827,-16.244,-105.809,150.939,39.0,0.0
310917,1.837,1.986,-0.238,225.053,50.916,8.687,40.0,0.0
311002,0.212,1.651,0.564,55.489,22.328,163.489,37.0,0.0
311087,-0.205,0.171,1.114,30.672,-21.198,138.954,39.0,0.0
311181,-0.027,0.461,0.468,-97.351,4.031,6.489,0.0,0.0
311267,0.411,0.742,0.556,-28.672,48.405,13.534,61.0,0.0
311354,0.223,0.435,0.859,-43.206,-4.244,-37.183,25.0,0.0
311438,0.328,0.771,0.694,90.000,-1.031,16.962,24.0,0.0
311523,0.516,0.729,0.606,-21.977,-8.069,1.046,26.0,0.0
311607,0.394,0.617,0.527,-14.130,13.229,-14.679,26.0,0.0
311701,0.215,0.695,0.600,-6.237,32.496,-40.916,0.0,0.0
311786,0.074,0.935,0.554,24.595,23.840,-24.130,41.0,0.0
311880,0.068,0.735,0.651,2.595,21.031,-15.702,0.0,0.0
311974,0.110,0.740,0.577,-121.542,33.840,-34.817,0.0,0.0
312058,-0.040,0.599,0.865,-22.695,35.069,-18.466,28.0,0.0
312156,-0.076,0.549,0.896,-16.122,11.618,-9.282,0.0,0.0
312240,-0.029,0.543,0.845,2.748,-0.870,5.382,27.0,0.0
312325,-0.022,0.474,0.781,35.931,8.305,-7.061,30.0,0.0
312409,-0.134,0.605,0.860,-15.855,10.931,1.595,30.0,0.0
312494,-0.089,0.520,0.842,-1.206,7.046,11.267,29.0,0.0
312588,-0.090,0.477,0.909,62.511,0.000,12.084,0.0,0.0
312674,-0.043,0.762,0.654,91.145,-15.908,6.061,67.0,0.0
312768,-0.023,0.935,0.498,18.153,-5.176,1.863,0.0,0.0
312862,-0.024,0.735,0.668,-50.756,5.656,-8.229,0.0,0.0
312960,-0.078,0.627,0.763,-8.626,0.718,-1.206,0.0,0.0
313054,-0.042,0.722,0.705,20.977,-4.351,-0.588,0.0,0.0
313148,-0.051,0.792,0.650,14.618,-3.214,-0.626,0.0,0.0
313242,-0.036,0.778,0.661,2.298,-0.626,-0.267,0.0,0.0
313336,-0.051,0.796,0.625,-10.489,0.076,-3.137,0.0,0.0
313431,-0.068,0.720,0.685,-15.626,0.008,2.420,0.0,0.0
313525,-0.042,0.714,0.717,-4.756,1.679,4.115,0.0,0.0
313619,-0.041,0.732,0.688,-2.901,2.824,-0.115,0.0,0.0
313713,-0.069,0.700,0.706,2.061,-1.092,2.534,0.0,0.0
313810,-0.050,0.724,0.706,-0.969,-1.794,-1.099,0.0,0.0
313905,-0.037,0.745,0.691,2.534,-0.473,1.679,0.0,0.0
313999,-0.052,0.708,0.703,-4.305,1.115,-1.695,0.0,0.0
314093,-0.056,0.731,0.695,-5.099,-0.053,2.969,0.0,0.0
314187,-0.040,0.719,0.714,-11.160,1.359,0.374,0.0,0.0
314283,-0.052,0.690,0.743,-5.962,0.015,-0.458,0.0,0.0
314377,-0.050,0.715,0.717,16.153,-3.137,3.321,0.0,0.0
314471,-0.037,0.742,0.675,-5.221,-0.244,-1.321,0.0,0.0
314565,-0.045,0.687,0.731,-14.130,1.183,-1.153,0.0,0.0
314659,-0.065,0.677,0.732,2.427,0.939,-1.321,0.0,0.0
314758,-0.034,0.693,0.732,-5.771,0.557,0.504,0.0,0.0
314852,-0.075,0.703,0.730,-1.412,1.092,-1.603,0.0,0.0
314951,0.005,0.760,0.682,7.863,-0.168,-2.985,0.0,0.0
315044,-0.132,0.682,0.777,-22.519,-3.389,-2.618,0.0,0.0
315138,-0.026,0.725,0.645,59.542,-1.550,17.557,0.0,0.0
315232,0.061,0.857,0.656,-12.733,-2.160,2.969,0.0,0.0
315325,-0.137,0.647,0.655,8.458,0.748,-4.908,0.0,0.0
315418,-0.044,0.868,0.689,-28.412,8.557,3.221,0.0,0.0
315511,-0.164,0.707,0.672,-38.321,3.969,0.275,0.0,0.0
315608,0.059,0.589,0.815,-18.809,3.366,1.809,0.0,0.0
315701,-0.101,0.575,0.836,28.885,-2.817,1.008,0.0,0.0
315794,0.022,0.857,0.546,-20.542,3.565,-7.389,0.0,0.0
315887,-0.115,0.618,0.778,-52.359,2.420,-10.344,0.0,0.0
315981,-0.106,0.589,0.830,-2.053,-0.130,7.115,0.0,0.0
316075,-0.061,0.849,0.543,-169.969,23.840,15.481,0.0,0.0
316157,-0.160,0.038,1.057,-159.824,13.565,13.748,22.0,0.0
316240,-0.075,-0.182,0.925,-138.534,4.641,14.351,19.0,0.0
316324,-0.167,-0.348,1.098,15.183,8.183,5.153,18.0,0.0
316410,-0.094,0.275,0.918,80.336,10.244,3.000,22.0,0.0
316493,-0.253,0.385,0.933,29.832,-8.893,5.137,22.0,0.0
316577,-0.163,0.141,1.018,-1.061,-0.137,-7.489,22.0,0.0
316670,-0.140,0.011,1.029,3.000,-0.359,2.641,0.0,0.0
316753,-0.125,0.237,0.956,16.099,-1.252,-2.496,21.0,0.0
316837,-0.134,0.223,0.976,-1.023,-1.443,1.992,22.0,0.0
316920,-0.123,0.124,1.005,-9.244,-1.260,1.985,21.0,0.0
317003,-0.125,0.084,1.042,43.702,-4.802,-2.221,20.0,0.0
317087,-0.111,0.285,0.906,71.847,-3.847,-3.229,21.0,0.0
317184,-0.076,0.319,0.926,45.710,-8.542,-1.053,0.0,0.0
317277,-0.075,0.491,0.890,-1.618,-0.435,-1.947,0.0,0.0
317371,-0.121,0.286,0.948,5.748,-2.824,-2.015,0.0,0.0
317454,-0.098,0.406,0.920,23.595,-3.519,0.420,26.0,0.0
317538,-0.100,0.494,0.869,11.397,-1.305,-0.985,25.0,0.0
317622,-0.108,0.435,0.892,-9.595,-0.214,-1.008,23.0,0.0
317705,-0.084,0.405,0.921,-10.397,-0.153,-0.931,25.0,0.0
317789,-0.103,0.390,0.926,9.298,-0.947,-0.252,23.0,0.0
317872,-0.100,0.448,0.896,11.557,-1.237,0.336,24.0,0.0
317959,-0.104,0.455,0.885,1.344,-0.550,0.550,26.0,0.0
318043,-0.096,0.448,0.893,-2.893,-0.076,-0.183,24.0,0.0
318126,-0.105,0.425,0.908,0.740,-1.153,0.282,24.0,0.0
318210,-0.104,0.465,0.884,0.282,-0.405,-0.305,27.0,0.0
318294,-0.104,0.420,0.915,-2.130,-0.679,-0.405,27.0,0.0
318376,-0.096,0.467,0.883,1.244,-0.618,0.061,24.0,0.0
318460,-0.103,0.432,0.906,-3.603,-0.351,-0.282,27.0,0.0
318544,-0.097,0.448,0.901,2.481,-0.580,0.641,27.0,0.0
318628,-0.099,0.438,0.903,-0.611,-0.374,-0.023,27.0,0.0
318715,-0.095,0.448,0.902,1.267,-0.542,0.275,24.0,0.0
318798,-0.104,0.435,0.902,-1.504,-0.748,-0.084,24.0,0.0
318882,-0.095,0.448,0.897,-0.191,-0.450,0.382,24.0,0.0
318966,-0.101,0.432,0.904,0.435,-0.649,0.122,24.0,0.0
319049,-0.096,0.457,0.893,1.939,-0.664,0.214,24.0,0.0
319133,-0.096,0.433,0.906,-1.145,-0.534,-0.023,24.0,0.0
319217,-0.102,0.446,0.889,-1.237,-0.672,-0.160,24.0,0.0
319300,-0.099,0.443,0.902,-0.504,-0.565,-0.282,24.0,0.0
319384,-0.098,0.448,0.896,-0.611,-0.511,0.061,24.0,0.0
319468,-0.098,0.454,0.896,0.695,-0.595,0.252,24.0,0.0
319555,-0.093,0.442,0.896,-0.145,-0.336,0.267,24.0,0.0
319638,-0.096,0.448,0.892,0.336,-0.672,0.137,24.0,0.0
319722,-0.096,0.448,0.894,0.473,-0.649,0.130,24.0,0.0
319806,-0.099,0.436,0.896,-0.534,-0.473,0.038,24.0,0.0
319890,-0.099,0.446,0.895,0.405,-0.519,0.145,24.0,0.0
319973,-0.105,0.449,0.902,-0.427,-0.695,0.252,24.0,0.0
320057,-0.099,0.455,0.893,-0.282,-0.626,0.267,24.0,0.0
320141,-0.098,0.446,0.896,0.008,-0.443,-0.053,24.0,0.0
320225,-0.099,0.454,0.899,0.351,-0.779,0.275,24.0,0.0
320312,-0.097,0.444,0.893,-0.397,-0.534,0.244,24.0,0.0
320395,-0.106,0.450,0.897,1.221,-0.664,0.061,24.0,0.0
320479,-0.093,0.444,0.902,0.466,-0.565,-0.076,25.0,0.0
320563,-0.101,0.447,0.904,6.153,-0.588,1.084,23.0,0.0
320647,-0.101,0.478,0.885,3.649,-0.649,1.244,23.0,0.0
320731,-0.092,0.488,0.881,-6.466,-0.214,-0.626,27.0,0.0
320815,-0.088,0.490,0.875,-27.252,2.725,-1.267,24.0,0.0
320898,-0.104,0.367,0.941,-17.603,1.588,-1.427,23.0,0.0
320982,-0.092,0.355,0.939,-6.718,-0.168,-0.092,23.0,0.0
321078,-0.105,0.386,0.932,15.969,-3.473,-1.664,23.0,0.0
321164,-0.104,0.460,0.894,10.786,-1.344,0.962,24.0,0.0
321250,-0.101,0.432,0.910,-5.206,0.336,1.046,23.0,0.0
321336,-0.100,0.420,0.912,5.191,-0.725,1.099,25.0,0.0
321423,-0.100,0.436,0.903,-0.153,-0.817,-0.870,23.0,0.0
321509,-0.108,0.416,0.913,-2.870,-1.031,-1.481,24.0,0.0
321595,-0.096,0.426,0.914,-1.275,-1.527,-0.985,23.0,0.0
321682,-0.099,0.429,0.903,4.611,-0.908,0.191,26.0,0.0
321768,-0.108,0.432,0.887,0.908,-0.290,1.221,25.0,0.0
321857,-0.095,0.429,0.898,-1.412,-0.137,0.611,23.0,0.0
321944,-0.106,0.433,0.905,-2.954,-0.427,0.496,26.0,0.0
322030,-0.110,0.409,0.908,-10.718,0.450,-2.046,23.0,0.0
322116,-0.056,0.557,0.830,-54.000,1.962,-1.969,23.0,0.0
322203,-0.274,0.056,1.043,-92.374,-22.382,4.473,22.0,0.0
322289,-0.118,-0.072,1.275,26.885,-65.618,7.511,21.0,0.0
322381,0.021,0.366,0.893,64.710,-93.588,23.275,125.0,0.0
322478,0.200,0.310,0.956,14.305,-96.962,20.504,0.0,0.0
322570,0.319,0.458,0.794,12.092,-95.840,28.580,125.0,0.0
322666,0.557,0.418,0.766,-1.931,-104.779,38.076,128.0,0.0
322770,0.748,0.285,0.554,-12.122,-94.412,58.107,0.0,0.0
322859,0.775,0.134,0.473,-22.290,-83.954,50.084,65.0,0.0
322947,0.826,0.024,0.416,1.588,-50.611,37.878,54.0,0.0
323034,0.861,-0.030,0.421,-7.321,-22.069,29.244,46.0,0.0
323120,0.849,-0.053,0.438,-16.015,-15.756,18.008,40.0,0.0
323207,0.915,-0.061,0.387,5.267,-14.771,11.557,38.0,0.0
