Timestamp(ms),AccelX(g),AccelY(g),AccelZ(g),GyroX(deg/s),GyroY(deg/s),GyroZ(deg/s),DistanceLeft(cm),DistanceRight(cm)
152273,0.097,-0.152,0.967,4.069,5.435,12.221,51.0,0.0
152357,0.066,-0.147,0.956,6.366,7.031,9.679,45.0,0.0
152441,0.065,-0.157,0.932,11.382,14.412,9.336,43.0,192.0
152525,0.009,-0.186,0.882,35.794,30.855,0.603,50.0,0.0
152609,-0.202,-0.205,0.841,60.153,44.069,-29.420,49.0,198.0
152695,-0.311,0.071,0.937,96.412,55.038,-45.977,117.0,162.0
152781,-0.161,0.357,1.027,97.748,50.634,-46.740,119.0,142.0
152869,-0.157,0.575,0.997,85.183,47.145,-21.885,121.0,140.0
152954,-0.161,0.534,0.969,35.061,49.618,4.221,121.0,140.0
153039,-0.478,0.536,0.955,-7.191,34.870,-7.824,119.0,142.0
153124,-0.367,0.077,0.886,52.321,-0.863,-23.573,119.0,141.0
153209,-0.397,0.530,0.708,7.328,10.985,-12.450,121.0,140.0
153295,-0.432,0.677,0.652,26.435,11.038,9.908,123.0,140.0
153376,-0.469,0.587,0.670,-7.046,-0.527,3.145,41.0,140.0
153457,-0.466,0.387,0.774,24.519,-0.244,6.489,42.0,139.0
153537,-0.427,0.542,0.759,17.580,-0.511,10.840,40.0,140.0
153621,-0.398,0.546,0.704,-8.023,-0.832,11.267,40.0,141.0
153702,-0.461,0.603,0.719,4.924,-6.855,9.015,41.0,141.0
153793,-0.099,0.848,1.286,-30.779,33.565,44.550,0.0,149.0
153875,0.185,0.502,1.282,-174.695,-56.221,115.183,46.0,154.0
153960,-0.193,0.209,0.484,194.015,-113.534,135.763,53.0,0.0
154045,-0.713,1.357,0.041,16.305,-1.046,78.061,57.0,0.0
154130,-0.038,0.614,0.561,-69.672,-57.893,20.718,58.0,0.0
154224,-0.196,0.650,0.705,88.168,-50.153,71.626,0.0,0.0
154309,0.054,0.811,0.341,149.031,-37.939,107.176,59.0,0.0
154390,0.927,0.964,0.606,-6.504,72.573,98.443,57.0,68.0
154468,0.569,0.721,0.516,27.305,18.954,7.374,58.0,69.0
154561,0.720,0.880,0.189,148.969,69.634,40.397,0.0,0.0
154645,0.366,1.107,0.469,-201.702,124.344,81.496,32.0,0.0
154730,0.162,0.088,0.631,-165.038,52.847,132.160,63.0,0.0
154815,0.557,-0.215,0.909,72.275,6.679,187.275,37.0,0.0
154908,0.354,0.184,0.884,25.603,26.641,102.763,0.0,0.0
154996,0.292,0.114,0.972,7.496,21.397,37.916,114.0,0.0
155089,0.563,0.179,0.824,-33.450,20.580,35.008,0.0,0.0
155187,0.529,-0.192,0.887,-20.252,14.427,44.794,0.0,0.0
155280,0.358,-0.335,1.014,23.878,11.756,21.305,0.0,0.0
155373,0.351,0.065,0.850,-29.366,-10.000,-8.733,0.0,0.0
155466,0.561,-0.180,0.903,-80.389,-9.137,-16.664,0.0,0.0
155560,0.484,-0.126,0.881,33.305,5.893,8.130,0.0,0.0
155654,0.358,-0.175,0.954,-7.634,7.756,2.901,0.0,0.0
155747,0.424,-0.125,0.892,0.702,-5.198,-4.481,0.0,0.0
155840,0.469,-0.128,0.885,10.122,1.847,-1.542,0.0,0.0
155934,0.407,-0.112,0.920,4.122,2.947,0.359,0.0,0.0
156030,0.423,-0.127,0.913,-1.076,0.282,-0.756,0.0,0.0
156124,0.413,-0.102,0.914,2.664,0.473,0.130,0.0,0.0
156217,0.419,-0.124,0.912,0.214,-1.664,-0.489,0.0,0.0
156310,0.419,-0.126,0.920,2.992,-0.481,-0.878,0.0,0.0
156404,0.417,-0.111,0.910,-1.534,-0.290,-0.481,0.0,0.0
156497,0.417,-0.116,0.909,0.893,-0.748,-0.771,0.0,0.0
156591,0.424,-0.099,0.923,1.901,-0.901,-0.443,0.0,0.0
156685,0.421,-0.100,0.905,-1.099,-0.969,-0.176,0.0,0.0
156778,0.424,-0.105,0.912,0.305,-0.931,0.023,0.0,0.0
156874,0.428,-0.111,0.903,-0.176,-0.656,-0.198,0.0,0.0
156968,0.438,-0.082,0.891,-1.603,-0.695,0.344,0.0,0.0
157062,0.427,-0.116,0.911,-1.519,0.015,0.519,0.0,0.0
157155,0.426,-0.105,0.908,-0.130,0.130,0.206,0.0,0.0
157249,0.423,-0.111,0.905,-1.931,-0.069,0.046,0.0,0.0
157342,0.423,-0.112,0.916,-0.130,0.000,0.115,0.0,0.0
157435,0.424,-0.104,0.911,-0.672,-0.038,0.084,0.0,0.0
157530,0.419,-0.122,0.922,2.313,-0.282,-0.305,0.0,0.0
157623,0.423,-0.109,0.917,-2.511,-0.221,0.038,0.0,0.0
157720,0.416,-0.108,0.902,0.687,-0.099,-0.031,0.0,0.0
157813,0.420,-0.103,0.910,-0.588,0.046,0.435,0.0,0.0
157906,0.414,-0.116,0.908,-0.153,-0.061,0.031,0.0,0.0
158001,0.420,-0.103,0.917,0.321,-0.260,-0.099,0.0,0.0
158094,0.415,-0.104,0.911,-1.710,-0.534,0.267,0.0,0.0
158187,0.415,-0.089,0.898,-0.198,-0.244,0.206,0.0,0.0
158281,0.410,-0.112,0.928,1.092,-0.275,0.641,0.0,0.0
158374,0.421,-0.103,0.907,-1.076,-0.458,0.328,0.0,0.0
158469,0.415,-0.114,0.912,-2.328,-0.511,0.626,0.0,0.0
158562,0.414,-0.117,0.908,-0.954,-0.542,0.038,0.0,0.0
158658,0.415,-0.104,0.906,0.321,-0.412,-0.092,0.0,0.0
158752,0.418,-0.122,0.923,0.168,-0.298,-0.099,0.0,0.0
158845,0.418,-0.099,0.904,-2.168,-0.626,-0.153,0.0,0.0
158940,0.417,-0.118,0.910,0.710,-0.458,-0.069,0.0,0.0
159033,0.414,-0.108,0.918,-0.511,-0.473,0.191,0.0,0.0
159127,0.426,-0.115,0.909,-0.458,-0.458,0.107,0.0,0.0
159220,0.417,-0.109,0.921,0.664,-0.786,-0.061,0.0,0.0
159313,0.417,-0.108,0.915,0.031,-0.824,0.023,0.0,0.0
159408,0.422,-0.113,0.913,0.137,-0.786,-0.145,0.0,0.0
159505,0.416,-0.088,0.896,-0.015,-0.840,0.160,0.0,0.0
159598,0.417,-0.113,0.914,0.229,-0.870,0.145,0.0,0.0
159691,0.412,-0.096,0.915,0.733,-0.412,0.000,0.0,0.0
159785,0.421,-0.102,0.909,-2.206,-0.359,0.458,0.0,0.0
159879,0.423,-0.106,0.925,-0.198,-0.527,0.008,0.0,0.0
159973,0.420,-0.100,0.914,-1.550,-0.344,0.198,0.0,0.0
160067,0.419,-0.115,0.914,-1.389,-0.122,0.099,0.0,0.0
160160,0.418,-0.115,0.925,2.695,-0.336,-0.160,0.0,0.0
160254,0.416,-0.114,0.908,-3.237,-0.420,0.000,0.0,0.0
160352,0.419,-0.112,0.919,1.924,-0.351,-0.176,0.0,0.0
160445,0.417,-0.105,0.912,-1.740,-0.420,0.275,0.0,0.0
160539,0.417,-0.119,0.923,0.565,-0.145,0.252,0.0,0.0
160632,0.423,-0.115,0.915,-0.275,-0.260,0.130,0.0,0.0
160727,0.413,-0.113,0.912,-0.443,-0.298,0.336,0.0,0.0
160820,0.413,-0.101,0.916,-0.481,-0.420,0.076,0.0,0.0
160914,0.419,-0.110,0.911,-0.382,-0.496,0.206,0.0,0.0
161008,0.419,-0.081,0.896,-0.672,-0.550,0.221,0.0,0.0
161101,0.422,-0.124,0.914,-0.901,-0.412,0.061,0.0,0.0
161196,0.415,-0.095,0.911,-0.374,-0.336,0.382,0.0,0.0
161293,0.419,-0.112,0.913,-0.649,-0.573,0.221,0.0,0.0
161392,0.415,-0.100,0.913,0.191,-0.710,-0.137,0.0,0.0
161485,0.412,-0.108,0.913,0.359,-0.618,0.069,0.0,0.0
161579,0.422,-0.104,0.916,0.221,-0.687,0.122,0.0,0.0
161672,0.416,-0.108,0.911,0.473,-0.649,-0.137,0.0,0.0
161765,0.415,-0.099,0.912,0.802,-0.809,-0.267,0.0,0.0
161858,0.416,-0.078,0.899,-1.053,-0.878,0.107,0.0,0.0
161951,0.419,-0.110,0.911,0.802,-0.832,0.107,0.0,0.0
162044,0.422,-0.084,0.904,-0.237,-0.733,0.115,0.0,0.0
162141,0.421,-0.099,0.906,-0.588,-0.756,0.137,0.0,0.0
162234,0.418,-0.095,0.909,0.008,-0.542,-0.191,0.0,0.0
162327,0.420,-0.096,0.914,-1.260,-0.122,0.328,0.0,0.0
162420,0.423,-0.100,0.913,-0.748,-0.260,0.290,0.0,0.0
162513,0.416,-0.101,0.910,-1.176,-0.206,0.076,0.0,0.0
162607,0.425,-0.101,0.922,-0.847,-0.412,0.084,0.0,0.0
162699,0.423,-0.091,0.898,-3.481,-0.275,0.336,0.0,0.0
162792,0.417,-0.119,0.917,-0.069,-0.229,0.252,0.0,0.0
162885,0.422,-0.086,0.908,-1.397,-0.359,0.458,0.0,0.0
162981,0.418,-0.111,0.913,-0.756,-0.382,0.061,0.0,0.0
163075,0.415,-0.101,0.906,-0.847,-0.595,-0.137,0.0,0.0
163168,0.413,-0.093,0.909,-1.687,-0.924,-0.099,0.0,0.0
163261,0.418,-0.117,0.917,0.008,-0.244,0.313,0.0,0.0
163354,0.415,-0.108,0.923,-0.351,-0.397,0.145,0.0,0.0
163447,0.411,-0.109,0.913,0.008,-0.618,0.168,0.0,0.0
163540,0.411,-0.107,0.915,2.557,-0.565,-0.191,0.0,0.0
163634,0.413,-0.114,0.918,-2.939,-0.756,0.397,0.0,0.0
163727,0.415,-0.107,0.920,2.466,-0.534,0.137,0.0,0.0
163820,0.415,-0.107,0.916,-2.206,-0.260,0.267,0.0,0.0
163916,0.413,-0.113,0.920,1.053,-0.221,0.115,0.0,0.0
164009,0.420,-0.118,0.916,-0.458,-0.611,0.115,0.0,0.0
164103,0.416,-0.113,0.913,-0.397,-0.863,-0.023,0.0,0.0
164196,0.416,-0.110,0.917,0.435,-0.664,0.069,0.0,0.0
164290,0.414,-0.108,0.920,-0.221,-1.511,-0.244,0.0,0.0
164383,0.408,-0.119,0.913,1.038,-4.008,-1.321,0.0,0.0
164476,0.425,-0.063,0.901,-2.382,-11.656,-3.779,0.0,0.0
164570,0.458,-0.098,0.902,-31.878,-14.863,-6.305,0.0,0.0
164663,0.480,-0.131,0.893,-47.901,-19.718,-7.992,0.0,0.0
164760,0.531,-0.265,0.793,-71.069,-22.382,-20.878,0.0,0.0
164853,0.518,-0.385,0.754,-7.000,-20.107,-37.458,0.0,0.0
164936,0.597,-0.274,0.779,47.618,-30.595,-45.763,17.0,0.0
165019,0.573,-0.307,0.817,15.290,-23.229,-66.137,17.0,0.0
165102,0.793,-0.167,0.827,107.855,-14.885,-40.237,16.0,0.0
165185,0.708,0.377,0.838,93.611,-44.359,-78.947,9.0,0.0
165278,0.807,0.167,0.741,12.153,-42.931,-66.450,0.0,0.0
165361,0.740,0.220,0.457,108.817,-7.710,-29.389,9.0,0.0
165454,0.675,0.491,0.383,62.214,-2.649,-52.115,0.0,0.0
165540,0.692,0.959,0.521,77.473,17.206,-84.855,17.0,0.0
165626,0.762,0.887,0.321,6.779,5.427,-52.756,0.0,68.0
165709,0.478,0.559,0.514,-97.008,10.511,-114.573,20.0,0.0
165793,0.210,0.715,0.610,-17.779,7.664,-119.382,22.0,0.0
165877,0.320,0.866,0.536,-5.664,21.191,-112.870,36.0,0.0
165970,0.201,0.788,0.606,-6.634,26.511,-123.260,0.0,0.0
166044,0.055,0.785,0.547,28.779,36.542,-122.710,38.0,9.0
166117,-0.089,0.889,0.563,15.588,50.000,-120.450,33.0,6.0
166191,-0.361,0.902,0.652,18.076,62.573,-120.924,35.0,10.0
166267,-0.752,0.661,0.645,-4.489,31.748,-41.618,34.0,9.0
166340,-0.940,0.581,0.488,31.916,11.000,5.366,33.0,8.0
166423,-0.794,0.671,0.385,22.809,-13.832,8.374,0.0,9.0
166506,-0.669,0.703,0.327,2.313,-34.695,35.817,36.0,178.0
166599,-0.533,0.493,0.228,-13.099,-35.374,71.977,0.0,0.0
166693,-0.256,0.354,0.091,-36.321,-37.137,40.824,0.0,0.0
166776,-0.340,0.714,0.453,-112.641,-57.015,-62.237,13.0,0.0
166859,-0.478,0.560,0.889,-91.519,-71.725,-80.198,33.0,181.0
166956,-0.348,0.515,1.107,-15.565,-46.649,-44.718,0.0,176.0
167048,-0.280,0.511,0.985,-33.481,-18.260,-21.634,0.0,174.0
167140,-0.276,0.421,0.874,2.053,-6.725,-22.893,0.0,175.0
167226,-0.195,0.403,0.816,13.191,-15.092,-21.672,102.0,163.0
167318,-0.115,0.372,0.885,6.893,3.397,-10.000,0.0,179.0
167411,-0.248,0.612,0.961,-16.916,21.206,32.603,0.0,180.0
167504,-0.336,0.267,0.852,-84.298,9.740,20.382,0.0,0.0
167598,-0.408,0.223,0.821,20.817,10.397,-4.160,0.0,182.0
167682,-0.376,0.208,0.841,17.489,-6.832,-19.924,40.0,182.0
167776,-0.216,0.203,0.788,89.672,21.985,2.916,0.0,161.0
167870,0.955,1.857,1.191,47.863,129.595,98.802,0.0,0.0
167954,-1.661,0.302,0.572,-123.069,-18.298,144.351,42.0,0.0
168039,-1.134,0.351,0.520,25.458,-107.458,69.809,40.0,0.0
168124,-0.128,0.323,0.647,99.374,-78.603,114.008,51.0,0.0
168218,-0.037,0.691,0.552,30.000,-23.420,62.382,0.0,0.0
168303,-0.060,0.549,0.779,44.298,-40.931,40.618,39.0,0.0
168387,0.282,0.593,0.657,89.878,-54.313,66.611,44.0,0.0
168466,0.500,0.834,0.491,58.427,-17.160,101.260,38.0,85.0
168562,0.163,0.875,0.384,-8.244,-6.328,148.534,0.0,0.0
168656,1.149,0.621,0.865,-57.878,-53.710,145.939,0.0,0.0
168751,0.809,0.526,0.372,69.878,-41.550,141.229,0.0,0.0
168844,0.881,-0.153,0.047,-72.817,-32.794,166.458,0.0,0.0
168928,0.746,-0.709,0.064,-47.336,53.382,153.374,17.0,0.0
169011,0.648,-0.603,0.403,79.046,100.206,39.802,11.0,0.0
169105,0.732,-0.220,0.751,62.473,116.290,9.550,0.0,0.0
169193,-0.417,-0.991,1.353,161.557,63.397,23.611,194.0,117.0
169272,0.519,0.513,0.672,-54.229,-31.855,-20.740,16.0,115.0
169360,0.653,-0.236,0.872,-152.374,3.069,-10.305,32.0,0.0
169454,0.492,-0.375,0.783,-13.641,-9.496,27.000,0.0,0.0
169536,0.579,-0.498,0.787,-39.954,3.519,-6.244,6.0,0.0
169630,0.560,-0.339,0.788,31.794,9.260,-7.931,0.0,0.0
169714,0.507,-0.162,0.785,8.130,3.260,9.115,17.0,0.0
169807,0.468,-0.353,0.874,-2.824,4.771,-0.069,0.0,0.0
169902,0.494,-0.281,0.832,-2.969,-1.618,0.107,0.0,0.0
169996,0.517,-0.281,0.796,-8.962,-1.977,0.145,0.0,0.0
170089,0.521,-0.337,0.811,-1.672,0.351,-0.267,0.0,0.0
170186,0.500,-0.308,0.830,5.061,2.115,-0.130,0.0,0.0
170280,0.501,-0.277,0.819,-1.573,0.679,1.038,0.0,0.0
170374,0.500,-0.320,0.833,2.061,-0.160,0.718,0.0,0.0
170468,0.495,-0.309,0.816,-0.618,-0.282,-0.298,0.0,0.0
170562,0.500,-0.299,0.824,0.160,-0.153,0.221,0.0,0.0
170656,0.500,-0.305,0.820,0.931,0.183,0.214,0.0,0.0
170749,0.497,-0.299,0.818,0.595,0.221,-0.176,0.0,0.0
170844,0.498,-0.295,0.822,1.908,-0.092,-0.252,0.0,0.0
170938,0.498,-0.284,0.816,-0.107,-0.321,-0.038,0.0,0.0
171035,0.495,-0.293,0.832,1.863,0.168,0.748,0.0,0.0
171129,0.497,-0.297,0.833,-0.695,-0.389,0.046,0.0,0.0
171224,0.496,-0.280,0.830,1.481,-0.015,0.191,0.0,0.0
171318,0.491,-0.293,0.835,0.084,-0.397,0.405,0.0,0.0
171411,0.495,-0.292,0.822,-0.458,-0.611,-0.137,0.0,0.0
171505,0.496,-0.294,0.828,1.634,-0.489,0.244,0.0,0.0
171599,0.489,-0.284,0.819,-0.412,-0.183,0.198,0.0,0.0
171694,0.497,-0.292,0.830,0.542,-0.252,0.122,0.0,0.0
171788,0.501,-0.286,0.829,-2.153,-0.863,0.198,0.0,0.0
171882,0.495,-0.310,0.840,0.664,-0.420,-0.092,0.0,0.0
171979,0.501,-0.285,0.832,-0.122,-0.107,0.000,0.0,0.0
172072,0.495,-0.295,0.831,-0.710,-0.504,-0.053,0.0,0.0
172167,0.491,-0.287,0.828,1.962,-0.702,0.160,0.0,0.0
172261,0.495,-0.287,0.829,0.366,-0.656,-0.473,0.0,0.0
172355,0.509,-0.277,0.825,-0.336,-1.061,-0.099,0.0,0.0
172449,0.495,-0.275,0.833,2.878,-0.641,0.328,0.0,0.0
172544,0.502,-0.295,0.829,-1.618,-1.344,-0.863,0.0,0.0
172638,0.498,-0.258,0.831,2.084,-0.840,-0.649,0.0,0.0
172732,0.497,-0.275,0.829,0.740,-1.382,0.237,0.0,0.0
172829,0.503,-0.275,0.828,0.031,-1.382,-0.603,0.0,0.0
172930,0.504,-0.269,0.832,0.412,-0.702,-0.168,0.0,0.0
173023,0.507,-0.260,0.814,-2.916,-0.099,0.420,0.0,0.0
173115,0.500,-0.281,0.836,1.924,0.832,1.267,0.0,0.0
173208,0.500,-0.286,0.835,-5.252,0.282,0.305,0.0,0.0
173301,0.498,-0.299,0.827,-0.450,0.573,0.313,0.0,0.0
173394,0.503,-0.279,0.841,-0.542,0.260,0.519,0.0,0.0
173488,0.495,-0.286,0.830,-1.748,-0.328,0.130,0.0,0.0
173581,0.503,-0.284,0.829,0.183,-0.481,0.458,0.0,0.0
173677,0.498,-0.279,0.836,-0.420,-0.008,0.000,0.0,0.0
173770,0.500,-0.284,0.823,-2.985,-1.458,-0.550,0.0,0.0
173863,0.500,-0.263,0.822,-3.443,-1.489,-1.031,0.0,0.0
173957,0.535,-0.189,0.749,-27.389,-9.229,-2.626,0.0,0.0
174050,0.604,-0.361,0.772,-68.557,-17.061,-11.695,0.0,0.0
174143,0.552,-0.592,0.768,-82.618,-31.031,-68.992,0.0,0.0
174236,0.469,-0.477,0.635,22.450,-13.855,-66.794,0.0,0.0
174319,0.781,-0.219,0.643,33.328,-65.443,-100.382,8.0,0.0
174402,0.419,-0.236,0.526,67.382,-95.046,-98.924,17.0,0.0
174487,1.047,-0.868,0.660,-113.931,-33.305,-193.351,8.0,0.0
174570,1.110,0.510,-0.000,197.229,-9.634,-58.664,17.0,0.0
174653,0.914,0.749,0.272,1.550,5.687,-84.695,11.0,0.0
174736,0.786,0.516,0.485,18.847,-4.069,-55.412,17.0,0.0
174819,0.730,0.740,0.290,27.939,-17.519,-31.794,17.0,0.0
174901,0.928,0.467,0.246,21.153,1.702,-56.870,10.0,0.0
174985,0.773,0.765,0.211,-19.817,21.275,-105.489,22.0,0.0
175068,0.359,0.848,0.281,-59.580,23.466,-124.794,16.0,0.0
175152,0.286,0.737,0.429,-71.924,51.427,-114.092,30.0,0.0
175248,0.004,1.000,0.637,-45.855,22.031,-93.275,0.0,0.0
175321,0.045,0.991,0.466,3.634,-0.435,-86.008,31.0,7.0
175404,0.048,0.784,0.527,-55.679,-0.206,-84.817,23.0,0.0
175495,-0.001,0.630,0.684,-2.076,9.985,-91.458,0.0,157.0
175577,-0.042,0.908,0.656,9.740,25.382,-75.366,36.0,161.0
175668,-0.138,0.840,0.658,-107.985,44.672,-71.122,0.0,158.0
175759,-0.319,0.388,0.858,-117.687,53.626,-2.756,0.0,160.0
175852,-0.505,0.398,0.750,-77.748,26.977,21.427,0.0,0.0
175940,-0.599,0.289,0.699,-63.420,-1.626,3.863,97.0,0.0
176036,-0.553,0.246,0.736,-58.809,3.824,-20.656,0.0,0.0
176131,-0.552,0.077,0.804,-57.565,16.863,-12.718,0.0,0.0
176218,-0.549,-0.020,0.841,-16.489,3.779,-10.053,91.0,0.0
176305,-0.556,0.034,0.807,-13.809,-5.153,-8.847,90.0,0.0
176390,-0.490,0.005,0.769,11.580,-1.183,1.053,68.0,190.0
176478,-0.599,-0.003,0.815,8.031,-0.817,7.206,93.0,0.0
176565,-0.448,0.200,0.783,63.687,-0.832,57.679,92.0,0.0
176648,-0.424,0.095,0.758,9.443,-3.176,43.252,16.0,0.0
176741,-0.470,0.235,0.727,41.481,9.893,48.145,0.0,189.0
176826,-0.360,0.100,0.595,76.237,26.344,30.038,17.0,185.0
176911,-0.523,0.817,0.720,57.389,35.168,48.901,40.0,0.0
177004,-0.265,0.326,1.592,-117.779,69.603,-54.046,0.0,0.0
177097,-2.000,2.000,-1.192,30.603,-129.305,67.916,0.0,184.0
177190,0.010,-0.262,0.536,4.053,-146.321,120.420,0.0,0.0
177274,-0.330,0.876,0.537,36.290,-42.260,43.435,34.0,0.0
177359,-0.063,0.559,0.805,-11.458,-30.351,45.603,38.0,0.0
177443,-0.056,0.672,0.737,28.076,-29.214,56.084,37.0,0.0
177540,0.052,0.760,0.692,14.221,-26.168,66.664,0.0,0.0
177624,0.188,0.780,0.620,22.924,-27.809,92.313,36.0,0.0
177709,0.173,0.903,0.513,16.336,-7.817,130.344,36.0,0.0
177793,0.162,0.458,0.644,-22.382,-10.916,161.008,32.0,0.0
177876,0.475,0.433,0.711,-10.061,-37.359,167.840,30.0,0.0
177971,1.675,0.357,1.140,-47.710,55.420,111.153,0.0,0.0
178055,0.362,-0.068,0.567,-113.076,-5.985,121.511,30.0,0.0
178138,0.648,-0.633,0.570,4.046,-22.229,106.748,21.0,0.0
178222,0.653,-0.364,0.671,72.229,10.206,90.160,19.0,0.0
178309,0.616,-0.080,0.713,3.794,62.603,28.321,33.0,0.0
178402,0.492,-0.165,0.701,-20.565,75.466,13.397,0.0,0.0
178486,0.578,-0.297,1.233,74.664,-22.115,-10.595,31.0,0.0
178571,0.393,0.086,0.692,-31.809,1.122,-4.366,31.0,0.0
178655,0.431,-0.165,0.839,-7.916,-13.626,8.229,31.0,0.0
178739,0.520,-0.346,0.846,-60.901,0.481,-9.962,30.0,0.0
178823,0.547,-0.341,0.831,4.267,-1.145,-1.656,29.0,0.0
178907,0.482,-0.224,0.870,37.954,6.947,3.427,30.0,0.0
178991,0.424,-0.170,0.873,12.702,2.061,0.206,29.0,0.0
179078,0.478,-0.190,0.871,-10.878,-2.611,-1.023,30.0,0.0
179162,0.503,-0.244,0.842,-8.481,-2.656,-0.580,30.0,0.0
179246,0.485,-0.241,0.873,10.519,2.618,1.092,30.0,0.0
179330,0.459,-0.173,0.850,1.710,-0.130,-0.321,30.0,0.0
179414,0.489,-0.199,0.878,0.725,-1.374,0.473,30.0,0.0
179497,0.473,-0.232,0.863,-4.710,-0.458,0.267,31.0,0.0
179581,0.477,-0.206,0.871,6.527,-0.160,-0.359,30.0,0.0
179666,0.477,-0.195,0.864,0.756,-1.038,0.267,30.0,0.0
179750,0.475,-0.214,0.859,-3.656,-0.244,0.244,31.0,0.0
179834,0.483,-0.211,0.861,1.046,0.656,0.580,31.0,0.0
179921,0.469,-0.194,0.874,2.076,-0.496,-0.405,30.0,0.0
180005,0.477,-0.214,0.864,-4.817,-0.137,0.412,30.0,0.0
180089,0.477,-0.176,0.834,-1.069,0.863,0.519,30.0,0.0
180174,0.471,-0.244,0.871,1.084,2.954,1.969,29.0,0.0
180258,0.455,-0.187,0.868,2.076,2.985,0.405,30.0,0.0
180342,0.462,-0.196,0.883,-0.824,0.802,0.901,30.0,0.0
180426,0.462,-0.216,0.873,-0.740,0.992,0.221,30.0,0.0
180510,0.462,-0.208,0.882,0.916,0.931,0.229,30.0,0.0
180594,0.456,-0.205,0.880,-0.115,0.489,0.275,30.0,0.0
180681,0.460,-0.221,0.882,-0.466,0.557,0.611,30.0,0.0
180765,0.446,-0.199,0.871,-1.649,0.229,-0.397,30.0,0.0
180849,0.459,-0.223,0.876,1.298,-0.153,0.176,30.0,0.0
180934,0.451,-0.198,0.879,1.153,0.534,0.244,31.0,0.0
181018,0.451,-0.203,0.870,-1.893,-0.344,0.053,30.0,0.0
181102,0.454,-0.213,0.878,1.840,-0.389,0.084,30.0,0.0
181186,0.451,-0.190,0.883,1.099,-0.901,-0.282,30.0,0.0
181270,0.447,-0.207,0.878,-2.282,-0.977,-0.260,30.0,0.0
181355,0.451,-0.191,0.871,1.221,-1.168,0.275,30.0,0.0
181442,0.465,-0.213,0.880,0.443,-1.443,-0.275,30.0,0.0
181527,0.450,-0.185,0.869,1.603,-1.038,-0.191,30.0,0.0
181611,0.453,-0.201,0.877,-0.183,-1.679,0.084,30.0,0.0
181695,0.458,-0.204,0.874,-0.489,-1.672,-0.389,30.0,0.0
181780,0.462,-0.198,0.880,1.779,-1.099,-0.321,31.0,0.0
181864,0.456,-0.189,0.868,-2.435,-0.519,0.046,31.0,0.0
181948,0.458,-0.202,0.879,0.962,-0.550,0.534,31.0,0.0
182033,0.464,-0.208,0.880,-2.481,-1.168,-0.672,30.0,0.0
182117,0.465,-0.192,0.874,0.458,0.221,0.267,30.0,0.0
182205,0.462,-0.189,0.887,1.168,0.634,0.840,31.0,0.0
182289,0.452,-0.205,0.877,-1.802,-0.099,0.344,30.0,0.0
182373,0.459,-0.208,0.873,-0.405,0.489,0.107,31.0,0.0
182458,0.456,-0.187,0.867,-0.176,0.275,0.366,30.0,0.0
182542,0.446,-0.190,0.884,-5.885,-1.626,0.015,31.0,0.0
182626,0.443,-0.079,0.935,-51.626,-7.229,1.687,30.0,0.0
182711,0.510,-0.347,1.013,-196.702,-55.794,-21.740,30.0,0.0
182805,0.602,-0.743,0.761,-176.710,-121.450,-77.847,0.0,0.0
182889,0.739,-0.421,0.214,-87.504,-169.908,-86.664,16.0,0.0
182976,0.862,-0.285,-0.116,-118.725,-125.893,-80.008,17.0,0.0
183060,0.818,-0.319,-0.196,-19.008,-57.725,-35.321,23.0,0.0
183144,0.906,-0.273,-0.328,-45.580,-22.214,-12.580,20.0,0.0
183230,0.912,-0.314,-0.275,-9.466,-8.382,-5.313,43.0,0.0
183314,0.892,-0.278,-0.239,2.321,-8.336,-11.718,37.0,0.0
183400,0.918,-0.270,-0.240,4.092,-10.374,-13.023,45.0,0.0
183484,0.918,-0.232,-0.267,4.687,-6.305,-6.893,23.0,0.0
183568,0.951,-0.187,-0.310,-3.000,-4.771,-0.756,22.0,0.0
183654,0.974,-0.274,-0.282,4.298,-4.191,-1.802,44.0,0.0
183741,0.915,-0.243,-0.268,1.000,0.053,-0.634,23.0,0.0
183825,0.926,-0.247,-0.281,-2.893,0.313,-0.809,23.0,0.0
183915,0.964,-0.260,-0.280,2.588,-3.489,-6.473,22.0,0.0
183998,0.941,-0.229,-0.292,-2.695,-2.336,-4.527,25.0,0.0
184082,0.926,-0.170,-0.320,11.397,-0.069,2.527,33.0,0.0
184166,0.945,-0.273,-0.277,-4.344,-0.588,-4.191,33.0,0.0
184250,0.960,-0.203,-0.296,4.656,-0.115,-4.809,33.0,0.0
184334,0.949,-0.239,-0.271,7.832,1.405,-0.496,35.0,0.0
184417,0.921,-0.179,-0.276,5.084,-0.656,0.282,35.0,0.0
184504,0.954,-0.253,-0.267,-0.756,-1.397,-1.954,36.0,0.0
184588,0.938,-0.258,-0.261,16.885,-0.473,-0.458,37.0,0.0
184672,0.799,-0.200,-0.278,37.366,15.466,18.664,44.0,0.0
184766,0.728,-0.264,-0.227,58.084,66.595,53.511,0.0,0.0
184849,1.273,-0.629,-0.179,250.130,156.443,99.099,29.0,0.0
184942,1.024,-0.122,0.359,136.618,213.740,70.382,0.0,0.0
185035,0.238,-0.599,0.924,105.481,97.672,21.580,0.0,0.0
185119,0.516,-0.068,0.957,53.206,29.679,4.992,30.0,0.0
185211,0.358,-0.250,0.990,26.427,-1.137,-7.008,186.0,0.0
185308,0.482,-0.312,0.830,-43.420,3.634,-16.924,187.0,0.0
185400,0.503,-0.137,0.791,-13.099,-8.053,-0.298,187.0,0.0
185493,0.477,-0.368,0.877,-8.229,-3.939,-2.130,188.0,0.0
185585,0.484,-0.272,0.796,-20.687,-3.947,-2.824,189.0,0.0
185678,0.500,-0.355,0.805,-24.344,-6.008,-1.809,0.0,0.0
185772,0.508,-0.399,0.784,-11.328,-4.275,-0.237,0.0,0.0
185866,0.500,-0.403,0.773,-8.130,-2.435,-1.237,0.0,0.0
185959,0.516,-0.391,0.778,5.672,-0.107,0.412,0.0,0.0
186052,0.509,-0.359,0.764,2.046,0.176,0.550,0.0,0.0
186148,0.505,-0.391,0.768,-2.389,0.618,0.427,0.0,0.0
186242,0.504,-0.395,0.795,4.527,1.473,0.168,0.0,0.0
186335,0.496,-0.366,0.789,-1.977,0.496,-0.237,0.0,0.0
186428,0.509,-0.385,0.785,-0.939,0.214,0.282,0.0,0.0
186521,0.499,-0.386,0.791,1.298,0.099,0.397,0.0,0.0
186614,0.498,-0.377,0.794,-1.237,-0.008,-0.031,0.0,0.0
186708,0.510,-0.391,0.790,-0.061,-0.076,0.244,0.0,0.0
186802,0.502,-0.374,0.785,-0.344,-0.038,0.198,0.0,0.0
186895,0.502,-0.371,0.789,-0.092,-0.191,0.122,0.0,0.0
186991,0.503,-0.387,0.780,-3.244,-0.275,0.046,0.0,0.0
187084,0.498,-0.369,0.793,2.000,-0.061,0.420,0.0,0.0
187179,0.494,-0.393,0.788,-1.550,-0.817,0.176,0.0,0.0
187272,0.501,-0.376,0.786,0.557,-0.061,0.099,0.0,0.0
187365,0.500,-0.381,0.799,0.183,-0.611,0.275,0.0,0.0
187458,0.494,-0.380,0.784,-1.061,-0.496,-0.061,0.0,0.0
187552,0.497,-0.382,0.790,-0.008,-0.198,0.137,0.0,0.0
187645,0.504,-0.372,0.790,-0.947,-0.489,0.099,0.0,0.0
187739,0.500,-0.378,0.785,-2.580,-0.664,-0.061,0.0,0.0
187835,0.505,-0.396,0.791,-1.412,-0.511,0.015,0.0,0.0
187929,0.493,-0.368,0.784,-1.901,-0.420,-0.527,0.0,0.0
188022,0.461,-0.345,0.761,-12.756,0.718,-3.557,0.0,0.0
188115,0.546,-0.568,0.745,-90.511,-7.366,-33.466,0.0,0.0
188199,0.580,-0.736,0.717,-1.031,-4.641,-74.183,17.0,0.0
188282,0.602,-0.446,0.669,60.863,-1.450,-95.305,17.0,0.0
188376,0.573,-0.208,0.629,63.969,11.366,-104.252,0.0,0.0
188470,0.404,0.033,0.715,20.885,1.351,-104.458,0.0,0.0
188554,0.554,0.363,0.827,34.756,-9.756,-81.008,28.0,0.0
188640,0.775,0.163,0.671,-21.176,37.634,-21.931,19.0,0.0
188723,0.658,0.057,0.810,27.359,19.031,-37.168,17.0,0.0
188807,0.592,0.325,0.926,45.382,16.504,-34.122,17.0,0.0
188890,0.516,0.462,0.792,24.924,-17.832,-56.168,17.0,0.0
188973,0.519,0.468,0.682,70.817,-30.679,-23.550,17.0,0.0
189057,0.583,0.516,0.681,-28.687,-2.221,-36.290,20.0,0.0
189134,0.586,0.337,0.740,-0.473,10.511,-61.916,31.0,87.0
189211,0.517,0.721,0.672,-4.107,8.618,-71.893,33.0,86.0
189295,0.356,0.568,0.725,-31.450,16.336,-46.130,18.0,0.0
189381,0.461,0.462,0.710,-3.985,16.718,-45.145,18.0,0.0
189464,0.309,0.568,0.780,10.740,23.183,-64.519,19.0,0.0
189548,0.275,0.643,0.769,14.000,27.771,-57.313,22.0,0.0
189632,0.274,0.707,0.855,-3.725,38.374,-46.137,23.0,0.0
189715,0.164,0.520,0.934,-37.290,40.954,-42.191,23.0,0.0
189799,-0.016,0.497,0.857,-93.664,31.504,-44.458,25.0,0.0
189884,0.008,0.393,0.970,-82.359,7.076,-40.313,37.0,0.0
189968,-0.051,0.375,0.964,-33.740,1.580,-41.061,38.0,0.0
190053,-0.205,0.333,0.936,-47.107,2.962,-41.176,38.0,0.0
190140,-0.139,0.157,0.874,-16.214,3.885,-15.847,38.0,0.0
190225,-0.157,0.150,0.832,-44.397,9.863,-8.183,36.0,0.0
190309,-0.277,0.169,0.850,-26.649,27.809,-38.489,36.0,0.0
190394,-0.350,-0.205,0.950,-45.802,18.763,-0.504,33.0,0.0
190478,-0.384,-0.033,0.893,-23.870,21.366,11.115,32.0,0.0
190562,-0.437,0.060,0.982,-21.473,14.206,13.046,33.0,0.0
190647,-0.435,-0.036,0.959,-19.794,9.916,16.534,34.0,0.0
190731,-0.414,-0.077,0.965,-5.489,3.382,10.794,36.0,0.0
190816,-0.395,-0.071,0.939,4.397,-2.191,3.328,36.0,0.0
190904,-0.365,-0.088,0.977,-1.969,-3.916,-2.489,45.0,0.0
190989,-0.320,-0.057,0.921,4.450,-7.092,-7.817,38.0,0.0
191075,-0.341,-0.048,0.933,3.916,-6.275,-5.908,67.0,0.0
191160,-0.329,-0.086,0.961,6.267,-3.267,-5.489,34.0,0.0
191244,-0.357,-0.049,0.924,31.588,5.771,-8.435,35.0,0.0
191329,-0.488,0.047,0.792,105.740,17.145,-5.130,36.0,0.0
191413,-0.492,0.219,0.769,98.183,31.573,-2.397,34.0,0.0
191497,-0.476,0.188,0.916,29.870,26.916,-10.450,30.0,0.0
191582,-0.578,0.238,0.947,48.702,21.870,-19.153,30.0,0.0
191669,-0.510,0.179,0.811,23.519,-4.679,-45.092,30.0,0.0
191752,-0.161,0.045,0.659,116.687,5.290,-25.221,30.0,176.0
191835,-0.483,1.132,0.887,-4.435,41.137,-6.435,32.0,170.0
191919,-0.478,0.321,0.962,10.534,-1.687,77.366,45.0,172.0
192004,-0.439,0.243,0.702,-70.840,-48.595,88.427,41.0,0.0
192089,-0.330,0.555,0.792,-10.885,-30.092,102.802,42.0,0.0
192182,-0.511,0.742,0.670,-18.450,-78.863,85.443,0.0,0.0
192268,-0.219,0.488,0.648,15.450,-63.221,123.435,45.0,0.0
192361,0.102,0.261,0.875,21.000,-42.855,145.588,0.0,0.0
192458,0.265,0.514,0.772,79.550,-65.435,152.099,0.0,0.0
192537,0.768,0.884,0.785,-36.237,-80.954,164.893,29.0,93.0
192621,0.779,0.408,0.664,-23.939,-53.351,163.015,23.0,0.0
192705,0.821,-0.156,0.320,-128.763,-51.893,135.252,30.0,0.0
192789,1.205,-0.623,0.463,9.939,-40.718,31.687,17.0,0.0
192873,0.838,-0.249,0.139,46.786,27.015,62.427,17.0,0.0
192957,0.767,-0.103,0.322,-19.137,30.206,9.710,16.0,0.0
193041,0.873,-0.226,0.765,8.931,95.611,5.412,29.0,0.0
193125,0.528,-0.163,0.724,122.282,104.733,30.962,29.0,0.0
193213,0.333,-0.310,1.401,55.389,-7.809,10.229,31.0,0.0
193298,0.528,0.188,0.663,-60.702,-16.466,-17.634,31.0,0.0
193382,0.653,-0.183,0.713,-61.618,-8.282,-2.641,30.0,0.0
193467,0.694,-0.295,0.846,-25.641,10.000,7.313,30.0,0.0
193551,0.564,-0.194,0.769,8.145,0.756,4.061,29.0,0.0
193635,0.627,-0.181,0.815,6.405,5.603,-0.061,29.0,0.0
193720,0.594,-0.166,0.804,8.595,0.954,0.656,30.0,0.0
193804,0.582,-0.153,0.779,-6.267,-1.015,0.473,30.0,0.0
193888,0.625,-0.217,0.797,0.649,0.878,-1.954,29.0,0.0
193976,0.603,-0.164,0.794,11.450,3.366,-1.450,30.0,0.0
194060,0.578,-0.135,0.819,10.321,1.153,0.244,30.0,0.0
194145,0.586,-0.120,0.804,-2.695,-1.107,-0.855,29.0,0.0
194229,0.612,-0.167,0.803,-1.908,-0.832,-0.084,30.0,0.0
194314,0.593,-0.151,0.810,3.267,0.198,-0.183,30.0,0.0
194398,0.587,-0.128,0.812,4.115,-0.382,-0.237,29.0,0.0
194483,0.595,-0.129,0.806,-2.237,-2.107,-0.527,30.0,0.0
194567,0.600,-0.156,0.811,1.382,-1.664,-0.443,30.0,0.0
194652,0.595,-0.130,0.788,2.878,-0.885,-0.061,29.0,0.0
194739,0.591,-0.127,0.808,1.069,-1.519,-0.313,30.0,0.0
194824,0.590,-0.132,0.798,2.053,-2.740,0.145,30.0,0.0
194908,0.602,-0.130,0.812,3.939,-1.519,-0.855,30.0,0.0
194998,0.619,-0.109,0.805,0.550,-1.076,-0.435,30.0,0.0
195082,0.599,-0.110,0.806,1.076,-2.947,0.061,30.0,0.0
195165,0.605,-0.122,0.792,-1.527,-3.511,-0.931,31.0,0.0
195249,0.614,-0.113,0.800,1.855,-1.595,-1.000,30.0,0.0
195333,0.614,-0.101,0.802,3.328,-2.252,0.176,30.0,0.0
195416,0.609,-0.116,0.795,-1.389,-2.221,-0.160,30.0,0.0
195503,0.625,-0.116,0.786,-2.649,0.229,0.840,30.0,0.0
195586,0.625,-0.111,0.769,0.824,5.916,2.214,30.0,0.0
195670,0.607,-0.144,0.832,11.962,6.725,1.214,32.0,0.0
195752,0.577,-0.070,0.812,6.504,1.603,0.069,31.0,0.0
195836,0.597,-0.084,0.797,-7.878,-1.863,0.008,30.0,0.0
195919,0.609,-0.117,0.803,0.863,0.573,0.573,31.0,0.0
196003,0.596,-0.096,0.825,6.405,1.863,0.137,30.0,0.0
196087,0.575,-0.072,0.809,-1.076,0.076,-0.260,31.0,0.0
196170,0.600,-0.103,0.815,-2.023,-0.153,-0.229,31.0,0.0
196257,0.591,-0.103,0.816,2.214,0.527,0.122,31.0,0.0
196340,0.600,-0.102,0.815,-0.840,0.481,-0.084,30.0,0.0
196424,0.585,-0.077,0.802,0.962,-0.076,0.084,31.0,0.0
196508,0.586,-0.104,0.823,-1.023,-0.603,0.176,31.0,0.0
196591,0.588,-0.089,0.811,0.084,-0.092,-0.221,30.0,0.0
196675,0.582,-0.089,0.821,2.069,-0.061,0.351,31.0,0.0
196759,0.581,-0.091,0.815,-1.802,-0.595,0.038,31.0,0.0
196843,0.592,-0.090,0.811,-0.092,-0.427,-0.099,31.0,0.0
196926,0.586,-0.091,0.821,0.748,-0.145,0.359,31.0,0.0
197013,0.589,-0.088,0.827,0.603,-0.198,0.382,31.0,0.0
197097,0.583,-0.094,0.811,-2.939,-1.115,0.038,31.0,0.0
197181,0.592,-0.101,0.813,0.962,-0.542,-0.099,31.0,0.0
197264,0.590,-0.090,0.826,1.145,0.023,0.214,30.0,0.0
197348,0.581,-0.081,0.810,-0.817,-0.763,0.321,31.0,0.0
197432,0.588,-0.100,0.816,-0.366,-0.832,0.137,31.0,0.0
197516,0.585,-0.088,0.810,0.924,-0.237,0.008,31.0,0.0
197599,0.590,-0.076,0.814,-0.298,-0.282,0.473,31.0,0.0
197683,0.592,-0.096,0.832,0.824,-0.221,1.015,31.0,0.0
197767,0.580,-0.098,0.820,-1.916,-0.649,-0.359,30.0,0.0
197854,0.583,-0.085,0.807,0.611,-0.313,-0.336,31.0,0.0
197938,0.583,-0.090,0.817,0.397,-0.282,0.183,31.0,0.0
198021,0.582,-0.075,0.800,-1.344,-0.802,0.015,31.0,0.0
198105,0.588,-0.098,0.814,0.221,-0.809,-0.099,30.0,0.0
198189,0.586,-0.076,0.818,1.191,-0.878,-0.069,30.0,0.0
198273,0.594,-0.086,0.819,-1.290,-0.733,0.031,31.0,0.0
198356,0.584,-0.083,0.822,1.198,-0.450,0.191,31.0,0.0
198440,0.580,-0.088,0.815,-3.000,-1.382,-0.511,31.0,0.0
198524,0.598,-0.083,0.802,0.840,-1.221,-0.481,30.0,0.0
198610,0.593,-0.082,0.819,0.061,-0.618,-0.206,31.0,0.0
198694,0.596,-0.073,0.806,-1.656,-1.374,-0.130,31.0,0.0
198778,0.595,-0.095,0.813,-0.031,-0.878,0.023,31.0,0.0
198862,0.589,-0.089,0.808,0.855,-0.511,0.084,31.0,0.0
198946,0.594,-0.074,0.807,-1.687,-0.321,0.504,31.0,0.0
199030,0.599,-0.097,0.803,1.267,0.550,0.542,31.0,0.0
199114,0.592,-0.064,0.814,1.092,0.206,0.695,31.0,0.0
199198,0.595,-0.097,0.821,-1.924,-0.489,0.221,31.0,0.0
199282,0.590,-0.079,0.821,1.740,0.214,0.374,30.0,0.0
199369,0.589,-0.080,0.826,0.412,-0.450,0.786,31.0,0.0
199453,0.591,-0.090,0.814,-1.863,-0.626,-0.023,31.0,0.0
199537,0.601,-0.089,0.817,0.954,-0.229,0.000,31.0,0.0
199621,0.586,-0.083,0.820,-0.756,-0.870,0.229,32.0,0.0
199705,0.594,-0.087,0.814,-0.947,-1.412,-0.145,32.0,0.0
199789,0.599,-0.087,0.811,0.168,0.023,0.420,32.0,0.0
199873,0.588,-0.075,0.817,-0.450,-0.389,1.031,32.0,0.0
199957,0.585,-0.107,0.813,-0.504,-0.962,-0.260,31.0,0.0
200041,0.592,-0.079,0.804,0.908,-0.160,-0.206,31.0,0.0
200128,0.579,-0.087,0.818,0.550,-0.382,0.122,31.0,0.0
200212,0.586,-0.085,0.810,-1.420,-0.641,-0.481,31.0,0.0
200296,0.594,-0.093,0.815,0.954,-0.099,-0.267,31.0,0.0
200380,0.585,-0.073,0.825,0.435,-0.435,0.221,31.0,0.0
200464,0.587,-0.079,0.816,-0.679,-0.947,0.015,31.0,0.0
200548,0.594,-0.091,0.812,-0.466,0.626,-0.237,31.0,0.0
200632,0.586,-0.053,0.815,0.214,-0.145,0.504,31.0,0.0
200716,0.594,-0.103,0.823,-1.641,-0.977,0.099,31.0,0.0
200800,0.589,-0.076,0.805,1.786,-0.145,-0.137,31.0,0.0
200888,0.586,-0.074,0.827,0.947,-0.130,0.023,31.0,0.0
200972,0.572,0.017,0.811,-47.244,-12.466,-5.084,31.0,0.0
201056,0.610,-0.174,0.848,-97.786,-27.092,-19.931,31.0,0.0
201150,0.665,-0.277,0.733,-101.481,-52.359,-27.725,0.0,0.0
201243,0.818,-0.646,0.585,-172.145,-63.244,-97.992,0.0,0.0
201337,0.880,-0.306,0.399,-50.160,-50.237,-94.565,0.0,0.0
201432,0.821,-0.111,0.356,-73.740,-30.855,-84.725,0.0,0.0
201526,0.809,-0.112,0.357,-9.160,-15.916,-41.336,0.0,0.0
201620,0.957,0.000,0.243,-44.389,-5.618,-12.160,0.0,0.0
201716,1.037,-0.160,0.233,-10.641,-12.489,-9.160,0.0,0.0
201802,0.971,-0.093,0.229,-9.878,2.008,-16.237,61.0,0.0
201896,0.957,-0.089,0.286,-8.061,1.710,-16.794,0.0,0.0
201991,0.970,-0.014,0.268,-2.137,-4.634,-11.160,0.0,0.0
202077,1.006,0.032,0.215,-2.802,-3.489,-3.183,63.0,0.0
202170,0.985,-0.021,0.231,5.611,-6.038,0.076,0.0,0.0
202264,0.992,-0.071,0.247,4.611,-6.710,0.000,0.0,0.0
202358,0.978,-0.035,0.215,-1.916,-8.534,-4.489,0.0,0.0
202451,1.000,0.021,0.164,2.427,-3.840,-3.565,0.0,0.0
202549,1.010,0.002,0.198,6.733,0.313,-3.336,0.0,0.0
202643,0.987,-0.014,0.225,-0.359,-1.137,-4.718,0.0,0.0
202737,0.988,0.032,0.186,2.840,-2.061,-2.328,0.0,0.0
202830,0.989,0.026,0.195,8.206,-1.611,-0.962,0.0,0.0
202925,0.985,-0.011,0.202,5.565,2.198,1.534,0.0,0.0
203018,1.004,-0.003,0.215,-6.076,1.641,-0.756,0.0,0.0
203112,0.985,0.033,0.208,0.198,3.092,2.122,0.0,0.0
203206,0.987,0.011,0.210,1.405,1.031,1.786,0.0,0.0
203299,0.989,-0.011,0.225,1.847,-0.153,0.183,0.0,0.0
203394,0.985,-0.021,0.210,2.489,0.466,-1.214,0.0,0.0
203500,0.985,0.004,0.216,5.359,1.916,-1.252,0.0,0.0
203596,0.957,0.060,0.193,6.748,5.809,5.305,0.0,0.0
203693,0.985,0.148,0.156,-9.023,40.779,53.588,0.0,0.0
203789,0.944,-0.040,0.310,4.908,55.885,74.969,0.0,0.0
203875,0.867,-0.165,0.434,105.198,69.015,112.282,16.0,0.0
203961,0.628,-0.337,0.606,-3.466,42.649,81.870,17.0,0.0
204046,0.685,-0.446,0.652,65.221,22.328,84.412,8.0,0.0
204143,0.680,-0.393,0.625,41.672,24.405,71.084,0.0,0.0
204239,0.412,-1.000,0.899,7.756,-6.908,4.771,0.0,0.0
204339,0.569,-0.332,0.663,12.679,2.824,-12.160,0.0,0.0
204435,0.679,-0.370,0.695,4.557,2.328,4.763,0.0,0.0
204532,0.590,-0.403,0.720,13.061,-0.344,0.550,0.0,0.0
204628,0.595,-0.365,0.712,-3.947,2.336,0.000,0.0,0.0
204725,0.603,-0.375,0.728,3.947,1.473,2.611,0.0,0.0
204821,0.583,-0.377,0.734,6.550,2.069,1.298,0.0,0.0
204917,0.591,-0.372,0.744,6.786,1.756,-0.885,0.0,0.0
205014,0.594,-0.360,0.744,-1.160,1.260,-0.275,0.0,0.0
205111,0.579,-0.345,0.739,4.366,1.229,2.153,0.0,0.0
205207,0.576,-0.359,0.745,-1.328,-0.305,-0.107,0.0,0.0
205306,0.584,-0.341,0.732,3.519,0.756,-0.328,0.0,0.0
205404,0.571,-0.337,0.756,4.634,0.427,0.588,0.0,0.0
205500,0.578,-0.352,0.753,-0.198,-0.832,0.252,0.0,0.0
