Timestamp(ms),AccelX(g),AccelY(g),AccelZ(g),GyroX(deg/s),GyroY(deg/s),GyroZ(deg/s),DistanceLeft(cm),DistanceRight(cm)
35976,-0.167,0.347,0.932,1.061,0.008,0.130,101.0,0.0
36063,-0.174,0.330,0.924,2.817,-0.130,1.313,101.0,0.0
36146,-0.162,0.306,0.950,3.832,-0.023,1.122,101.0,134.0
36229,-0.166,0.301,0.953,-1.267,0.000,0.405,101.0,134.0
36312,-0.165,0.338,0.918,-2.885,-0.794,-1.076,101.0,134.0
36395,-0.175,0.348,0.923,5.802,-0.458,0.115,101.0,133.0
36477,-0.164,0.309,0.945,6.305,-1.061,0.466,101.0,133.0
36563,-0.159,0.349,0.933,-4.527,-0.427,-0.664,101.0,133.0
36646,-0.166,0.357,0.912,4.573,0.145,0.412,101.0,132.0
36729,-0.177,0.320,0.940,3.954,0.840,-2.198,102.0,133.0
36809,-0.194,0.366,0.921,-1.466,4.794,-7.260,47.0,133.0
36890,-0.187,0.361,0.932,-10.588,4.313,-11.366,51.0,133.0
36973,-0.197,0.331,0.929,-13.840,4.137,-5.336,101.0,132.0
37057,-0.129,0.334,0.990,-34.061,12.634,2.939,101.0,133.0
37137,-0.294,0.171,1.073,-40.870,-14.366,-2.763,46.0,134.0
37224,-0.319,0.249,0.958,-7.397,-23.191,-2.679,99.0,0.0
37311,-0.228,0.146,0.971,17.420,-12.641,6.031,45.0,0.0
37395,-0.206,0.277,0.892,-12.542,-3.046,8.328,98.0,134.0
37475,-0.172,0.146,0.941,-30.115,-2.237,0.344,45.0,133.0
37562,-0.209,0.108,1.039,-26.947,-6.687,-6.580,99.0,0.0
37646,-0.213,0.075,1.035,-47.099,-7.794,-2.435,37.0,0.0
37730,-0.206,-0.001,0.990,-59.634,12.260,-2.924,37.0,0.0
37813,-0.187,-0.129,0.908,-116.084,51.191,8.580,38.0,0.0
37897,-0.215,-0.320,1.087,-8.565,40.985,1.962,37.0,0.0
37981,-0.034,-0.031,0.826,117.763,-48.740,15.962,48.0,0.0
38077,0.159,0.205,1.099,112.107,-83.878,74.580,0.0,0.0
38170,-0.058,0.333,0.880,3.832,4.893,179.809,0.0,0.0
38254,-0.196,-0.393,1.196,119.809,-6.763,130.069,50.0,0.0
38347,0.175,0.607,0.659,-51.550,-20.595,115.122,0.0,0.0
38440,-0.897,-0.120,1.247,25.725,16.786,-21.740,0.0,0.0
38534,0.666,-0.260,0.679,-97.679,-16.137,36.405,0.0,0.0
38627,-0.619,1.172,1.093,86.122,-39.267,55.962,0.0,0.0
38720,0.446,-0.441,0.742,-118.794,4.252,-56.550,0.0,0.0
38802,-0.133,0.638,1.216,158.206,-27.282,6.450,16.0,0.0
38898,0.513,-0.056,0.794,-162.924,-65.450,-99.634,0.0,0.0
38991,0.037,0.159,0.807,89.985,-5.153,-84.985,0.0,0.0
39085,0.292,0.685,0.809,-30.473,-44.756,-7.313,0.0,0.0
39178,0.535,0.001,0.887,2.366,27.282,-40.519,0.0,0.0
39271,0.104,0.268,1.006,-76.588,-9.901,-7.496,0.0,0.0
39363,0.274,-0.031,0.802,5.382,3.206,-23.573,0.0,0.0
39456,-0.045,0.279,0.978,-28.740,-5.412,-55.069,0.0,0.0
39549,0.439,-0.015,0.926,-1.664,-16.901,-46.779,0.0,0.0
39636,0.127,0.213,0.670,-63.191,21.573,-137.565,100.0,0.0
39720,0.013,-0.063,1.017,-128.275,86.267,-85.023,17.0,167.0
39801,-0.033,-0.069,1.085,69.977,112.893,-52.977,140.0,39.0
39880,-0.155,0.068,1.012,63.473,93.802,-41.710,107.0,36.0
39960,-0.519,0.596,1.305,250.130,20.191,45.664,144.0,35.0
40041,-0.247,0.912,0.622,-28.298,-6.137,-1.198,147.0,37.0
40122,-0.356,0.354,0.719,-24.145,3.550,8.878,146.0,36.0
40203,-0.325,0.323,0.986,-22.275,-1.969,0.893,144.0,36.0
40282,-0.354,0.295,0.897,15.695,-3.458,-0.802,110.0,37.0
40363,-0.312,0.501,0.799,24.664,-1.649,-4.260,145.0,36.0
40445,-0.307,0.500,0.824,0.718,-0.947,0.794,145.0,37.0
40526,-0.325,0.460,0.833,-5.695,0.519,2.053,145.0,36.0
40607,-0.330,0.405,0.847,-0.145,-0.328,0.321,144.0,37.0
40688,-0.313,0.453,0.849,3.244,-0.702,-1.221,145.0,36.0
40769,-0.325,0.457,0.832,2.565,-1.000,-0.008,145.0,36.0
40849,-0.321,0.462,0.831,0.031,-0.328,0.473,145.0,36.0
40930,-0.324,0.452,0.836,-1.863,-0.420,0.282,145.0,36.0
41011,-0.325,0.447,0.838,0.824,-0.641,-0.198,145.0,36.0
41092,-0.318,0.465,0.828,1.504,-0.565,0.015,145.0,36.0
41176,-0.323,0.461,0.831,-1.237,-0.458,0.458,145.0,36.0
41255,-0.332,0.449,0.839,1.046,-0.687,-0.084,145.0,36.0
41336,-0.315,0.461,0.835,-1.046,-0.763,-0.328,145.0,36.0
41417,-0.322,0.456,0.829,-0.405,-0.504,0.214,145.0,36.0
41498,-0.321,0.463,0.838,-0.359,-0.710,0.252,145.0,36.0
41579,-0.316,0.452,0.833,-0.336,-0.527,0.168,145.0,36.0
41660,-0.327,0.450,0.838,0.122,-0.603,0.084,145.0,36.0
41741,-0.315,0.461,0.830,-0.191,-0.511,0.160,146.0,36.0
41822,-0.321,0.460,0.833,-0.214,-0.603,-0.084,146.0,36.0
41906,-0.329,0.454,0.831,-0.122,-0.702,-0.275,146.0,36.0
41987,-0.321,0.458,0.833,-0.802,-0.565,0.061,146.0,36.0
42066,-0.317,0.449,0.833,0.168,-0.565,0.321,146.0,36.0
42147,-0.322,0.456,0.830,-0.466,-0.649,0.115,146.0,36.0
42228,-0.319,0.457,0.836,-0.679,-0.466,0.122,146.0,36.0
42309,-0.320,0.456,0.831,-0.229,-0.458,0.244,146.0,36.0
42390,-0.321,0.462,0.833,0.061,-0.618,0.336,146.0,36.0
42480,-0.317,0.460,0.833,-0.168,-0.565,0.015,146.0,36.0
42560,-0.322,0.453,0.837,-0.870,-0.794,-0.061,146.0,36.0
42643,-0.320,0.466,0.828,-1.145,-0.557,-0.137,146.0,36.0
42723,-0.318,0.449,0.838,0.359,-0.489,0.206,146.0,36.0
42804,-0.317,0.459,0.836,-0.153,-0.405,0.328,146.0,36.0
42884,-0.318,0.459,0.835,-0.695,-0.366,0.359,145.0,36.0
42963,-0.321,0.460,0.831,0.420,-0.397,0.053,145.0,36.0
43044,-0.326,0.461,0.835,0.145,-0.573,0.183,145.0,36.0
43124,-0.319,0.455,0.833,-0.267,-0.466,0.183,145.0,36.0
43204,-0.317,0.459,0.833,-0.107,-0.260,0.229,145.0,36.0
43285,-0.329,0.459,0.834,1.237,-0.298,-0.084,145.0,36.0
43368,-0.318,0.457,0.822,-0.557,-0.695,0.023,145.0,36.0
43448,-0.323,0.461,0.832,0.260,-0.397,-0.069,146.0,36.0
43529,-0.321,0.460,0.832,-0.115,-0.695,0.069,145.0,36.0
43609,-0.312,0.456,0.839,-0.649,-0.481,-0.046,145.0,36.0
43688,-0.320,0.460,0.825,-0.229,-0.542,-0.046,145.0,36.0
43769,-0.318,0.459,0.823,0.008,-0.649,0.099,145.0,36.0
43849,-0.324,0.462,0.835,-0.321,-0.519,0.023,145.0,36.0
43930,-0.320,0.468,0.829,-1.107,-0.481,0.397,146.0,36.0
44010,-0.323,0.469,0.832,0.031,-0.336,-0.061,146.0,36.0
44093,-0.317,0.449,0.831,-0.382,-0.427,0.229,146.0,36.0
44174,-0.324,0.461,0.833,-0.099,-0.405,0.145,146.0,36.0
44254,-0.329,0.453,0.832,-0.656,-0.435,-0.023,146.0,36.0
44335,-0.311,0.454,0.839,-0.023,-0.527,0.115,145.0,36.0
44416,-0.319,0.460,0.828,-0.427,-0.496,0.061,146.0,36.0
44495,-0.315,0.458,0.834,-0.779,-0.588,0.168,146.0,36.0
44576,-0.318,0.465,0.833,-0.298,-0.427,-0.015,145.0,36.0
44657,-0.314,0.458,0.829,-0.832,-0.649,0.435,146.0,36.0
44738,-0.327,0.462,0.831,-0.321,-0.229,0.092,146.0,36.0
44822,-0.324,0.453,0.837,-0.496,-0.672,0.344,146.0,36.0
44902,-0.318,0.461,0.839,-0.145,-0.588,0.137,146.0,36.0
44983,-0.322,0.458,0.835,-0.282,-0.298,0.107,146.0,36.0
45064,-0.319,0.456,0.839,0.000,-0.519,0.053,146.0,36.0
45145,-0.320,0.461,0.828,-0.473,-0.366,0.244,146.0,36.0
45225,-0.318,0.453,0.834,-0.359,-0.588,0.023,146.0,36.0
45306,-0.320,0.460,0.828,-0.099,-0.511,0.038,146.0,36.0
45386,-0.322,0.451,0.836,0.008,-0.374,0.260,146.0,36.0
45467,-0.322,0.458,0.826,0.763,-0.290,-0.008,146.0,36.0
45551,-0.314,0.449,0.834,-0.763,-0.710,0.382,146.0,36.0
45632,-0.318,0.461,0.834,0.084,-0.344,-0.046,146.0,36.0
45713,-0.323,0.458,0.832,-0.687,-0.565,-0.092,146.0,36.0
45793,-0.319,0.458,0.837,-0.366,-0.672,0.099,146.0,36.0
45874,-0.321,0.463,0.831,-0.206,-0.534,0.145,146.0,36.0
45955,-0.323,0.460,0.832,-0.336,-0.298,0.206,146.0,36.0
46035,-0.322,0.459,0.836,-0.122,-0.489,-0.046,146.0,36.0
46116,-0.323,0.459,0.834,-0.565,-0.450,0.282,146.0,36.0
46197,-0.320,0.461,0.828,-0.107,-0.366,0.221,146.0,36.0
46281,-0.322,0.469,0.831,0.725,-0.366,-0.046,146.0,36.0
46362,-0.318,0.454,0.828,-0.115,-0.435,0.366,146.0,36.0
46442,-0.332,0.466,0.832,0.183,-0.344,0.023,146.0,36.0
46523,-0.321,0.457,0.825,-0.389,-0.588,0.130,146.0,36.0
46604,-0.322,0.455,0.839,-0.412,-0.473,0.023,146.0,36.0
46685,-0.323,0.458,0.831,-0.214,-0.626,0.130,146.0,36.0
46766,-0.319,0.460,0.832,-0.099,-0.702,0.206,146.0,36.0
46846,-0.322,0.466,0.837,0.191,-0.366,0.176,146.0,36.0
46927,-0.314,0.456,0.833,-0.893,-0.580,0.153,146.0,36.0
47011,-0.322,0.468,0.833,0.511,-0.298,0.321,146.0,36.0
47092,-0.319,0.459,0.823,0.321,-0.473,-0.198,146.0,36.0
47173,-0.316,0.462,0.825,-0.863,-0.649,0.298,146.0,36.0
47254,-0.321,0.462,0.837,0.473,-0.588,0.031,146.0,36.0
47335,-0.330,0.468,0.821,-0.244,-0.519,0.000,146.0,36.0
47416,-0.317,0.448,0.832,-0.191,-0.557,0.229,146.0,36.0
47497,-0.315,0.465,0.837,-0.481,-0.321,0.260,146.0,36.0
47578,-0.323,0.463,0.832,-0.809,-0.511,0.237,146.0,36.0
47659,-0.320,0.461,0.836,-0.282,-0.603,0.031,145.0,36.0
47742,-0.321,0.458,0.837,-0.511,-0.542,0.061,146.0,36.0
47823,-0.316,0.464,0.828,-0.855,-0.489,0.000,146.0,36.0
47904,-0.324,0.463,0.822,-0.840,-0.443,0.069,146.0,36.0
47985,-0.319,0.454,0.830,-0.718,-0.443,0.122,146.0,36.0
48066,-0.321,0.462,0.826,-0.153,-0.519,-0.069,146.0,36.0
48147,-0.318,0.461,0.833,-0.817,-0.473,0.015,146.0,36.0
48228,-0.319,0.458,0.833,0.061,-0.649,0.168,146.0,36.0
48309,-0.314,0.458,0.826,-0.466,-0.565,0.069,146.0,36.0
48390,-0.321,0.461,0.838,-0.290,-0.328,0.168,146.0,36.0
48475,-0.320,0.466,0.831,-0.198,-0.397,0.061,146.0,36.0
48556,-0.323,0.456,0.835,-0.496,-0.481,0.092,146.0,36.0
48636,-0.320,0.459,0.832,-0.908,-0.649,0.092,146.0,36.0
48717,-0.321,0.467,0.833,-0.954,-0.351,0.115,146.0,36.0
48798,-0.326,0.458,0.835,0.046,-0.565,0.389,146.0,36.0
48879,-0.322,0.470,0.826,0.000,-0.580,-0.214,146.0,36.0
48961,-0.317,0.458,0.832,-0.275,-0.214,0.168,146.0,36.0
49042,-0.319,0.458,0.837,0.176,-0.550,0.122,145.0,36.0
49123,-0.318,0.460,0.821,-0.359,-0.443,0.092,145.0,36.0
49207,-0.322,0.459,0.825,0.008,-0.603,0.137,146.0,36.0
49288,-0.322,0.465,0.825,0.084,-0.466,0.023,146.0,36.0
49370,-0.320,0.465,0.829,-0.023,-0.374,0.267,146.0,36.0
49451,-0.315,0.455,0.823,-0.046,-0.298,0.229,146.0,36.0
49531,-0.323,0.468,0.829,0.870,-0.412,0.122,146.0,36.0
49612,-0.315,0.456,0.823,-0.092,-0.557,0.290,146.0,36.0
49694,-0.331,0.460,0.842,0.023,-0.260,-0.183,146.0,36.0
49775,-0.325,0.462,0.837,-0.328,-0.756,0.053,146.0,36.0
49856,-0.315,0.453,0.833,-0.519,-0.580,0.137,146.0,36.0
49941,-0.324,0.461,0.831,-0.351,-0.466,0.183,146.0,36.0
50022,-0.315,0.460,0.827,-0.924,-0.504,0.038,146.0,36.0
50103,-0.325,0.470,0.825,-0.206,-0.550,0.122,147.0,36.0
50185,-0.322,0.461,0.832,-0.534,-0.443,0.229,146.0,36.0
50266,-0.315,0.461,0.823,-0.198,-0.550,0.038,147.0,36.0
50347,-0.323,0.466,0.827,0.550,-0.580,0.031,146.0,36.0
50428,-0.313,0.456,0.833,-0.496,-0.565,0.084,146.0,36.0
50509,-0.318,0.456,0.838,0.153,-0.565,0.023,146.0,36.0
50590,-0.324,0.470,0.833,-0.832,-0.336,0.260,146.0,36.0
50675,-0.317,0.458,0.833,-0.710,-0.611,0.237,146.0,36.0
50756,-0.319,0.459,0.829,-0.260,-0.542,0.122,146.0,36.0
50837,-0.323,0.458,0.841,-0.656,-0.405,0.313,146.0,36.0
50919,-0.323,0.465,0.823,-0.183,-0.504,0.115,146.0,36.0
51000,-0.322,0.464,0.821,-0.466,-0.435,0.221,146.0,36.0
51082,-0.321,0.466,0.835,0.046,-0.473,0.038,146.0,36.0
51163,-0.330,0.457,0.840,0.458,-0.504,-0.206,146.0,36.0
51244,-0.320,0.458,0.837,-0.824,-0.740,0.198,146.0,36.0
51325,-0.320,0.463,0.831,0.344,-0.427,0.137,146.0,36.0
51410,-0.321,0.467,0.828,-0.618,-0.649,0.176,146.0,36.0
51491,-0.322,0.456,0.832,-0.397,-0.443,0.221,146.0,36.0
51572,-0.324,0.460,0.831,-0.145,-0.664,0.069,146.0,36.0
51654,-0.320,0.460,0.839,-0.351,-0.565,0.313,146.0,36.0
51735,-0.318,0.461,0.827,-0.298,-0.573,0.076,146.0,36.0
51817,-0.323,0.465,0.835,-0.626,-0.565,0.176,146.0,36.0
51898,-0.322,0.462,0.836,-0.160,-0.550,-0.023,146.0,36.0
51980,-0.314,0.456,0.830,-0.740,-0.519,0.214,146.0,36.0
52061,-0.314,0.466,0.836,-0.802,-0.191,0.221,146.0,36.0
52146,-0.321,0.458,0.822,0.275,-0.504,0.229,146.0,36.0
52228,-0.319,0.467,0.832,-0.099,-0.481,0.038,147.0,36.0
52308,-0.323,0.460,0.827,-0.412,-0.420,0.305,147.0,36.0
52390,-0.313,0.452,0.826,0.313,-0.473,0.137,146.0,36.0
52471,-0.325,0.464,0.830,-0.176,-0.344,0.076,146.0,36.0
52553,-0.316,0.463,0.831,0.076,-0.458,0.229,146.0,36.0
52635,-0.320,0.465,0.826,-0.023,-0.603,0.092,146.0,36.0
52716,-0.325,0.465,0.837,-0.176,-0.290,0.336,146.0,36.0
52803,-0.318,0.460,0.821,-0.473,-0.435,0.176,146.0,36.0
52887,-0.329,0.474,0.831,0.176,-0.321,0.305,146.0,36.0
52967,-0.319,0.455,0.821,-0.137,-0.611,0.366,146.0,36.0
53048,-0.321,0.462,0.826,-0.183,-0.397,0.168,146.0,36.0
53128,-0.322,0.466,0.825,-0.580,-0.504,0.107,146.0,36.0
53209,-0.321,0.465,0.825,-0.137,-0.550,0.267,146.0,36.0
53289,-0.321,0.468,0.830,-0.443,-0.542,0.221,146.0,36.0
53369,-0.318,0.464,0.824,-0.611,-0.427,0.076,146.0,36.0
53450,-0.317,0.464,0.828,-0.183,-0.618,0.191,146.0,36.0
53530,-0.324,0.463,0.828,-0.649,-0.382,0.031,146.0,36.0
53614,-0.314,0.458,0.836,-0.473,-0.351,0.015,146.0,36.0
53694,-0.329,0.464,0.828,0.786,-0.412,-0.145,146.0,36.0
53775,-0.311,0.454,0.835,-0.481,-0.542,0.053,146.0,36.0
53856,-0.323,0.462,0.836,0.084,-0.473,0.053,146.0,36.0
53936,-0.323,0.466,0.831,-0.504,-0.672,0.168,146.0,36.0
54017,-0.318,0.462,0.836,-0.344,-0.420,0.229,146.0,36.0
54097,-0.321,0.464,0.833,0.038,-0.626,0.023,146.0,36.0
54177,-0.320,0.450,0.832,-0.405,-0.473,-0.046,146.0,36.0
54258,-0.324,0.466,0.833,-0.313,-0.351,-0.160,146.0,36.0
54341,-0.328,0.472,0.827,0.206,0.015,-0.397,146.0,36.0
54422,-0.309,0.454,0.829,3.664,-0.183,0.489,146.0,36.0
54503,-0.325,0.461,0.825,1.237,-0.992,0.756,146.0,36.0
54584,-0.339,0.485,0.815,0.137,0.382,-1.160,147.0,38.0
54664,-0.293,0.458,0.835,-2.969,1.107,-0.298,146.0,36.0
54745,-0.344,0.428,0.865,6.023,-4.229,2.740,146.0,36.0
54825,-0.336,0.472,0.816,6.763,-4.176,-5.046,147.0,37.0
54906,-0.334,0.455,0.813,16.779,-5.336,-11.832,147.0,36.0
54987,-0.326,0.597,0.812,-7.977,-6.802,9.427,148.0,35.0
55080,-0.282,0.486,0.908,-45.000,0.076,23.481,147.0,0.0
55159,-0.324,0.526,0.872,-17.878,-31.305,30.733,110.0,36.0
55240,-0.258,0.269,0.760,-89.420,-59.542,24.611,146.0,36.0
55321,-0.060,0.004,0.875,-59.664,-49.679,-3.878,146.0,36.0
55402,0.000,0.219,0.973,17.718,-27.252,-16.443,147.0,34.0
55482,0.168,0.312,1.071,1.809,-21.840,-13.008,149.0,32.0
55561,0.183,0.298,1.031,31.107,-25.420,-12.611,112.0,31.0
55645,-0.134,0.397,0.740,28.298,-23.702,11.305,0.0,30.0
55728,-0.165,0.167,0.683,9.985,-24.137,11.168,0.0,30.0
55815,0.879,0.335,1.354,8.649,27.321,1.275,0.0,30.0
55887,0.019,0.421,1.096,30.450,4.130,12.786,17.0,30.0
55972,-0.127,0.463,0.743,70.626,0.550,-7.611,52.0,0.0
56066,0.084,0.732,0.875,-6.069,39.626,-39.992,0.0,0.0
56139,0.213,0.441,1.063,-86.038,44.641,-13.176,38.0,29.0
56215,0.119,0.213,1.190,-82.298,29.366,21.794,51.0,31.0
56308,0.227,-0.139,1.060,-11.573,-17.038,69.603,0.0,0.0
56390,0.334,0.261,0.824,-10.542,-11.145,104.084,32.0,180.0
56476,0.161,0.184,0.898,-32.481,33.771,47.031,59.0,0.0
56559,-0.273,0.224,0.829,-2.687,76.634,0.595,44.0,134.0
56638,-0.502,0.152,0.747,-1.214,84.939,-20.931,22.0,118.0
56717,-0.719,0.181,0.708,-17.084,46.496,-28.473,21.0,115.0
56795,-0.517,0.070,0.847,26.588,40.115,-5.221,20.0,114.0
56872,-0.483,0.121,0.720,-4.267,13.000,11.427,21.0,115.0
56951,-0.410,0.125,0.786,26.992,10.061,8.817,21.0,112.0
57028,-0.498,0.195,0.779,88.733,21.443,6.435,22.0,83.0
57104,-0.296,0.454,1.156,64.794,40.664,15.298,22.0,81.0
57182,-0.697,0.336,1.031,42.611,-1.336,-33.053,24.0,106.0
57264,-0.518,0.329,0.695,66.786,-33.466,-10.718,27.0,104.0
57341,-0.400,0.395,0.569,64.366,-27.695,-12.580,29.0,101.0
57419,-0.349,0.338,0.487,39.336,-8.992,-19.939,33.0,97.0
57497,-0.531,0.462,0.544,10.885,-16.015,-52.550,36.0,93.0
57576,-1.031,0.728,0.460,186.344,-43.519,-82.313,43.0,90.0
57654,-0.700,1.324,0.224,128.847,-68.672,-11.534,48.0,87.0
57739,-0.338,1.236,0.750,27.435,-73.840,-5.771,51.0,0.0
57833,-0.056,0.469,0.512,26.321,-46.992,8.344,0.0,0.0
57923,-0.550,0.491,0.871,-86.099,-34.901,15.969,0.0,86.0
58016,-0.238,0.441,0.723,12.015,-17.573,38.191,0.0,0.0
58101,-0.139,0.673,0.820,-22.229,-16.962,12.031,52.0,0.0
58187,-0.205,1.029,0.461,91.099,-82.977,-57.786,65.0,0.0
58271,-0.298,0.545,0.764,71.206,-58.634,-3.481,31.0,0.0
58356,-0.117,0.976,0.419,-69.756,-57.481,31.687,51.0,0.0
58440,0.326,1.255,0.635,-87.939,-77.748,-36.282,30.0,0.0
58524,-0.045,0.228,1.074,-11.756,-20.802,-17.405,34.0,0.0
58617,-0.058,0.723,0.756,46.672,8.504,5.000,0.0,0.0
58703,0.015,0.851,0.733,95.908,-3.031,-40.267,13.0,0.0
58787,-0.101,0.966,0.525,139.153,-66.863,-129.641,37.0,0.0
58871,0.072,1.349,0.271,147.664,-147.321,-230.840,26.0,0.0
58954,-0.267,0.357,0.768,111.702,-126.206,-250.137,26.0,0.0
59039,-1.617,1.499,0.176,63.992,-125.260,-250.137,36.0,0.0
59123,-0.287,0.692,0.219,-209.382,-158.061,-174.473,30.0,0.0
59207,0.231,-0.776,0.433,-250.137,-131.748,-240.519,30.0,0.0
59291,-0.960,0.271,0.266,75.740,-174.336,-243.916,30.0,0.0
59375,0.313,-0.841,-0.080,-250.137,-199.656,-180.611,30.0,0.0
59468,0.362,-0.751,0.074,-40.611,-103.137,-250.137,139.0,0.0
59555,0.551,0.523,-0.603,-71.229,-32.458,-250.137,67.0,0.0
59648,0.802,0.173,-0.163,45.870,58.565,-250.137,173.0,0.0
59741,1.364,1.188,-0.253,-36.779,-8.023,-174.000,0.0,198.0
59834,1.185,0.892,0.051,62.786,8.107,-83.588,0.0,0.0
59921,0.776,0.568,0.286,-20.191,15.076,-109.252,75.0,0.0
60014,0.831,0.836,0.303,-56.351,45.947,-96.290,0.0,0.0
60108,0.432,0.922,0.381,-26.458,9.740,-36.649,0.0,0.0
60191,0.501,0.886,0.280,13.176,-0.588,6.947,0.0,18.0
60289,0.560,0.856,0.297,-5.389,-6.542,10.611,0.0,0.0
60382,0.613,0.840,0.321,-29.550,-22.015,30.832,0.0,0.0
60470,0.714,0.899,0.135,-99.031,-41.481,38.191,0.0,107.0
60559,0.602,0.479,0.461,-44.893,-38.137,26.611,0.0,109.0
60647,0.736,0.585,0.325,-1.290,-28.901,38.802,0.0,106.0
60735,0.817,0.442,0.318,7.137,-15.069,31.618,0.0,108.0
60829,0.888,0.515,0.212,11.611,-2.313,26.374,0.0,0.0
60922,0.854,0.333,0.288,35.496,-18.160,14.427,0.0,0.0
61017,0.862,0.430,0.250,7.496,-12.496,-2.267,0.0,0.0
61114,0.845,0.633,0.170,4.069,-5.527,-10.344,0.0,0.0
61202,0.839,0.505,0.223,7.023,-8.008,-2.649,0.0,108.0
61290,0.856,0.522,0.179,18.664,-4.450,-0.595,0.0,107.0
61379,0.858,0.516,0.179,-1.802,-2.069,-3.977,0.0,107.0
61467,0.850,0.539,0.148,0.710,-0.855,0.489,0.0,107.0
61555,0.844,0.521,0.173,-0.221,0.916,-0.748,0.0,107.0
61644,0.842,0.550,0.174,0.710,2.366,-1.473,0.0,107.0
61732,0.841,0.530,0.185,-1.397,0.237,0.931,0.0,107.0
61820,0.844,0.533,0.180,0.252,-0.275,0.817,0.0,107.0
61913,0.841,0.535,0.187,0.351,-1.664,-0.557,0.0,107.0
62001,0.844,0.523,0.186,0.534,-2.969,-1.641,0.0,107.0
62089,0.853,0.554,0.174,-2.008,-2.473,-1.565,0.0,107.0
62178,0.841,0.542,0.156,-4.221,-0.237,-1.214,0.0,107.0
62266,0.838,0.557,0.181,-0.611,1.527,-1.519,0.0,107.0
62354,0.829,0.543,0.188,-1.550,1.435,0.863,0.0,107.0
62443,0.846,0.538,0.178,-1.870,0.542,2.031,0.0,107.0
62531,0.849,0.504,0.193,0.427,0.740,0.511,0.0,107.0
62619,0.835,0.542,0.197,-1.015,-1.115,-1.443,0.0,107.0
62708,0.838,0.535,0.181,2.672,-3.588,-0.115,0.0,107.0
62799,0.845,0.537,0.189,-0.542,-3.328,-2.191,0.0,106.0
62888,0.835,0.555,0.169,3.565,-3.084,-1.802,0.0,106.0
62977,0.844,0.539,0.165,-1.260,-1.954,-0.931,0.0,106.0
63066,0.837,0.550,0.174,0.710,-0.489,-0.458,0.0,106.0
63154,0.841,0.548,0.168,-1.038,0.374,-0.450,0.0,106.0
63242,0.831,0.562,0.171,-0.595,-0.130,-0.099,0.0,106.0
63331,0.834,0.535,0.178,0.427,-0.908,-0.122,0.0,106.0
63419,0.839,0.538,0.171,1.160,-0.947,-1.282,0.0,106.0
63508,0.833,0.557,0.162,-0.504,-0.260,-2.084,0.0,106.0
63605,0.831,0.556,0.166,-0.267,-0.397,-0.069,0.0,106.0
63692,0.835,0.553,0.171,-1.626,0.023,0.321,0.0,106.0
63779,0.835,0.550,0.165,-0.847,0.130,-0.328,0.0,106.0
63867,0.836,0.550,0.167,-0.489,-0.351,-0.771,0.0,106.0
63954,0.827,0.552,0.169,1.084,-0.809,-0.366,0.0,106.0
64043,0.831,0.556,0.168,-0.618,-1.107,-0.374,0.0,106.0
64130,0.834,0.561,0.161,0.908,-0.664,0.099,0.0,106.0
64218,0.827,0.549,0.165,-0.313,-0.115,-0.137,0.0,106.0
64305,0.830,0.555,0.171,-1.527,-0.565,0.336,0.0,106.0
64395,0.828,0.558,0.167,0.076,-0.443,-0.313,0.0,106.0
64483,0.832,0.552,0.174,0.351,-0.832,-0.008,0.0,106.0
64570,0.825,0.555,0.174,-0.137,-0.947,-0.511,0.0,106.0
64658,0.832,0.557,0.162,0.435,-0.763,-0.130,0.0,106.0
64745,0.831,0.562,0.160,-0.672,0.718,0.145,0.0,106.0
64833,0.831,0.565,0.170,-1.023,1.550,0.740,0.0,106.0
64920,0.830,0.552,0.179,0.397,0.885,0.137,0.0,106.0
65008,0.826,0.553,0.181,0.206,-0.908,-0.466,0.0,107.0
65095,0.827,0.558,0.170,0.557,-1.985,-0.664,0.0,107.0
65186,0.833,0.561,0.158,0.962,-1.603,-0.084,0.0,106.0
65273,0.833,0.562,0.168,1.481,-0.244,-0.328,0.0,106.0
65361,0.826,0.554,0.168,-0.809,-0.794,0.260,0.0,107.0
65448,0.825,0.563,0.165,0.397,-0.527,-0.305,0.0,106.0
65537,0.830,0.561,0.164,0.359,-0.786,-0.237,0.0,106.0
65625,0.830,0.573,0.156,-0.435,-0.344,-0.382,0.0,107.0
65712,0.833,0.560,0.173,-0.305,0.015,0.427,0.0,106.0
65800,0.832,0.560,0.161,-1.779,0.183,0.427,0.0,106.0
65888,0.827,0.561,0.173,-1.046,-0.565,0.298,0.0,107.0
65975,0.829,0.557,0.169,-0.023,-0.855,-0.183,0.0,107.0
66066,0.826,0.556,0.168,0.183,-1.153,-0.038,0.0,106.0
66153,0.826,0.562,0.167,-0.802,-1.198,0.374,0.0,106.0
66241,0.825,0.560,0.165,-1.000,-0.359,0.107,0.0,106.0
66329,0.826,0.561,0.162,-0.924,-0.183,0.634,0.0,106.0
66417,0.852,0.583,0.175,-0.412,1.962,3.282,0.0,106.0
66504,0.921,0.658,0.229,-30.756,-2.710,21.206,0.0,107.0
66592,0.971,0.783,0.164,-76.565,-18.511,50.756,0.0,107.0
66672,1.007,0.212,0.457,-117.847,-13.046,46.977,65.0,107.0
66753,1.016,0.352,0.452,-37.649,-52.107,44.550,64.0,107.0
66844,0.928,0.352,0.274,-43.359,-84.893,56.130,0.0,108.0
66932,0.851,0.053,-0.044,-47.237,-95.481,36.130,0.0,110.0
67020,0.879,0.025,-0.171,-10.901,-83.038,33.092,0.0,111.0
67106,0.892,-0.031,-0.269,-12.794,-71.336,18.962,161.0,113.0
67194,0.886,-0.031,-0.331,7.817,-60.832,10.580,0.0,113.0
67283,0.875,-0.031,-0.433,-0.198,-44.420,7.244,0.0,114.0
67369,0.860,-0.069,-0.501,10.580,-18.321,19.115,157.0,114.0
67456,0.904,-0.091,-0.477,-15.756,-3.061,15.389,157.0,115.0
67542,0.941,-0.092,-0.455,-10.534,0.855,4.244,156.0,115.0
67625,0.909,-0.085,-0.413,4.550,-2.580,-4.000,157.0,115.0
67712,0.899,0.037,-0.487,14.115,-8.183,3.992,156.0,115.0
67798,0.940,-0.128,-0.420,-2.191,-6.420,3.351,156.0,115.0
67884,0.914,-0.053,-0.474,-5.145,-1.466,2.405,156.0,115.0
67970,0.893,-0.077,-0.465,5.786,0.634,3.084,156.0,115.0
68056,0.850,-0.142,-0.443,25.916,3.023,8.229,156.0,115.0
68142,0.708,-0.225,-0.459,-2.053,23.351,8.458,156.0,115.0
68230,0.699,-0.223,-0.445,22.168,67.084,-3.649,0.0,115.0
68319,0.963,-0.216,-0.261,111.504,79.824,-11.427,159.0,113.0
68408,1.031,-0.037,-0.073,33.267,62.008,-24.916,0.0,113.0
68494,1.073,-0.074,0.071,13.481,50.145,-42.725,166.0,112.0
68581,1.111,-0.025,0.082,43.916,59.511,-44.847,164.0,111.0
68668,1.100,0.109,0.070,44.427,43.466,-56.687,171.0,111.0
68754,1.088,0.148,0.218,39.053,42.420,-70.718,170.0,110.0
68841,0.944,0.385,0.265,41.351,42.397,-54.534,174.0,109.0
68928,0.819,0.487,0.327,-9.649,46.252,-29.519,175.0,110.0
69020,0.836,0.433,0.402,12.115,28.321,-10.840,177.0,0.0
69115,0.815,0.408,0.448,-5.122,10.947,2.275,175.0,0.0
69208,0.836,0.391,0.437,5.725,-3.191,6.206,175.0,0.0
69295,0.852,0.345,0.423,-0.382,-10.206,5.328,175.0,115.0
69383,0.866,0.372,0.367,7.908,-11.916,4.412,0.0,112.0
69470,0.879,0.360,0.334,5.611,-10.687,1.885,176.0,112.0
69557,0.878,0.371,0.325,4.107,-7.802,-0.107,175.0,113.0
69644,0.887,0.371,0.321,0.679,-5.794,-1.206,176.0,112.0
69732,0.888,0.385,0.310,0.702,-1.969,-0.122,0.0,112.0
69821,0.884,0.380,0.314,0.969,-2.580,-0.183,0.0,113.0
69912,0.884,0.383,0.312,-1.153,-0.893,-1.260,0.0,113.0
70001,0.884,0.402,0.300,-1.573,0.405,0.695,0.0,113.0
70089,0.886,0.370,0.319,0.511,1.046,1.183,0.0,113.0
70176,0.884,0.360,0.314,-0.794,1.641,-1.565,176.0,113.0
70268,0.875,0.364,0.332,11.107,2.725,-2.786,176.0,0.0
70361,0.874,0.422,0.311,4.061,0.183,-1.427,176.0,0.0
70453,0.877,0.405,0.308,4.252,0.015,1.427,177.0,0.0
70545,0.881,0.377,0.326,-1.252,-0.779,0.282,176.0,0.0
70638,0.878,0.409,0.291,6.977,-0.473,-0.420,0.0,0.0
70734,0.879,0.400,0.320,1.824,0.061,0.099,0.0,0.0
70829,0.878,0.411,0.301,0.450,0.015,0.687,0.0,0.0
70922,0.883,0.404,0.300,-0.008,2.374,1.130,0.0,0.0
71015,0.878,0.395,0.321,-0.603,1.290,1.061,0.0,0.0
71108,0.872,0.392,0.326,-0.290,-0.603,0.160,0.0,0.0
71200,0.877,0.402,0.314,-0.947,-1.076,0.863,177.0,0.0
71292,0.873,0.394,0.314,1.656,-0.855,-0.290,178.0,0.0
71385,0.876,0.395,0.313,-1.542,-0.588,0.084,177.0,0.0
71477,0.879,0.409,0.318,0.595,0.237,0.412,177.0,0.0
71569,0.881,0.379,0.314,0.679,-0.573,1.000,176.0,0.0
71664,0.875,0.404,0.311,-0.878,0.649,-0.191,176.0,0.0
71756,0.869,0.415,0.318,0.023,0.496,0.397,177.0,0.0
71848,0.873,0.395,0.330,0.137,-1.527,0.344,176.0,0.0
71941,0.873,0.393,0.315,-0.977,-1.305,-0.687,176.0,0.0
72033,0.866,0.409,0.309,-1.473,-0.733,-0.740,176.0,0.0
72126,0.874,0.396,0.313,1.267,-1.840,0.084,177.0,0.0
72218,0.823,0.531,0.243,-50.382,-17.267,-7.649,176.0,0.0
72305,0.854,0.130,0.481,-250.137,-39.786,-62.985,176.0,108.0
72393,0.840,0.181,0.561,46.504,-66.779,-4.458,0.0,107.0
72485,1.009,0.499,0.243,-22.374,-85.015,-14.366,0.0,105.0
72573,0.943,0.424,0.095,-23.321,-70.046,11.366,0.0,105.0
72662,0.893,0.370,-0.016,-8.290,-65.855,17.237,0.0,104.0
72751,0.937,0.318,-0.119,4.634,-65.420,7.664,0.0,104.0
72839,0.921,0.312,-0.188,16.611,-59.924,-3.153,0.0,105.0
72927,0.901,0.251,-0.271,16.313,-41.672,-2.443,0.0,105.0
73016,0.918,0.317,-0.318,14.168,-28.115,4.000,0.0,105.0
73104,0.901,0.223,-0.327,5.565,-17.702,2.985,0.0,106.0
73192,0.872,0.303,-0.403,1.038,-7.672,2.802,0.0,106.0
73284,0.919,0.288,-0.391,2.298,2.626,5.145,0.0,106.0
73372,0.927,0.289,-0.359,3.626,1.649,1.611,0.0,106.0
73460,0.909,0.268,-0.326,7.214,-2.771,-0.252,0.0,106.0
73549,0.912,0.262,-0.361,-1.252,-1.985,1.405,0.0,106.0
73637,0.909,0.270,-0.370,3.733,-0.595,2.191,0.0,106.0
73725,0.895,0.242,-0.345,19.641,-3.725,4.206,0.0,106.0
73815,0.903,0.256,-0.359,-1.595,-6.817,3.977,0.0,106.0
73903,0.928,0.248,-0.380,-2.840,-7.863,3.084,0.0,106.0
73992,0.893,0.206,-0.374,13.481,-4.992,4.206,0.0,106.0
74083,0.875,0.271,-0.451,-9.908,-0.763,5.160,0.0,106.0
74172,0.793,0.224,-0.434,18.977,16.336,16.847,0.0,106.0
74259,0.943,0.183,-0.437,4.137,47.618,24.275,167.0,107.0
74345,1.045,0.089,-0.319,47.267,42.198,-3.954,166.0,107.0
74432,0.911,0.197,-0.280,63.183,30.489,-15.794,167.0,108.0
74519,0.969,0.110,-0.178,34.626,50.359,-5.511,167.0,109.0
74606,0.880,0.087,-0.152,59.038,59.527,-5.634,168.0,110.0
74693,2.000,0.160,-0.029,17.496,34.725,-19.183,170.0,111.0
74781,1.068,0.552,0.035,-2.496,64.443,22.855,169.0,113.0
74876,1.165,0.323,0.059,-17.382,83.069,71.489,167.0,117.0
74955,1.250,0.143,0.090,2.374,89.008,96.481,37.0,124.0
75039,1.229,-0.229,0.285,0.794,70.573,80.832,38.0,0.0
75132,1.282,-0.083,0.380,67.489,64.244,63.267,0.0,0.0
75217,0.831,-0.010,0.510,108.282,85.634,45.466,70.0,0.0
75309,0.478,0.036,0.544,10.786,83.000,3.977,166.0,0.0
75402,0.275,-0.159,0.637,49.183,91.893,20.687,0.0,0.0
75495,0.216,-0.071,0.602,53.679,94.634,33.763,0.0,0.0
75587,-0.078,-0.153,1.048,-18.939,59.290,30.290,0.0,0.0
75683,0.061,-0.425,1.226,52.351,33.786,15.863,0.0,0.0
75777,-0.007,-0.455,0.993,93.977,1.672,21.069,0.0,0.0
75869,-0.374,-0.045,0.799,126.519,-26.779,66.588,194.0,0.0
75962,0.803,0.211,1.163,-8.908,-19.931,-84.328,0.0,0.0
76055,0.311,0.600,0.884,-52.725,60.023,-124.458,0.0,0.0
76148,0.058,0.536,0.880,-4.977,9.313,5.450,0.0,0.0
76240,-0.126,0.503,0.713,-94.420,32.634,39.336,0.0,0.0
76334,0.011,0.180,0.789,-108.160,66.237,74.931,0.0,0.0
76427,0.017,-0.039,0.910,-48.557,45.008,71.168,0.0,0.0
76520,-0.211,-0.220,0.990,-6.588,18.015,65.351,181.0,177.0
76611,-0.449,-0.163,0.879,11.504,49.985,61.634,172.0,184.0
76701,-0.601,-0.282,0.904,4.122,70.519,5.817,174.0,175.0
76783,-0.735,-0.267,0.858,5.221,74.115,19.313,35.0,176.0
76863,-0.531,-0.090,0.836,38.824,49.145,12.870,32.0,138.0
76944,-0.455,0.004,0.866,14.252,24.771,-4.061,58.0,131.0
77026,-0.194,0.074,1.095,45.985,20.412,17.344,64.0,127.0
77116,-0.293,0.658,0.799,74.374,-24.153,62.947,193.0,159.0
77198,-0.581,0.341,0.810,7.023,-70.252,84.336,36.0,157.0
77282,-1.047,0.562,0.811,-53.267,-81.847,60.061,37.0,157.0
77361,-0.330,0.260,0.895,15.847,-107.573,37.412,37.0,117.0
77443,-0.072,0.158,0.814,168.282,-78.992,-20.008,50.0,155.0
77537,-0.437,0.599,0.500,250.130,52.168,-10.084,0.0,0.0
77629,-0.912,2.000,0.163,-15.977,-5.344,-33.237,195.0,0.0
77705,-0.554,0.088,0.220,-7.885,-67.534,-86.008,36.0,52.0
77790,-0.145,1.067,0.002,138.298,-101.718,-172.115,0.0,50.0
77874,-0.577,1.293,0.135,15.275,-120.656,-229.840,42.0,0.0
77959,-0.714,0.916,0.236,5.260,-121.947,-194.473,48.0,0.0
78046,-0.570,0.700,0.178,31.359,-105.740,-132.344,51.0,0.0
78131,-0.610,0.687,0.385,-30.145,-80.542,-92.237,52.0,0.0
78217,-0.850,0.614,0.735,17.855,-68.458,-50.504,57.0,0.0
78301,-0.625,0.388,0.791,-13.763,-97.267,-45.275,48.0,0.0
78385,-0.388,0.191,0.763,-26.756,-101.733,-61.779,40.0,0.0
78470,0.058,-0.099,0.867,-48.695,-76.756,-59.824,38.0,0.0
78554,0.143,-0.200,1.107,-6.931,-54.603,-50.031,43.0,0.0
78641,-0.009,-0.035,1.150,26.878,-41.809,-32.710,88.0,0.0
78728,0.051,0.014,0.960,-17.969,-53.275,-7.939,30.0,0.0
78812,0.091,-0.083,0.923,-12.908,-56.023,-12.649,43.0,0.0
78897,0.156,-0.126,0.919,-25.061,-38.267,-14.794,47.0,0.0
78985,0.202,-0.144,0.933,-15.069,-24.847,-12.374,109.0,0.0
79070,0.221,-0.157,0.998,-13.336,-9.206,-16.534,47.0,0.0
79154,0.195,-0.117,0.977,-6.076,-3.725,-11.153,42.0,0.0
79238,0.199,-0.111,0.936,1.710,-0.863,-5.992,37.0,0.0
79322,0.248,-0.162,0.972,0.489,2.389,-10.191,35.0,0.0
79406,0.197,-0.080,0.990,4.519,3.702,-11.511,43.0,0.0
79494,0.140,-0.113,0.980,16.870,6.939,-11.221,43.0,0.0
79578,0.020,-0.183,0.871,34.916,20.443,-23.450,45.0,194.0
79660,0.107,-0.054,0.788,59.611,59.397,-62.779,37.0,165.0
79740,-0.069,0.211,0.967,88.328,98.847,-88.847,37.0,144.0
79825,-0.181,0.463,1.089,44.290,66.336,-67.412,120.0,140.0
79902,-0.250,0.255,1.254,124.191,8.107,-42.611,42.0,67.0
79992,-0.076,1.185,0.625,85.802,3.145,-5.168,0.0,139.0
80078,-0.345,-0.015,1.000,-60.550,-0.344,-37.053,0.0,69.0
80155,-0.423,0.428,0.840,-28.183,6.336,-13.885,38.0,69.0
80244,-0.417,0.072,0.962,57.763,4.947,4.496,0.0,68.0
80330,-0.335,0.497,0.777,26.252,7.885,13.519,0.0,70.0
80420,-0.063,0.405,0.602,-32.351,16.954,7.664,0.0,139.0
80510,0.044,0.170,1.823,-32.847,24.084,-1.290,0.0,139.0
80600,-2.000,0.722,-0.327,140.023,-31.061,-60.183,0.0,137.0
80683,-0.794,0.564,0.063,-45.992,-72.901,19.244,52.0,151.0
80764,-0.446,-0.010,0.534,-84.603,-86.588,30.748,58.0,139.0
80856,-0.083,0.425,0.697,38.038,-64.710,6.763,0.0,155.0
80932,-0.254,0.332,0.655,-73.298,-93.756,-3.038,51.0,57.0
81011,0.015,-0.063,0.601,23.679,-176.878,67.153,46.0,52.0
81088,0.830,0.287,0.383,131.748,-171.855,127.420,54.0,50.0
81165,2.000,0.892,0.490,-95.435,-49.481,-21.489,52.0,49.0
81242,0.837,0.041,0.530,-56.817,140.687,-169.412,50.0,47.0
81317,-0.141,0.069,0.619,-15.458,66.473,-81.939,54.0,45.0
81403,0.025,0.528,0.577,73.229,116.618,-57.878,58.0,0.0
81480,-2.000,-0.504,2.000,-193.580,-62.198,-9.557,68.0,46.0
81565,0.301,-0.149,0.464,128.229,0.832,68.031,0.0,46.0
81650,-0.411,0.233,1.486,-149.191,38.122,-42.206,0.0,48.0
81738,0.089,-0.018,0.795,22.603,-4.794,14.183,0.0,47.0
81823,-0.076,0.400,1.044,16.618,-3.809,4.985,0.0,47.0
81908,-0.047,0.182,1.025,-13.832,0.412,-1.924,0.0,48.0
81993,-0.027,0.248,0.928,10.511,-0.183,1.389,0.0,47.0
82068,-0.030,0.251,0.970,-7.740,-1.580,-0.290,19.0,48.0
82153,-0.039,0.204,0.989,7.282,-0.214,0.618,0.0,47.0
82237,-0.039,0.220,0.975,-3.237,-0.145,-0.214,0.0,47.0
82312,-0.026,0.240,0.974,-0.786,-0.618,0.237,19.0,47.0
82386,-0.029,0.261,0.972,-1.427,-0.695,0.153,19.0,47.0
82475,-0.045,0.205,0.995,2.718,-0.351,0.290,0.0,47.0
82549,-0.031,0.250,0.975,-2.908,-0.359,-0.420,19.0,47.0
82624,-0.033,0.239,0.979,1.725,-0.832,0.359,19.0,47.0
82699,-0.045,0.248,0.970,-1.977,-0.908,0.237,19.0,47.0
82784,-0.041,0.219,0.990,0.130,-1.244,-0.076,0.0,47.0
82869,-0.028,0.222,1.000,1.611,-4.061,1.710,0.0,47.0
82954,-0.217,0.425,1.000,-14.008,-50.481,9.321,0.0,48.0
83039,-0.001,0.305,1.076,-38.244,-90.832,19.695,0.0,48.0
83120,0.222,0.107,0.985,13.046,-103.977,28.641,132.0,50.0
83205,0.389,0.186,0.750,-7.893,-82.901,26.397,131.0,50.0
83286,0.528,0.080,0.807,-5.901,-53.298,17.000,134.0,50.0
83367,0.578,0.144,0.804,-6.366,-33.145,7.977,130.0,51.0
83448,0.563,0.064,0.830,-8.725,-27.969,4.557,128.0,51.0
83527,0.626,0.081,0.782,2.947,-24.321,3.656,92.0,51.0
83608,0.652,0.095,0.759,-1.969,-17.344,3.008,127.0,51.0
83687,0.630,0.107,0.756,-1.603,-10.336,4.519,92.0,51.0
83769,0.644,0.102,0.744,-0.260,-8.061,3.748,127.0,51.0
83850,0.668,0.062,0.760,0.779,-5.931,2.397,127.0,51.0
83934,0.657,0.118,0.748,-3.267,-2.099,1.908,127.0,51.0
84016,0.651,0.084,0.764,3.740,-2.595,2.176,127.0,51.0
84097,0.677,0.050,0.774,3.244,-5.206,1.466,127.0,52.0
84177,0.657,0.141,0.701,7.160,-0.679,-1.840,127.0,51.0
84258,0.667,0.100,0.758,4.282,1.275,-1.420,127.0,51.0
84340,0.663,0.104,0.769,-2.489,-0.847,1.252,127.0,51.0
84421,0.676,0.099,0.721,4.786,-0.214,0.427,127.0,51.0
84502,0.675,0.102,0.747,2.832,2.389,-2.725,127.0,51.0
84583,0.658,0.143,0.767,-0.351,-0.626,-0.977,127.0,51.0
84677,0.666,0.126,0.744,2.603,-1.115,1.809,127.0,51.0
84760,0.670,0.103,0.739,1.725,1.405,0.412,128.0,51.0
84844,0.660,0.127,0.751,3.038,3.550,0.076,127.0,51.0
84928,0.648,0.128,0.769,1.962,0.611,1.290,128.0,51.0
85011,0.652,0.134,0.740,2.092,1.458,1.015,128.0,51.0
85095,0.678,0.097,0.727,7.038,8.237,-0.405,128.0,51.0
85176,0.709,0.049,0.643,15.763,32.076,-11.763,92.0,51.0
85260,0.598,0.173,0.712,34.519,72.641,-26.611,130.0,50.0
85348,0.405,0.199,0.839,12.893,91.473,-35.351,0.0,49.0
85438,0.194,0.219,0.926,17.695,97.771,-40.985,133.0,50.0
85528,0.143,0.422,0.924,28.969,91.267,-44.931,0.0,49.0
85614,-0.266,0.582,1.176,-45.947,69.397,-37.733,0.0,46.0
85701,0.052,0.046,0.786,22.908,-12.229,14.496,0.0,47.0
85787,-0.126,0.353,1.074,2.015,1.939,-2.122,0.0,47.0
85874,0.002,0.316,0.926,6.695,0.992,1.397,0.0,47.0
85960,-0.007,0.338,0.918,-1.710,-1.076,0.534,0.0,47.0
86047,-0.017,0.314,0.971,2.008,-1.328,0.931,0.0,47.0
86133,-0.021,0.354,0.947,2.565,-0.260,0.344,0.0,48.0
86220,-0.014,0.351,0.945,1.084,-0.374,0.397,0.0,48.0
86309,-0.016,0.335,0.944,0.107,-0.405,0.198,0.0,47.0
86395,-0.016,0.333,0.941,-0.252,-0.275,0.145,0.0,48.0
86482,-0.014,0.346,0.951,0.809,-0.443,0.344,0.0,46.0
86568,-0.021,0.350,0.953,0.275,-0.382,0.053,0.0,46.0
86656,-0.022,0.348,0.948,1.198,-0.397,0.107,0.0,46.0
86742,-0.010,0.352,0.948,0.153,-0.511,0.275,0.0,46.0
86829,-0.015,0.348,0.940,0.107,-0.542,0.260,0.0,46.0
86915,-0.016,0.348,0.949,-0.046,-0.214,0.382,0.0,46.0
