Timestamp(ms),AccelX(g),AccelY(g),AccelZ(g),GyroX(deg/s),GyroY(deg/s),GyroZ(deg/s),DistanceLeft(cm),DistanceRight(cm)
211789,0.112,-0.238,0.956,4.282,4.313,2.931,30.0,0.0
211873,0.073,-0.253,1.014,-0.031,-0.985,3.099,30.0,0.0
211957,0.088,-0.220,0.965,0.008,-1.092,6.496,29.0,0.0
212041,0.083,-0.258,0.995,5.885,-1.031,6.847,30.0,0.0
212131,0.059,-0.259,0.994,1.427,-4.290,3.023,30.0,0.0
212215,0.081,-0.266,0.974,-0.252,-3.847,0.656,30.0,0.0
212298,0.062,-0.225,0.955,6.595,3.847,-1.038,30.0,0.0
212381,0.059,-0.225,0.947,16.000,12.122,1.328,43.0,0.0
212467,0.021,-0.194,1.019,-4.954,12.313,-2.458,33.0,0.0
212551,-0.018,-0.189,1.055,4.847,10.954,-4.985,31.0,0.0
212634,0.543,-0.466,1.192,30.855,75.374,5.702,32.0,0.0
212718,-0.027,-0.586,1.944,35.756,90.450,-143.450,33.0,0.0
212802,-1.242,-0.146,-0.079,250.130,-61.031,35.962,44.0,0.0
212886,-0.207,0.460,-0.031,-250.137,-48.458,85.771,36.0,0.0
212974,-0.017,-0.490,0.750,-217.473,-48.893,43.939,111.0,0.0
213059,0.205,-0.520,0.817,-57.817,-41.412,-11.290,51.0,0.0
213155,-0.005,-0.218,0.761,118.275,-36.679,-2.366,0.0,0.0
213249,-0.054,-0.214,0.716,-13.901,-64.427,-25.038,0.0,0.0
213342,0.268,-0.464,0.782,10.053,-105.328,-35.153,0.0,0.0
213426,1.450,-0.628,0.850,250.130,-55.092,85.733,44.0,0.0
213519,1.262,0.076,0.476,-104.298,36.756,-89.901,0.0,0.0
213604,0.760,-0.319,0.928,-18.298,76.031,-67.992,61.0,0.0
213697,0.507,0.414,0.762,97.832,114.748,-88.718,0.0,0.0
213781,-0.278,0.270,1.141,61.107,113.031,-129.435,22.0,0.0
213871,-0.469,1.219,2.000,-63.779,62.435,-111.542,0.0,151.0
213954,0.068,0.323,0.673,-10.267,-11.206,4.237,22.0,151.0
214035,-0.312,0.254,1.441,68.313,-6.603,10.733,21.0,151.0
214128,-0.052,0.348,0.861,95.580,-6.824,8.687,0.0,0.0
214221,-0.040,0.708,0.720,6.847,-4.237,6.863,0.0,0.0
214315,-0.093,0.468,0.908,-31.748,3.718,-4.061,0.0,0.0
214408,-0.088,0.521,0.844,2.229,-2.504,1.008,0.0,0.0
214498,-0.094,0.434,0.889,-48.679,2.733,-3.092,0.0,151.0
214589,-0.117,0.244,0.997,29.527,-0.992,2.305,0.0,151.0
214682,-0.086,0.551,0.856,65.015,-6.489,3.947,0.0,0.0
214777,-0.060,0.650,0.779,14.191,-2.450,0.733,0.0,0.0
214871,-0.075,0.542,0.854,-14.435,0.992,-1.122,0.0,0.0
214965,-0.085,0.520,0.854,3.550,-0.740,0.794,0.0,0.0
215058,-0.075,0.554,0.834,-1.298,-0.344,0.321,0.0,0.0
215151,-0.083,0.530,0.845,0.229,-0.618,-0.008,0.0,0.0
215244,-0.080,0.549,0.839,-0.420,-0.557,-0.084,0.0,0.0
215337,-0.073,0.543,0.842,-0.405,-0.397,0.160,0.0,0.0
215431,-0.081,0.548,0.842,-0.779,-0.420,0.153,0.0,0.0
215524,-0.076,0.546,0.837,0.260,-0.237,0.153,0.0,0.0
215620,-0.076,0.543,0.846,-0.832,-0.237,0.389,0.0,0.0
215713,-0.075,0.548,0.839,-0.664,-0.366,-0.015,0.0,0.0
215806,-0.079,0.542,0.841,-1.214,-0.420,0.122,0.0,0.0
215900,-0.078,0.551,0.841,-0.595,-0.252,0.557,0.0,0.0
215993,-0.077,0.545,0.842,-0.771,-0.366,0.740,0.0,0.0
216086,-0.077,0.547,0.839,3.198,-0.824,0.527,0.0,0.0
216179,-0.078,0.555,0.838,-2.344,-0.160,-0.023,0.0,0.0
216273,-0.081,0.541,0.846,0.779,-0.321,1.038,0.0,0.0
216367,-0.070,0.552,0.842,-3.061,0.771,0.489,0.0,0.0
216460,-0.078,0.532,0.864,-12.466,2.435,2.130,0.0,0.0
216556,-0.099,0.507,0.874,-0.740,-0.076,1.740,0.0,0.0
216649,-0.088,0.539,0.839,-2.832,0.031,0.695,0.0,0.0
216742,-0.107,0.497,0.868,-2.359,-0.626,-0.099,0.0,0.0
216837,-0.076,0.507,0.867,7.794,-1.687,0.595,0.0,0.0
216930,-0.090,0.534,0.842,10.412,-2.969,-0.420,0.0,0.0
217023,-0.057,0.537,0.846,13.611,-3.611,0.947,0.0,0.0
217116,-0.060,0.609,0.797,2.725,-0.137,-0.351,0.0,0.0
217210,-0.081,0.553,0.851,-6.527,0.008,-1.015,0.0,0.0
217304,-0.080,0.552,0.843,2.443,-0.840,-0.985,0.0,0.0
217400,-0.069,0.554,0.837,0.412,-1.252,0.130,0.0,0.0
217493,-0.067,0.579,0.821,2.000,-1.458,0.359,0.0,0.0
217586,-0.076,0.566,0.826,-0.626,-0.969,-2.038,0.0,0.0
217680,-0.072,0.565,0.820,6.550,-1.824,-0.786,0.0,0.0
217774,-0.073,0.595,0.808,-3.374,0.000,0.191,0.0,0.0
217857,-0.076,0.559,0.834,0.695,-0.908,0.641,24.0,0.0
217951,-0.073,0.589,0.819,1.305,-1.015,0.046,0.0,0.0
218044,-0.069,0.562,0.842,1.229,-1.336,-1.282,0.0,0.0
218137,-0.074,0.565,0.824,4.160,-1.450,-1.122,0.0,0.0
218233,-0.077,0.597,0.803,-1.626,-0.748,0.389,0.0,0.0
218328,-0.065,0.552,0.838,-2.000,-0.084,0.718,0.0,0.0
218421,-0.069,0.587,0.822,6.672,-0.641,0.725,0.0,0.0
218514,-0.078,0.602,0.809,0.542,-0.626,-0.237,0.0,0.0
218607,-0.066,0.598,0.820,-2.359,-0.924,-0.473,0.0,0.0
218701,-0.073,0.549,0.841,-1.412,-2.450,1.145,0.0,0.0
218795,-0.057,0.614,0.814,7.031,-0.489,0.321,0.0,0.0
218888,-0.088,0.583,0.818,3.031,-0.282,1.229,0.0,0.0
218982,-0.059,0.623,0.797,0.634,-1.275,-0.160,0.0,0.0
219075,-0.061,0.568,0.824,-5.473,0.405,-0.702,0.0,0.0
219171,-0.074,0.625,0.789,5.687,-0.908,0.427,0.0,0.0
219266,-0.082,0.589,0.818,-2.282,-1.313,-0.771,0.0,0.0
219359,-0.088,0.592,0.803,-6.053,-2.550,-0.527,0.0,0.0
219453,0.011,0.526,0.861,3.328,12.527,2.244,0.0,0.0
219546,-0.308,0.626,0.742,24.420,-18.679,-16.511,0.0,0.0
219640,0.036,0.638,0.864,-8.679,-1.336,16.626,0.0,0.0
219734,0.030,0.639,0.813,-11.412,8.038,-8.618,0.0,0.0
219828,-0.285,0.608,0.769,22.023,-20.672,-3.672,0.0,0.0
219921,0.150,0.650,0.764,-3.229,15.832,13.237,0.0,0.0
220018,-0.304,0.553,0.790,7.664,-10.779,-13.870,0.0,0.0
220111,0.198,0.712,0.783,8.183,4.450,13.168,0.0,0.0
220206,-0.200,0.645,0.747,-12.939,-6.702,-15.802,0.0,0.0
220299,0.023,0.644,0.823,-13.481,6.328,8.870,0.0,0.0
220393,-0.172,0.641,0.793,5.504,-18.870,-8.252,0.0,0.0
220486,0.127,0.609,0.809,31.840,1.649,6.229,0.0,0.0
220580,-0.123,0.725,0.714,-1.267,10.443,-4.595,0.0,0.0
220675,-0.173,0.547,0.809,10.893,-13.000,4.802,0.0,0.0
220768,0.085,0.701,0.747,-12.038,10.473,6.496,0.0,0.0
220865,-0.122,0.530,0.874,-5.481,2.924,-5.710,0.0,0.0
220958,-0.062,0.790,0.683,40.244,-11.702,10.076,0.0,0.0
221052,0.016,0.683,0.775,-29.565,10.679,-4.244,0.0,0.0
221147,-0.177,0.571,0.813,11.313,-13.481,-0.779,0.0,0.0
221241,0.042,0.723,0.724,-11.061,11.893,5.267,0.0,0.0
221335,-0.212,0.588,0.791,16.244,-5.802,-6.893,0.0,0.0
221429,0.054,0.789,0.702,15.275,-6.664,8.550,0.0,0.0
221523,0.007,0.593,0.805,-19.382,8.481,-5.641,0.0,0.0
221618,-0.168,0.647,0.719,25.084,-11.756,-6.725,0.0,0.0
221715,0.023,0.725,0.710,-36.061,6.687,2.618,0.0,0.0
221809,-0.094,0.503,0.859,6.046,-2.397,-2.198,0.0,0.0
221903,0.025,0.776,0.691,7.069,-1.137,1.397,0.0,0.0
221998,-0.122,0.568,0.825,-2.214,5.649,0.840,0.0,0.0
222092,-0.083,0.724,0.693,17.275,-7.382,4.206,0.0,0.0
222186,-0.032,0.675,0.755,-25.137,5.489,-0.962,0.0,0.0
222279,-0.056,0.649,0.766,18.527,-5.412,1.985,0.0,0.0
222373,-0.057,0.687,0.735,-8.802,5.313,-1.435,0.0,0.0
222468,-0.072,0.678,0.741,4.252,-4.542,1.618,0.0,0.0
222562,-0.045,0.691,0.746,-8.611,0.992,1.183,0.0,0.0
222659,-0.066,0.644,0.763,8.122,-0.588,0.191,0.0,0.0
222753,-0.044,0.691,0.733,-4.679,-0.359,-0.160,0.0,0.0
222848,-0.057,0.662,0.750,1.115,-0.924,0.221,0.0,0.0
222942,-0.055,0.667,0.758,-1.206,-0.389,-0.656,0.0,0.0
223036,-0.057,0.672,0.751,0.863,-0.725,0.405,0.0,0.0
223130,-0.064,0.664,0.754,-0.328,-0.565,-0.023,0.0,0.0
223224,-0.052,0.674,0.750,0.595,-0.962,0.618,0.0,0.0
223319,-0.038,0.678,0.749,-3.107,0.382,0.695,0.0,0.0
223413,-0.025,0.621,0.800,-2.229,7.046,-1.122,0.0,0.0
223510,-0.196,0.695,0.682,18.687,-13.374,-3.763,0.0,0.0
223604,0.103,0.739,0.777,-29.847,1.443,4.931,0.0,0.0
223698,0.056,0.513,0.893,-4.649,7.679,-5.229,0.0,0.0
223793,-0.231,0.686,0.654,45.901,-16.382,4.000,0.0,0.0
223893,0.138,0.734,0.735,-44.267,10.542,7.511,0.0,0.0
223986,-0.059,0.490,0.897,17.931,1.962,-3.878,0.0,0.0
224079,-0.140,0.797,0.603,40.252,-13.145,6.802,0.0,0.0
224173,0.053,0.712,0.738,-48.527,6.527,-1.008,0.0,0.0
224266,-0.081,0.541,0.852,8.389,0.863,-1.298,0.0,0.0
224362,-0.059,0.747,0.685,12.519,-2.237,3.290,0.0,0.0
224455,-0.056,0.665,0.765,-13.641,1.275,0.649,0.0,0.0
224548,-0.043,0.666,0.764,1.122,-0.076,-0.389,0.0,0.0
224642,-0.065,0.690,0.730,-5.344,1.504,3.557,0.0,0.0
224735,-0.074,0.585,0.806,-17.099,1.939,6.252,0.0,0.0
224828,-0.043,0.623,0.811,8.511,-1.282,3.351,0.0,0.0
224921,-0.090,0.662,0.737,5.725,-3.160,-1.282,0.0,0.0
225014,0.007,0.685,0.720,-6.504,1.153,-0.794,0.0,0.0
225107,-0.599,0.594,0.693,-78.863,2.626,-4.298,0.0,0.0
225201,-0.295,0.311,0.966,69.840,-9.130,8.374,0.0,0.0
225297,0.416,1.679,0.304,-156.901,-8.336,-80.718,0.0,0.0
225391,-0.359,0.189,1.126,172.802,31.336,-69.977,0.0,0.0
225484,-0.218,1.466,0.335,78.725,14.916,-62.130,0.0,0.0
225577,-0.315,1.063,0.433,-2.389,40.374,-34.191,0.0,0.0
225671,-0.346,1.639,0.140,-19.962,59.511,117.313,0.0,0.0
225765,-0.467,0.603,0.722,-125.260,-4.634,122.656,0.0,0.0
225858,-0.288,0.327,0.782,-44.221,-49.099,103.298,0.0,0.0
225951,0.046,0.653,0.531,-42.695,-2.412,97.756,0.0,0.0
226036,0.303,0.360,0.624,-137.405,47.046,79.313,36.0,0.0
226122,0.322,0.249,0.739,-96.817,62.626,87.298,32.0,0.0
226216,0.192,0.123,0.786,-31.786,58.664,89.405,0.0,0.0
226301,-0.070,0.292,0.819,-22.962,54.756,41.649,47.0,0.0
226385,-0.280,0.094,1.053,-20.519,31.626,18.710,44.0,0.0
226470,-0.266,0.141,0.997,7.672,10.954,14.695,50.0,0.0
226552,-0.204,0.075,1.085,-0.908,9.229,4.710,39.0,149.0
226633,-0.194,0.095,1.051,10.840,8.229,5.588,44.0,147.0
226716,-0.147,0.109,1.018,-6.366,3.389,-0.481,58.0,147.0
226797,-0.155,0.158,1.018,3.855,1.855,-8.115,41.0,146.0
226883,-0.114,0.167,0.988,2.351,-2.137,-9.817,64.0,145.0
226963,-0.102,0.102,1.000,7.137,4.847,-6.244,22.0,145.0
227047,-0.062,0.217,0.990,3.298,1.817,-9.824,23.0,0.0
227130,-0.096,0.175,1.018,10.450,-2.573,-4.542,22.0,0.0
227216,-0.140,0.135,0.974,24.611,-0.092,1.802,59.0,0.0
227300,-0.084,0.167,0.895,27.809,10.779,6.649,37.0,0.0
227385,-0.155,0.316,0.868,36.443,24.588,12.634,38.0,0.0
227468,-0.129,0.252,0.842,45.916,42.061,-0.145,19.0,0.0
227540,-0.198,0.172,0.769,95.947,85.740,-39.183,17.0,11.0
227615,-0.397,0.761,0.765,91.969,112.695,-62.931,17.0,6.0
227687,-0.651,0.779,0.711,-34.267,83.130,-36.695,17.0,4.0
227760,-0.825,0.339,0.910,-45.244,28.679,-20.107,16.0,5.0
227831,-0.735,0.405,0.766,48.115,-7.611,20.191,16.0,5.0
227903,-0.604,0.421,0.541,33.046,-9.092,22.229,15.0,5.0
227976,-0.565,0.523,0.557,8.359,2.214,1.954,16.0,5.0
228047,-0.562,0.469,0.633,-12.924,0.382,4.985,16.0,5.0
228119,-0.567,0.490,0.687,3.618,-4.198,4.351,16.0,5.0
228191,-0.579,0.573,0.673,10.969,-3.779,-0.840,17.0,5.0
228267,-0.591,0.567,0.622,2.015,-1.221,-5.832,16.0,5.0
228338,-0.565,0.521,0.593,-6.756,-2.969,-4.351,17.0,5.0
228411,-0.577,0.464,0.618,-13.710,1.733,-6.496,17.0,5.0
228483,-0.589,0.475,0.676,-9.786,5.153,-8.137,17.0,5.0
228555,-0.609,0.425,0.638,-0.511,0.702,-6.740,17.0,6.0
228627,-0.681,0.489,0.629,32.382,-1.527,-7.534,17.0,6.0
228700,-0.857,0.653,0.681,40.992,-24.550,8.763,19.0,10.0
228772,-0.872,0.582,0.752,32.389,-78.702,32.061,19.0,6.0
228845,-0.854,0.813,0.604,96.962,-96.351,87.252,20.0,6.0
228931,-0.286,0.775,0.688,-28.351,-103.107,113.336,0.0,10.0
229014,0.095,0.585,0.692,-104.931,-92.366,66.244,0.0,9.0
229107,0.054,0.428,0.599,-121.282,-58.695,15.977,0.0,0.0
229201,0.063,0.363,0.571,-142.168,-37.130,-28.855,0.0,0.0
229287,0.132,0.157,0.805,-134.160,-16.557,-58.656,57.0,0.0
229372,0.241,-0.264,0.939,-24.908,7.748,-53.817,46.0,0.0
229456,0.289,-0.085,0.913,3.336,57.794,-34.542,37.0,0.0
229541,0.037,0.033,0.984,1.221,55.115,-50.634,36.0,0.0
229629,-0.029,0.050,0.954,72.824,31.771,-56.038,48.0,0.0
229714,-0.109,0.299,0.901,119.031,30.847,-48.397,42.0,0.0
229800,-0.254,0.480,0.835,82.038,39.145,-39.511,55.0,0.0
229885,-0.205,0.496,1.092,13.672,14.618,-17.221,51.0,0.0
229980,-0.257,0.880,0.990,218.099,-56.977,45.160,0.0,0.0
230074,-0.067,0.950,0.476,-15.412,-26.458,31.748,0.0,0.0
230168,0.172,0.344,0.696,-136.046,41.389,8.267,0.0,0.0
230253,-0.114,0.240,0.993,16.504,19.863,-21.527,51.0,0.0
230347,-0.250,0.599,0.646,-11.008,44.504,-53.718,0.0,0.0
230436,-0.233,1.132,0.545,61.229,5.695,38.023,54.0,0.0
230521,-0.171,0.087,0.889,-71.985,15.954,-17.214,54.0,0.0
230616,-0.344,0.672,0.809,95.031,-6.115,6.389,0.0,0.0
230702,-0.235,0.319,0.863,-34.176,4.084,-11.672,51.0,0.0
230795,-0.281,0.430,0.843,43.725,-5.931,-4.061,0.0,0.0
230881,-0.259,0.611,0.736,6.153,0.160,-3.031,57.0,0.0
230967,-0.242,0.572,0.777,-6.176,-1.313,-1.855,55.0,0.0
231053,-0.248,0.558,0.776,6.481,-3.550,-3.534,55.0,0.0
231138,-0.296,0.657,0.781,16.061,-9.634,0.893,54.0,0.0
231227,-0.229,0.799,1.004,-29.053,-5.427,18.389,55.0,0.0
231321,-0.798,0.701,0.476,-103.809,12.069,5.282,0.0,0.0
231407,-0.290,0.395,0.893,226.939,7.878,-45.435,51.0,0.0
231510,2.000,0.621,0.582,157.046,-31.298,21.611,0.0,0.0
231603,-2.000,0.437,0.578,-243.412,-29.145,67.511,0.0,0.0
231696,0.402,0.353,0.659,250.130,61.573,26.618,0.0,0.0
231790,0.381,0.032,0.433,-96.252,-11.672,16.458,0.0,0.0
231883,-1.049,1.613,0.331,-20.832,51.153,1.344,0.0,0.0
231976,0.216,0.395,0.755,90.176,21.733,19.122,0.0,0.0
232073,-0.375,1.038,0.878,-199.702,46.626,-68.962,0.0,0.0
232156,0.217,0.722,0.220,8.160,17.366,103.099,25.0,0.0
232240,-0.066,0.900,1.182,-74.702,-23.550,-15.603,29.0,0.0
232324,-1.677,-0.146,0.751,41.290,-187.115,207.649,36.0,0.0
232418,0.828,1.944,-0.188,46.794,-19.908,-95.924,0.0,0.0
232511,-0.069,0.391,0.386,68.168,-100.198,142.252,0.0,0.0
232604,1.527,0.995,0.341,-21.275,-42.145,-18.237,0.0,0.0
232697,0.648,0.662,0.400,-39.672,22.847,-24.618,0.0,0.0
232792,0.321,0.749,0.362,-30.847,-0.084,-73.901,0.0,0.0
232888,0.355,1.099,0.215,74.718,9.534,-38.191,0.0,0.0
232981,0.347,0.852,0.467,-91.588,29.878,-60.321,0.0,0.0
233074,0.302,1.046,0.392,-14.420,25.305,-24.420,0.0,0.0
233167,0.147,0.808,0.481,-19.298,36.649,-25.878,0.0,0.0
233262,0.118,0.719,0.562,-11.939,39.130,-47.611,0.0,0.0
233355,-0.249,1.102,0.656,-86.229,20.641,-46.840,0.0,0.0
233448,-0.056,0.572,0.722,25.412,-0.244,14.962,0.0,0.0
233541,-0.018,0.822,0.632,21.779,-1.580,2.321,0.0,0.0
233635,0.008,0.815,0.585,14.649,-2.214,3.702,0.0,0.0
233732,0.008,0.865,0.548,5.206,-2.344,0.321,0.0,0.0
233825,-0.027,0.814,0.598,-9.771,5.099,2.863,0.0,0.0
233918,0.016,0.822,0.588,6.344,0.817,0.824,0.0,0.0
234011,-0.005,0.814,0.600,1.450,-2.366,-3.527,0.0,0.0
234104,-0.009,0.832,0.583,-0.916,-1.977,-2.947,0.0,0.0
234199,-0.010,0.894,0.527,-21.885,-0.733,-6.290,0.0,0.0
234292,0.026,0.777,0.575,-18.397,-1.466,-32.031,0.0,0.0
234385,-0.051,0.816,0.664,-34.504,13.420,-19.504,0.0,0.0
234479,-0.158,0.642,0.622,5.931,-3.565,-2.336,0.0,0.0
234575,-0.021,0.796,0.700,16.305,-11.511,25.260,0.0,0.0
234670,-0.083,0.816,0.542,11.542,-3.969,13.344,0.0,0.0
234763,-0.033,0.776,0.586,-2.168,-0.260,-1.664,0.0,0.0
234856,-0.024,0.800,0.619,-2.992,-0.130,-1.702,0.0,0.0
234950,-0.059,0.781,0.654,-2.458,-0.504,6.405,0.0,0.0
235043,0.031,0.796,0.655,15.786,-2.603,-2.023,0.0,0.0
235137,-0.060,0.862,0.491,-7.809,0.733,1.137,0.0,0.0
235231,0.089,1.135,0.334,-72.496,16.489,-3.756,0.0,0.0
235324,-0.121,0.346,0.919,-44.603,-1.725,-3.473,0.0,0.0
235418,-0.085,0.811,0.585,40.656,-8.115,12.420,0.0,0.0
235514,-0.098,0.710,0.653,13.351,-7.595,1.725,0.0,0.0
235609,-0.026,0.705,0.722,23.351,-6.824,5.985,0.0,0.0
235702,-0.008,0.917,0.476,-18.885,8.573,5.153,0.0,0.0
235795,-0.031,0.474,0.935,-75.534,8.878,-22.779,0.0,0.0
235889,-0.046,0.683,0.775,104.977,-14.588,8.863,0.0,0.0
235983,-0.084,0.995,0.391,-93.229,21.763,2.893,0.0,0.0
236077,-0.176,0.277,0.969,-28.160,2.878,-2.145,0.0,0.0
236171,0.047,0.900,0.588,117.298,-21.229,20.519,0.0,0.0
236264,-0.003,0.983,0.373,-160.794,43.466,-17.511,0.0,0.0
236351,-0.111,0.039,1.146,-37.756,-14.779,-19.511,27.0,0.0
236445,-0.114,0.690,0.750,151.282,-25.802,9.038,0.0,0.0
236538,0.173,1.134,0.289,-55.405,13.137,-0.244,0.0,0.0
236622,-0.225,0.357,0.905,-194.198,27.351,-11.031,24.0,0.0
236705,-0.322,-0.059,1.001,55.321,-2.298,-3.458,22.0,0.0
236789,0.311,0.564,0.980,49.328,8.221,19.718,23.0,0.0
236873,-0.128,1.006,0.551,-57.847,27.061,-23.275,23.0,0.0
236956,0.047,-0.032,1.070,-114.351,-15.916,-0.351,23.0,0.0
237043,0.005,-0.010,1.189,175.870,-10.771,18.565,22.0,0.0
237128,-0.246,0.849,0.634,144.351,-41.939,24.824,30.0,0.0
237221,0.190,1.059,0.407,4.901,24.275,0.687,0.0,0.0
237316,-0.220,0.559,0.793,-126.466,2.473,-28.298,0.0,0.0
237409,0.127,0.061,1.296,9.115,15.527,28.183,0.0,0.0
237503,-0.037,0.935,0.537,85.863,-9.000,-5.260,0.0,0.0
237587,-0.209,0.616,0.802,-85.496,2.374,-9.481,24.0,0.0
237671,-0.123,0.333,0.951,35.069,-1.870,9.733,23.0,0.0
237754,-0.077,0.681,0.743,8.725,-16.878,-5.618,26.0,0.0
237848,-0.042,0.614,0.753,1.305,6.122,7.481,0.0,0.0
237945,-0.052,0.639,0.795,38.344,-3.496,0.779,0.0,0.0
238039,-0.068,0.729,0.693,30.061,-5.405,0.183,0.0,0.0
238133,-0.024,0.746,0.688,-8.115,-0.580,0.084,0.0,0.0
238227,-0.066,0.672,0.746,-19.649,2.099,-5.527,0.0,0.0
238320,-0.089,0.631,0.775,2.893,-2.626,-3.191,0.0,0.0
238414,-0.070,0.715,0.708,7.489,-2.069,2.122,0.0,0.0
238509,-0.058,0.666,0.746,-1.733,-0.176,-0.664,0.0,0.0
238602,-0.063,0.688,0.731,4.977,-0.725,-0.099,0.0,0.0
238696,-0.063,0.697,0.719,1.183,-0.618,0.962,0.0,0.0
238793,-0.059,0.691,0.734,1.649,-0.458,1.763,0.0,0.0
238887,-0.053,0.708,0.727,-3.336,0.580,-0.885,0.0,0.0
238981,-0.077,0.701,0.694,-15.496,2.313,-3.115,0.0,0.0
239075,-0.096,0.615,0.812,-10.809,-2.504,-1.389,0.0,0.0
239169,-0.055,0.683,0.751,12.710,-1.420,2.267,0.0,0.0
239263,-0.069,0.703,0.735,-20.252,4.420,-0.427,0.0,0.0
239356,-0.089,0.554,0.831,-7.344,-1.992,-2.542,0.0,0.0
239451,-0.081,0.717,0.713,-2.511,3.473,0.634,0.0,0.0
239535,-0.103,0.611,0.782,-23.405,2.122,-3.740,23.0,0.0
239632,-0.104,0.583,0.820,23.053,-4.969,1.107,0.0,0.0
239726,-0.074,0.690,0.728,-5.000,-0.847,-0.458,0.0,0.0
239820,-0.081,0.633,0.773,3.733,-0.008,0.641,0.0,0.0
239913,-0.077,0.650,0.762,-0.641,-0.153,0.389,0.0,0.0
240008,-0.082,0.646,0.760,0.107,-1.626,0.145,0.0,0.0
240102,-0.076,0.647,0.764,0.687,0.298,0.603,0.0,0.0
240196,-0.080,0.623,0.774,-2.885,-1.237,-0.519,0.0,0.0
240289,-0.083,0.646,0.774,2.397,-0.802,1.198,0.0,0.0
240384,-0.076,0.665,0.753,-1.382,0.542,-0.015,0.0,0.0
240481,-0.083,0.640,0.768,1.023,-0.847,-0.229,0.0,0.0
240575,-0.077,0.673,0.757,2.588,-0.611,1.824,0.0,0.0
240669,-0.073,0.644,0.773,-6.153,1.237,-0.924,0.0,0.0
240762,-0.013,0.758,0.703,-25.824,14.863,0.725,0.0,0.0
240846,-0.106,0.440,0.891,-70.107,3.107,-4.282,19.0,0.0
240930,-0.112,0.558,0.832,-15.153,7.878,11.542,19.0,0.0
241014,-0.096,0.411,0.913,-15.618,-2.756,-6.870,19.0,0.0
241098,-0.148,0.336,0.941,-38.435,0.298,0.557,21.0,0.0
241182,-0.184,0.133,1.067,86.618,-21.557,-14.832,22.0,0.0
241276,0.083,1.136,0.606,54.076,-7.359,23.221,0.0,0.0
241363,-0.061,0.448,0.967,-35.229,3.069,-18.038,22.0,0.0
241458,-0.051,0.652,0.808,-35.840,11.504,16.305,0.0,0.0
241542,-0.089,0.318,0.898,59.214,-13.176,1.206,21.0,0.0
241636,-0.040,1.024,0.554,-56.176,16.260,4.725,0.0,0.0
241720,-0.203,-0.022,1.126,-11.298,-6.939,-16.366,17.0,0.0
241804,-0.175,0.381,0.900,-61.305,5.908,3.634,17.0,0.0
241888,-0.111,0.200,0.980,29.214,-3.725,-10.198,16.0,0.0
241972,-0.113,0.229,0.987,-10.878,-0.137,2.397,17.0,0.0
242055,-0.117,0.625,0.824,-4.939,-0.542,5.206,17.0,0.0
242142,-0.097,0.205,1.008,-21.015,-4.107,-8.649,16.0,0.0
242226,-0.133,0.373,0.944,38.763,-3.321,4.664,16.0,0.0
242310,-0.110,0.381,0.929,46.679,-3.389,-0.649,16.0,0.0
242394,-0.074,0.621,0.799,45.924,-0.313,7.756,17.0,0.0
242478,-0.234,0.603,0.794,-218.176,20.389,10.458,17.0,0.0
242562,-0.101,-0.274,1.208,-26.374,-7.802,-32.870,14.0,0.0
242646,-0.093,0.615,0.892,62.412,4.023,23.221,15.0,0.0
242728,-0.122,0.396,0.908,-22.031,-4.779,-11.160,16.0,0.0
242817,-0.100,0.521,0.905,-11.481,5.908,15.252,16.0,0.0
242900,-0.126,0.177,1.004,-14.412,-4.870,-7.595,17.0,0.0
242984,-0.110,0.258,0.953,51.870,-0.634,6.351,17.0,0.0
243085,-0.056,0.474,0.849,36.901,-2.748,-2.168,0.0,0.0
243167,-0.113,0.235,0.956,-106.435,6.267,-4.588,17.0,0.0
243250,-0.101,-0.123,1.117,48.481,2.702,-5.809,14.0,0.0
243333,-0.112,0.365,0.927,33.313,-5.305,1.779,16.0,0.0
243416,-0.125,0.465,0.886,14.450,3.023,2.603,17.0,0.0
243499,-0.156,0.320,0.944,24.183,-8.748,-2.198,16.0,0.0
243585,-0.113,0.426,0.898,30.687,-5.870,3.870,16.0,0.0
243666,-0.089,0.510,0.859,21.771,-4.466,-1.649,17.0,0.0
243749,-0.114,0.490,0.865,-12.710,-0.427,-0.015,16.0,0.0
243832,-0.120,0.414,0.914,3.435,-3.130,0.084,16.0,0.0
243915,-0.107,0.444,0.899,29.527,-7.382,-0.435,17.0,0.0
243998,-0.084,0.548,0.831,40.344,-5.573,1.702,18.0,0.0
244081,-0.080,0.634,0.781,2.397,-1.092,-0.153,18.0,0.0
244164,-0.099,0.523,0.853,-9.908,0.198,-1.206,18.0,0.0
244248,-0.090,0.544,0.842,5.427,-1.092,0.542,18.0,0.0
244330,-0.096,0.553,0.833,0.099,-0.786,-0.344,18.0,0.0
244416,-0.098,0.543,0.847,0.092,-0.580,0.290,19.0,0.0
244499,-0.090,0.557,0.836,1.176,-0.718,0.206,19.0,0.0
244582,-0.093,0.550,0.840,0.664,-0.672,0.076,18.0,0.0
244665,-0.093,0.562,0.833,1.015,-0.885,0.084,18.0,0.0
244749,-0.092,0.565,0.831,0.336,-0.603,-0.053,23.0,0.0
244832,-0.094,0.559,0.824,-0.122,-0.504,0.206,23.0,0.0
244915,-0.091,0.561,0.833,0.031,-0.573,0.092,19.0,0.0
244998,-0.087,0.560,0.833,-0.336,-0.603,0.023,18.0,0.0
245081,-0.093,0.556,0.833,0.595,-0.656,0.053,19.0,0.0
245168,-0.098,0.561,0.831,-0.519,-0.481,0.191,23.0,0.0
245251,-0.091,0.556,0.828,0.084,-0.656,0.183,23.0,0.0
245334,-0.083,0.562,0.830,0.290,-0.542,0.183,23.0,0.0
245416,-0.089,0.564,0.825,-0.092,-0.511,0.092,19.0,0.0
245499,-0.094,0.560,0.835,-0.191,-0.534,-0.031,19.0,0.0
245583,-0.090,0.563,0.833,0.397,-0.626,0.282,19.0,0.0
245666,-0.087,0.559,0.830,-0.305,-0.626,0.145,19.0,0.0
245749,-0.088,0.560,0.829,-0.878,-0.595,-0.046,19.0,0.0
245832,-0.089,0.560,0.831,-0.145,-0.458,0.023,19.0,0.0
245918,-0.089,0.562,0.834,-0.328,-0.466,0.023,19.0,0.0
246001,-0.093,0.559,0.830,-0.183,-0.450,0.168,19.0,0.0
246085,-0.087,0.561,0.833,0.000,-0.588,-0.168,19.0,0.0
246168,-0.089,0.560,0.826,-0.099,-0.618,0.031,19.0,0.0
246251,-0.078,0.569,0.829,-0.458,-0.611,0.153,19.0,0.0
246335,-0.094,0.561,0.831,0.985,-0.603,0.344,19.0,0.0
246418,-0.086,0.565,0.823,0.153,-0.496,-0.145,19.0,0.0
246501,-0.089,0.568,0.825,0.031,-0.740,0.031,19.0,0.0
246584,-0.091,0.566,0.835,-0.832,-0.374,0.023,19.0,0.0
246671,-0.092,0.570,0.821,0.374,-0.580,0.153,19.0,0.0
246754,-0.091,0.563,0.825,-0.420,-0.557,0.176,19.0,0.0
246837,-0.086,0.568,0.824,-0.168,-0.466,0.244,19.0,0.0
246920,-0.093,0.567,0.829,-0.359,-0.649,-0.031,19.0,0.0
247004,-0.094,0.562,0.836,0.130,-0.634,0.130,19.0,0.0
247087,-0.094,0.563,0.836,-0.832,-0.237,-0.061,19.0,0.0
247171,-0.086,0.563,0.827,0.466,-0.519,0.458,19.0,0.0
247254,-0.091,0.549,0.841,-1.985,-0.321,-0.206,19.0,0.0
247336,-0.086,0.583,0.823,0.305,-0.511,0.275,19.0,0.0
247424,-0.092,0.553,0.838,-0.603,-0.565,-0.046,19.0,0.0
247506,-0.080,0.571,0.822,-0.542,-0.557,-0.038,19.0,0.0
247589,-0.093,0.558,0.832,0.260,-0.687,0.397,19.0,0.0
247673,-0.088,0.560,0.830,-1.382,-0.267,0.107,19.0,0.0
247756,-0.083,0.567,0.822,0.092,-0.557,-0.015,19.0,0.0
247840,-0.090,0.557,0.834,0.450,-0.733,0.153,19.0,0.0
247923,-0.085,0.569,0.820,0.351,-0.443,-0.053,19.0,0.0
248007,-0.096,0.560,0.832,-0.374,-0.382,0.191,19.0,0.0
248090,-0.092,0.563,0.831,-0.290,-0.466,0.076,19.0,0.0
248176,-0.084,0.566,0.825,-0.435,-0.618,0.359,19.0,0.0
248260,-0.094,0.566,0.826,-0.672,-0.603,0.359,19.0,0.0
248343,-0.087,0.563,0.831,-0.267,-0.351,0.359,19.0,0.0
248427,-0.091,0.562,0.830,-0.511,-0.573,0.260,19.0,0.0
248510,-0.089,0.563,0.829,-0.313,-0.580,0.053,19.0,0.0
248594,-0.091,0.557,0.830,-0.519,-0.595,0.275,19.0,0.0
248677,-0.084,0.574,0.832,-1.160,-0.565,-0.221,22.0,0.0
248761,-0.095,0.558,0.836,2.542,-1.000,0.405,18.0,0.0
248844,-0.106,0.543,0.837,10.634,-1.824,2.015,19.0,0.0
248938,-0.078,0.614,0.793,8.198,-1.557,0.702,0.0,0.0
249034,-0.084,0.586,0.804,-5.885,-0.046,-0.267,0.0,0.0
249128,-0.093,0.547,0.838,5.214,-1.305,1.412,0.0,0.0
249212,-0.074,0.600,0.811,9.038,-1.740,-0.466,19.0,0.0
249295,-0.029,0.595,0.814,16.679,-6.031,-4.939,18.0,0.0
249390,-0.120,0.574,0.816,49.466,-16.099,1.519,0.0,0.0
249483,0.008,0.687,0.720,66.511,-34.763,6.977,0.0,0.0
249577,0.330,0.802,0.516,-1.382,-4.099,-13.618,0.0,0.0
249671,-0.200,0.740,0.870,-16.840,2.420,6.183,0.0,0.0
249765,-0.081,0.891,0.605,27.206,-4.321,12.824,0.0,0.0
249862,-0.068,0.886,0.664,34.191,-27.405,-0.069,0.0,0.0
249956,0.016,0.597,0.651,-18.565,-26.267,-15.160,0.0,0.0
250050,0.151,0.857,0.664,-137.183,-18.405,-69.718,0.0,0.0
250134,0.217,0.623,1.104,95.130,-29.565,-41.038,27.0,0.0
250218,0.201,0.522,0.662,-52.802,-10.916,-27.191,23.0,0.0
250302,-0.073,1.174,0.662,-33.221,-44.366,-31.389,23.0,0.0
250386,-0.002,0.373,0.942,-9.130,-26.275,-91.519,21.0,0.0
250470,-0.341,-0.099,1.294,42.160,34.649,-50.061,20.0,0.0
250554,-0.199,0.807,0.723,14.794,55.137,-39.458,20.0,0.0
250651,-0.227,0.711,0.782,61.924,29.641,-50.725,0.0,0.0
250745,-0.467,0.951,0.782,4.473,16.466,-37.695,0.0,0.0
250835,-0.436,1.193,0.866,-178.802,-59.275,46.450,136.0,0.0
250925,-0.453,0.168,0.920,-149.611,-108.550,12.672,131.0,173.0
251010,-0.334,0.321,0.828,-59.099,-79.756,27.298,46.0,193.0
251095,-0.262,0.255,0.813,-77.886,-49.649,20.931,44.0,200.0
251185,0.196,-0.079,0.795,-97.008,-33.198,30.038,116.0,0.0
251272,0.280,-0.263,0.943,-58.092,-21.267,26.527,87.0,0.0
251363,0.234,-0.402,0.949,-30.244,-21.153,25.107,86.0,0.0
251452,0.197,-0.338,0.857,-41.534,-22.046,17.466,105.0,0.0
251540,0.124,-0.445,0.852,-30.298,-8.359,23.137,100.0,0.0
251634,0.104,-0.523,0.825,-10.733,-10.695,17.427,0.0,0.0
251720,0.009,-0.516,0.875,4.511,-19.443,6.214,58.0,0.0
251806,0.133,-0.470,0.803,1.855,-19.794,7.183,51.0,0.0
251891,0.127,-0.503,0.794,-1.282,-11.763,-7.313,50.0,0.0
251977,0.108,-0.363,0.724,30.595,-1.855,-23.863,50.0,0.0
252063,0.315,-0.272,0.858,18.840,34.985,-25.305,51.0,0.0
252152,-0.026,-0.023,0.958,60.076,46.267,-4.473,50.0,0.0
252237,0.283,-0.051,1.020,27.046,42.885,-2.534,50.0,0.0
252323,-0.047,0.077,1.054,82.053,21.038,-5.550,48.0,0.0
252408,-0.088,0.355,1.017,40.519,19.603,15.954,46.0,0.0
252493,0.023,0.085,1.139,8.649,13.840,28.733,42.0,0.0
252578,-0.068,0.133,1.036,-29.153,7.817,28.794,38.0,0.0
252663,-0.174,-0.107,1.018,26.618,-29.252,7.824,36.0,0.0
252748,-0.013,0.019,0.984,-13.183,-10.168,-15.092,35.0,0.0
252833,-0.056,0.090,1.021,-5.351,8.969,-3.954,35.0,0.0
252921,0.020,-0.006,1.041,-21.786,19.374,7.076,34.0,0.0
253006,0.052,-0.125,1.015,-44.977,10.779,15.344,33.0,0.0
253091,0.005,-0.110,1.017,-8.069,2.290,0.550,33.0,0.0
253175,0.015,-0.038,0.976,7.702,4.137,5.076,33.0,0.0
253260,-0.029,-0.063,0.961,0.061,2.779,9.893,32.0,0.0
253344,-0.056,-0.053,0.945,7.084,-0.015,13.771,30.0,0.0
253429,-0.098,-0.072,0.921,24.389,4.481,15.511,28.0,0.0
253513,-0.128,-0.048,0.904,65.092,-5.687,6.412,29.0,0.0
253598,-0.292,0.323,0.951,119.641,13.214,11.450,25.0,0.0
253685,-0.405,0.340,0.984,29.359,39.130,38.244,24.0,0.0
253779,-0.256,0.091,0.970,-39.710,28.496,37.298,0.0,0.0
253865,0.105,-0.249,1.390,79.137,22.550,-62.374,51.0,0.0
253966,-2.000,0.846,1.009,-112.664,48.542,18.176,0.0,0.0
254059,1.283,-0.408,0.883,33.053,-100.191,79.527,0.0,0.0
254143,-0.826,0.559,0.427,-5.153,-30.221,2.305,38.0,0.0
254227,0.075,0.389,0.807,30.069,-55.374,29.351,37.0,0.0
254320,-0.095,0.600,0.736,6.679,-38.824,4.748,0.0,0.0
254413,0.290,0.388,0.747,49.748,-14.954,-13.405,0.0,0.0
254510,0.207,0.637,0.465,91.725,10.603,-46.863,0.0,0.0
254603,-0.442,0.719,0.842,203.679,-85.779,107.519,0.0,0.0
254696,2.000,1.844,0.618,86.290,-59.969,-7.229,0.0,0.0
254790,0.762,0.929,-0.088,-0.763,-46.794,86.687,0.0,0.0
254883,1.039,0.623,0.430,-75.511,15.847,-7.466,0.0,0.0
254977,0.166,0.938,0.018,-13.023,3.626,-2.977,0.0,0.0
255070,0.220,0.709,0.338,-7.313,26.824,-88.725,0.0,0.0
255163,0.083,1.042,0.336,20.290,20.718,-79.023,0.0,0.0
255257,0.152,1.280,0.406,-27.351,19.466,-66.351,0.0,0.0
255353,0.013,0.775,0.580,-25.382,3.046,-14.061,0.0,0.0
255447,0.114,0.784,0.511,-23.443,11.550,-10.511,0.0,0.0
255540,-0.066,0.807,0.611,-36.427,9.252,-2.878,0.0,0.0
255633,0.001,0.827,0.575,11.229,1.405,1.969,0.0,0.0
255726,0.010,0.853,0.542,10.489,0.756,4.122,0.0,0.0
255820,0.014,0.860,0.539,2.290,0.427,0.061,0.0,0.0
255913,0.001,0.839,0.556,-2.046,0.534,1.328,0.0,0.0
256007,0.022,0.855,0.544,-1.427,0.221,-0.687,0.0,0.0
256100,0.006,0.854,0.551,-2.099,0.038,-1.130,0.0,0.0
256196,0.001,0.847,0.547,-3.603,-0.466,-0.870,0.0,0.0
256289,0.008,0.840,0.553,-5.267,-0.748,-1.328,0.0,0.0
256375,0.004,0.838,0.571,-6.672,-0.580,-1.748,64.0,0.0
256461,-0.003,0.831,0.572,-6.405,-0.023,-1.198,66.0,0.0
256547,0.000,0.823,0.579,-0.771,-0.137,-0.366,67.0,0.0
256633,-0.006,0.825,0.587,0.290,-0.527,0.069,68.0,0.0
256719,-0.001,0.826,0.591,-0.885,-0.305,0.511,68.0,0.0
256813,0.002,0.836,0.574,0.794,-0.504,0.137,0.0,0.0
256906,-0.001,0.831,0.573,-0.130,-0.489,0.046,0.0,0.0
257000,0.002,0.826,0.569,0.130,-0.588,-0.046,0.0,0.0
257088,-0.003,0.830,0.576,-3.282,0.168,-0.389,66.0,0.0
257174,-0.002,0.820,0.582,0.603,-0.511,0.244,67.0,0.0
257260,-0.003,0.828,0.572,-0.023,-0.580,-0.153,66.0,0.0
257346,0.002,0.823,0.576,-1.023,-0.290,-0.046,65.0,0.0
257432,-0.002,0.824,0.587,-0.977,-0.405,0.221,66.0,0.0
257518,-0.007,0.828,0.577,-0.046,-0.412,0.015,65.0,0.0
257603,-0.008,0.829,0.572,-0.397,-0.473,0.053,65.0,0.0
257689,-0.010,0.825,0.582,-1.244,-0.443,0.290,65.0,0.0
257775,-0.008,0.823,0.583,-0.099,-0.687,0.023,66.0,0.0
257864,-0.001,0.829,0.573,-0.901,-0.435,0.031,66.0,0.0
257950,-0.003,0.828,0.564,-0.725,-0.252,0.374,67.0,0.0
258036,-0.005,0.824,0.586,-0.344,-0.466,0.328,66.0,0.0
258122,-0.003,0.825,0.582,0.573,-0.504,0.076,67.0,0.0
258208,0.001,0.828,0.576,0.267,-0.481,0.153,66.0,0.0
258294,-0.008,0.826,0.579,-0.649,-0.481,0.168,66.0,0.0
258379,-0.007,0.833,0.585,-0.160,-0.412,0.053,65.0,0.0
258466,-0.007,0.820,0.584,-0.137,-0.450,0.511,66.0,0.0
258551,-0.006,0.823,0.582,0.031,-0.435,0.168,65.0,0.0
258640,-0.004,0.822,0.579,0.237,-0.588,0.122,65.0,0.0
258726,-0.004,0.827,0.575,-0.824,-0.435,0.137,65.0,0.0
258812,-0.005,0.829,0.572,0.214,-0.580,0.130,65.0,0.0
258898,-0.007,0.824,0.580,-0.519,-0.588,0.122,65.0,0.0
258984,-0.005,0.828,0.568,-0.748,-0.481,0.122,65.0,0.0
259070,-0.007,0.831,0.576,0.122,-0.489,0.168,65.0,0.0
259156,-0.004,0.831,0.579,-0.359,-0.427,-0.084,65.0,0.0
259243,-0.005,0.830,0.578,-0.466,-0.435,0.298,65.0,0.0
259329,-0.001,0.831,0.575,-0.924,-0.305,0.252,65.0,0.0
259419,-0.008,0.825,0.582,0.313,-0.702,0.015,65.0,0.0
259505,-0.002,0.838,0.574,-0.305,-0.649,0.160,65.0,0.0
259591,-0.009,0.825,0.565,0.176,-0.573,0.420,65.0,0.0
259677,0.001,0.826,0.576,-0.725,-0.542,0.038,65.0,0.0
259763,-0.008,0.828,0.583,0.008,-0.473,0.328,65.0,0.0
259849,-0.005,0.827,0.576,-0.458,-0.336,0.069,65.0,0.0
259935,-0.006,0.832,0.575,-0.618,-0.374,0.412,65.0,0.0
260021,-0.005,0.835,0.575,-0.443,-0.580,0.382,65.0,0.0
260107,-0.004,0.825,0.580,0.168,-0.664,0.023,65.0,0.0
260193,-0.005,0.825,0.578,-0.008,-0.786,0.176,65.0,0.0
260282,-0.008,0.822,0.587,0.015,-0.611,0.450,66.0,0.0
260368,-0.003,0.826,0.584,-1.244,-0.366,0.206,65.0,0.0
260454,0.001,0.824,0.574,0.244,-0.687,0.061,65.0,0.0
260540,0.000,0.828,0.576,-0.489,-0.450,0.130,66.0,0.0
260626,-0.006,0.834,0.578,-0.237,-0.481,0.412,65.0,0.0
260712,-0.001,0.829,0.574,-0.328,-0.740,0.076,65.0,0.0
260799,-0.002,0.831,0.583,-0.160,-0.573,0.397,66.0,0.0
260885,0.000,0.825,0.588,0.015,-0.489,-0.099,65.0,0.0
260971,-0.003,0.828,0.578,0.191,-0.603,0.160,66.0,0.0
261060,-0.011,0.828,0.570,-0.160,-0.542,0.198,66.0,0.0
261147,-0.002,0.825,0.579,-1.191,-0.466,0.214,67.0,0.0
261233,-0.004,0.824,0.574,0.359,-0.863,-0.031,65.0,0.0
261319,-0.006,0.826,0.581,-0.466,-0.351,0.023,65.0,0.0
261405,0.001,0.829,0.578,-0.282,-0.573,0.244,66.0,0.0
261492,-0.014,0.821,0.578,-0.458,-0.626,0.015,65.0,0.0
261578,-0.005,0.828,0.576,0.214,-0.710,0.168,66.0,0.0
261664,0.000,0.824,0.584,-0.481,-0.740,0.084,66.0,0.0
261750,0.003,0.828,0.581,0.206,-0.519,0.069,65.0,0.0
261840,-0.002,0.825,0.580,-0.588,-0.481,0.076,66.0,0.0
261926,-0.001,0.829,0.572,-0.885,-0.321,0.214,66.0,0.0
262012,0.000,0.829,0.580,-0.031,-0.580,-0.008,66.0,0.0
262099,-0.007,0.831,0.575,-0.344,-0.511,0.023,66.0,0.0
262185,-0.003,0.833,0.585,-0.290,-0.580,0.336,66.0,0.0
262272,-0.004,0.825,0.576,-0.534,-0.511,0.122,65.0,0.0
262359,0.000,0.827,0.577,-0.695,-0.328,0.221,65.0,0.0
262445,-0.005,0.826,0.576,-0.611,-0.534,0.168,65.0,0.0
262531,0.004,0.825,0.570,0.298,-0.603,0.061,65.0,0.0
262621,-0.001,0.830,0.578,-0.550,-0.366,-0.008,65.0,0.0
262707,-0.006,0.823,0.578,-0.267,-0.641,0.183,65.0,0.0
262793,-0.003,0.826,0.581,-0.489,-0.489,0.084,65.0,0.0
262880,-0.006,0.825,0.580,0.183,-0.534,0.115,65.0,0.0
262966,-0.004,0.832,0.577,-0.534,-0.450,0.046,65.0,0.0
263052,0.000,0.831,0.570,0.000,-0.634,0.305,65.0,0.0
263138,-0.001,0.823,0.583,-0.420,-0.443,0.115,65.0,0.0
263225,-0.005,0.826,0.566,-0.435,-0.473,0.191,65.0,0.0
263311,-0.002,0.825,0.583,-0.779,-0.260,0.176,65.0,0.0
263410,-0.002,0.827,0.572,-0.053,-0.496,0.137,65.0,0.0
263498,-0.003,0.826,0.580,-0.855,-0.374,0.160,65.0,0.0
263587,-0.001,0.827,0.576,-0.611,-0.588,0.214,65.0,0.0
263676,-0.004,0.822,0.583,-0.092,-0.565,0.031,65.0,0.0
263766,-0.004,0.824,0.584,0.038,-0.473,0.107,65.0,0.0
263855,-0.008,0.823,0.581,-0.107,-0.519,0.252,65.0,0.0
263943,-0.004,0.830,0.583,-0.725,-0.374,0.191,65.0,0.0
264032,-0.007,0.826,0.589,-0.313,-0.366,0.221,65.0,0.0
264121,0.003,0.831,0.582,-0.969,-0.496,0.160,64.0,0.0
264210,-0.008,0.827,0.580,0.450,-0.649,0.244,65.0,0.0
264302,0.000,0.831,0.575,0.534,-0.786,-0.267,65.0,0.0
264391,0.004,0.828,0.573,0.092,-0.588,0.366,66.0,0.0
264479,-0.007,0.826,0.584,-0.702,-0.328,-0.015,65.0,0.0
264568,0.000,0.832,0.581,-1.198,-0.595,-0.405,65.0,0.0
264657,-0.003,0.831,0.566,-0.382,-0.412,0.405,65.0,0.0
264747,-0.014,0.822,0.579,-0.573,-0.603,-0.084,66.0,0.0
264836,0.000,0.832,0.581,-0.916,-0.435,-0.176,65.0,0.0
264925,-0.003,0.827,0.583,0.160,-0.565,0.351,65.0,0.0
265014,-0.008,0.827,0.578,-1.023,-0.412,-0.260,66.0,0.0
265111,-0.008,0.829,0.584,-0.351,-0.336,0.275,65.0,0.0
