Timestamp(ms),AccelX(g),AccelY(g),AccelZ(g),GyroX(deg/s),GyroY(deg/s),GyroZ(deg/s),DistanceLeft(cm),DistanceRight(cm)
228321,-0.038,0.690,0.739,-0.092,0.267,-0.359,0.0,0.0
228414,-0.029,0.689,0.736,-0.985,0.290,-0.344,0.0,0.0
228507,-0.028,0.700,0.726,-0.038,0.130,0.053,0.0,0.0
228600,-0.031,0.695,0.740,0.588,-0.168,-0.153,0.0,0.0
228694,-0.028,0.690,0.725,-0.847,0.550,-0.588,0.0,0.0
228787,-0.036,0.693,0.730,-0.901,0.275,0.206,0.0,0.0
228880,-0.030,0.696,0.731,-1.229,0.504,-0.389,0.0,0.0
228973,-0.034,0.689,0.740,-0.008,0.328,-0.107,0.0,0.0
229069,-0.032,0.692,0.735,-0.885,0.435,-0.305,0.0,0.0
229163,-0.032,0.710,0.723,-0.031,0.321,0.130,0.0,0.0
229257,-0.034,0.692,0.737,1.008,0.267,-0.107,0.0,0.0
229350,-0.027,0.700,0.738,-1.397,0.374,-0.252,0.0,0.0
229443,-0.031,0.694,0.732,-0.969,0.282,0.061,0.0,0.0
229537,-0.028,0.713,0.729,-0.183,0.183,-0.107,0.0,0.0
229630,-0.034,0.696,0.735,0.458,0.244,0.122,0.0,0.0
229725,-0.029,0.698,0.744,0.214,0.069,-0.168,0.0,0.0
229818,-0.026,0.699,0.739,0.748,0.305,-0.038,0.0,0.0
229915,-0.033,0.695,0.733,-0.405,0.237,-0.489,0.0,0.0
230008,-0.037,0.697,0.738,-0.282,0.206,-0.053,0.0,0.0
230103,-0.032,0.695,0.728,-1.504,0.504,-0.298,0.0,0.0
230196,-0.031,0.704,0.734,-0.084,0.397,0.168,0.0,0.0
230290,-0.029,0.687,0.731,0.244,0.023,0.153,0.0,0.0
230383,-0.035,0.698,0.729,-0.718,0.351,0.023,0.0,0.0
230477,-0.029,0.703,0.729,-0.397,0.366,-0.237,0.0,0.0
230571,-0.030,0.697,0.742,0.504,0.107,-0.069,0.0,0.0
230665,-0.037,0.693,0.735,-0.504,0.344,-0.168,0.0,0.0
230758,-0.027,0.691,0.728,-0.832,0.481,0.008,0.0,0.0
230855,-0.034,0.694,0.744,-1.382,0.351,-0.275,0.0,0.0
230949,-0.026,0.698,0.731,-0.122,0.069,0.061,0.0,0.0
231043,-0.032,0.702,0.731,-0.260,0.374,-0.229,0.0,0.0
231137,-0.031,0.693,0.729,0.015,0.206,-0.053,0.0,0.0
231231,-0.029,0.696,0.733,-0.099,0.290,-0.260,0.0,0.0
231324,-0.032,0.698,0.737,-0.221,0.321,-0.359,0.0,0.0
231418,-0.028,0.694,0.740,-0.275,0.267,-0.351,0.0,0.0
231513,-0.034,0.701,0.730,-0.481,0.282,-0.275,0.0,0.0
231606,-0.031,0.695,0.736,0.443,0.206,0.137,0.0,0.0
231703,-0.030,0.695,0.732,-0.389,0.229,-0.427,0.0,0.0
231797,-0.025,0.696,0.727,0.496,0.084,0.023,0.0,0.0
231890,-0.029,0.709,0.729,-0.107,0.214,-0.122,0.0,0.0
231985,-0.034,0.699,0.738,0.183,0.145,-0.038,0.0,0.0
232079,-0.028,0.695,0.729,-0.969,0.389,-0.198,0.0,0.0
232173,-0.034,0.695,0.740,-0.015,0.206,0.069,0.0,0.0
232266,-0.028,0.692,0.742,0.244,0.290,-0.092,0.0,0.0
232360,-0.033,0.689,0.732,-0.405,0.183,-0.313,0.0,0.0
232455,-0.029,0.695,0.737,-0.618,0.198,-0.221,0.0,0.0
232552,-0.030,0.691,0.744,0.122,0.229,-0.313,0.0,0.0
232645,-0.028,0.699,0.728,-0.450,0.321,-0.267,0.0,0.0
232739,-0.031,0.691,0.737,-0.366,0.359,-0.107,0.0,0.0
232834,-0.032,0.696,0.728,-1.168,0.374,-0.061,0.0,0.0
232928,-0.033,0.701,0.731,-1.031,0.282,-0.305,0.0,0.0
233022,-0.032,0.702,0.732,-0.252,0.198,-0.183,0.0,0.0
233116,-0.034,0.700,0.731,0.290,0.183,-0.015,0.0,0.0
233209,-0.034,0.703,0.729,-0.634,0.290,-0.282,0.0,0.0
233304,-0.038,0.703,0.730,-0.275,0.267,-0.244,0.0,0.0
233398,-0.029,0.693,0.731,-0.122,0.252,-0.069,0.0,0.0
233495,-0.031,0.700,0.725,-0.466,0.298,-0.069,0.0,0.0
233589,-0.030,0.700,0.742,-0.275,0.214,-0.084,0.0,0.0
233683,-0.030,0.694,0.742,0.198,0.389,0.061,0.0,0.0
233778,-0.034,0.691,0.734,-0.649,0.244,-0.008,0.0,0.0
233872,-0.029,0.694,0.735,-0.267,0.298,-0.206,0.0,0.0
233966,-0.033,0.704,0.728,0.008,0.244,-0.206,0.0,0.0
234060,-0.041,0.700,0.732,0.214,0.183,-0.023,0.0,0.0
234155,-0.031,0.695,0.732,-0.321,0.176,-0.214,0.0,0.0
234249,-0.024,0.698,0.735,0.038,0.359,-0.084,0.0,0.0
234346,-0.038,0.688,0.734,0.137,0.237,-0.061,0.0,0.0
234440,-0.029,0.699,0.731,-0.282,0.229,-0.137,0.0,0.0
234534,-0.033,0.703,0.722,-0.626,0.122,-0.275,0.0,0.0
234629,-0.027,0.708,0.719,0.916,0.107,-0.160,0.0,0.0
234723,-0.032,0.695,0.729,0.145,0.229,-0.107,0.0,0.0
234823,-0.027,0.697,0.734,-0.672,0.427,-0.160,0.0,0.0
234916,-0.029,0.692,0.739,-0.863,0.496,-0.176,0.0,0.0
235010,-0.034,0.698,0.733,-0.802,0.489,0.069,0.0,0.0
235103,-0.030,0.701,0.727,-0.160,0.122,-0.168,0.0,0.0
235198,-0.036,0.699,0.735,-0.740,0.435,-0.183,0.0,0.0
235291,-0.024,0.700,0.726,-1.023,0.282,-0.053,0.0,0.0
235384,-0.039,0.700,0.734,-0.031,0.168,-0.076,0.0,0.0
235478,-0.033,0.700,0.731,-0.290,0.267,-0.160,0.0,0.0
235571,-0.030,0.702,0.738,-0.168,0.405,0.053,0.0,0.0
235664,-0.031,0.694,0.726,-0.527,0.214,-0.015,0.0,0.0
235756,-0.031,0.704,0.723,-0.947,0.298,-0.198,0.0,0.0
235849,-0.027,0.715,0.726,-0.206,0.191,0.115,0.0,0.0
235942,-0.033,0.700,0.731,-0.046,0.336,-0.298,0.0,0.0
236036,-0.031,0.696,0.732,-1.229,0.244,-0.397,0.0,0.0
236132,-0.034,0.702,0.725,-0.695,0.435,-0.198,0.0,0.0
236225,-0.032,0.705,0.733,-1.115,-0.008,-0.603,0.0,0.0
236318,-0.032,0.704,0.730,-1.137,0.420,-0.580,0.0,0.0
236411,-0.030,0.699,0.734,-0.748,0.313,-0.466,0.0,0.0
236505,-0.036,0.699,0.725,0.740,-0.115,-1.214,0.0,0.0
236598,-0.040,0.699,0.742,-1.206,0.466,-1.366,0.0,0.0
236691,-0.039,0.699,0.736,0.313,0.221,-0.611,0.0,0.0
236784,-0.035,0.703,0.725,-0.336,0.382,-1.038,0.0,0.0
236877,-0.035,0.701,0.731,0.183,0.084,0.206,0.0,0.0
236974,-0.039,0.699,0.727,-0.595,0.183,-0.664,0.0,0.0
237067,-0.028,0.703,0.734,-0.397,-0.008,-0.977,0.0,0.0
237160,-0.032,0.703,0.726,-2.206,0.260,-0.779,0.0,0.0
237253,-0.039,0.704,0.730,-0.588,0.115,-0.160,0.0,0.0
237346,-0.040,0.702,0.723,-0.031,0.038,-0.084,0.0,0.0
237440,-0.033,0.694,0.731,0.321,-0.107,-0.664,0.0,0.0
237533,-0.037,0.699,0.739,-1.206,0.092,-0.962,0.0,0.0
237627,-0.033,0.699,0.722,-0.420,0.076,-0.756,0.0,0.0
237720,-0.029,0.708,0.732,-0.397,0.046,-0.221,0.0,0.0
237816,-0.035,0.702,0.742,0.000,0.084,0.069,0.0,0.0
237910,-0.039,0.697,0.735,0.107,0.168,0.053,0.0,0.0
238004,-0.034,0.707,0.729,-0.244,0.466,0.038,0.0,0.0
238097,-0.037,0.702,0.727,-0.489,0.282,0.366,0.0,0.0
238191,-0.042,0.685,0.731,2.260,-0.145,0.611,0.0,0.0
238284,-0.026,0.689,0.740,18.519,-2.618,3.137,0.0,0.0
238379,-0.011,0.774,0.701,22.137,0.145,8.290,0.0,0.0
238472,-0.034,0.781,0.740,65.069,-15.733,30.275,0.0,0.0
238566,0.135,1.090,0.546,40.374,-17.145,47.489,0.0,0.0
238660,0.161,1.060,0.563,-56.229,-6.786,56.053,0.0,0.0
238756,0.235,0.899,0.535,-9.550,-14.328,86.122,0.0,0.0
238851,0.280,0.424,0.576,126.298,-41.756,86.038,0.0,0.0
238944,0.782,1.884,-0.188,-75.916,58.389,99.992,0.0,0.0
239038,0.319,-1.079,1.461,122.122,-50.389,54.145,0.0,0.0
239126,0.907,2.000,-0.425,-111.954,55.756,97.053,0.0,106.0
239214,0.590,-0.628,0.994,91.374,-0.443,96.931,0.0,100.0
239303,0.440,1.916,-0.696,-250.137,189.870,80.672,0.0,102.0
239391,0.718,-1.286,1.127,250.130,-55.229,84.092,0.0,105.0
239480,0.821,1.366,-0.234,-250.137,79.992,15.305,0.0,110.0
239572,0.726,-0.644,0.719,250.130,-70.733,64.519,0.0,110.0
239662,0.823,0.796,0.063,-250.137,88.282,6.817,0.0,115.0
239750,0.610,-0.001,0.354,250.130,-64.695,88.924,0.0,106.0
239844,0.614,-0.670,0.595,-250.137,58.626,19.626,0.0,0.0
239938,0.831,-0.040,0.383,250.130,-56.031,44.595,0.0,0.0
240032,0.425,-0.946,0.666,-250.137,71.588,-21.344,0.0,0.0
240125,1.201,0.712,0.283,176.305,-21.359,67.740,0.0,0.0
240220,-0.118,-2.000,1.530,-73.008,3.947,-2.298,0.0,0.0
240317,1.172,1.767,-0.293,-146.374,70.679,56.443,0.0,0.0
240411,0.407,-1.394,0.802,250.130,-72.710,33.740,0.0,0.0
240505,0.581,-0.525,0.417,-250.137,81.214,-56.252,0.0,0.0
240600,1.145,0.879,0.051,250.130,-74.321,53.450,0.0,0.0
240694,0.151,-2.000,1.542,-48.328,-14.244,-19.565,0.0,0.0
240787,1.359,1.643,-0.150,-95.069,82.198,41.427,0.0,0.0
240881,0.444,-1.425,0.937,250.130,-94.504,37.115,0.0,0.0
240975,0.421,-0.380,0.481,-250.137,83.504,-53.588,0.0,0.0
241070,1.233,1.191,0.089,107.122,2.992,57.702,0.0,0.0
241167,0.177,-1.702,1.314,173.588,-63.863,22.847,0.0,0.0
241261,0.792,0.599,0.180,-107.901,81.267,17.618,197.0,0.0
241354,0.369,-1.416,1.139,250.130,-86.511,40.534,193.0,0.0
241441,0.661,0.924,-0.453,-250.137,159.809,-61.748,65.0,0.0
241536,0.297,-1.810,0.689,250.130,-108.611,69.252,0.0,0.0
241622,0.520,0.538,-0.453,-250.137,194.855,-99.412,63.0,0.0
241716,0.455,-1.106,0.360,250.130,-90.504,118.565,194.0,0.0
241802,-0.161,-1.254,0.744,-250.137,99.519,-83.130,60.0,0.0
241896,0.811,-0.171,0.984,250.130,-32.412,80.511,191.0,0.0
241992,0.395,0.977,0.370,-236.206,94.153,-70.519,189.0,0.0
242081,0.378,-1.178,0.793,250.130,-105.473,170.985,187.0,125.0
242176,0.131,0.051,-0.290,-250.137,231.336,-133.534,185.0,0.0
242269,-0.040,-0.432,0.742,250.130,-94.260,192.550,183.0,0.0
242358,0.226,0.463,0.547,-131.939,194.557,-18.969,181.0,126.0
242447,-0.525,-0.330,1.424,178.267,1.855,116.679,180.0,128.0
242536,-0.087,0.864,0.758,7.573,40.206,35.786,180.0,128.0
242625,-0.212,-0.760,1.208,-217.908,58.344,-113.076,177.0,132.0
242717,-0.115,0.502,0.643,166.198,-33.672,54.153,178.0,128.0
242798,-0.042,-0.829,0.668,-250.137,93.282,-166.847,30.0,132.0
242879,-0.400,-0.413,0.716,250.130,-140.954,150.130,36.0,128.0
242960,0.424,0.890,0.369,-201.878,83.252,-67.901,37.0,126.0
243041,-0.671,-0.796,1.456,138.489,11.382,0.534,39.0,124.0
243130,0.042,0.722,0.860,204.611,-63.557,107.611,185.0,125.0
243219,-0.110,0.478,0.590,-108.031,57.122,-84.130,185.0,126.0
243301,-0.251,-1.104,1.149,-250.137,33.924,-94.344,47.0,126.0
243394,-0.035,-0.031,0.317,250.130,-74.748,165.198,184.0,126.0
243483,0.286,0.615,0.069,-250.137,127.679,-166.893,184.0,126.0
243564,-0.404,-1.040,0.567,250.130,-47.725,156.397,32.0,126.0
243653,0.229,0.825,0.310,-250.137,115.870,-122.840,184.0,126.0
243734,-0.404,-0.439,0.910,250.130,-35.305,106.107,30.0,127.0
243815,-0.292,0.065,0.594,-204.244,20.863,-43.809,29.0,126.0
243895,-0.645,-1.749,1.442,128.183,-11.344,-17.481,28.0,127.0
243985,-0.098,0.935,0.306,162.878,-49.733,57.550,184.0,126.0
244073,-0.358,-2.000,1.250,-250.137,70.702,-187.153,37.0,0.0
244154,0.320,1.644,-0.103,250.130,-65.786,178.840,32.0,125.0
244235,-0.446,-1.410,1.260,-140.748,37.954,-65.664,29.0,128.0
244315,-0.176,-0.463,1.220,183.237,-27.679,10.710,29.0,126.0
244405,-0.201,0.876,0.391,107.924,-47.252,65.611,183.0,124.0
244490,0.049,-0.709,0.425,-250.137,92.137,-130.649,36.0,0.0
244575,-0.401,-1.147,0.849,250.130,-14.893,89.473,30.0,0.0
244656,0.302,1.360,0.349,-250.137,35.160,-22.496,32.0,128.0
244740,-0.605,-2.000,1.483,222.420,-0.214,58.221,29.0,0.0
244828,0.496,1.467,-0.136,-250.137,59.511,-77.069,30.0,0.0
244923,-0.274,-2.000,1.404,250.130,18.580,99.565,0.0,0.0
245004,0.524,2.000,0.302,-224.718,12.473,-40.893,37.0,126.0
245089,-0.947,-2.000,1.714,193.420,18.695,38.702,30.0,0.0
245170,0.335,1.315,0.378,-250.137,29.634,-76.290,30.0,127.0
245255,-0.480,-1.229,1.108,158.672,-43.321,68.802,29.0,0.0
245337,-0.058,-0.088,0.786,143.641,-60.863,43.160,50.0,128.0
245422,0.162,-0.409,0.115,-250.137,92.282,-156.588,29.0,0.0
245510,-0.443,-1.225,0.181,250.130,-107.847,61.176,30.0,0.0
245595,0.213,-0.618,-0.174,-250.137,224.870,-208.023,33.0,0.0
245681,-0.490,-0.885,0.926,250.130,-140.634,-24.000,51.0,0.0
245776,0.208,-0.610,0.094,-250.137,83.855,-130.870,0.0,0.0
245861,0.178,-0.530,0.140,250.130,-153.588,-24.046,39.0,0.0
245956,-0.288,-2.000,0.416,-250.137,130.290,-178.069,0.0,0.0
246050,0.075,-0.202,0.248,31.023,-13.366,-149.328,0.0,0.0
246136,0.241,-0.980,0.490,-173.282,94.527,-160.947,37.0,0.0
246231,0.231,-0.490,0.976,28.389,-9.267,-189.046,0.0,0.0
246334,0.650,0.060,0.540,3.405,-124.015,-90.038,0.0,0.0
246427,1.042,0.097,0.095,-56.687,-112.824,-41.084,0.0,0.0
246521,0.890,-0.112,-0.174,-77.603,-86.397,-17.366,0.0,0.0
246615,1.043,-0.126,-0.394,-51.664,-62.298,-7.420,0.0,0.0
246708,1.087,-0.185,-0.419,-10.710,-43.847,-15.153,0.0,0.0
246802,0.912,-0.102,-0.432,5.916,-32.947,-17.015,0.0,0.0
246895,0.862,-0.183,-0.431,-0.214,-14.985,-0.214,0.0,0.0
246989,0.934,-0.268,-0.412,-11.252,4.542,3.496,0.0,0.0
247086,0.936,-0.129,-0.387,-6.611,5.649,-7.809,0.0,0.0
247179,0.938,-0.096,-0.351,-6.908,3.435,1.038,0.0,0.0
247273,0.948,-0.121,-0.388,-3.870,-1.099,2.985,0.0,0.0
247366,0.920,-0.162,-0.366,1.099,-5.405,1.427,0.0,0.0
247459,0.925,-0.162,-0.396,-7.374,-3.725,3.405,0.0,0.0
247554,0.896,-0.196,-0.387,-1.565,-3.748,1.824,0.0,0.0
247647,0.908,-0.183,-0.397,0.015,-5.000,-0.824,0.0,0.0
247741,0.906,-0.175,-0.416,2.969,-3.267,-0.542,0.0,0.0
247834,0.908,-0.177,-0.417,2.832,-1.725,2.000,0.0,0.0
247927,0.893,-0.168,-0.432,3.618,-1.168,1.374,0.0,0.0
248024,0.882,-0.213,-0.394,12.298,-2.160,1.672,0.0,0.0
248118,0.908,-0.193,-0.423,-9.473,-4.405,1.740,0.0,0.0
248211,0.901,-0.179,-0.441,-1.695,-2.565,1.519,0.0,0.0
248305,0.886,-0.190,-0.442,0.275,-1.733,0.504,0.0,0.0
248398,0.888,-0.202,-0.441,1.176,-0.084,-0.130,0.0,0.0
248492,0.886,-0.208,-0.433,-0.260,1.542,-0.534,0.0,0.0
248586,0.869,-0.239,-0.417,8.611,1.511,-0.031,0.0,0.0
248679,0.886,-0.261,-0.429,5.916,5.924,-3.046,0.0,0.0
248773,0.869,-0.292,-0.476,13.481,16.344,-16.878,0.0,0.0
248869,0.793,-0.174,-0.526,37.221,38.023,-30.573,0.0,0.0
248961,0.809,-0.215,-0.462,65.763,79.603,-34.458,0.0,156.0
249055,0.874,-0.158,-0.279,31.573,143.947,-57.382,0.0,0.0
249146,0.855,-0.042,0.100,10.580,201.802,-72.435,0.0,151.0
249236,0.659,0.407,0.513,0.298,203.618,-83.672,0.0,146.0
249327,0.491,0.152,1.097,-38.962,119.183,-54.023,0.0,143.0
249417,0.533,0.307,0.990,49.145,67.840,-52.969,0.0,140.0
249511,0.319,0.409,0.831,15.542,68.221,-60.832,0.0,0.0
249608,0.112,0.378,0.795,38.420,47.542,-43.412,0.0,0.0
249702,0.363,0.567,1.027,5.893,39.214,-32.427,0.0,0.0
249793,0.022,0.430,0.876,-1.916,38.130,-53.969,158.0,0.0
249884,0.032,0.589,0.859,23.038,38.855,-42.603,159.0,0.0
249978,-0.240,0.567,1.037,-11.626,34.389,-30.832,0.0,0.0
250073,-0.049,0.504,0.792,44.084,1.489,1.649,0.0,0.0
250166,-0.067,0.466,0.854,19.534,-0.359,2.023,0.0,0.0
250260,-0.045,0.474,0.883,18.092,0.626,2.496,0.0,0.0
250354,-0.055,0.546,0.835,13.435,-3.031,4.336,0.0,0.0
250447,-0.048,0.546,0.834,1.221,2.046,0.359,0.0,0.0
250545,-0.034,0.525,0.860,4.443,2.611,2.435,0.0,0.0
250638,-0.100,0.541,0.860,78.382,-11.351,8.962,0.0,0.0
250732,0.002,0.821,0.575,72.626,-11.069,12.130,0.0,0.0
250826,0.034,0.854,0.566,6.298,-2.725,5.924,0.0,0.0
250919,0.042,0.819,0.618,-27.802,5.305,-1.511,0.0,0.0
251014,0.001,0.766,0.667,-34.763,6.046,-2.427,0.0,0.0
251108,-0.008,0.710,0.700,-17.626,7.718,6.771,0.0,0.0
251201,0.062,0.832,0.712,-10.740,3.786,28.023,0.0,0.0
251295,0.037,0.942,0.719,-96.153,1.763,41.702,0.0,0.0
251388,0.016,-0.105,1.343,-78.504,-29.084,9.824,0.0,140.0
251483,0.561,1.858,0.108,250.130,-44.672,81.847,0.0,0.0
251574,-0.089,-2.000,1.858,-237.611,-11.450,-8.626,0.0,144.0
251668,0.828,2.000,-0.856,15.947,51.580,102.702,0.0,0.0
251759,-0.271,-1.835,0.804,250.130,-158.130,44.901,0.0,154.0
251851,0.489,-1.123,0.435,-250.137,56.176,-128.473,0.0,154.0
251942,0.993,2.000,-1.354,-163.695,160.313,74.969,0.0,156.0
252037,0.199,-0.699,-1.357,250.130,-159.733,125.893,0.0,0.0
252122,-0.656,-2.000,2.000,-161.176,-38.908,-93.206,0.0,36.0
252217,0.504,2.000,-1.187,-250.137,208.420,-11.038,0.0,163.0
252311,1.563,2.000,-0.622,250.130,-31.053,141.588,0.0,0.0
252405,-0.063,-2.000,2.000,229.557,-55.305,39.519,0.0,0.0
252498,-0.022,1.033,-0.560,-250.137,164.565,-53.198,0.0,190.0
252594,1.852,2.000,-0.681,250.130,10.496,87.130,0.0,0.0
252681,-0.007,-2.000,1.965,250.130,-107.893,33.710,0.0,92.0
252770,0.180,0.767,-0.712,-250.137,135.321,-108.069,0.0,95.0
252864,1.923,2.000,-0.756,250.130,-60.412,105.519,0.0,0.0
252955,-0.134,-2.000,2.000,182.191,-84.924,-59.260,0.0,95.0
253043,0.532,2.000,-0.566,-250.137,139.107,-53.710,0.0,93.0
253131,1.250,0.787,-0.152,250.130,-46.130,119.221,0.0,91.0
253224,-0.083,-2.000,1.986,-122.786,-54.191,-101.031,0.0,175.0
253318,0.447,2.000,-0.457,-250.137,111.405,-53.427,0.0,176.0
253406,1.452,1.935,-0.094,250.130,-36.725,103.878,0.0,94.0
253494,-0.027,-2.000,2.000,34.214,-62.802,-44.664,0.0,96.0
253582,0.408,2.000,-0.556,-250.137,117.557,-29.221,0.0,95.0
253674,1.061,0.962,-0.229,250.130,-113.863,65.107,0.0,93.0
253766,0.023,-2.000,1.547,-250.137,31.626,-121.244,0.0,169.0
253854,1.278,2.000,-0.439,-135.939,88.321,22.702,0.0,91.0
253942,0.402,-1.211,0.936,250.130,-93.870,44.664,0.0,91.0
254034,0.267,0.083,0.192,-250.137,81.351,-86.916,0.0,168.0
254123,1.391,2.000,-0.215,250.130,-22.679,66.359,0.0,89.0
254212,0.258,-2.000,1.874,107.870,-58.031,-11.023,0.0,94.0
254304,0.560,1.990,-0.235,-250.137,119.817,-30.580,0.0,171.0
254392,0.845,0.850,0.023,250.130,-75.489,78.267,0.0,91.0
254488,0.129,-1.874,1.489,-181.313,-13.092,-58.244,0.0,169.0
254576,0.716,2.000,-0.003,-207.969,74.153,-4.840,0.0,97.0
254665,0.507,-0.085,0.609,250.130,-57.244,65.153,0.0,94.0
254757,0.412,-0.559,0.941,-250.137,15.573,-58.672,0.0,172.0
254846,1.156,1.967,-0.024,64.695,34.977,20.626,0.0,92.0
254935,0.271,-1.850,1.705,175.092,-62.527,-9.885,0.0,94.0
255023,0.732,2.000,-0.313,-250.137,97.443,-26.992,0.0,93.0
255112,0.515,-0.551,0.925,250.130,-76.992,44.542,0.0,94.0
255200,0.773,1.169,0.386,-250.137,56.924,-37.626,0.0,94.0
255293,0.485,0.312,1.033,122.282,-20.740,14.008,0.0,116.0
255381,0.937,1.138,0.814,44.840,-19.427,28.626,0.0,96.0
255470,0.717,1.284,0.405,-35.557,10.794,118.771,0.0,111.0
255565,0.051,0.709,0.111,-87.977,50.916,172.695,0.0,0.0
255660,0.055,-0.496,0.395,37.580,58.840,203.817,0.0,0.0
255754,0.212,-0.631,0.629,-53.099,104.137,99.305,0.0,0.0
255848,0.056,-0.747,0.781,-35.427,106.840,55.405,0.0,0.0
255943,-0.195,-0.399,0.854,-99.504,100.977,20.893,0.0,0.0
256040,-0.357,-0.913,0.999,-106.481,61.305,10.427,0.0,0.0
256136,-0.321,-0.742,0.847,-57.656,33.092,-3.687,0.0,0.0
256230,-0.168,-0.641,0.670,-23.718,17.885,3.000,0.0,0.0
256324,-0.159,-1.227,0.544,-146.855,18.252,-16.321,0.0,0.0
256419,-0.059,-0.695,0.283,83.557,-7.198,19.634,0.0,0.0
256514,-0.246,-1.175,0.213,-176.595,39.931,-10.229,0.0,0.0
256609,-0.196,-1.128,0.260,118.214,-3.237,38.443,0.0,0.0
256703,-0.232,-0.564,0.161,-98.740,43.962,10.824,0.0,0.0
256797,-0.408,-1.172,0.238,-20.893,19.885,22.634,0.0,0.0
256896,-0.356,-0.572,-0.144,-68.809,46.046,17.954,0.0,0.0
256991,-0.533,-1.226,-0.019,19.809,35.924,7.588,0.0,0.0
257085,-0.412,-0.929,-0.046,28.221,22.191,-25.305,0.0,0.0
257179,-0.433,-0.883,0.031,16.328,31.298,-11.176,0.0,0.0
257274,-0.262,-0.846,0.185,25.260,29.824,-40.008,0.0,0.0
257369,-0.165,-0.670,0.241,-63.832,62.084,-64.305,0.0,0.0
257463,-0.240,-0.816,-0.284,-250.137,84.702,-94.061,0.0,0.0
257558,-0.142,-0.976,-0.291,-119.656,41.863,-50.603,0.0,0.0
257651,0.091,-0.742,-0.476,-173.137,-19.878,-34.313,0.0,177.0
257745,0.195,-0.801,-0.936,-25.290,-71.206,-27.985,0.0,135.0
257828,0.096,-0.156,-1.224,-51.824,-2.588,-27.237,16.0,169.0
257918,0.047,-0.434,-0.980,-85.275,-17.115,5.664,0.0,112.0
258009,0.048,0.041,-1.323,-146.183,10.344,50.702,0.0,132.0
258094,-0.085,-0.707,-0.893,10.099,-9.046,8.542,9.0,107.0
258186,-0.411,-0.573,-1.449,250.130,-95.160,63.244,0.0,175.0
258264,0.230,-0.906,-1.898,-250.137,97.511,-35.351,6.0,112.0
258345,-1.019,-1.356,-1.964,250.130,-95.290,64.939,16.0,176.0
258426,0.152,-0.865,-1.863,-250.137,58.969,-175.573,10.0,111.0
258504,1.382,2.000,-1.897,83.740,-4.664,129.221,16.0,116.0
258582,-0.340,-1.593,-0.505,-175.366,-28.069,-107.450,8.0,111.0
258674,0.398,1.499,-1.872,190.038,15.153,56.115,0.0,175.0
258752,-0.407,-2.000,-0.008,202.931,-45.916,-64.084,13.0,107.0
258842,-0.005,1.155,-1.695,-222.206,58.053,-1.687,0.0,130.0
258920,-0.251,-1.219,-1.116,250.130,-53.046,4.420,16.0,113.0
258999,-0.109,-0.177,-1.303,-250.137,34.023,-84.634,19.0,110.0
259083,-0.105,-0.829,-1.041,250.130,-60.710,27.534,20.0,164.0
259163,-0.069,-0.500,-0.913,-136.244,-14.664,-61.504,26.0,124.0
259245,-0.190,-1.250,-0.500,235.137,-41.756,-7.015,29.0,159.0
259336,-0.107,-0.142,-0.703,-46.344,15.038,-36.267,0.0,158.0
259430,-0.271,-1.415,-0.158,198.038,-6.260,-24.725,0.0,0.0
259523,-0.200,-1.336,-0.152,117.183,-102.573,-29.198,0.0,0.0
259617,0.009,-0.795,0.046,37.832,-48.282,-70.466,0.0,0.0
259710,-0.347,-1.725,0.284,191.130,-135.328,-4.015,0.0,0.0
259805,-0.193,-0.942,0.049,250.130,-83.992,176.107,0.0,0.0
259899,-0.648,-0.207,0.431,178.260,-46.656,250.130,160.0,0.0
259993,-0.792,-0.118,0.747,-18.893,-5.504,250.130,0.0,0.0
260080,-0.409,-0.481,0.837,-75.336,4.565,250.130,0.0,93.0
260158,-0.378,-0.650,0.806,-84.092,-24.885,186.939,27.0,95.0
260246,-0.125,-0.461,0.688,-175.099,-60.939,47.794,0.0,100.0
260340,-0.284,-1.161,0.867,-179.603,-7.389,-56.786,0.0,0.0
260434,-0.323,-0.468,0.639,-9.954,16.527,-18.191,0.0,0.0
260528,-0.366,-0.616,0.712,-67.328,-23.519,4.160,0.0,0.0
260625,-0.211,-0.890,0.566,-23.580,-9.229,5.458,0.0,0.0
260718,-0.293,-0.778,0.606,2.382,-4.069,4.260,0.0,0.0
260812,-0.256,-0.815,0.581,-16.573,-5.664,3.496,0.0,0.0
260905,-0.271,-0.765,0.569,-10.122,-5.756,-0.420,0.0,0.0
261000,-0.242,-0.797,0.567,-4.603,-2.916,-0.824,0.0,0.0
261094,-0.248,-0.827,0.577,-7.450,0.328,0.534,0.0,0.0
261187,-0.267,-0.800,0.545,-2.725,1.939,-0.412,0.0,0.0
261281,-0.280,-0.767,0.546,-1.893,0.237,-2.427,0.0,0.0
261374,-0.271,-0.778,0.545,-0.878,-0.076,-1.771,0.0,0.0
261472,-0.253,-0.795,0.554,3.244,0.565,-1.489,0.0,0.0
261565,-0.238,-0.796,0.576,14.626,1.611,-2.344,0.0,0.0
261659,-0.160,-1.066,0.715,102.137,10.580,-5.321,0.0,0.0
261747,-0.192,-0.893,0.989,250.130,11.473,-44.466,0.0,104.0
261826,-0.665,0.964,-0.104,250.130,-62.298,168.794,33.0,97.0
261905,0.366,0.368,0.476,-193.405,26.183,47.748,31.0,102.0
261984,-0.814,-0.841,1.639,163.061,19.710,-23.107,32.0,101.0
262065,-0.040,1.577,0.480,-52.779,124.061,220.992,30.0,137.0
262144,0.145,-2.000,1.544,-250.137,-24.695,-133.290,24.0,112.0
262232,1.024,2.000,-1.261,250.130,41.191,229.351,31.0,0.0
262312,-0.081,-2.000,1.889,-250.137,-26.489,-193.336,24.0,159.0
262397,0.494,2.000,-1.081,250.130,36.130,165.870,29.0,0.0
262477,0.146,-2.000,2.000,-250.137,-14.405,-168.275,25.0,142.0
262562,0.789,2.000,-1.333,217.519,31.107,133.290,38.0,0.0
262643,-0.039,-2.000,0.924,-250.137,-21.145,-7.351,30.0,144.0
262728,-2.000,-0.610,0.139,250.130,-50.435,-65.031,29.0,0.0
262820,0.177,-0.452,-0.201,-250.137,230.183,77.832,0.0,163.0
262918,-0.550,-0.028,0.961,250.130,-21.282,-125.359,0.0,0.0
262999,-0.139,-1.057,-0.138,-250.137,38.939,-104.557,23.0,161.0
263084,-0.735,2.000,-1.963,250.130,-48.947,204.855,31.0,0.0
263165,-1.042,-2.000,2.000,-134.893,-58.519,-160.977,23.0,160.0
263250,0.354,2.000,-0.660,137.489,-25.321,77.595,41.0,0.0
263332,-0.383,-2.000,2.000,-131.046,-29.275,-163.840,25.0,158.0
263416,-0.968,1.612,0.065,250.130,-96.832,-104.313,32.0,196.0
263497,-0.051,0.989,0.314,-250.137,83.458,70.710,30.0,135.0
263580,-0.220,-2.000,2.000,250.130,1.466,-128.794,27.0,108.0
263664,0.024,2.000,-0.425,-250.137,66.718,26.168,33.0,194.0
263743,-0.146,-0.972,1.645,239.183,-2.611,-33.992,30.0,108.0
263823,0.103,0.504,0.748,-250.137,30.122,17.931,29.0,109.0
263907,-1.033,1.160,-0.840,250.130,-42.214,-11.107,34.0,194.0
263988,0.175,-1.542,1.437,-250.137,12.939,-10.031,30.0,134.0
264069,-0.563,2.000,-0.539,225.099,-10.427,103.237,30.0,132.0
264150,0.550,-2.000,2.000,39.618,5.702,-48.092,30.0,131.0
264230,0.118,2.000,-0.178,-250.137,68.595,51.481,33.0,133.0
264314,0.569,-2.000,2.000,147.053,11.664,-55.450,30.0,133.0
264395,0.093,2.000,-0.274,-250.137,84.458,35.656,31.0,135.0
264476,0.809,-2.000,2.000,24.542,14.069,-50.565,29.0,135.0
264560,0.611,2.000,-1.095,-177.176,55.847,42.023,33.0,196.0
264641,0.739,-2.000,2.000,-44.053,13.977,-33.718,26.0,134.0
264722,0.379,2.000,-0.153,-150.702,28.092,17.710,30.0,135.0
264803,-0.273,-0.895,1.644,250.130,-10.221,-22.496,28.0,133.0
264885,-0.016,0.173,0.720,-250.137,11.473,-39.046,27.0,156.0
264969,-0.892,1.319,-0.460,250.130,-38.580,32.359,30.0,136.0
265051,0.143,-1.848,1.222,-250.137,2.786,-56.282,28.0,156.0
265133,0.153,2.000,-0.315,114.511,-3.053,50.916,32.0,135.0
265213,0.136,-1.660,1.896,202.687,-5.557,-13.489,30.0,132.0
265294,-0.035,1.480,0.451,-250.137,39.794,31.328,33.0,134.0
265375,0.180,-1.655,1.269,3.527,5.779,-24.069,30.0,138.0
265460,-0.360,2.000,-1.004,225.076,-40.618,49.618,36.0,196.0
265541,-0.103,-2.000,0.927,-250.137,-4.931,-56.481,30.0,136.0
265629,-1.217,2.000,-1.422,250.130,-62.802,71.008,35.0,197.0
265709,-0.122,-2.000,0.824,-250.137,-2.405,-68.618,29.0,120.0
265794,-0.834,0.522,0.298,250.130,-46.611,14.168,36.0,197.0
265874,-0.128,-0.078,0.870,-250.137,39.901,-12.947,32.0,117.0
265956,-0.428,-0.473,1.169,250.130,-11.389,-19.076,37.0,135.0
266036,-0.029,0.592,0.651,-250.137,34.893,-23.855,33.0,116.0
266116,-0.148,-0.885,1.361,250.130,0.855,-17.710,37.0,112.0
266195,-0.017,1.081,0.501,-250.137,38.267,12.168,32.0,117.0
266276,0.046,-1.554,1.473,250.130,1.954,-33.344,31.0,118.0
266359,0.140,1.629,0.332,-250.137,50.015,18.145,38.0,111.0
266439,-0.004,-2.000,1.640,250.130,4.305,-42.611,30.0,120.0
266531,0.183,2.000,0.054,-250.137,57.718,28.038,0.0,157.0
266612,-0.134,-1.800,1.463,250.130,1.771,-45.985,31.0,120.0
266693,0.118,1.932,0.071,-250.137,62.053,11.252,37.0,137.0
266774,-0.132,-2.000,1.647,250.130,-2.305,-78.427,35.0,113.0
266864,0.194,2.000,-0.151,-250.137,42.908,-1.863,0.0,134.0
266946,-0.063,-0.972,1.228,250.130,-40.710,-74.076,37.0,132.0
267034,-0.196,2.000,-0.309,-18.893,-11.145,11.939,43.0,192.0
267115,0.513,-2.000,1.992,-131.183,-4.954,-135.748,43.0,103.0
267195,-1.127,2.000,-1.043,168.397,-51.427,72.901,45.0,100.0
267275,1.029,-2.000,1.758,-250.137,-7.580,-131.298,41.0,102.0
267355,-1.269,2.000,-1.916,250.130,-47.908,133.122,48.0,100.0
267435,0.777,-2.000,1.976,-170.221,-27.496,-195.198,42.0,100.0
267524,-0.201,2.000,-0.510,88.634,-12.779,90.053,0.0,98.0
267613,0.451,-1.440,1.399,-128.489,3.786,3.084,0.0,99.0
267705,-0.763,2.000,-1.136,215.641,-58.015,-16.580,0.0,98.0
267793,0.552,-2.000,1.486,-250.137,-0.275,-25.840,0.0,98.0
267882,-0.394,2.000,-0.605,68.595,-21.794,73.260,0.0,97.0
267963,0.474,-2.000,1.959,217.519,5.137,-83.763,58.0,98.0
268051,0.053,1.479,0.528,-109.695,6.206,-10.344,0.0,95.0
268140,-0.315,0.248,1.104,100.901,-35.611,-109.656,0.0,93.0
268228,-1.005,0.286,0.689,-79.008,-6.344,-85.886,0.0,93.0
268318,-0.228,-0.612,1.400,77.611,-48.672,-187.397,0.0,109.0
268412,0.035,2.000,0.070,97.733,-33.198,2.038,0.0,0.0
268506,-0.623,-0.600,1.044,-250.137,41.618,39.611,0.0,108.0
268595,-0.559,0.548,0.281,250.130,-40.580,-4.679,0.0,107.0
268683,0.182,-1.236,1.151,-250.137,19.443,53.321,0.0,86.0
268774,-0.567,2.000,-0.343,204.282,-33.031,-28.221,0.0,132.0
268862,0.606,-2.000,1.858,-84.618,-6.969,3.542,0.0,87.0
268957,-0.490,1.201,0.593,-212.702,21.573,44.901,0.0,107.0
269045,-0.416,0.765,0.838,250.130,-46.702,-48.107,0.0,107.0
269133,-0.198,-0.638,0.952,-162.267,4.000,54.412,0.0,107.0
269223,-0.844,1.696,0.047,195.695,-24.550,-27.519,0.0,134.0
269314,0.810,-1.526,1.170,-197.588,-14.588,133.389,0.0,90.0
269402,-1.022,1.923,-0.381,127.397,-0.160,1.137,0.0,108.0
269489,0.878,-1.468,1.809,-114.130,-6.099,80.298,0.0,88.0
269577,-1.026,2.000,0.176,111.031,1.076,70.046,0.0,87.0
269664,0.728,-2.000,1.739,82.679,4.740,-51.924,0.0,88.0
269751,-0.283,1.745,0.105,-250.137,43.962,98.115,0.0,89.0
269838,0.501,-1.844,1.642,250.130,7.389,-132.130,0.0,89.0
269925,-0.828,1.061,0.342,-250.137,48.000,94.740,0.0,89.0
270015,-0.606,-0.997,1.071,250.130,-5.282,-111.191,0.0,90.0
270103,-0.383,0.068,0.509,-250.137,26.473,72.664,0.0,90.0
270190,-1.703,-0.185,0.182,250.130,-24.649,-55.176,0.0,88.0
270277,0.320,-0.768,0.761,-250.137,20.588,33.366,0.0,91.0
270365,-1.927,1.496,-0.897,250.130,-41.405,21.137,0.0,88.0
270443,0.822,-2.000,1.024,-250.137,-9.344,-2.084,43.0,91.0
270531,-2.000,1.805,-1.052,250.130,-34.511,22.916,0.0,89.0
270618,0.533,-2.000,1.203,-250.137,-11.176,32.779,0.0,93.0
270706,-1.396,1.522,-0.455,250.130,-12.122,3.550,0.0,90.0
270796,1.020,-2.000,1.143,-250.137,13.031,32.389,0.0,94.0
270884,-1.411,2.000,-0.865,250.130,-30.351,10.855,0.0,91.0
270963,0.238,-1.685,0.698,-250.137,11.771,63.870,41.0,96.0
271043,-1.188,-0.722,0.302,250.130,-20.122,-68.954,44.0,116.0
271121,-0.578,0.624,0.408,-250.137,60.053,87.000,41.0,95.0
271200,0.347,-2.000,1.595,250.130,5.092,-128.672,38.0,94.0
271288,-0.461,1.871,-0.143,-250.137,97.634,126.779,0.0,97.0
271367,0.381,-2.000,1.787,250.130,1.733,-68.740,38.0,96.0
271458,-0.131,2.000,0.096,-250.137,53.863,43.145,0.0,99.0
271545,0.124,-2.000,1.606,250.130,9.374,-80.008,0.0,98.0
271624,-0.438,1.277,0.206,-250.137,69.802,67.359,38.0,99.0
271703,0.169,-2.000,1.663,250.130,16.069,-89.511,38.0,97.0
271791,-0.233,1.960,0.077,-250.137,65.168,59.198,0.0,99.0
271880,-0.069,-2.000,1.750,250.130,6.573,-111.359,0.0,118.0
271969,-0.363,0.888,0.058,-250.137,94.344,87.924,0.0,100.0
272049,-1.085,-0.502,0.853,250.130,-26.977,-77.550,44.0,117.0
272137,-0.331,0.395,0.432,-250.137,82.252,74.664,0.0,96.0
272219,-1.320,-0.329,0.396,250.130,-36.481,-12.412,41.0,94.0
272307,-0.171,-0.032,0.586,-250.137,68.275,43.771,0.0,96.0
272395,-1.931,0.567,-0.838,250.130,-82.786,-13.496,0.0,92.0
272483,0.093,-0.270,1.021,-250.137,41.702,33.298,0.0,95.0
272561,-1.395,1.886,-1.517,250.130,-57.153,51.214,45.0,92.0
272649,0.904,-2.000,0.617,-250.137,16.992,-71.275,0.0,95.0
272737,-1.238,2.000,-1.711,228.206,-52.076,154.206,0.0,91.0
272825,1.021,-2.000,1.670,-97.832,-4.809,-164.260,0.0,93.0
272916,-0.192,2.000,-0.145,-250.137,67.397,81.595,0.0,95.0
273005,-0.705,-0.956,1.104,250.130,-3.679,-41.450,0.0,115.0
273093,0.183,-0.706,1.037,-250.137,15.000,-11.901,0.0,94.0
273172,-1.334,1.722,-0.489,250.130,-30.092,32.443,44.0,92.0
273260,0.378,-1.139,0.942,-250.137,18.069,31.656,0.0,95.0
273348,-1.519,1.198,-0.518,250.130,-82.168,-27.359,0.0,92.0
273436,-0.031,-0.302,1.270,-250.137,15.305,25.527,0.0,95.0
273524,-1.255,0.865,-0.226,250.130,-41.954,-28.328,0.0,92.0
273603,0.361,-1.176,0.829,-250.137,11.282,2.977,38.0,96.0
273694,-1.887,1.203,-0.855,250.130,-51.832,22.061,0.0,93.0
273773,0.740,-2.000,1.025,-250.137,1.947,-46.176,37.0,95.0
273861,-2.000,2.000,-1.846,250.130,-66.710,67.305,0.0,93.0
273940,0.613,-2.000,1.182,-250.137,6.947,-43.206,38.0,96.0
274020,-1.841,2.000,-1.719,250.130,-49.344,103.153,51.0,93.0
274099,0.788,-2.000,1.203,-250.137,0.786,-74.183,35.0,97.0
274178,-1.645,2.000,-1.742,250.130,-45.748,181.260,40.0,94.0
274256,0.588,-2.000,1.460,-250.137,7.641,-78.634,34.0,96.0
274348,-0.380,2.000,-0.778,125.557,-29.443,110.954,0.0,95.0
274426,0.701,-2.000,1.805,-44.771,16.023,-62.099,34.0,97.0
274505,0.020,2.000,0.093,28.718,-0.412,107.031,39.0,95.0
274584,0.844,-2.000,1.190,-218.168,8.038,-10.435,31.0,99.0
274663,-1.623,2.000,-1.125,250.130,-54.435,77.244,39.0,96.0
274742,0.112,-0.830,1.148,-250.137,8.458,14.427,34.0,99.0
274823,-0.834,-0.568,1.124,250.130,-34.779,-85.710,39.0,122.0
274904,-0.243,1.135,0.105,-250.137,137.771,157.748,44.0,125.0
274982,0.513,-2.000,1.993,216.260,14.794,-107.588,36.0,100.0
275067,0.097,2.000,-0.433,-250.137,94.916,99.656,39.0,127.0
275146,0.533,-2.000,2.000,105.504,1.664,-97.649,35.0,102.0
275227,0.438,2.000,-0.748,-244.084,65.733,68.489,39.0,127.0
275306,0.374,-2.000,1.904,172.924,13.214,-92.313,36.0,100.0
275384,0.082,1.842,0.271,-250.137,81.786,44.847,37.0,71.0
275465,-0.521,-0.674,1.050,250.130,-19.221,-16.061,39.0,126.0
275546,-0.047,0.412,0.774,-117.244,9.000,-0.977,39.0,126.0
275627,-0.105,0.259,0.999,-5.664,2.702,-3.504,40.0,126.0
275710,-0.057,0.306,1.001,-5.534,2.397,2.611,38.0,126.0
275791,-0.084,0.378,0.934,1.359,0.527,3.176,38.0,126.0
275872,-0.099,0.508,0.860,-36.504,-2.176,-1.260,39.0,125.0
275951,-0.134,0.177,0.962,-117.160,-1.176,-9.328,36.0,101.0
276032,-0.093,-0.037,0.992,-146.603,-4.328,-29.061,35.0,128.0
276121,0.106,-0.327,1.021,-118.817,-0.053,-18.924,0.0,103.0
276211,-0.184,-0.162,0.986,-69.939,15.130,-1.824,0.0,130.0
276302,-0.175,-0.545,0.991,-96.733,31.198,13.779,0.0,131.0
276397,-0.194,-0.525,0.752,-108.405,46.908,33.260,0.0,0.0
276494,-0.296,-0.654,0.559,-86.504,22.397,14.336,0.0,0.0
276598,-0.323,-0.731,0.572,-16.824,4.374,-4.252,0.0,0.0
276691,-0.295,-0.786,0.585,-16.809,-2.008,-4.771,0.0,0.0
276786,-0.306,-0.747,0.583,-12.275,0.267,3.145,0.0,0.0
276879,-0.291,-0.711,0.539,-11.817,-1.847,2.679,0.0,0.0
276972,-0.286,-0.724,0.574,10.634,-1.656,-3.511,0.0,0.0
277066,-0.267,-0.781,0.613,2.580,-2.389,-2.153,0.0,0.0
277159,-0.267,-0.772,0.630,0.031,0.038,0.893,0.0,0.0
277253,-0.281,-0.737,0.633,-2.229,0.252,0.962,0.0,0.0
277349,-0.292,-0.751,0.609,0.557,0.824,-0.977,0.0,0.0
277443,-0.291,-0.736,0.594,-2.435,0.824,0.557,0.0,0.0
277536,-0.290,-0.716,0.586,3.069,2.321,1.847,0.0,0.0
277629,-0.288,-0.757,0.608,-1.008,2.115,1.756,0.0,0.0
277723,-0.281,-0.732,0.612,-3.466,1.954,1.695,0.0,0.0
277817,-0.292,-0.739,0.566,3.137,-0.015,-1.885,0.0,0.0
277910,-0.289,-0.774,0.606,6.061,-5.351,-5.603,0.0,0.0
278003,-0.281,-0.696,0.628,3.542,0.901,2.977,0.0,0.0
278097,-0.281,-0.746,0.603,4.313,0.779,-0.137,0.0,0.0
278202,-0.271,-0.752,0.625,2.534,-2.305,-3.153,0.0,0.0
278298,-0.282,-0.701,0.634,-0.969,0.206,-0.466,0.0,0.0
278394,-0.269,-0.736,0.615,1.786,1.107,0.618,0.0,0.0
278490,-0.263,-0.734,0.615,2.962,-2.916,-3.580,0.0,0.0
278586,-0.260,-0.710,0.654,2.290,-2.084,-2.260,0.0,0.0
278682,-0.267,-0.720,0.636,-2.687,0.908,0.481,0.0,0.0
278778,-0.272,-0.716,0.634,-1.405,0.443,-0.603,0.0,0.0
278875,-0.264,-0.728,0.635,2.763,-2.023,-1.962,0.0,0.0
278970,-0.274,-0.694,0.646,3.359,-0.328,-0.389,0.0,0.0
279069,-0.271,-0.718,0.643,-3.344,0.557,1.344,0.0,0.0
279165,-0.266,-0.693,0.642,-1.351,-1.832,-0.786,0.0,0.0
279262,-0.259,-0.680,0.625,4.992,-1.916,-1.198,0.0,0.0
279358,-0.246,-0.724,0.678,1.527,-1.107,-0.679,0.0,0.0
279454,-0.251,-0.692,0.676,-3.206,1.229,1.573,0.0,0.0
279549,-0.253,-0.690,0.659,2.290,0.344,-1.069,0.0,0.0
279646,-0.258,-0.725,0.669,0.901,0.328,0.267,0.0,0.0
279742,-0.255,-0.729,0.668,-6.435,0.107,2.359,0.0,0.0
279838,-0.253,-0.676,0.666,1.611,-0.267,-0.023,0.0,0.0
279934,-0.256,-0.686,0.659,2.344,-0.244,-0.832,0.0,0.0
280033,-0.256,-0.721,0.667,2.260,-0.443,-1.084,0.0,0.0
280129,-0.250,-0.675,0.666,-0.382,-0.740,-0.191,0.0,0.0
280225,-0.253,-0.705,0.673,5.099,0.977,0.099,0.0,0.0
280322,-0.257,-0.683,0.659,2.229,-0.908,-1.366,0.0,0.0
280418,-0.245,-0.688,0.694,17.603,-4.221,-6.420,0.0,0.0
280514,-0.236,-0.693,0.740,34.198,-4.305,-7.756,0.0,0.0
280606,-0.223,-0.549,0.782,39.237,-7.031,-9.710,0.0,134.0
280698,-0.186,-0.512,0.874,60.740,-4.298,-10.328,0.0,132.0
280792,-0.172,-0.375,0.915,32.550,-6.794,-8.634,0.0,130.0
280887,-0.177,-0.403,0.906,42.366,-4.893,-5.328,0.0,130.0
280978,-0.179,-0.227,0.913,63.359,-8.870,-3.710,0.0,105.0
281061,-0.155,-0.430,0.987,126.015,-12.359,-11.580,69.0,102.0
281142,-0.324,0.253,1.050,229.771,-2.374,8.817,38.0,99.0
281225,-0.084,0.378,0.942,-70.099,1.702,32.443,37.0,126.0
281307,0.280,-0.759,1.441,104.878,-8.702,-34.069,37.0,102.0
281389,0.081,1.083,0.365,96.565,-66.061,-65.206,56.0,100.0
281480,-0.849,0.772,0.806,182.328,-25.580,-42.634,0.0,93.0
281565,0.383,-0.832,1.005,-250.137,-5.115,12.595,58.0,95.0
281655,-0.710,0.720,0.368,250.130,-31.779,1.977,0.0,92.0
281737,-0.209,0.134,1.100,-250.137,17.168,51.244,47.0,98.0
281827,-0.627,-0.793,0.961,250.130,-44.008,-157.947,0.0,91.0
281917,-0.811,1.729,-0.371,-250.137,89.580,93.107,0.0,91.0
282007,0.317,-1.619,1.810,250.130,-30.244,-64.901,0.0,90.0
282097,-0.556,1.052,0.031,-250.137,63.763,36.321,0.0,90.0
282193,-0.514,-0.849,0.822,250.130,-42.718,-46.176,0.0,0.0
