Timestamp(ms),AccelX(g),AccelY(g),AccelZ(g),GyroX(deg/s),GyroY(deg/s),GyroZ(deg/s),DistanceLeft(cm),DistanceRight(cm)
104429,0.407,-0.479,0.760,-250.137,45.198,-20.618,0.0,99.0
104516,0.291,0.062,0.868,117.611,1.237,-1.496,0.0,97.0
104609,0.297,0.211,0.847,-32.947,31.947,-42.626,0.0,184.0
104702,0.187,0.271,0.800,-40.702,61.718,-44.076,0.0,196.0
104795,0.002,0.032,1.026,11.626,53.084,-50.733,0.0,178.0
104887,0.001,0.319,1.062,16.527,44.153,-56.023,0.0,173.0
104969,-0.063,0.324,1.038,31.130,37.214,-36.359,31.0,173.0
105056,-0.322,0.304,1.031,62.863,12.496,-11.901,33.0,0.0
105140,-0.055,0.459,0.879,-1.061,-1.473,-0.023,34.0,0.0
105224,-0.141,0.180,0.963,41.168,-11.649,5.344,35.0,0.0
105309,-0.036,0.508,0.999,66.366,-18.191,14.855,38.0,0.0
105402,-0.014,0.593,0.777,51.153,-9.725,1.618,0.0,0.0
105496,-0.053,0.533,0.855,15.214,-3.481,-1.053,0.0,0.0
105589,-0.019,0.583,0.835,27.672,-4.084,0.603,0.0,0.0
105683,-0.021,0.653,0.775,21.229,-4.122,-0.366,0.0,0.0
105777,-0.018,0.657,0.767,-0.092,-0.298,-0.977,0.0,0.0
105874,-0.031,0.623,0.799,0.313,-0.015,-0.389,0.0,0.0
105968,-0.020,0.645,0.777,1.817,-0.229,-0.244,0.0,0.0
106061,-0.022,0.641,0.786,-0.389,0.267,-0.282,0.0,0.0
106156,-0.023,0.644,0.780,0.008,0.206,-0.290,0.0,0.0
106249,-0.021,0.644,0.788,-0.214,0.198,-0.107,0.0,0.0
106343,-0.021,0.643,0.780,0.015,0.031,-0.046,0.0,0.0
106437,-0.021,0.644,0.778,-0.282,0.153,-0.069,0.0,0.0
106530,-0.016,0.648,0.790,-0.374,0.000,-0.252,0.0,0.0
106625,-0.020,0.643,0.783,0.206,0.244,-0.176,0.0,0.0
106718,-0.025,0.644,0.777,-0.107,0.160,0.076,0.0,0.0
106815,-0.022,0.644,0.781,-0.198,0.481,-0.053,0.0,0.0
106909,-0.024,0.637,0.787,-0.603,0.260,0.053,0.0,0.0
107003,-0.023,0.642,0.783,-0.130,0.366,-0.282,0.0,0.0
107097,-0.018,0.638,0.790,-0.176,0.344,0.206,0.0,0.0
107191,-0.022,0.650,0.781,-0.573,0.252,-0.145,0.0,0.0
107285,-0.022,0.643,0.783,-0.008,0.061,-0.023,0.0,0.0
107378,-0.023,0.644,0.780,-0.450,0.084,-0.107,0.0,0.0
107472,-0.019,0.642,0.775,0.038,0.069,-0.183,0.0,0.0
107567,-0.023,0.642,0.781,-0.221,0.092,-0.221,0.0,0.0
107664,-0.021,0.653,0.780,-0.321,0.229,-0.252,0.0,0.0
107758,-0.020,0.642,0.777,-0.046,0.122,-0.061,0.0,0.0
107852,-0.026,0.645,0.781,-0.229,0.221,-0.313,0.0,0.0
107945,-0.026,0.647,0.786,0.061,0.183,-0.183,0.0,0.0
108040,-0.022,0.645,0.778,-0.527,0.336,-0.321,0.0,0.0
108134,-0.027,0.647,0.784,-0.046,0.153,-0.023,0.0,0.0
108228,-0.021,0.645,0.777,-0.489,0.305,-0.069,0.0,0.0
108322,-0.018,0.648,0.781,-0.359,0.183,-0.198,0.0,0.0
108416,-0.025,0.648,0.781,-0.221,0.298,-0.229,0.0,0.0
108514,-0.024,0.641,0.781,-0.076,0.069,-0.168,0.0,0.0
108615,-0.021,0.641,0.786,-0.076,0.382,-0.115,0.0,0.0
108707,-0.022,0.645,0.781,-0.359,0.244,0.023,0.0,0.0
108801,-0.025,0.643,0.785,-0.542,0.336,-0.092,0.0,0.0
108893,-0.019,0.651,0.776,-0.443,0.260,-0.160,0.0,0.0
108986,-0.023,0.644,0.780,-0.321,0.191,-0.031,0.0,0.0
109079,-0.021,0.642,0.782,-0.504,0.405,-0.344,0.0,0.0
109172,-0.023,0.643,0.780,-0.191,0.015,-0.046,0.0,0.0
109264,-0.023,0.645,0.783,-0.427,0.229,-0.084,0.0,0.0
109358,-0.021,0.646,0.784,-0.252,0.313,0.031,0.0,0.0
109454,-0.019,0.648,0.782,-0.214,0.443,-0.221,0.0,0.0
109547,-0.023,0.637,0.779,0.603,0.130,-0.931,0.0,0.0
109639,-0.028,0.608,0.838,15.992,1.870,-9.427,0.0,0.0
109732,-0.060,0.625,0.832,53.534,-1.794,-2.573,0.0,0.0
109826,-0.134,0.592,0.775,104.924,-33.191,18.527,0.0,0.0
109919,0.140,1.329,0.278,129.710,-55.611,45.794,0.0,0.0
110012,0.226,0.167,0.689,-250.137,5.992,0.954,0.0,0.0
110105,0.353,1.208,0.271,218.664,-48.252,50.473,0.0,0.0
110198,0.177,-0.034,0.936,-172.649,-4.779,-15.015,0.0,0.0
110295,0.523,2.000,0.020,95.718,-17.038,37.466,0.0,0.0
110387,0.252,-0.589,1.282,52.588,-50.191,-28.832,0.0,0.0
110480,0.031,2.000,-0.420,-225.115,45.435,3.763,0.0,0.0
110573,0.053,-0.828,1.021,232.664,-50.626,5.985,0.0,0.0
110666,0.392,1.550,-0.033,-250.137,66.313,-12.481,0.0,0.0
110760,0.112,-0.157,0.495,250.130,-78.840,36.397,0.0,0.0
110854,0.322,0.498,0.337,-250.137,-8.298,-40.519,0.0,0.0
110947,0.934,1.359,0.045,250.130,-12.840,77.947,0.0,0.0
111040,0.424,-0.258,0.929,-209.924,-1.038,-42.443,0.0,0.0
111136,0.952,2.000,-0.065,53.061,32.809,22.473,0.0,0.0
111226,0.081,-1.333,1.393,-104.412,-17.473,-75.824,0.0,161.0
111321,0.673,2.000,-0.101,-86.244,66.260,23.878,0.0,0.0
111411,0.045,-1.630,1.521,113.573,-28.168,-54.702,0.0,158.0
111504,0.219,2.000,-0.096,-200.794,53.664,4.405,0.0,0.0
111595,0.063,-0.918,1.149,221.802,-41.695,-5.069,0.0,159.0
111686,0.323,1.354,0.245,-250.137,35.977,-0.893,0.0,161.0
111779,0.206,-0.498,0.926,250.130,-61.450,2.947,0.0,0.0
111874,0.421,0.700,0.480,-250.137,52.718,-32.466,0.0,161.0
111967,0.494,0.132,0.514,250.130,-55.260,47.832,0.0,0.0
112058,0.443,0.312,0.629,-250.137,34.672,-50.351,0.0,161.0
112151,0.722,1.161,0.127,250.130,-26.969,84.267,0.0,0.0
112242,0.392,-0.477,0.966,-248.748,-4.290,-61.504,0.0,160.0
112335,0.886,1.960,0.028,201.466,17.687,52.412,0.0,0.0
112427,0.111,-1.094,1.276,-121.076,-20.687,-96.084,0.0,162.0
112521,0.819,2.000,0.018,19.153,59.687,53.008,0.0,0.0
112612,0.167,-1.522,1.648,11.588,-41.511,-69.527,0.0,162.0
112706,0.359,2.000,-0.068,-166.053,66.389,4.534,0.0,161.0
112797,0.118,-0.896,1.251,229.969,-54.160,-20.000,0.0,160.0
112888,0.332,1.590,0.088,-211.611,28.412,-23.267,0.0,163.0
112982,0.535,0.505,0.296,250.130,-40.656,36.840,0.0,0.0
113073,0.379,0.207,0.319,-250.137,78.863,-40.527,0.0,160.0
113167,0.388,0.355,0.352,250.130,-66.382,56.893,0.0,0.0
113258,0.428,0.278,0.364,-250.137,54.496,-29.634,0.0,161.0
113351,0.395,0.078,0.497,250.130,-47.244,30.374,0.0,0.0
113445,0.456,0.599,0.319,-250.137,69.260,-65.115,0.0,0.0
113542,0.510,0.597,0.466,250.130,-25.557,31.031,0.0,0.0
113633,0.352,0.186,0.642,-250.137,51.832,-57.611,0.0,162.0
113726,0.683,0.875,0.260,250.130,-45.153,92.977,0.0,0.0
113818,0.408,-0.167,0.676,-250.137,47.748,-48.519,0.0,159.0
113911,0.856,1.142,-0.087,250.130,-56.466,97.237,0.0,0.0
114003,0.143,-1.333,1.127,-250.137,-0.672,-86.809,0.0,159.0
114098,1.088,2.000,-0.267,250.130,-16.733,66.000,0.0,0.0
114189,0.120,-2.000,1.691,-41.840,-26.779,-82.855,0.0,159.0
114281,0.805,2.000,-0.258,-150.534,70.710,9.351,0.0,160.0
114375,0.336,-0.998,1.093,250.130,-58.435,39.885,0.0,164.0
114469,0.357,0.554,0.348,-250.137,56.931,-51.107,0.0,0.0
114564,0.746,2.000,0.019,161.366,-25.641,26.458,0.0,0.0
114655,0.306,-1.180,1.427,201.534,-46.137,18.489,0.0,162.0
114749,0.701,1.687,0.048,-250.137,92.679,-15.443,0.0,0.0
114843,0.319,0.090,0.643,250.130,-71.847,48.779,0.0,0.0
114934,0.389,-0.067,0.710,-221.855,32.626,-31.771,0.0,159.0
115028,0.385,1.330,0.325,142.924,-38.198,-11.618,0.0,0.0
115126,0.258,-0.325,0.964,95.031,-32.000,-24.267,0.0,0.0
115219,1.121,2.000,-0.297,-172.916,81.282,-11.939,0.0,0.0
115313,0.171,-1.412,1.414,250.130,-57.359,25.351,0.0,0.0
115405,0.557,1.558,-0.072,-250.137,78.855,-24.580,0.0,160.0
115499,0.314,0.307,0.467,250.130,-86.107,39.290,0.0,0.0
115593,0.538,1.221,-0.097,-250.137,103.840,-13.832,0.0,0.0
115687,0.548,0.743,0.332,250.130,-64.870,41.786,0.0,0.0
115781,0.310,0.565,0.229,-250.137,67.893,-37.351,0.0,0.0
115875,0.506,1.169,0.211,192.382,-35.794,51.145,0.0,0.0
115970,0.316,-0.568,1.046,-250.137,75.824,-16.038,0.0,159.0
116064,0.396,1.071,-0.071,250.130,-69.099,32.939,0.0,0.0
116156,0.191,-1.403,1.241,-250.137,49.107,-70.092,0.0,158.0
116250,0.672,2.000,-0.352,250.130,-45.504,32.458,0.0,0.0
116341,0.213,-1.723,1.681,25.656,-19.420,-5.405,0.0,159.0
116435,0.614,2.000,-0.117,-244.656,39.351,-25.252,0.0,0.0
116530,0.415,0.200,0.668,245.008,-35.863,40.947,0.0,0.0
116622,0.295,-0.525,0.996,-230.000,29.931,-26.092,0.0,159.0
116713,0.421,0.962,0.484,167.275,-24.214,20.130,0.0,159.0
116808,0.371,0.124,0.846,-12.389,6.771,-12.076,0.0,159.0
116902,0.371,0.707,0.653,37.771,4.710,-21.336,0.0,0.0
116995,0.349,0.479,0.823,4.557,5.534,-13.389,0.0,163.0
117089,0.367,0.746,0.738,35.191,-4.176,8.992,0.0,0.0
117182,0.396,0.620,0.695,8.092,2.794,-0.115,0.0,0.0
117276,0.346,0.615,0.656,-6.168,13.626,-9.237,0.0,0.0
117370,0.423,0.770,0.624,-11.031,45.099,-29.969,0.0,0.0
117465,0.266,0.589,0.690,-18.817,76.084,-33.641,0.0,0.0
117559,0.001,0.691,0.896,-87.824,91.618,-71.122,0.0,0.0
117656,-0.068,0.057,0.806,18.885,-9.557,34.046,0.0,0.0
117750,-0.056,0.398,1.070,-13.947,4.092,-14.603,0.0,0.0
117844,-0.043,0.463,0.856,41.847,-4.427,-3.015,0.0,0.0
117939,-0.038,0.619,0.793,41.786,-7.664,0.939,0.0,0.0
118033,-0.019,0.685,0.768,16.107,-3.206,-0.267,0.0,0.0
118127,-0.022,0.644,0.783,-3.931,0.511,-0.664,0.0,0.0
118221,-0.028,0.641,0.790,2.351,-0.397,0.084,0.0,0.0
118316,-0.017,0.646,0.779,0.260,0.069,-0.145,0.0,0.0
118410,-0.018,0.637,0.781,0.015,0.153,-0.069,0.0,0.0
118507,-0.023,0.641,0.778,0.206,0.229,-0.336,0.0,0.0
118601,-0.024,0.648,0.778,0.000,0.168,-0.076,0.0,0.0
118695,-0.017,0.645,0.788,0.115,0.183,-0.084,0.0,0.0
118790,-0.019,0.643,0.781,-0.130,0.214,0.046,0.0,0.0
118884,-0.023,0.643,0.779,-0.107,0.328,-0.107,0.0,0.0
118978,-0.017,0.657,0.773,-0.321,0.244,0.000,0.0,0.0
119072,-0.029,0.641,0.780,-0.260,0.427,-0.405,0.0,0.0
119166,-0.013,0.647,0.776,-0.115,0.206,0.092,0.0,0.0
119261,-0.023,0.646,0.779,-0.107,0.145,-0.099,0.0,0.0
119355,-0.016,0.649,0.771,-0.260,0.099,0.099,0.0,0.0
119452,-0.020,0.641,0.787,-0.275,0.160,-0.099,0.0,0.0
119546,-0.027,0.652,0.786,0.099,-0.008,-0.069,0.0,0.0
119641,-0.021,0.646,0.777,-0.008,0.122,-0.031,0.0,0.0
119735,-0.023,0.654,0.775,-0.496,0.214,-0.214,0.0,0.0
119829,-0.026,0.648,0.781,-0.450,0.153,-0.260,0.0,0.0
119923,-0.021,0.644,0.783,-0.176,0.267,-0.198,0.0,0.0
120017,-0.020,0.645,0.779,-0.779,0.405,-0.344,0.0,0.0
120112,-0.012,0.652,0.771,-0.137,0.740,0.015,0.0,0.0
120207,-0.052,0.671,0.896,-5.427,-2.977,13.534,0.0,0.0
120304,-0.034,0.770,0.927,5.214,-46.740,58.794,0.0,0.0
120398,0.136,0.344,0.877,76.763,-97.832,66.725,0.0,0.0
120500,0.573,2.000,-0.118,-250.137,33.076,34.366,0.0,0.0
120591,0.215,-1.255,1.354,208.908,-40.931,3.267,0.0,165.0
120684,0.605,2.000,0.029,-248.916,34.412,-27.489,0.0,0.0
120777,0.298,-0.220,0.890,250.130,-60.336,32.710,0.0,200.0
120870,0.529,1.180,0.360,-214.603,35.962,-7.817,0.0,0.0
120964,0.362,0.272,0.657,250.130,-61.695,31.015,0.0,0.0
121055,0.438,0.801,0.293,-250.137,49.611,1.107,0.0,162.0
121151,0.536,0.501,0.211,250.130,-74.641,49.771,0.0,0.0
121244,0.484,0.173,0.417,-250.137,69.840,-29.573,0.0,0.0
121337,0.565,1.034,0.107,250.130,-61.687,55.771,0.0,0.0
121431,0.430,-0.136,0.720,-250.137,31.328,-17.473,0.0,0.0
121525,0.813,1.365,0.072,244.611,-36.244,35.603,0.0,0.0
121618,0.424,-0.506,0.820,-250.137,43.618,-54.328,0.0,200.0
121711,0.735,1.596,-0.073,250.130,-34.779,34.336,0.0,0.0
121803,0.419,-0.641,0.894,-244.397,31.588,-42.267,0.0,180.0
121896,0.426,1.173,-0.076,250.130,-64.267,30.870,0.0,0.0
121994,0.460,-0.498,0.809,-250.137,29.824,-46.672,0.0,200.0
122087,0.622,1.183,0.140,250.130,-36.122,36.527,0.0,0.0
122178,0.445,-0.113,0.635,-250.137,41.290,-42.603,0.0,161.0
122271,0.554,0.497,0.367,250.130,-45.626,54.954,0.0,0.0
122365,0.593,0.330,0.369,-250.137,61.580,-50.855,0.0,200.0
122459,0.510,0.089,0.509,250.130,-35.733,48.664,0.0,0.0
122552,0.551,0.626,0.208,-250.137,57.870,-63.237,0.0,0.0
122644,0.408,-0.130,0.689,250.130,-43.504,20.519,0.0,164.0
122739,0.463,0.819,0.039,-250.137,84.886,-54.321,0.0,177.0
122832,0.463,-0.424,0.588,250.130,-62.893,43.031,0.0,198.0
122924,0.502,0.454,0.116,-250.137,95.237,-78.893,0.0,159.0
123017,0.664,0.794,0.080,250.130,-43.809,97.893,0.0,199.0
123109,0.313,-1.460,1.355,-168.679,4.244,-47.198,0.0,161.0
123202,0.795,1.975,0.118,107.695,-1.947,11.779,0.0,199.0
123295,0.422,-0.374,1.035,250.130,-46.649,-13.305,0.0,0.0
123389,0.200,0.926,-0.016,-250.137,112.573,-41.565,0.0,199.0
123483,0.501,0.987,0.113,250.130,-95.832,79.550,0.0,0.0
123578,0.295,-0.371,0.612,-250.137,82.626,-40.763,0.0,163.0
123671,0.418,1.557,0.087,250.130,-41.069,24.244,0.0,0.0
123765,0.279,-0.666,1.180,-128.481,24.649,-21.901,0.0,200.0
123858,0.698,2.000,-0.075,139.183,-3.595,14.748,0.0,0.0
123953,0.109,-0.889,1.260,-140.534,17.832,2.107,0.0,200.0
124047,0.835,2.000,-0.124,100.992,6.473,53.626,0.0,0.0
124134,0.193,-1.048,1.385,-11.183,0.908,27.985,0.0,97.0
124228,0.649,1.403,-0.019,250.130,-13.802,13.725,0.0,0.0
124316,-0.048,0.623,0.223,-250.137,100.374,129.740,0.0,99.0
124408,0.647,-0.404,0.682,250.130,-73.931,123.977,0.0,124.0
124496,0.743,1.487,-0.313,-250.137,118.275,15.481,0.0,99.0
124576,0.096,-2.000,1.600,250.130,-101.305,-44.519,51.0,106.0
124666,1.783,2.000,-0.913,209.313,-3.260,118.275,0.0,135.0
124754,0.059,-2.000,1.810,-197.931,-12.588,-55.534,0.0,108.0
124847,1.752,2.000,-0.884,172.817,-7.840,58.107,0.0,160.0
124931,0.087,-2.000,1.957,-116.962,-16.122,-64.977,37.0,0.0
125023,1.719,2.000,-0.649,250.130,-41.603,48.267,0.0,160.0
125106,0.177,-2.000,1.950,33.626,-21.656,-31.008,51.0,109.0
125197,1.089,1.088,-0.055,250.130,-63.305,19.137,0.0,163.0
125289,0.742,1.441,-0.046,-250.137,48.122,33.664,0.0,161.0
125381,0.802,-0.183,0.918,-5.824,51.855,38.481,0.0,164.0
125474,0.968,0.074,0.656,250.130,-75.573,30.260,0.0,0.0
125563,0.413,-0.698,0.207,-250.137,123.511,-79.489,0.0,113.0
125658,0.688,-0.059,-0.004,250.130,-132.420,65.557,0.0,0.0
125747,0.288,-1.231,-0.350,-250.137,180.168,-107.176,0.0,114.0
125839,0.491,0.100,-0.277,250.130,-118.969,68.237,0.0,163.0
125931,0.152,-2.000,0.698,-250.137,69.252,-126.137,0.0,112.0
126022,0.995,1.444,-0.719,250.130,-55.023,122.840,0.0,161.0
126111,0.029,-2.000,1.773,-138.595,-6.580,-10.824,0.0,112.0
126203,1.573,2.000,-0.445,250.130,-20.305,93.573,0.0,160.0
126298,0.248,-0.941,1.158,-10.466,4.275,135.313,0.0,0.0
126391,0.664,0.825,0.554,93.053,-16.947,29.427,0.0,0.0
126476,1.452,-1.289,0.657,-103.641,33.916,96.626,47.0,0.0
126562,-0.240,0.932,0.129,-26.847,70.450,124.687,45.0,0.0
126649,0.424,-0.664,1.115,127.267,16.015,109.023,39.0,0.0
126734,0.468,-0.857,1.286,-147.763,-41.618,-49.832,37.0,0.0
126815,0.662,1.299,0.222,89.733,47.611,99.328,38.0,127.0
126899,0.262,-0.563,0.781,-48.183,80.947,121.870,33.0,0.0
126984,0.313,-1.961,1.073,-41.427,-98.855,-30.252,31.0,0.0
127073,0.928,0.955,-0.111,62.038,83.076,171.008,187.0,135.0
127158,-0.182,-1.917,1.372,-66.153,25.092,-91.519,30.0,0.0
127247,0.728,0.131,0.714,140.053,5.183,46.008,182.0,134.0
127336,0.034,-0.305,0.863,-38.824,7.863,74.092,184.0,137.0
127433,-0.335,-0.374,1.156,-22.656,-1.725,-134.435,185.0,0.0
127526,0.858,-0.786,0.844,-63.496,19.084,-2.489,185.0,0.0
127610,0.436,-0.185,0.913,57.374,-14.000,136.328,29.0,0.0
127695,-0.023,-1.214,1.212,-157.458,44.382,-213.557,29.0,0.0
127789,0.861,-0.303,0.292,48.344,19.168,102.298,185.0,0.0
127873,-0.760,-0.252,1.254,98.702,-30.466,117.947,30.0,0.0
127956,0.594,-1.265,0.754,-218.542,52.443,-177.443,27.0,0.0
128041,0.763,-0.152,0.313,103.496,-11.221,166.206,28.0,0.0
128129,-1.273,-1.114,1.297,49.122,6.969,-88.817,27.0,0.0
128214,1.223,-1.072,0.296,-114.443,14.832,-55.756,27.0,0.0
128297,0.247,0.676,1.229,209.542,-19.962,144.969,27.0,0.0
128382,0.156,-0.996,1.383,-173.122,34.275,-168.634,29.0,0.0
128476,0.949,-0.706,0.312,-18.626,-34.786,65.695,184.0,0.0
128560,-1.134,0.896,1.030,250.130,-24.000,178.802,28.0,0.0
128645,0.959,-1.776,0.731,-250.137,35.718,-178.679,29.0,0.0
128729,0.663,-0.114,0.306,132.244,-26.076,152.771,28.0,0.0
128814,-2.000,-1.511,1.682,111.084,20.053,-48.229,26.0,0.0
128901,1.465,-1.860,0.322,-250.137,18.511,-165.649,26.0,0.0
128986,0.530,1.131,0.594,250.130,-29.969,227.802,26.0,0.0
129080,0.605,-2.000,1.341,-250.137,69.542,-205.076,0.0,0.0
129173,0.744,0.238,-0.192,-157.168,-28.725,33.153,184.0,0.0
129267,-0.225,0.207,0.778,250.130,-1.137,168.420,0.0,0.0
129361,-0.083,-2.000,1.225,-241.473,47.237,-199.886,0.0,0.0
129456,0.978,0.104,0.025,-113.176,-29.855,19.786,0.0,0.0
129550,-0.200,0.398,0.952,250.130,-21.489,144.000,0.0,0.0
129638,0.164,-1.898,0.665,-197.855,41.427,-144.855,28.0,0.0
129722,0.569,-0.050,0.144,60.901,-1.740,107.954,24.0,0.0
129807,-0.655,-1.469,1.095,89.511,3.481,-69.176,27.0,0.0
129896,0.481,0.198,0.436,199.267,10.359,83.321,176.0,137.0
129985,-0.122,0.115,0.859,100.351,40.031,-74.069,180.0,135.0
130075,0.052,0.225,1.161,-14.160,-15.466,48.023,184.0,136.0
130168,0.059,-1.099,1.240,-12.466,-50.221,35.221,178.0,0.0
130257,-0.194,0.126,0.760,31.634,-9.511,-141.542,180.0,133.0
130348,0.229,-0.148,0.790,-82.023,91.336,115.687,178.0,138.0
130441,-0.306,-0.700,0.929,250.130,-26.969,-8.099,180.0,135.0
130530,-0.084,0.694,0.512,4.267,35.534,-64.053,184.0,129.0
130613,-0.226,0.114,1.458,-37.046,11.763,78.939,183.0,16.0
130703,-0.220,0.801,0.333,108.557,-82.183,-49.626,0.0,130.0
130793,-0.197,-0.096,1.393,-89.786,91.305,12.389,183.0,130.0
130882,-0.272,1.209,0.004,128.870,-101.069,-0.771,186.0,129.0
130972,-0.090,-0.006,1.491,-69.053,20.618,-26.122,185.0,129.0
131055,0.294,0.360,0.702,-93.802,60.588,96.359,183.0,10.0
131147,-0.891,-0.711,1.102,53.840,-97.779,-140.870,182.0,129.0
131237,0.798,-0.014,1.470,-155.954,88.481,-11.298,182.0,131.0
131319,-0.073,0.264,1.035,-4.191,64.634,113.748,180.0,7.0
131409,-1.220,-0.559,0.615,-8.000,-131.344,-142.725,180.0,132.0
131499,0.755,0.344,1.567,-198.405,88.771,-55.099,179.0,133.0
131589,0.773,0.865,0.411,220.863,13.878,136.397,180.0,132.0
131679,-1.557,-1.268,1.090,-23.130,-106.115,-116.863,180.0,133.0
131768,1.107,0.495,1.601,-250.137,85.489,-136.542,179.0,132.0
131861,0.589,2.000,-0.689,250.130,64.191,205.595,186.0,132.0
131958,-1.818,-0.970,1.004,198.740,-66.824,22.221,180.0,132.0
132046,1.311,-0.428,1.618,-250.137,35.023,-200.924,178.0,133.0
132135,0.472,2.000,-0.689,250.130,61.542,221.603,181.0,134.0
132224,-1.855,-2.000,1.683,-3.649,-41.634,-59.298,178.0,132.0
132312,1.409,0.593,1.431,-250.137,2.244,-126.969,178.0,134.0
132401,-0.143,0.989,-0.230,250.130,10.504,225.221,179.0,134.0
132489,-0.323,-2.000,1.645,-250.137,-0.397,-197.527,177.0,136.0
132581,0.948,1.884,0.746,-46.802,-6.061,11.557,179.0,133.0
132669,-1.049,0.372,0.192,250.130,26.176,224.832,178.0,133.0
132761,1.531,-2.000,1.355,-250.137,-15.840,-250.137,176.0,0.0
132843,0.343,2.000,0.176,250.130,67.206,192.580,178.0,17.0
132932,-1.715,-2.000,1.935,-125.817,-14.702,-171.038,177.0,140.0
133020,1.161,1.368,1.154,-235.069,-4.443,-28.053,175.0,136.0
133109,-0.652,0.264,0.507,250.130,-1.885,240.794,176.0,136.0
133197,0.611,-1.463,0.856,-250.137,3.160,-245.206,175.0,139.0
133286,0.958,1.178,0.600,81.145,3.885,89.038,174.0,138.0
133378,-2.000,-0.106,0.235,250.130,-31.389,156.710,176.0,138.0
133467,1.134,-1.622,1.018,-250.137,24.237,-239.527,174.0,142.0
133556,0.926,1.115,-0.092,250.130,-5.313,221.244,175.0,137.0
133648,-1.930,-2.000,1.798,-189.412,8.168,-147.374,176.0,0.0
133736,1.112,0.516,1.322,-220.695,0.084,-59.405,174.0,139.0
133825,-0.101,0.700,0.476,250.130,-6.321,246.733,175.0,138.0
133914,0.534,-1.972,0.969,-250.137,29.588,-250.137,175.0,140.0
134002,1.042,1.622,0.153,110.802,-3.450,119.496,175.0,137.0
134094,-2.000,-0.674,0.725,250.130,-19.252,167.046,177.0,136.0
134182,1.398,-1.390,1.006,-250.137,8.740,-250.137,176.0,137.0
134264,0.599,1.786,0.084,250.130,1.962,192.275,177.0,17.0
134353,-1.873,-2.000,1.950,-44.931,34.405,-139.473,178.0,135.0
134443,0.842,0.572,0.903,-250.137,2.954,-75.656,176.0,136.0
134531,-0.198,0.076,0.842,250.130,-12.542,183.802,178.0,134.0
134620,0.202,-0.608,1.011,-250.137,-20.580,-221.198,179.0,136.0
134709,-0.162,0.010,0.731,247.763,-56.053,-32.908,186.0,130.0
134805,0.258,0.075,0.892,-169.321,-68.137,-165.176,188.0,0.0
134891,0.543,-0.337,0.886,-55.931,-29.641,-184.847,58.0,0.0
134982,0.536,0.032,0.700,37.443,-2.107,-154.344,0.0,161.0
135070,0.448,0.211,0.670,-32.893,6.580,-152.664,0.0,99.0
135158,0.416,-0.001,0.887,-58.779,49.023,-143.313,0.0,93.0
135245,0.345,0.117,1.011,-25.641,56.038,-127.168,0.0,97.0
135324,0.146,0.026,1.096,-4.756,50.198,-124.061,30.0,103.0
135408,-0.017,0.199,1.079,44.450,37.115,-111.420,31.0,0.0
135491,-0.024,0.408,0.996,43.008,22.588,-96.832,36.0,166.0
135577,-0.015,0.296,1.064,12.427,25.962,-79.145,41.0,164.0
135670,-0.126,0.633,1.298,86.069,7.122,-63.053,0.0,0.0
135764,-0.008,0.427,0.651,-44.634,7.252,-7.695,0.0,0.0
135858,-0.120,0.074,0.988,41.107,-4.840,9.099,0.0,0.0
135952,-0.099,0.428,0.923,72.550,-13.893,6.191,0.0,0.0
136045,-0.007,0.633,0.770,90.496,-20.366,5.824,0.0,0.0
136139,-0.003,0.783,0.672,38.534,-8.603,2.611,0.0,0.0
136232,0.013,0.769,0.670,-7.679,1.695,-0.183,0.0,0.0
136326,-0.012,0.677,0.745,-6.992,1.504,-0.847,0.0,0.0
136423,-0.005,0.717,0.720,7.031,-1.420,0.443,0.0,0.0
136516,0.000,0.724,0.718,-1.130,0.275,-0.473,0.0,0.0
136610,-0.007,0.714,0.721,0.534,0.137,-0.053,0.0,0.0
136704,-0.005,0.712,0.716,-0.695,0.229,-0.405,0.0,0.0
136798,-0.003,0.716,0.711,-0.344,0.130,-0.275,0.0,0.0
136891,-0.008,0.715,0.716,-0.069,0.260,-0.061,0.0,0.0
136985,-0.008,0.721,0.715,-0.099,0.191,-0.092,0.0,0.0
137078,-0.002,0.719,0.715,-0.656,0.450,-0.168,0.0,0.0
137172,-0.007,0.716,0.720,-0.618,0.344,-0.229,0.0,0.0
137270,0.001,0.721,0.721,0.023,0.397,0.008,0.0,0.0
137363,-0.000,0.712,0.716,-0.176,0.191,-0.198,0.0,0.0
137457,-0.004,0.719,0.715,-0.794,0.290,-0.267,0.0,0.0
137550,-0.007,0.715,0.722,-0.038,0.191,-0.069,0.0,0.0
137645,-0.003,0.720,0.720,-0.321,0.435,-0.046,0.0,0.0
137738,0.109,0.810,0.715,-33.763,18.198,2.122,0.0,0.0
137832,-0.098,0.358,1.352,-91.496,-6.710,22.557,0.0,0.0
137926,-0.123,0.731,0.842,125.618,-96.679,16.954,0.0,0.0
138018,0.238,1.183,0.320,-250.137,18.702,31.985,0.0,163.0
138116,-0.063,-0.877,0.871,250.130,-131.107,-7.282,0.0,0.0
138207,0.203,1.385,-0.496,-250.137,73.672,-28.748,0.0,158.0
138301,0.072,0.439,-0.011,250.130,-103.183,67.702,0.0,0.0
138392,-0.161,-2.000,1.830,-250.137,-5.466,-74.878,0.0,158.0
138484,0.934,2.000,-0.474,-138.618,62.962,8.595,0.0,157.0
138575,0.247,-0.649,0.694,250.130,-88.099,40.076,0.0,158.0
138668,0.218,0.049,0.314,-250.137,82.817,-68.000,0.0,158.0
138760,1.247,2.000,-0.139,250.130,-24.985,43.023,0.0,159.0
138851,0.351,-1.699,1.706,190.763,-44.718,31.779,0.0,157.0
138946,0.136,0.460,0.401,-250.137,67.641,-67.565,0.0,157.0
139040,0.999,1.846,0.106,205.550,-37.374,26.221,0.0,0.0
139133,0.255,-1.183,1.459,121.198,-38.550,14.763,0.0,197.0
139227,0.287,1.370,0.078,-250.137,91.252,-30.779,0.0,175.0
139321,0.650,1.294,0.311,248.206,-45.695,27.969,0.0,0.0
139414,0.154,-1.188,1.489,-18.435,-5.397,-6.954,0.0,197.0
139508,0.747,2.000,-0.027,-214.145,100.527,1.618,0.0,0.0
139602,0.107,-0.675,1.109,250.130,-92.122,15.168,0.0,197.0
139695,0.257,0.441,0.344,-250.137,73.748,-60.206,0.0,160.0
139792,0.767,1.511,0.191,250.130,-51.878,21.618,0.0,0.0
139884,0.189,-1.753,1.681,-56.168,8.885,-29.695,0.0,155.0
139975,0.373,2.000,-0.221,-211.878,97.832,-21.740,0.0,157.0
140067,0.143,-0.024,0.742,250.130,-51.450,23.076,0.0,156.0
140158,0.154,-0.276,0.931,-250.137,48.145,-43.817,0.0,155.0
140253,0.472,1.349,0.319,220.809,-56.924,8.794,0.0,0.0
140347,0.114,-0.968,1.462,50.954,-11.718,-11.069,0.0,0.0
140441,0.938,2.000,0.058,1.840,39.870,41.573,0.0,0.0
140538,0.082,-0.905,1.292,250.130,-60.557,7.328,0.0,0.0
140633,0.405,2.000,-0.298,-250.137,118.924,1.802,0.0,0.0
140727,0.016,-0.604,0.923,250.130,-108.107,23.260,0.0,0.0
140819,0.349,1.261,-0.312,-250.137,118.374,-62.405,0.0,157.0
140913,0.358,0.539,0.009,250.130,-109.656,55.618,0.0,0.0
141005,0.164,-1.588,1.092,-250.137,58.847,-69.718,0.0,155.0
141100,0.963,2.000,-0.104,126.374,12.122,33.405,0.0,0.0
141191,-0.161,-2.000,1.843,250.130,-85.214,-6.031,0.0,155.0
141283,0.293,2.000,-0.486,-250.137,94.458,-52.748,0.0,155.0
141378,0.386,0.690,0.222,250.130,-65.282,41.489,0.0,156.0
141470,-0.021,-1.657,1.328,-250.137,43.237,-63.458,0.0,154.0
141562,0.987,2.000,0.021,137.763,9.687,41.893,0.0,156.0
141654,0.293,-1.119,1.510,250.130,-44.679,3.359,0.0,155.0
141746,0.354,2.000,-0.676,-250.137,119.351,-2.450,0.0,158.0
141841,0.050,-0.310,0.490,250.130,-88.939,72.618,0.0,0.0
141933,0.277,0.342,-0.033,-250.137,122.588,-66.809,0.0,162.0
142027,0.410,1.394,-0.205,250.130,-100.916,60.519,0.0,0.0
142119,0.052,-2.000,1.785,-250.137,20.122,-63.046,0.0,157.0
142209,1.090,2.000,-0.205,36.328,27.878,27.290,0.0,159.0
142301,0.302,-1.476,1.664,250.130,-62.420,-23.260,0.0,157.0
142393,0.318,2.000,-0.834,-250.137,132.947,-27.656,0.0,157.0
142487,-0.027,-0.238,0.275,250.130,-70.641,40.916,0.0,0.0
142579,0.377,-0.609,0.438,-250.137,59.687,-90.435,0.0,157.0
142673,0.462,1.833,-0.150,250.130,-31.160,49.565,0.0,0.0
142766,0.117,-1.715,1.698,-166.924,18.473,-44.321,0.0,155.0
142860,0.324,1.530,0.391,-22.046,-6.962,-13.282,0.0,0.0
142958,0.226,0.106,0.819,23.527,19.023,-24.649,0.0,0.0
143052,0.214,0.587,0.678,-31.382,40.107,-38.817,0.0,0.0
143147,0.109,0.617,0.831,19.466,44.718,-39.496,0.0,0.0
143241,-0.170,1.035,1.253,-0.672,35.771,-49.183,0.0,0.0
143336,0.009,0.339,0.621,24.321,-0.466,3.847,0.0,0.0
143430,-0.161,1.125,1.188,-48.885,2.305,-5.550,0.0,0.0
143524,-0.044,0.669,0.721,62.809,-5.847,10.298,0.0,0.0
143626,0.044,0.644,0.711,42.908,-6.473,7.023,0.0,0.0
143719,-0.001,0.704,0.744,-0.351,-1.366,-0.504,0.0,0.0
143814,-0.014,0.689,0.740,9.656,-2.359,2.466,0.0,0.0
143907,-0.005,0.734,0.711,6.145,-1.435,1.282,0.0,0.0
144002,0.004,0.733,0.713,-6.481,0.366,-1.160,0.0,0.0
144095,-0.006,0.701,0.734,-1.115,0.038,0.336,0.0,0.0
144188,-0.006,0.707,0.733,0.710,-0.863,1.382,0.0,0.0
144281,-0.085,0.784,0.846,20.214,-34.420,15.832,0.0,0.0
144374,-0.017,1.087,0.780,10.992,-96.977,61.427,0.0,0.0
144467,0.128,0.766,0.689,-21.939,-145.481,84.176,0.0,0.0
144559,0.464,0.609,0.420,-55.832,-147.115,98.824,0.0,156.0
144655,0.725,0.377,0.256,-44.053,-117.336,84.267,0.0,0.0
144748,0.908,0.311,0.131,-11.763,-91.038,51.939,0.0,0.0
144841,0.987,0.173,0.111,-4.069,-62.687,31.489,0.0,0.0
144935,0.987,0.182,0.071,-8.473,-33.733,16.870,0.0,0.0
145029,0.995,0.191,0.027,-4.908,-19.733,9.244,0.0,0.0
145122,0.997,0.220,0.021,-2.542,-9.550,3.244,0.0,0.0
145215,0.995,0.257,0.031,0.824,-3.466,-0.817,0.0,0.0
145308,0.991,0.241,0.041,3.748,-3.282,0.519,0.0,0.0
145401,0.986,0.199,0.043,0.817,-2.656,1.664,0.0,0.0
145496,0.994,0.224,0.019,-1.878,-1.641,0.298,0.0,0.0
145592,0.983,0.240,0.021,3.450,-1.389,-0.611,0.0,0.0
145685,0.984,0.228,0.023,6.588,-2.092,0.107,0.0,0.0
145778,0.980,0.193,0.031,3.702,-2.679,0.321,0.0,0.0
145871,0.986,0.218,0.003,-2.420,-2.038,-0.794,0.0,0.0
145965,0.987,0.221,-0.000,2.260,0.374,-1.389,0.0,0.0
146059,0.980,0.220,0.016,0.931,0.481,-0.878,0.0,0.0
146152,0.989,0.245,0.015,3.405,-0.779,0.137,0.0,0.0
146245,0.987,0.240,-0.004,8.069,-2.237,1.954,0.0,0.0
146338,0.994,0.236,-0.018,4.000,-0.687,0.405,0.0,0.0
146435,0.992,0.231,-0.010,0.542,1.298,-1.176,0.0,0.0
146529,0.987,0.255,-0.014,2.893,1.748,-0.137,0.0,0.0
146622,0.984,0.206,0.011,5.885,-0.153,1.916,0.0,0.0
146715,0.992,0.205,-0.002,-2.061,-0.443,0.885,0.0,0.0
146809,0.995,0.220,-0.010,2.107,0.382,-0.382,0.0,0.0
146903,0.995,0.222,-0.009,2.099,1.550,-0.168,0.0,0.0
146996,0.990,0.199,0.010,9.473,1.786,1.344,0.0,0.0
147089,0.999,0.213,-0.015,-2.832,4.244,-1.832,0.0,0.0
147183,1.016,0.244,-0.029,7.847,8.412,-2.740,0.0,0.0
147276,1.010,0.136,-0.020,4.527,26.221,-10.427,0.0,0.0
147374,1.010,0.174,-0.019,8.649,54.412,-30.053,0.0,0.0
147467,0.942,0.198,0.061,29.000,86.099,-55.565,0.0,0.0
147560,0.797,0.286,0.181,22.763,119.786,-94.260,0.0,0.0
147654,0.532,0.646,0.421,-5.939,130.740,-115.382,0.0,0.0
147748,0.348,0.847,0.647,-20.336,115.618,-65.878,0.0,0.0
147842,0.260,0.771,0.725,-88.573,110.206,-32.779,0.0,0.0
147936,0.035,0.227,1.053,-64.435,82.595,-33.374,0.0,0.0
148029,-0.091,0.281,1.160,-32.008,49.298,-28.481,0.0,0.0
148119,-0.120,0.279,1.031,-9.573,30.611,-12.924,141.0,0.0
148216,-0.133,0.356,0.871,-111.282,23.817,-20.763,0.0,0.0
148311,-0.191,0.020,0.967,-89.092,9.366,-18.710,0.0,0.0
148404,-0.267,-0.054,0.983,-39.160,-1.115,-13.954,0.0,0.0
148498,-0.074,0.454,1.168,102.122,-19.817,23.191,0.0,0.0
148589,-0.088,0.017,1.039,-67.656,5.695,0.718,0.0,154.0
148680,-0.158,-0.115,1.033,2.573,0.725,-1.053,0.0,154.0
148774,-0.087,0.088,1.004,15.595,-1.870,1.344,0.0,0.0
148857,-0.105,-0.001,1.015,-3.634,0.702,-0.489,58.0,155.0
148940,-0.115,0.027,1.007,4.420,-0.840,0.344,58.0,155.0
149029,-0.123,0.040,1.019,-1.855,-0.611,1.389,57.0,0.0
149112,-0.102,0.057,1.009,1.458,-1.221,-0.359,57.0,154.0
149206,-0.132,0.076,0.998,2.198,-3.214,-4.374,0.0,0.0
149300,-0.090,0.046,0.996,17.099,-3.710,3.237,0.0,0.0
149394,-0.095,-0.049,1.025,10.916,-2.191,-2.137,0.0,0.0
149487,-0.088,0.112,1.000,11.725,-0.038,1.321,0.0,0.0
149573,-0.095,0.032,1.039,26.489,-3.527,1.366,58.0,0.0
149661,-0.079,-0.033,1.032,122.336,-7.511,-1.160,145.0,155.0
149752,-0.072,0.249,1.016,29.725,-0.160,-8.031,145.0,0.0
149847,-0.064,0.419,0.906,53.260,-2.916,-1.725,148.0,0.0
149941,-0.061,0.441,0.904,57.359,-8.076,-1.023,0.0,0.0
150035,-0.077,0.568,0.837,64.710,-10.611,0.824,0.0,0.0
150128,-0.025,0.592,0.789,71.298,-14.916,0.282,0.0,0.0
150222,-0.033,0.670,0.779,91.282,-18.229,4.061,0.0,0.0
150317,0.017,0.838,0.525,127.550,-28.206,25.542,0.0,0.0
150411,0.157,0.926,0.322,97.931,-17.130,10.305,0.0,0.0
150504,0.080,0.971,0.237,47.496,-10.191,-3.435,0.0,0.0
150598,0.136,0.999,0.147,12.198,-2.344,0.359,0.0,0.0
150695,0.091,0.990,0.212,-15.145,2.489,-4.443,0.0,0.0
150790,0.078,0.981,0.242,-12.351,1.893,-1.405,0.0,0.0
150884,0.088,0.988,0.239,-20.916,4.084,-3.046,0.0,0.0
150978,0.064,0.971,0.308,-27.916,5.397,-3.786,0.0,0.0
151071,0.052,0.932,0.376,-15.351,3.305,-2.084,0.0,0.0
151165,0.057,0.942,0.358,3.519,-0.290,0.031,0.0,0.0
151260,0.072,0.956,0.336,-5.183,0.962,-0.389,0.0,0.0
151354,0.060,0.944,0.359,-3.420,0.672,-0.359,0.0,0.0
151448,0.065,0.944,0.362,-1.603,0.573,-0.206,0.0,0.0
151545,0.063,0.947,0.355,-2.214,0.649,-0.466,0.0,0.0
151639,0.063,0.941,0.358,-0.977,0.260,-0.176,0.0,0.0
151733,0.066,0.940,0.367,-1.908,0.458,-0.282,0.0,0.0
151827,0.062,0.945,0.361,-1.511,0.504,-0.092,0.0,0.0
151921,0.068,0.946,0.371,-1.336,0.542,-0.282,0.0,0.0
152014,0.065,0.939,0.370,-0.924,0.412,-0.321,0.0,0.0
152109,0.063,0.941,0.364,-1.282,0.473,-0.023,0.0,0.0
152203,0.063,0.943,0.364,-1.183,0.412,-0.359,0.0,0.0
152297,0.063,0.940,0.380,-1.527,0.679,-0.038,0.0,0.0
152391,0.067,0.941,0.364,-0.962,0.420,-0.214,0.0,0.0
152482,0.058,0.943,0.377,-0.901,0.397,-0.214,0.0,0.0
152577,0.070,0.943,0.382,-0.695,0.267,-0.153,0.0,0.0
152671,0.064,0.938,0.375,-0.450,0.298,-0.046,0.0,0.0
152765,0.060,0.935,0.380,-0.786,0.466,-0.015,0.0,0.0
152859,0.061,0.940,0.376,-0.863,0.427,-0.076,0.0,0.0
152953,0.061,0.937,0.375,-0.695,0.427,-0.305,0.0,0.0
153048,0.059,0.941,0.376,-1.046,0.466,0.000,0.0,0.0
153142,0.067,0.940,0.373,-0.321,0.305,-0.076,0.0,0.0
153236,0.054,0.938,0.377,-0.756,0.275,0.000,0.0,0.0
153333,0.065,0.941,0.377,-1.603,0.481,-0.443,0.0,0.0
153427,0.055,0.943,0.380,-0.756,0.435,-0.076,0.0,0.0
153522,0.059,0.933,0.378,-1.153,0.290,-0.130,0.0,0.0
153616,0.061,0.941,0.379,-0.832,0.351,-0.321,0.0,0.0
153710,0.060,0.938,0.390,-2.328,0.511,-0.359,0.0,0.0
153804,0.058,0.928,0.385,-1.336,0.305,-0.168,0.0,0.0
153899,0.058,0.938,0.388,-1.107,0.374,-0.321,0.0,0.0
153993,0.057,0.934,0.387,-1.122,0.290,-0.313,0.0,0.0
154087,0.056,0.936,0.388,-0.427,0.298,-0.298,0.0,0.0
154181,0.057,0.936,0.391,-0.977,0.366,-0.145,0.0,0.0
154273,0.059,0.937,0.386,-0.672,0.397,-0.260,0.0,0.0
154368,0.058,0.932,0.394,-0.786,0.229,-0.290,0.0,0.0
154462,0.052,0.935,0.391,-0.534,0.328,-0.237,0.0,0.0
154556,0.055,0.931,0.391,-0.397,0.275,-0.168,0.0,0.0
154650,0.053,0.932,0.393,-0.847,0.374,-0.115,0.0,0.0
154744,0.054,0.934,0.388,-0.511,0.252,-0.336,0.0,0.0
154839,0.057,0.931,0.395,-0.802,0.427,-0.275,0.0,0.0
154933,0.053,0.937,0.400,-1.260,0.618,-0.206,0.0,0.0
155027,0.055,0.933,0.398,-2.595,1.069,-0.160,0.0,0.0
155125,0.051,0.922,0.406,-1.122,0.366,-0.031,0.0,0.0
155219,0.055,0.934,0.399,0.443,0.000,0.176,0.0,0.0
155314,0.053,0.937,0.396,0.023,0.191,0.069,0.0,0.0
155408,0.049,0.930,0.402,0.008,0.290,-0.046,0.0,0.0
155509,0.057,0.930,0.395,-0.626,0.359,-0.321,0.0,0.0
155602,0.055,0.935,0.398,-0.420,0.420,-0.275,0.0,0.0
155696,0.054,0.930,0.400,-0.870,0.473,-0.198,0.0,0.0
155789,0.054,0.932,0.399,-0.832,0.313,-0.305,0.0,0.0
155882,0.059,0.928,0.397,-0.519,0.221,-0.176,0.0,0.0
155975,0.056,0.927,0.396,-1.534,0.443,-0.328,0.0,0.0
156071,0.055,0.930,0.404,-0.611,0.252,-0.137,0.0,0.0
156165,0.053,0.924,0.411,-1.756,0.466,-0.489,0.0,0.0
156258,0.052,0.927,0.400,-1.550,0.344,-0.191,0.0,0.0
156351,0.055,0.928,0.402,-2.565,0.595,-0.359,0.0,0.0
156444,0.056,0.922,0.406,-1.702,0.427,-0.092,0.0,0.0
156537,0.058,0.921,0.418,-1.733,0.420,-0.290,0.0,0.0
156631,0.050,0.927,0.423,-2.069,0.458,-0.336,0.0,0.0
156724,0.044,0.919,0.424,-1.176,0.458,-0.275,0.0,0.0
156817,0.054,0.923,0.414,-0.756,0.237,-0.046,0.0,0.0
156922,0.052,0.922,0.420,-1.031,0.137,-0.473,0.0,0.0
157018,0.060,0.920,0.419,-0.924,0.389,0.069,0.0,0.0
157114,0.040,0.911,0.446,2.664,0.069,1.565,0.0,0.0
157209,0.012,0.882,0.491,54.855,-9.031,21.351,0.0,0.0
157305,0.101,1.104,0.353,-27.679,-19.122,61.023,0.0,0.0
157401,0.136,0.952,0.461,-80.634,-44.588,83.473,0.0,0.0
157497,0.275,0.739,0.530,-72.221,-82.176,99.740,0.0,0.0
157592,0.539,0.625,0.412,-111.023,-101.550,89.145,0.0,0.0
157688,0.745,0.304,0.395,-96.229,-112.985,51.695,0.0,0.0
157785,0.866,0.301,0.230,-42.107,-94.718,43.863,0.0,148.0
157878,0.968,0.194,0.127,-22.214,-74.015,33.908,0.0,149.0
157971,0.984,0.114,0.095,-9.649,-57.321,16.870,0.0,151.0
158065,0.986,0.156,0.002,-14.924,-44.565,13.366,0.0,177.0
158161,1.011,0.150,-0.071,-8.244,-33.550,16.771,0.0,0.0
158257,1.024,0.096,-0.097,-1.855,-14.908,9.214,0.0,181.0
158353,1.018,0.088,-0.083,-3.779,-0.092,0.382,0.0,0.0
158448,0.999,0.136,-0.056,2.435,2.786,-0.718,0.0,0.0
158544,1.008,0.116,-0.037,10.168,0.695,1.954,0.0,0.0
158644,0.999,0.100,-0.042,5.771,-2.771,1.115,0.0,0.0
158739,1.005,0.100,-0.062,-3.466,-2.473,-2.244,0.0,0.0
158835,1.000,0.135,-0.083,0.481,-1.916,-1.099,0.0,0.0
158931,0.994,0.119,-0.077,1.977,-0.275,0.137,0.0,0.0
159027,1.001,0.102,-0.051,-0.725,1.328,-0.237,0.0,0.0
159123,1.000,0.134,-0.072,0.595,1.130,0.962,0.0,0.0
159219,1.002,0.101,-0.072,4.168,0.817,0.687,0.0,0.0
159315,1.004,0.103,-0.064,0.771,2.252,-0.878,0.0,0.0
159411,0.995,0.126,-0.067,-5.298,1.275,-1.252,0.0,0.0
159507,1.007,0.154,-0.096,0.427,0.779,0.870,0.0,0.0
159605,1.008,0.121,-0.076,4.542,2.374,0.649,0.0,179.0
159699,1.001,0.113,-0.068,-1.611,3.313,-0.527,0.0,179.0
159795,0.999,0.110,-0.053,-0.359,3.374,-0.313,0.0,179.0
159890,0.999,0.128,-0.057,-1.878,1.733,-0.130,0.0,179.0
159984,1.004,0.127,-0.058,1.756,-0.122,0.122,0.0,179.0
