Timestamp(ms),AccelX(g),AccelY(g),AccelZ(g),GyroX(deg/s),GyroY(deg/s),GyroZ(deg/s),DistanceLeft(cm),DistanceRight(cm)
288477,-0.056,2.000,-0.004,-75.076,10.672,33.374,44.0,93.0
288556,0.327,-1.895,1.549,-16.275,10.107,-11.802,43.0,96.0
288634,-0.502,1.948,0.081,129.069,-15.427,16.260,46.0,93.0
288713,0.180,-1.046,1.240,-204.595,-0.725,-5.786,58.0,97.0
288792,-0.475,0.504,0.653,250.130,-15.756,4.359,44.0,94.0
288871,-0.163,0.155,0.776,-250.137,9.916,-4.267,42.0,95.0
288949,-0.143,-0.561,1.170,250.130,-8.092,-25.672,42.0,94.0
289031,-0.165,1.379,0.131,-250.137,50.374,49.603,42.0,95.0
289110,0.805,-2.000,1.742,168.267,16.076,-33.168,41.0,96.0
289188,-0.238,2.000,-0.145,-119.282,17.580,-6.740,44.0,93.0
289267,0.847,-2.000,1.165,-155.786,-8.092,20.015,40.0,98.0
289346,-1.406,2.000,-1.129,250.130,-37.420,61.183,46.0,94.0
289425,-0.132,-2.000,1.114,-250.137,-15.466,16.252,43.0,98.0
289505,-0.149,-1.093,1.200,250.130,1.557,-82.496,45.0,96.0
289584,-0.166,1.405,0.215,-250.137,68.863,58.435,43.0,97.0
289662,0.043,-1.767,1.330,250.130,16.664,-58.221,43.0,96.0
289744,-0.228,1.192,0.263,-250.137,45.290,26.053,43.0,97.0
289825,0.066,-1.169,1.285,250.130,10.366,-28.634,41.0,119.0
289904,-0.071,2.000,0.265,-221.603,22.756,34.618,43.0,95.0
289984,0.421,-1.771,1.458,26.443,10.695,-10.878,52.0,101.0
290063,-0.560,2.000,-0.543,71.244,-7.947,38.244,45.0,94.0
290142,0.629,-2.000,1.332,-202.878,3.366,13.092,39.0,97.0
290222,-1.007,1.551,-0.167,250.130,-34.366,-5.328,45.0,95.0
290300,-0.060,-0.987,1.047,-250.137,-2.069,-33.397,42.0,98.0
290384,-0.302,-0.336,0.976,250.130,-2.771,-10.931,42.0,120.0
290463,-0.008,0.966,0.687,-5.580,-6.122,-11.130,44.0,95.0
290543,-0.085,-0.205,1.197,-9.634,-11.176,-57.519,43.0,99.0
290622,-0.418,0.459,0.950,-93.718,-15.145,-74.382,45.0,95.0
290701,-0.191,0.783,0.861,-152.809,20.626,-16.336,42.0,93.0
290790,-0.159,-0.371,0.974,-250.137,27.954,13.282,0.0,100.0
290878,-0.201,-0.604,0.800,-147.244,27.221,16.733,0.0,102.0
290972,-0.248,-0.723,0.743,-115.542,14.664,12.038,0.0,0.0
291069,-0.284,-0.650,0.623,-44.786,7.359,6.573,0.0,0.0
291164,-0.283,-0.771,0.640,-38.771,0.275,5.481,0.0,0.0
291258,-0.286,-0.783,0.551,-49.595,-0.504,6.389,0.0,0.0
291352,-0.311,-0.826,0.484,-14.863,-1.206,-0.847,0.0,0.0
291446,-0.309,-0.800,0.516,-2.351,-1.573,-0.084,0.0,0.0
291540,-0.309,-0.802,0.467,-13.198,-0.427,3.221,0.0,0.0
291635,-0.309,-0.799,0.455,-3.832,1.061,1.275,0.0,0.0
291728,-0.312,-0.805,0.479,1.229,-0.580,-1.695,0.0,0.0
291822,-0.297,-0.802,0.478,-5.504,0.954,-0.221,0.0,0.0
291916,-0.323,-0.820,0.456,-2.565,1.580,0.206,0.0,0.0
292014,-0.311,-0.796,0.466,0.092,-0.466,-1.687,0.0,0.0
292108,-0.294,-0.816,0.475,4.206,-0.664,-2.031,0.0,0.0
292202,-0.295,-0.807,0.487,4.656,-2.290,-3.389,0.0,0.0
292296,-0.298,-0.785,0.509,11.275,-1.740,-4.672,0.0,0.0
292390,-0.279,-0.825,0.505,37.008,-2.992,-10.573,0.0,0.0
292485,-0.249,-0.912,0.546,150.779,1.718,-26.786,0.0,0.0
292573,-0.200,-0.740,0.621,250.130,16.130,-14.885,0.0,99.0
292663,-0.466,0.428,0.588,250.130,-23.969,16.664,0.0,116.0
292755,-0.296,0.330,1.084,85.244,-18.595,-1.840,0.0,115.0
292843,-0.106,0.248,0.967,16.641,5.305,-46.947,0.0,91.0
292931,-0.337,0.030,0.810,-44.969,-19.786,-100.160,0.0,90.0
293022,-0.224,0.439,0.791,57.229,-44.626,-93.450,0.0,129.0
293108,-0.491,0.245,0.938,121.443,-35.015,-94.069,135.0,124.0
293194,-0.235,0.490,0.878,5.397,-46.160,-100.328,138.0,122.0
293285,-0.406,0.486,0.858,45.313,-32.336,-35.244,140.0,0.0
293372,-0.184,0.336,0.971,-91.603,-3.573,-16.298,140.0,126.0
293459,-0.233,0.187,0.937,-35.374,-5.366,-13.916,139.0,126.0
293550,-0.163,0.172,0.979,-25.237,-2.855,-9.931,139.0,126.0
293637,-0.142,0.182,0.966,-76.863,0.855,-30.656,139.0,125.0
293723,-0.178,-0.123,0.994,-131.382,-1.366,-41.718,138.0,125.0
293810,-0.215,-0.481,0.906,-108.015,-2.695,-22.931,136.0,128.0
293903,-0.112,-0.434,0.895,-8.565,-0.351,-7.076,136.0,129.0
293989,-0.125,-0.372,0.904,17.863,2.038,-3.023,136.0,129.0
294074,-0.144,-0.360,0.917,19.771,1.481,-1.718,136.0,128.0
294160,-0.144,-0.307,0.930,2.061,0.267,1.595,136.0,128.0
294248,-0.152,-0.318,0.946,1.824,0.473,1.496,136.0,127.0
294334,-0.144,-0.342,0.943,3.481,-0.115,2.359,136.0,128.0
294419,-0.144,-0.292,0.940,9.710,0.244,1.992,137.0,128.0
294505,-0.147,-0.363,0.948,3.298,-0.206,3.038,136.0,128.0
294590,-0.150,-0.271,0.951,10.359,0.344,2.130,136.0,127.0
294675,-0.152,-0.311,0.959,8.298,0.962,2.046,136.0,127.0
294761,-0.145,-0.242,0.948,5.756,1.046,0.176,137.0,126.0
294846,-0.141,-0.274,0.960,5.107,0.366,-1.107,137.0,127.0
294932,-0.152,-0.233,0.953,-5.130,0.374,-2.061,137.0,126.0
295020,-0.164,-0.327,0.960,9.321,0.405,0.511,136.0,127.0
295105,-0.169,-0.309,0.987,14.534,1.252,-1.870,137.0,126.0
295191,-0.127,-0.160,0.964,26.672,2.084,0.901,137.0,126.0
295276,-0.171,-0.291,0.990,40.099,1.710,6.137,138.0,125.0
295362,-0.359,-0.419,1.053,140.664,19.061,52.427,139.0,124.0
295448,-0.503,0.244,0.799,37.008,66.779,108.153,141.0,123.0
295533,0.543,0.012,0.845,-31.626,10.565,16.748,144.0,122.0
295619,-0.516,0.935,0.825,197.000,-83.481,-117.145,147.0,117.0
295705,-0.473,-0.733,1.314,-250.137,76.466,21.855,145.0,119.0
295794,-0.253,0.048,0.341,80.046,-39.687,-41.992,145.0,119.0
295879,-0.437,-0.223,0.950,-91.786,50.191,85.229,146.0,118.0
295965,-0.046,0.227,0.671,206.534,-44.779,-6.733,148.0,117.0
296051,-0.475,-0.116,0.856,-231.191,75.664,35.740,147.0,117.0
296137,-0.301,-0.605,0.887,188.924,-53.015,-24.321,148.0,116.0
296223,-0.428,0.582,0.735,-229.183,88.374,16.397,148.0,118.0
296309,0.033,-0.954,1.011,138.573,-58.641,-61.679,148.0,116.0
296395,-0.521,1.381,0.549,-250.137,99.382,14.107,149.0,118.0
296484,-0.105,-1.116,1.162,250.130,-85.206,-71.740,148.0,117.0
296570,-0.992,0.016,0.235,-250.137,130.397,41.824,147.0,119.0
296656,0.212,-1.103,0.977,250.130,-72.092,-89.779,148.0,119.0
296747,-0.976,0.635,0.177,-250.137,117.359,115.580,147.0,0.0
296833,-0.757,-1.217,0.532,250.130,-78.710,-83.756,146.0,123.0
296923,0.208,-0.183,-0.267,-250.137,84.130,101.321,0.0,122.0
297016,-1.046,2.000,-0.028,250.130,7.420,93.962,0.0,0.0
297102,-0.699,-2.000,2.000,172.427,-3.290,-103.176,143.0,122.0
297191,-0.125,0.790,0.220,-180.160,33.580,-83.695,144.0,123.0
297277,-0.810,-0.130,1.095,24.038,41.053,-237.053,140.0,122.0
297364,-0.252,-0.904,0.594,-145.313,-13.053,-98.389,142.0,127.0
297455,-0.754,-0.053,0.963,-18.824,-38.832,-143.305,146.0,0.0
297546,-0.434,0.173,1.606,215.267,54.481,55.115,149.0,0.0
297632,-0.047,-0.002,0.666,-93.389,74.282,101.397,150.0,115.0
297718,0.163,-0.501,0.182,43.832,-123.198,-250.137,152.0,112.0
297805,1.311,1.971,0.400,73.534,-3.061,250.130,157.0,109.0
297894,0.532,0.595,0.479,-73.679,-28.939,-119.206,159.0,107.0
297987,-1.542,-1.035,2.000,197.000,-0.344,184.412,162.0,0.0
298079,0.214,0.558,0.340,-3.763,-41.550,-63.992,163.0,0.0
298170,-0.176,0.178,1.096,-171.275,73.061,35.916,164.0,0.0
298262,-0.082,-0.083,0.276,83.840,-64.038,-43.229,164.0,0.0
298349,-0.433,-0.153,1.125,-151.389,111.130,63.344,164.0,118.0
298437,0.690,0.215,0.329,100.260,-63.641,-12.679,164.0,116.0
298524,-1.792,0.956,1.492,-66.359,-35.038,-83.489,165.0,119.0
298619,0.199,-0.484,0.840,-17.321,74.725,52.344,163.0,0.0
298712,-0.444,0.273,0.217,69.985,-102.702,-81.244,164.0,0.0
298798,-0.387,-0.841,1.531,-93.298,106.298,75.931,163.0,107.0
298885,0.445,0.515,0.518,-2.802,-0.756,-2.527,164.0,105.0
298977,-0.202,0.393,0.594,-16.565,-88.672,-81.267,165.0,0.0
299069,-0.194,-0.656,1.488,-101.863,21.718,45.847,162.0,0.0
299161,0.565,0.236,0.641,8.779,14.687,45.023,162.0,0.0
299248,-1.868,-0.908,1.221,53.351,55.672,36.618,163.0,120.0
299335,-0.255,-0.090,0.850,76.412,-17.313,-18.908,163.0,105.0
299424,-0.051,-0.322,0.801,-132.061,22.878,37.565,163.0,105.0
299516,-1.341,0.553,0.910,185.183,-15.985,-2.473,163.0,0.0
299609,0.325,-0.264,0.782,-93.954,4.214,-11.473,163.0,0.0
299696,-0.326,0.304,0.841,-85.740,16.115,15.710,162.0,106.0
299782,-0.647,-0.488,1.057,200.901,-52.374,-10.183,163.0,104.0
299875,-0.454,-0.311,0.852,-144.275,65.656,53.008,163.0,0.0
299961,-0.661,-0.459,0.938,216.824,-88.672,-44.763,163.0,104.0
300048,-0.666,-0.034,1.249,-196.260,90.237,42.206,163.0,106.0
300143,1.197,-0.039,0.906,53.740,5.336,-25.046,163.0,0.0
300230,-2.000,0.302,1.436,45.664,-39.824,-71.214,163.0,105.0
300322,0.279,-0.407,1.097,38.733,73.336,83.427,162.0,0.0
300408,-0.330,0.693,0.351,59.405,-120.641,-79.473,164.0,103.0
300495,-0.955,-0.982,1.537,-213.481,111.855,83.290,162.0,105.0
300588,1.153,0.325,0.604,78.588,-1.595,27.710,162.0,0.0
300674,-1.692,0.708,1.957,121.924,-71.466,-83.000,163.0,104.0
300761,-0.094,-0.528,1.053,-45.122,101.931,76.153,162.0,107.0
300848,0.427,0.724,0.301,45.397,-66.443,-29.366,162.0,104.0
300938,-1.459,0.360,1.322,-115.282,-31.122,-52.901,161.0,105.0
301025,0.123,-0.086,1.111,25.382,85.053,20.015,161.0,105.0
301117,-0.297,0.810,0.224,-152.733,-35.107,-26.069,161.0,0.0
301208,-0.477,-2.000,1.706,-8.046,2.290,12.763,157.0,0.0
301295,0.525,0.338,0.840,-9.611,30.435,14.779,160.0,108.0
301383,-1.047,-0.448,0.637,156.244,-47.870,-54.053,161.0,122.0
301475,0.085,0.661,0.807,-54.221,65.206,68.504,162.0,0.0
301562,-0.186,0.773,0.419,110.000,-81.725,-38.802,164.0,103.0
301652,-0.662,-0.135,1.342,-167.351,76.725,-0.885,163.0,104.0
301745,0.444,-0.168,0.765,-0.924,10.282,-2.916,162.0,0.0
301831,-0.402,-0.421,0.914,48.489,-114.366,-29.504,162.0,104.0
301918,-0.426,0.234,1.192,27.954,77.863,33.756,163.0,104.0
302006,-0.064,0.083,0.635,-76.168,18.855,-13.015,163.0,120.0
302098,-0.094,-0.418,1.182,43.344,-101.244,-44.107,162.0,0.0
302190,-0.517,-0.133,1.361,12.748,55.947,18.160,163.0,0.0
302282,0.058,0.210,0.527,-86.611,26.939,9.336,162.0,0.0
302372,-0.435,-0.600,1.128,101.321,-141.725,-12.542,162.0,107.0
302466,-0.785,-0.411,1.297,3.038,104.916,47.557,163.0,0.0
302554,-0.155,0.185,0.615,-24.740,35.122,23.473,162.0,121.0
302646,0.273,-0.256,0.807,-52.229,-119.466,-48.252,161.0,0.0
302734,-0.536,-0.972,0.971,-13.733,44.282,55.763,162.0,122.0
302822,-0.477,0.395,0.896,103.458,59.740,30.496,163.0,124.0
302914,-0.079,0.107,0.399,-120.626,-22.229,-10.695,161.0,0.0
303002,-0.425,0.094,1.689,134.336,-76.031,-58.038,162.0,123.0
303094,-0.533,-0.655,1.122,95.809,84.084,32.840,161.0,0.0
303190,-0.103,0.368,0.497,-104.328,16.305,6.015,162.0,0.0
303283,-0.017,-0.380,0.981,36.153,-114.718,-53.328,161.0,0.0
303375,-0.330,-0.816,1.175,32.840,59.160,50.824,160.0,0.0
303467,-0.488,0.223,0.862,61.885,83.435,56.496,162.0,0.0
303559,0.255,0.260,0.399,-86.046,-22.550,-13.359,161.0,0.0
303651,-0.678,0.021,1.329,148.351,-109.053,-31.954,162.0,0.0
303738,-0.849,-0.638,1.363,-48.153,102.733,32.702,162.0,106.0
303826,0.026,0.083,0.797,-53.557,35.275,23.130,161.0,124.0
303917,-0.229,-0.530,0.905,92.305,-106.298,-16.053,160.0,106.0
304005,-0.427,0.701,1.455,-14.962,51.160,11.481,162.0,106.0
304093,-0.236,0.152,0.711,-54.519,75.878,3.115,161.0,125.0
304185,0.291,-0.082,0.516,-68.588,-57.542,-21.466,159.0,0.0
304272,-0.734,0.472,1.384,72.954,-68.718,-27.137,160.0,107.0
304359,-0.472,0.089,0.847,-47.702,108.053,21.870,160.0,107.0
304451,0.438,0.479,0.403,-33.786,-9.542,5.649,159.0,0.0
304538,-0.705,-0.615,1.273,132.359,-132.702,-15.160,159.0,107.0
304625,-0.706,0.092,1.254,-18.244,89.542,20.351,160.0,106.0
304710,-0.061,0.139,0.705,-64.679,49.618,-0.344,159.0,109.0
304797,0.153,-0.240,0.740,-42.221,-70.328,-25.542,159.0,108.0
304884,-0.636,0.333,1.685,-14.802,-25.809,-29.191,158.0,107.0
304971,-0.607,0.093,0.805,-0.214,99.748,45.863,159.0,107.0
305063,0.184,0.073,0.694,2.366,9.405,10.130,159.0,0.0
305157,-0.353,-0.540,1.106,54.786,-119.977,-28.939,159.0,107.0
305243,-0.458,-0.138,1.365,-134.870,31.573,0.137,159.0,107.0
305329,-0.587,-0.007,0.791,70.931,101.008,52.733,159.0,107.0
305419,0.219,0.238,0.465,-46.176,-24.595,-13.824,159.0,127.0
305505,-0.012,-0.444,1.277,34.015,-107.084,-32.725,158.0,108.0
305591,-0.743,-0.665,1.411,-58.748,42.008,31.687,158.0,109.0
305677,-0.246,0.752,0.521,16.847,103.458,42.557,159.0,107.0
305768,0.209,0.137,0.328,-56.687,-26.221,-9.802,158.0,0.0
305854,-0.585,-0.202,1.070,186.275,-130.794,-48.000,159.0,107.0
305940,-0.391,0.108,1.393,-102.481,32.405,-38.939,159.0,108.0
306027,-0.230,-0.030,0.758,-133.679,32.992,-11.511,156.0,130.0
306121,0.087,-0.101,0.578,-67.794,-52.397,-37.809,155.0,0.0
306212,0.090,-2.000,2.000,-9.527,33.328,39.786,154.0,0.0
306304,-0.579,-0.714,0.659,195.870,37.969,54.527,155.0,0.0
306390,0.086,1.135,0.551,67.664,69.252,55.947,159.0,108.0
306476,0.023,-0.189,0.791,-74.282,-59.702,-20.015,159.0,107.0
306562,-0.514,0.965,1.120,59.023,-56.260,-42.122,159.0,107.0
306648,-0.722,-0.308,1.128,14.847,116.679,42.992,159.0,108.0
306735,-0.002,0.083,0.605,-30.550,22.924,10.695,159.0,108.0
306824,-0.212,0.306,0.953,23.244,-100.809,-47.542,158.0,108.0
306910,0.197,-0.538,2.000,-248.198,11.542,-42.504,156.0,110.0
306996,-0.712,-0.679,0.867,136.099,57.214,39.618,156.0,110.0
307082,-0.059,0.801,0.610,16.198,29.565,15.817,158.0,110.0
307169,0.135,-0.020,0.850,-18.916,-62.412,-25.687,157.0,110.0
307255,-0.589,0.311,1.446,-60.687,-35.817,-41.305,157.0,109.0
307341,-0.650,-0.119,0.900,66.107,107.053,72.405,157.0,108.0
307427,0.214,0.195,0.686,-10.466,29.053,38.344,158.0,108.0
307513,-0.349,-0.133,0.837,31.496,-96.466,-18.122,159.0,107.0
307602,-0.295,0.776,1.452,-17.664,-28.412,-37.397,159.0,107.0
307689,-0.689,-0.279,1.019,-0.863,75.336,37.664,158.0,109.0
307775,0.283,0.484,0.544,-95.252,8.550,1.313,157.0,109.0
307861,-0.200,-0.440,0.761,11.344,-99.473,-42.031,156.0,110.0
307947,-0.319,0.144,1.419,-38.603,60.366,15.260,157.0,109.0
308033,-0.678,-0.049,0.733,58.015,78.679,72.771,157.0,108.0
308120,0.491,0.453,0.539,-52.603,-17.672,-2.679,157.0,108.0
308206,-0.396,0.047,0.829,63.962,-124.840,-42.389,157.0,109.0
308295,-0.458,-0.077,1.350,-11.634,76.672,16.832,158.0,110.0
308382,-0.160,0.556,0.707,-32.130,85.924,28.107,158.0,108.0
308468,0.261,0.017,0.268,-59.519,-50.847,-26.901,156.0,109.0
308554,-0.491,0.595,1.735,97.214,-83.779,-46.595,157.0,109.0
308641,-0.543,-0.331,0.991,-34.863,78.748,32.443,157.0,110.0
308727,0.005,0.789,0.467,-32.405,59.870,9.519,157.0,108.0
308813,-0.118,-0.150,0.777,15.115,-79.183,-23.710,157.0,109.0
308905,-0.070,1.315,1.823,1.244,-12.290,-52.115,158.0,0.0
308995,-0.595,-0.050,0.881,-2.656,92.794,30.107,157.0,110.0
309082,0.331,0.241,0.372,-69.794,-24.344,4.786,156.0,110.0
309168,-0.323,0.239,0.754,59.412,-138.832,-33.710,156.0,111.0
309254,-0.494,-0.265,1.013,-43.718,76.107,26.656,156.0,112.0
309341,-0.265,0.423,0.821,2.824,84.718,35.221,156.0,111.0
309427,-0.086,-0.155,0.519,-19.870,-10.221,8.130,156.0,111.0
309514,-0.517,0.404,0.902,108.229,-97.992,-8.443,157.0,111.0
309600,-0.396,0.022,1.237,-111.718,14.458,0.305,156.0,112.0
309687,-0.434,0.058,1.007,73.901,70.855,94.626,155.0,112.0
309776,0.403,0.483,0.680,-102.260,18.641,57.015,154.0,113.0
309863,-2.000,0.167,1.458,120.626,63.450,33.359,153.0,114.0
309949,1.384,-0.581,0.687,-250.137,12.427,13.405,152.0,115.0
310041,-2.000,2.000,0.099,250.130,-56.145,38.229,154.0,0.0
310127,0.682,-2.000,1.393,-232.275,-45.061,-141.130,151.0,114.0
310214,-0.571,2.000,1.071,-59.924,87.076,108.863,153.0,114.0
310300,1.245,-1.478,0.950,-9.275,-59.534,-147.198,152.0,113.0
310387,-0.044,2.000,1.969,-41.191,30.000,168.802,155.0,112.0
310477,0.634,-0.545,0.634,128.817,-77.481,-174.015,156.0,110.0
310563,-0.552,0.052,0.422,-250.137,94.160,75.832,156.0,110.0
310650,-1.849,-0.182,0.518,250.130,-51.817,-44.466,157.0,109.0
310737,0.621,-1.066,0.964,-250.137,13.092,46.466,155.0,112.0
310823,-2.000,1.838,1.125,250.130,9.382,159.992,158.0,108.0
310910,1.014,-1.507,1.240,-75.084,-11.046,-56.351,156.0,109.0
310998,-0.956,1.379,0.866,-240.985,93.573,6.405,157.0,108.0
311084,0.583,-0.792,0.541,182.382,-50.748,-50.450,157.0,109.0
311174,-0.373,0.309,0.816,-250.137,103.664,2.527,157.0,109.0
311261,-0.655,-0.271,0.515,250.130,-80.023,-58.198,157.0,109.0
311347,-0.839,-1.117,0.919,-250.137,97.550,67.542,155.0,111.0
311434,-0.981,-0.084,0.039,250.130,-98.763,-54.962,157.0,108.0
311521,0.431,-1.366,1.275,-250.137,42.359,21.489,155.0,111.0
311607,-2.000,1.233,0.271,250.130,-19.275,42.473,157.0,109.0
311699,1.219,-1.502,1.115,-211.611,6.290,-40.573,156.0,0.0
311786,-0.786,2.000,1.302,-36.588,22.847,-2.924,156.0,110.0
311876,0.341,-0.984,0.722,52.000,-40.550,-43.053,155.0,115.0
311963,-0.457,0.816,0.634,-206.450,75.542,19.977,156.0,111.0
312049,0.517,-0.764,0.530,179.550,-66.351,-50.771,156.0,110.0
312136,-0.809,0.478,0.694,-250.137,120.527,8.962,156.0,111.0
312223,1.060,-0.670,0.563,176.198,-60.794,-41.305,156.0,110.0
312310,-0.958,0.868,0.706,-250.137,132.198,17.878,156.0,110.0
312396,1.211,-0.672,0.689,88.870,-59.466,-51.466,156.0,111.0
312483,-0.706,1.234,0.852,-149.489,72.229,-7.397,156.0,111.0
312570,0.739,-0.825,0.508,-3.191,-80.557,-59.382,155.0,111.0
312660,-0.905,1.343,0.766,-232.412,147.298,36.916,157.0,111.0
312748,0.867,-0.716,0.502,78.550,-80.756,-59.076,157.0,110.0
312835,-0.720,1.002,0.533,-250.137,92.695,-28.695,157.0,109.0
312921,-0.360,-0.698,0.653,166.427,-79.580,-53.145,156.0,109.0
313008,-0.152,-0.007,0.865,-250.137,88.802,15.580,156.0,110.0
313095,-0.542,0.163,0.537,223.137,-35.458,-7.290,157.0,109.0
313182,-0.477,-0.011,1.107,-50.252,12.221,12.420,157.0,109.0
313269,-0.380,0.310,0.849,77.168,15.412,78.847,156.0,110.0
313359,-0.277,1.122,0.632,-18.924,83.733,184.855,154.0,119.0
313449,-0.793,0.581,0.551,-177.939,94.336,250.130,0.0,129.0
313538,-0.463,0.329,0.835,-62.885,36.359,224.733,0.0,99.0
313620,-0.241,0.165,0.941,-63.351,45.573,185.832,40.0,136.0
313702,-0.508,0.395,0.874,-123.122,25.336,140.802,37.0,138.0
313782,-0.386,0.351,0.887,-44.527,24.916,124.718,31.0,122.0
313864,-0.360,-0.094,1.088,-44.641,-19.618,66.252,29.0,135.0
313945,-0.534,0.330,1.098,14.855,-51.954,7.496,27.0,133.0
314028,-0.036,0.263,0.927,-117.298,2.443,-5.321,24.0,126.0
314107,-0.006,0.057,1.083,-54.130,-6.763,-4.122,29.0,116.0
314188,-0.082,0.106,0.998,-41.382,-1.214,-5.214,21.0,124.0
314278,-0.054,-0.166,1.041,-33.031,-2.679,-7.412,0.0,136.0
314372,-0.080,-0.119,1.014,-37.611,-1.137,-15.595,0.0,158.0
314464,-0.062,-0.260,0.986,-41.405,-5.427,-24.847,0.0,159.0
314555,0.069,-0.729,0.876,-73.809,6.550,-102.527,0.0,148.0
314646,-0.135,-0.134,1.021,8.817,9.290,-98.290,0.0,142.0
314738,0.093,-0.052,0.968,3.573,3.382,-32.221,0.0,155.0
314832,0.007,-0.169,0.933,-16.107,-0.588,13.359,0.0,142.0
314925,0.059,-0.427,0.965,-12.985,-1.481,23.725,0.0,142.0
315016,-0.001,-0.341,0.940,-5.939,4.435,25.618,0.0,144.0
315107,-0.030,-0.196,0.932,-34.733,11.328,22.160,0.0,145.0
315199,0.071,-0.548,0.869,-18.969,-2.183,-1.809,0.0,159.0
315291,-0.052,-0.321,0.927,19.786,5.176,-7.901,0.0,145.0
315382,0.010,-0.466,0.925,-12.359,0.779,-0.740,0.0,145.0
315473,-0.038,-0.375,0.921,1.466,1.473,-0.916,0.0,145.0
315566,-0.028,-0.435,0.914,-0.962,0.557,-0.214,0.0,144.0
315660,-0.024,-0.402,0.903,2.649,0.489,0.863,0.0,145.0
315752,-0.022,-0.441,0.917,0.847,0.435,-0.313,0.0,145.0
315843,-0.018,-0.411,0.918,-1.710,0.473,-0.145,0.0,145.0
315934,-0.044,-0.396,0.912,-2.206,0.771,-1.504,0.0,144.0
316025,-0.023,-0.429,0.926,4.519,0.557,0.061,0.0,145.0
316116,-0.008,-0.444,0.934,6.053,1.046,-1.885,0.0,145.0
316209,-0.016,-0.409,0.925,7.924,1.176,-2.466,0.0,144.0
316306,0.003,-0.420,0.910,14.496,3.618,-5.473,0.0,144.0
316396,0.025,-0.446,0.940,26.191,9.000,-19.099,0.0,142.0
316489,0.058,-0.451,0.968,71.565,10.031,-13.947,0.0,145.0
316579,-0.045,-0.228,1.104,98.153,22.466,-54.679,0.0,138.0
316667,0.073,0.207,0.838,-124.366,21.687,-45.527,0.0,112.0
316755,-0.388,-0.548,1.183,39.092,38.237,-63.649,0.0,110.0
316846,-0.515,-0.357,0.748,-202.702,17.176,-44.794,0.0,134.0
316936,-0.104,-0.757,0.815,-46.656,-1.847,-8.473,0.0,138.0
317026,0.058,-0.474,0.957,45.038,-16.237,-18.733,0.0,135.0
317120,-0.109,-0.766,0.889,0.809,-21.412,15.969,0.0,0.0
317216,-0.039,-0.490,0.845,8.344,-10.115,9.275,0.0,0.0
317309,-0.049,-0.566,0.842,-2.840,-8.656,11.718,0.0,0.0
317404,-0.036,-0.552,0.849,0.496,-5.611,9.885,0.0,0.0
317497,-0.047,-0.505,0.839,1.008,-1.053,1.298,0.0,0.0
317590,-0.030,-0.593,0.850,-0.725,0.687,-0.374,0.0,0.0
317684,-0.045,-0.557,0.841,2.183,0.824,-1.931,0.0,0.0
317777,-0.042,-0.493,0.842,-8.427,-0.664,0.374,0.0,0.0
317871,-0.050,-0.512,0.842,6.382,0.229,-0.504,0.0,0.0
317965,-0.050,-0.562,0.847,2.496,0.542,-0.450,0.0,0.0
318061,-0.043,-0.549,0.851,-0.290,0.550,-0.374,0.0,0.0
318154,-0.063,-0.529,0.844,1.908,0.366,-0.611,0.0,0.0
318248,-0.043,-0.540,0.855,3.504,0.588,-0.603,0.0,0.0
318339,-0.039,-0.533,0.850,1.137,0.053,0.275,0.0,142.0
318429,-0.044,-0.529,0.846,1.550,0.489,-0.489,0.0,142.0
318522,-0.041,-0.524,0.859,-0.221,0.359,0.115,0.0,0.0
318616,-0.036,-0.517,0.848,2.328,0.725,-0.557,0.0,0.0
318709,-0.035,-0.524,0.868,2.893,0.832,-0.267,0.0,0.0
318799,-0.039,-0.518,0.859,0.641,0.344,-0.229,0.0,141.0
318891,-0.035,-0.497,0.870,1.397,0.580,-0.420,0.0,142.0
318984,-0.037,-0.489,0.877,2.084,0.145,-0.260,0.0,142.0
319074,-0.036,-0.522,0.869,5.908,1.107,-0.634,0.0,141.0
319164,-0.037,-0.499,0.871,2.985,0.374,0.046,0.0,136.0
319254,-0.037,-0.472,0.885,5.038,1.061,-0.863,0.0,135.0
319344,-0.048,-0.438,0.873,8.832,1.542,-1.244,0.0,134.0
319433,-0.045,-0.455,0.885,8.412,1.527,-1.061,0.0,134.0
319523,-0.042,-0.422,0.897,8.344,0.534,0.015,0.0,133.0
319612,-0.040,-0.473,0.909,9.763,1.855,-0.527,0.0,110.0
319700,-0.042,-0.426,0.909,4.267,1.176,-0.221,0.0,109.0
319793,-0.044,-0.399,0.910,12.000,1.542,-1.015,0.0,109.0
319882,-0.042,-0.424,0.930,13.695,2.397,-1.947,0.0,109.0
319970,-0.050,-0.344,0.923,7.275,1.328,-0.840,0.0,108.0
320059,-0.059,-0.379,0.937,8.366,1.282,0.328,0.0,108.0
320147,-0.057,-0.360,0.934,5.847,0.740,-0.473,0.0,108.0
320236,-0.051,-0.318,0.941,7.023,0.969,-2.069,0.0,107.0
320324,-0.055,-0.370,0.941,0.649,0.878,-1.412,0.0,107.0
320413,-0.057,-0.328,0.942,6.076,0.611,-0.901,0.0,108.0
320501,-0.064,-0.330,0.945,1.962,0.328,-0.252,0.0,107.0
320593,-0.065,-0.332,0.947,3.550,0.450,-0.656,0.0,107.0
320681,-0.051,-0.367,0.946,8.412,0.947,-2.023,0.0,107.0
320771,-0.045,-0.301,0.964,14.511,1.351,-1.244,0.0,107.0
320859,-0.048,-0.284,0.970,13.618,0.985,-1.611,0.0,106.0
320948,-0.081,-0.338,0.984,45.397,4.313,-5.176,0.0,106.0
321036,-0.094,-0.262,1.024,86.374,8.206,-7.573,0.0,106.0
321125,-0.100,-0.073,1.029,110.939,13.336,-18.214,0.0,102.0
321213,-0.095,0.328,0.856,143.031,53.534,-49.557,0.0,101.0
321304,-0.483,0.354,0.799,-106.221,18.389,-24.198,0.0,98.0
321392,-0.213,-0.104,0.957,-27.878,4.565,-57.542,0.0,97.0
321480,-0.207,-0.205,1.053,46.565,-5.748,-137.038,0.0,94.0
321570,0.118,0.569,0.738,55.573,-17.481,-165.305,0.0,132.0
321660,-0.607,0.855,0.655,63.229,-6.000,-56.351,0.0,127.0
321751,-0.445,0.663,0.849,-108.977,28.008,32.359,0.0,128.0
321841,0.070,-1.518,2.000,99.893,-4.595,-76.748,0.0,126.0
321931,-1.005,2.000,0.010,-176.641,59.687,68.458,0.0,126.0
322020,0.830,-2.000,2.000,109.153,17.244,-96.076,0.0,127.0
322113,-0.866,2.000,-0.231,-250.137,62.374,55.725,0.0,125.0
322200,-0.001,-2.000,1.766,250.130,-14.336,-172.573,140.0,125.0
322286,-0.664,1.368,-0.128,-250.137,86.740,15.695,140.0,124.0
322373,-0.876,-1.444,0.705,250.130,-32.107,-136.519,138.0,123.0
322459,-0.417,-0.378,0.278,-250.137,52.130,15.847,138.0,128.0
322550,-2.000,0.005,0.275,250.130,-85.435,-36.534,140.0,0.0
322637,0.862,-2.000,1.397,-250.137,8.168,47.786,139.0,125.0
322727,-1.251,2.000,-0.166,250.130,-0.969,4.756,141.0,0.0
322818,0.398,-2.000,2.000,79.534,16.542,-62.893,139.0,130.0
322905,-0.239,1.646,0.324,-250.137,42.695,21.351,141.0,123.0
322991,-0.323,-0.535,0.950,250.130,-9.458,7.198,140.0,122.0
323078,-0.335,0.086,0.893,-240.053,38.382,-4.794,140.0,127.0
323165,0.016,-0.234,1.030,60.412,15.328,-4.321,140.0,129.0
323251,-0.669,0.706,0.684,-43.565,2.702,8.145,141.0,127.0
323338,-0.027,-0.714,1.321,62.718,-21.710,-13.511,141.0,127.0
323425,-0.537,1.258,0.434,-170.802,55.298,46.366,142.0,123.0
323511,-0.105,-0.924,1.122,155.382,-18.565,-13.573,142.0,123.0
323601,-0.364,0.681,0.738,-200.298,6.137,-6.786,142.0,122.0
323688,-0.322,-0.055,1.085,202.794,-24.687,-3.687,142.0,122.0
323774,-0.512,0.486,0.843,-200.336,56.359,-9.634,141.0,123.0
323861,0.617,-0.386,0.983,-27.710,-2.069,-21.527,141.0,125.0
323948,-1.007,1.379,0.404,210.275,-47.878,-21.031,142.0,123.0
324035,-0.185,-0.929,1.347,-186.008,34.718,29.053,140.0,131.0
324126,-0.574,0.764,0.273,250.130,-59.359,-24.718,141.0,0.0
324212,-0.671,-1.266,1.532,-91.031,68.779,97.847,140.0,123.0
324302,-0.357,0.534,0.555,131.298,-55.939,-46.061,142.0,122.0
324389,-0.552,-0.241,0.996,-239.565,44.382,50.160,141.0,123.0
324476,-0.207,-0.319,1.016,173.672,-30.733,-15.412,142.0,122.0
324563,-0.613,0.495,0.781,-250.137,51.458,15.954,141.0,123.0
324649,0.185,-0.499,1.104,137.756,-33.160,-43.473,142.0,122.0
324737,-0.740,1.517,0.643,-215.573,67.542,8.733,141.0,123.0
324824,0.653,-0.491,1.134,54.336,-19.000,-38.794,143.0,123.0
324911,-1.464,1.914,0.489,33.954,-6.160,-6.405,141.0,123.0
325001,0.788,-1.103,1.304,-55.985,30.427,47.718,142.0,125.0
325092,-1.164,1.466,0.296,250.130,-97.580,-59.687,142.0,0.0
325178,0.065,-1.716,1.243,-250.137,32.473,68.832,141.0,125.0
325265,-0.775,1.104,0.073,250.130,-102.298,-54.656,142.0,123.0
325352,-0.230,-1.937,1.137,-250.137,38.649,49.504,141.0,124.0
325443,-1.295,1.855,-0.480,250.130,-133.084,-47.489,142.0,0.0
325530,-0.607,-1.771,0.841,-250.137,38.023,111.886,139.0,126.0
325617,-0.905,1.010,0.176,250.130,-98.664,16.687,142.0,123.0
325712,0.277,-2.000,1.201,-250.137,24.038,40.695,141.0,0.0
325804,-0.990,2.000,-0.230,250.130,-80.191,36.824,142.0,0.0
325891,0.988,-2.000,1.582,-187.366,17.374,-4.275,143.0,124.0
325977,-0.951,2.000,-0.101,87.718,-20.733,-24.382,142.0,123.0
326064,0.671,-1.824,1.349,-150.916,11.069,17.863,141.0,124.0
326156,-0.774,2.000,-0.273,159.931,-34.679,6.504,143.0,0.0
326243,0.340,-1.645,1.193,-44.237,12.557,59.672,141.0,124.0
326330,-0.472,2.000,-0.099,186.359,-61.405,5.290,143.0,123.0
326420,-0.081,-1.852,1.662,-33.534,34.198,75.832,0.0,124.0
326508,-0.191,1.970,0.078,162.893,-76.664,-22.794,0.0,122.0
326598,-0.158,-1.604,1.509,-170.084,44.962,29.580,0.0,123.0
326685,-0.425,2.000,0.020,196.695,-68.618,-11.275,145.0,122.0
326775,-0.153,-1.706,1.359,-198.489,36.183,48.092,0.0,124.0
326862,-0.465,1.138,0.220,250.130,-85.908,8.008,143.0,123.0
326952,-0.439,-1.288,1.354,-203.901,45.290,17.092,0.0,124.0
327044,-0.285,0.437,0.726,213.321,-54.160,-5.450,0.0,123.0
327131,-0.752,0.395,1.360,-179.672,69.275,14.397,143.0,123.0
327224,0.850,0.822,0.710,-39.939,13.397,35.221,0.0,125.0
327315,-0.627,0.568,0.624,250.130,-146.115,-46.573,143.0,0.0
327402,-0.762,-0.783,1.198,-250.137,107.046,16.939,141.0,123.0
327489,0.118,0.064,0.645,128.305,-47.870,-67.542,142.0,122.0
327576,-0.847,1.213,0.766,-250.137,64.672,42.443,141.0,122.0
327672,0.547,-0.765,1.126,176.237,-24.382,-44.008,0.0,122.0
327758,-0.945,1.711,0.529,-250.137,57.183,24.031,142.0,123.0
327848,0.743,-0.557,0.998,105.595,8.641,22.718,0.0,124.0
327937,-0.735,1.986,0.296,-18.267,-37.328,-11.229,143.0,123.0
328027,-0.032,-0.722,1.313,-3.443,32.145,38.374,0.0,123.0
328116,-0.227,0.400,0.733,139.260,-50.992,-13.924,0.0,122.0
328202,-0.343,0.097,1.258,-155.481,34.748,16.145,143.0,123.0
328291,0.391,0.276,0.977,57.779,27.275,6.710,0.0,123.0
328377,-0.360,0.898,0.551,76.649,-70.893,-46.649,143.0,123.0
328463,-0.690,0.010,1.357,-91.229,63.550,17.748,141.0,123.0
328552,0.383,0.247,0.788,5.763,34.481,22.420,0.0,124.0
328638,-1.109,0.322,0.773,182.214,-115.122,-35.084,142.0,123.0
328727,-0.660,-1.274,1.541,-184.733,60.603,37.252,141.0,123.0
328816,0.266,-0.092,0.760,85.878,-32.382,-26.252,0.0,123.0
328902,-1.058,1.105,0.663,-180.542,5.366,22.786,141.0,123.0
328991,0.091,-0.069,0.971,83.366,47.504,48.176,0.0,124.0
329077,-0.402,0.698,0.655,187.206,-75.870,-68.489,142.0,123.0
329163,-0.616,-0.706,1.312,-231.527,52.244,18.527,141.0,123.0
329249,0.232,-0.061,0.707,158.282,-33.969,-42.947,142.0,122.0
329335,-0.985,1.725,0.630,-250.137,72.237,75.443,140.0,123.0
329427,0.868,-1.300,1.258,92.695,1.534,-44.809,0.0,123.0
329513,-0.642,2.000,0.004,-190.840,50.809,43.626,141.0,122.0
329601,0.808,-1.704,1.442,120.168,5.840,-40.031,142.0,123.0
329686,-0.884,2.000,0.241,-242.145,64.550,2.649,141.0,123.0
329773,0.616,-1.328,1.137,73.954,-2.672,-35.198,141.0,125.0
329859,-0.862,2.000,0.442,-148.389,55.351,-3.580,140.0,123.0
329948,0.598,-0.881,0.995,-72.748,37.779,31.855,0.0,126.0
330034,-1.861,0.776,0.677,250.130,-28.626,2.099,141.0,124.0
330124,0.644,-1.026,1.280,-198.206,-5.786,-9.573,142.0,125.0
330210,-1.385,2.000,0.388,138.779,-20.160,-9.893,141.0,124.0
330299,0.296,-0.980,0.838,-229.618,21.992,58.733,0.0,128.0
330385,-0.667,0.369,0.359,250.130,-65.046,-27.214,141.0,123.0
330472,-0.550,-0.819,1.161,-250.137,39.214,44.954,141.0,126.0
330558,-0.140,-0.284,0.748,250.130,-61.435,-28.466,142.0,124.0
330645,-0.623,0.276,0.678,-250.137,83.771,-11.473,142.0,125.0
330734,0.364,-0.817,0.988,131.046,-23.031,-31.939,0.0,126.0
330820,-0.755,1.689,0.709,-144.214,24.542,8.473,143.0,124.0
330913,0.621,-0.291,0.964,77.176,-0.550,28.145,0.0,125.0
330999,-0.888,1.315,0.520,128.740,-51.115,-16.183,143.0,123.0
331089,-0.270,-0.786,1.271,-65.176,51.687,44.008,0.0,125.0
331180,0.021,0.486,0.747,167.931,-51.840,-21.618,0.0,124.0
331266,-0.637,0.575,1.093,-227.183,100.519,-13.137,143.0,124.0
331356,0.649,-0.244,0.634,-124.359,-0.916,-31.366,0.0,125.0
331442,-2.000,0.458,0.576,250.130,-52.481,41.130,142.0,123.0
331528,0.423,-1.069,1.730,-188.244,58.779,-18.794,141.0,124.0
331618,-1.054,0.800,0.207,75.206,-21.641,-12.023,141.0,124.0
331705,0.057,-1.124,1.562,-65.954,-4.053,-10.214,140.0,133.0
331791,-0.361,1.050,0.667,94.397,-41.832,-40.183,141.0,124.0
331878,-0.271,-0.083,0.946,-45.939,-0.328,-32.763,139.0,131.0
331964,-0.089,-0.001,0.836,-17.092,-54.962,-109.939,139.0,128.0
332051,-0.144,0.452,0.832,-0.351,-54.763,-60.115,139.0,127.0
332137,-0.495,0.325,1.161,-0.099,20.321,14.855,139.0,127.0
332224,-0.609,-0.515,0.860,-12.847,76.870,121.153,138.0,129.0
332313,-0.377,-0.152,0.674,219.573,-58.489,-35.992,141.0,126.0
332400,-0.319,-0.104,1.034,-250.137,53.832,16.924,141.0,125.0
332486,-0.346,-0.086,0.743,225.206,-53.595,-47.634,141.0,126.0
332573,-0.862,-0.281,0.841,-250.137,109.924,58.855,140.0,127.0
332659,0.232,-0.442,0.811,218.244,-50.656,-100.641,141.0,122.0
332746,-0.640,0.831,0.777,-250.137,77.168,15.931,141.0,125.0
332833,-0.288,-0.697,0.796,250.130,-17.305,-47.656,141.0,126.0
332919,-0.455,0.347,0.726,-250.137,52.069,17.992,141.0,127.0
333009,0.292,-0.751,1.289,216.870,-41.702,-78.229,141.0,122.0
333096,-0.884,1.709,0.608,-250.137,77.794,27.481,141.0,127.0
333182,1.099,-0.960,1.323,72.863,6.908,-30.855,141.0,130.0
333274,-0.945,2.000,0.365,-112.901,30.527,-19.382,141.0,0.0
333361,-0.349,0.664,1.170,73.511,108.748,-80.305,139.0,126.0
333447,-0.730,-0.434,-0.153,-230.954,-15.359,-6.588,136.0,124.0
333534,-0.460,0.259,0.873,250.130,-14.458,-12.649,138.0,127.0
333620,-0.780,-0.281,0.625,-12.603,-75.511,51.893,138.0,127.0
333707,-0.425,2.000,0.553,69.137,36.733,-66.710,140.0,125.0
333797,-0.360,-0.668,0.354,-137.573,-7.954,10.870,137.0,127.0
333883,-0.653,1.195,0.641,23.382,4.069,-68.695,138.0,126.0
333970,-0.224,-0.710,0.664,-30.947,-20.954,56.145,137.0,128.0
334056,-0.556,0.940,0.740,62.580,29.626,-82.855,139.0,126.0
334143,0.165,-1.461,1.227,-232.557,8.359,1.366,136.0,128.0
334229,-0.882,0.777,0.141,140.649,-11.130,34.420,137.0,126.0
334315,0.479,-1.346,2.000,-69.160,20.802,5.389,137.0,126.0
334402,-0.717,0.941,0.013,-33.328,-1.076,41.359,137.0,127.0
334492,-0.489,-0.122,1.729,130.382,37.817,-49.992,137.0,124.0
334578,-0.575,-0.432,0.619,-153.908,-28.802,9.740,137.0,128.0
334665,-0.473,1.377,0.452,136.214,12.305,-71.137,137.0,125.0
334751,-0.445,-1.149,0.666,-122.962,-30.565,46.939,136.0,128.0
334838,-0.492,1.448,0.403,238.634,3.679,-23.878,138.0,125.0
334925,-0.409,-1.145,0.700,-250.137,-27.191,22.893,136.0,128.0
335011,-0.841,2.000,0.612,64.168,25.084,-153.466,138.0,126.0
335098,-0.103,-1.375,0.444,-250.137,-7.809,36.496,134.0,125.0
335187,-1.179,0.553,0.133,250.130,-19.771,76.725,135.0,126.0
335275,-0.272,-1.736,2.000,-171.382,33.214,-42.000,136.0,129.0
335362,-0.577,0.041,0.412,-178.977,11.664,0.924,135.0,128.0
335448,-0.235,-1.160,0.183,250.130,-20.481,93.191,135.0,126.0
335535,-0.659,1.104,0.680,47.282,-26.656,7.473,138.0,127.0
335622,0.163,-0.890,0.336,-178.519,-21.000,35.756,135.0,125.0
335708,-0.793,1.746,-0.028,167.931,-2.214,20.611,137.0,127.0
335795,-0.190,-1.434,1.602,-45.916,7.481,-21.931,136.0,125.0
335894,-0.471,-0.277,0.847,-109.664,4.374,-5.038,136.0,125.0
335983,-0.479,-0.123,0.730,114.099,-27.443,38.130,136.0,126.0
336072,-0.469,0.033,0.961,127.878,-40.382,73.534,138.0,125.0
336165,-0.185,1.026,0.613,56.832,17.176,137.695,142.0,0.0
336259,-0.486,0.600,0.755,-188.954,56.237,139.634,0.0,129.0
336340,-0.365,0.306,0.635,-250.137,0.061,145.130,44.0,94.0
336422,-0.292,-1.041,0.670,-250.137,-69.664,46.198,17.0,122.0
336520,-0.296,-0.946,0.625,-118.886,-61.672,39.389,0.0,0.0
336617,-0.168,-1.120,0.564,10.740,-12.481,-6.504,0.0,0.0
336717,-0.138,-0.677,0.607,-39.198,-12.595,5.084,0.0,0.0
336814,-0.199,-0.716,0.627,9.137,-16.366,-7.374,0.0,0.0
336911,-0.070,-0.883,0.777,49.863,-27.282,-21.611,0.0,0.0
337007,-0.079,-0.628,0.746,9.824,-9.160,6.656,0.0,0.0
337104,-0.023,-0.658,0.779,34.252,-7.176,-0.496,0.0,0.0
337202,-0.026,-0.578,0.807,8.695,-6.679,6.481,0.0,0.0
337295,-0.030,-0.609,0.821,20.489,-2.847,1.420,0.0,135.0
337388,-0.029,-0.556,0.824,3.710,-1.336,1.649,0.0,135.0
337481,-0.037,-0.608,0.817,2.519,-0.740,-0.191,0.0,135.0
337577,-0.034,-0.560,0.829,2.702,-0.916,0.069,0.0,135.0
337671,-0.027,-0.559,0.844,1.160,0.809,0.870,0.0,135.0
337764,-0.036,-0.568,0.827,3.160,1.313,-0.786,0.0,135.0
337857,-0.032,-0.571,0.829,-2.725,0.076,0.237,0.0,135.0
337950,-0.038,-0.536,0.842,1.779,-0.015,0.244,0.0,135.0
338043,-0.037,-0.545,0.832,2.122,0.359,0.008,0.0,135.0
338137,-0.044,-0.559,0.831,3.771,0.321,-0.382,0.0,135.0
338231,-0.037,-0.569,0.834,-0.321,0.344,-0.008,0.0,135.0
338324,-0.035,-0.548,0.854,3.145,0.420,0.420,0.0,134.0
338420,-0.037,-0.590,0.848,5.290,1.191,-0.908,0.0,134.0
338513,-0.035,-0.557,0.838,-0.191,0.214,0.107,0.0,135.0
338607,-0.039,-0.523,0.845,0.412,-0.206,1.015,0.0,134.0
338700,-0.046,-0.531,0.861,5.061,0.863,-0.145,0.0,134.0
338800,-0.043,-0.552,0.857,1.809,0.382,-0.359,0.0,134.0
338892,-0.036,-0.513,0.849,0.489,-0.351,0.542,0.0,133.0
338984,-0.045,-0.503,0.846,3.084,0.382,0.008,0.0,133.0
339076,-0.026,-0.527,0.849,0.534,0.985,0.130,0.0,133.0
339168,-0.042,-0.532,0.853,-0.092,0.122,-0.053,0.0,133.0
339263,-0.043,-0.511,0.863,-0.321,0.130,0.389,0.0,132.0
339355,-0.045,-0.495,0.869,1.328,0.359,-0.198,0.0,133.0
339447,-0.042,-0.518,0.865,3.046,0.756,-0.702,0.0,132.0
339538,-0.044,-0.521,0.872,1.565,0.389,0.115,0.0,133.0
339631,-0.036,-0.497,0.868,2.824,0.603,-0.435,0.0,132.0
339723,-0.051,-0.489,0.875,1.511,-0.053,-0.160,0.0,132.0
339815,-0.040,-0.491,0.875,3.328,0.420,-0.542,0.0,132.0
339907,-0.042,-0.493,0.879,0.084,0.542,-0.389,0.0,132.0
339999,-0.042,-0.483,0.875,2.344,0.260,-0.275,0.0,132.0
340093,-0.042,-0.500,0.880,0.573,0.618,-0.649,0.0,131.0
340186,-0.046,-0.486,0.878,5.290,0.893,-0.053,0.0,132.0
340278,-0.043,-0.491,0.885,-1.244,0.214,0.061,0.0,131.0
340370,-0.043,-0.487,0.883,-0.740,0.382,0.061,0.0,132.0
340462,-0.044,-0.479,0.888,1.916,0.237,0.405,0.0,131.0
340554,-0.043,-0.494,0.880,0.641,0.641,-0.473,0.0,131.0
340646,-0.045,-0.463,0.880,-2.382,0.183,-0.420,0.0,131.0
340739,-0.048,-0.464,0.874,2.305,0.420,-0.634,0.0,131.0
340831,-0.047,-0.493,0.884,1.397,0.267,-0.260,0.0,131.0
340926,-0.046,-0.471,0.878,0.366,0.122,0.267,0.0,131.0
341018,-0.052,-0.464,0.879,-1.092,0.046,0.130,0.0,131.0
341110,-0.047,-0.464,0.890,1.206,0.221,-0.229,0.0,131.0
341202,-0.044,-0.479,0.881,0.679,0.405,-0.137,0.0,131.0
341295,-0.044,-0.469,0.888,-0.634,0.038,-0.099,0.0,131.0
341387,-0.043,-0.478,0.882,0.901,0.344,-0.069,0.0,131.0
341479,-0.037,-0.446,0.883,-1.458,0.107,-0.023,0.0,131.0
341571,-0.038,-0.478,0.882,1.901,0.580,-0.687,0.0,131.0
341663,-0.042,-0.488,0.884,0.183,0.275,-0.374,0.0,131.0
