Timestamp(ms),AccelX(g),AccelY(g),AccelZ(g),GyroX(deg/s),GyroY(deg/s),GyroZ(deg/s),DistanceLeft(cm),DistanceRight(cm)
35088,-0.112,-0.984,0.078,-3.733,-19.435,9.924,0.0,87.0
35141,-0.115,-1.000,0.102,-2.198,-9.450,10.832,0.0,88.0
35195,-0.122,-1.001,0.129,1.344,-2.656,11.771,0.0,88.0
35249,-0.138,-1.012,0.151,3.969,-0.641,9.359,0.0,78.0
35302,-0.141,-1.003,0.135,6.565,-5.962,5.023,0.0,77.0
35355,-0.121,-0.999,0.120,7.466,-5.031,1.076,0.0,91.0
35409,-0.120,-0.994,0.097,8.771,3.344,-1.725,0.0,91.0
35463,-0.132,-0.985,0.104,7.718,9.176,-6.023,0.0,82.0
35519,-0.150,-0.980,0.112,5.412,9.328,-10.130,0.0,89.0
35572,-0.156,-0.979,0.119,2.504,6.779,-13.519,0.0,79.0
35625,-0.151,-0.983,0.120,0.420,7.038,-15.504,0.0,77.0
35679,-0.155,-0.978,0.130,-0.176,8.992,-15.794,0.0,78.0
35732,-0.157,-0.984,0.140,-0.969,8.603,-14.275,0.0,90.0
35786,-0.158,-0.985,0.145,-0.397,7.076,-11.275,0.0,91.0
35841,-0.156,-0.978,0.150,-0.229,7.458,-8.954,0.0,88.0
35894,-0.159,-0.981,0.163,0.481,6.748,-6.832,0.0,87.0
35948,-0.175,-0.980,0.158,0.336,3.901,-5.046,0.0,87.0
36004,-0.160,-0.974,0.160,0.389,1.237,-2.878,0.0,87.0
36058,-0.159,-0.986,0.161,1.092,0.656,-0.901,0.0,87.0
36112,-0.145,-0.975,0.143,1.664,1.664,0.229,0.0,87.0
36165,-0.141,-0.981,0.147,1.687,2.435,0.824,0.0,87.0
36218,-0.148,-0.980,0.152,1.305,2.878,0.595,0.0,87.0
36273,-0.146,-0.980,0.137,0.603,2.435,-0.519,0.0,87.0
36326,-0.147,-0.979,0.148,-0.458,2.191,-0.756,0.0,87.0
36380,-0.146,-0.981,0.145,-1.382,1.443,-1.580,0.0,89.0
36434,-0.141,-0.989,0.151,-2.214,1.450,-3.588,0.0,89.0
36491,-0.144,-0.986,0.150,-1.916,1.557,-5.824,0.0,89.0
36545,-0.143,-0.993,0.162,-1.359,1.771,-6.382,0.0,90.0
36599,-0.152,-0.987,0.167,-0.137,3.954,-6.008,0.0,89.0
36653,-0.162,-0.980,0.163,0.626,3.328,-6.733,0.0,89.0
36707,-0.153,-0.983,0.154,1.092,2.107,-7.183,0.0,89.0
36761,-0.155,-0.982,0.141,1.489,3.122,-6.366,0.0,89.0
36814,-0.173,-0.979,0.150,1.588,3.771,-4.550,0.0,88.0
36869,-0.167,-0.981,0.137,0.718,1.031,-3.366,0.0,87.0
36922,-0.155,-0.979,0.138,0.099,-0.802,-2.237,0.0,88.0
36979,-0.146,-0.975,0.141,-0.099,1.069,-1.328,0.0,89.0
37033,-0.150,-0.993,0.141,-0.397,1.954,-1.504,0.0,88.0
37087,-0.144,-0.984,0.148,-0.443,-0.038,-2.878,0.0,88.0
37141,-0.144,-0.987,0.153,-0.679,0.565,-3.649,0.0,89.0
37195,-0.143,-0.984,0.156,-0.389,1.740,-4.290,0.0,89.0
37250,-0.149,-0.986,0.149,-0.656,1.084,-5.824,0.0,88.0
37303,-0.145,-0.979,0.147,-0.473,1.687,-6.550,0.0,88.0
37357,-0.156,-0.990,0.148,-0.947,1.099,-6.931,0.0,87.0
37411,-0.164,-0.975,0.152,-1.618,0.115,-6.710,0.0,88.0
37468,-0.163,-0.973,0.149,-1.542,0.130,-6.008,0.0,88.0
37522,-0.166,-0.985,0.150,-1.466,-0.427,-4.863,0.0,87.0
37576,-0.155,-0.984,0.146,-1.328,-0.298,-3.420,0.0,88.0
37630,-0.153,-0.983,0.142,-1.290,0.672,-2.435,0.0,87.0
37684,-0.155,-0.977,0.143,-1.710,-0.763,-2.763,0.0,86.0
37738,-0.151,-0.984,0.147,-2.099,-2.473,-2.359,0.0,87.0
37835,-0.140,-0.987,0.141,-0.786,0.076,-2.389,0.0,87.0
37889,-0.145,-0.988,0.141,-0.748,1.695,-3.275,0.0,87.0
37943,-0.157,-0.982,0.149,-0.695,-0.046,-4.947,0.0,87.0
38000,-0.147,-0.987,0.133,-0.855,-1.519,-5.641,0.0,87.0
38054,-0.155,-0.982,0.136,-0.595,1.160,-4.817,0.0,87.0
38108,-0.157,-0.988,0.147,-0.718,0.534,-4.305,0.0,87.0
38162,-0.149,-0.982,0.133,-0.351,-1.214,-3.634,0.0,87.0
38216,-0.146,-0.987,0.129,0.099,0.840,-2.954,0.0,86.0
38270,-0.153,-0.997,0.137,0.397,2.924,-2.695,0.0,86.0
38325,-0.157,-0.985,0.147,0.427,0.534,-3.565,0.0,87.0
38378,-0.146,-0.979,0.135,0.145,-0.382,-3.595,0.0,87.0
38432,-0.141,-0.993,0.138,0.656,1.916,-3.511,0.0,88.0
38487,-0.140,-0.985,0.145,0.771,3.221,-3.634,0.0,88.0
38544,-0.142,-0.988,0.133,0.412,2.153,-4.794,0.0,88.0
38598,-0.150,-0.984,0.136,0.290,1.656,-5.450,0.0,87.0
38652,-0.156,-0.986,0.134,0.145,3.344,-5.740,0.0,88.0
38706,-0.158,-0.977,0.142,-0.336,2.740,-5.168,0.0,87.0
38760,-0.154,-0.985,0.138,-0.588,1.366,-4.885,0.0,86.0
38814,-0.150,-0.985,0.129,-0.244,2.298,-4.244,0.0,87.0
38868,-0.158,-0.988,0.135,-0.053,3.603,-3.214,0.0,86.0
38923,-0.157,-0.983,0.141,-0.160,2.565,-2.977,0.0,87.0
38977,-0.154,-0.980,0.143,-0.817,1.153,-3.359,0.0,86.0
39034,-0.153,-0.986,0.143,-1.023,0.992,-2.947,0.0,87.0
39089,-0.145,-0.988,0.138,-0.397,2.412,-2.618,0.0,87.0
39143,-0.149,-0.990,0.128,-0.214,2.557,-3.374,0.0,88.0
39197,-0.148,-0.988,0.140,0.092,2.229,-4.733,0.0,87.0
39251,-0.156,-0.986,0.138,0.015,2.481,-4.481,0.0,87.0
39305,-0.158,-0.987,0.139,0.092,2.511,-3.985,0.0,87.0
39359,-0.165,-0.987,0.138,-0.252,1.611,-4.160,0.0,86.0
39413,-0.153,-0.984,0.133,0.198,1.458,-3.908,0.0,87.0
39468,-0.154,-0.989,0.136,0.397,2.198,-3.458,0.0,87.0
39525,-0.159,-0.979,0.136,1.076,3.168,-3.282,0.0,86.0
39579,-0.159,-0.984,0.141,0.603,2.511,-4.344,0.0,87.0
39633,-0.158,-0.982,0.140,0.366,0.359,-4.450,0.0,88.0
39688,-0.156,-0.990,0.146,0.550,1.061,-4.008,0.0,87.0
39742,-0.160,-0.979,0.138,0.779,2.710,-3.885,0.0,88.0
39796,-0.160,-0.988,0.146,0.649,1.756,-4.611,0.0,88.0
39851,-0.159,-0.973,0.139,0.611,0.794,-4.672,0.0,87.0
39905,-0.158,-0.986,0.146,0.244,1.107,-4.611,0.0,86.0
39959,-0.166,-0.980,0.146,0.130,1.015,-4.672,0.0,86.0
40016,-0.164,-0.985,0.152,0.229,0.595,-4.130,0.0,86.0
40071,-0.151,-0.982,0.143,0.176,0.672,-3.702,0.0,87.0
40125,-0.155,-0.983,0.150,0.641,1.351,-3.687,0.0,86.0
40179,-0.153,-0.983,0.142,0.191,1.939,-4.115,0.0,86.0
40233,-0.162,-0.976,0.153,0.168,0.336,-4.412,0.0,86.0
40289,-0.153,-0.979,0.161,0.176,-0.260,-4.237,0.0,86.0
40343,-0.151,-0.975,0.155,0.527,1.718,-4.618,0.0,86.0
40397,-0.164,-0.978,0.149,0.145,1.832,-4.473,0.0,87.0
40452,-0.155,-0.978,0.137,-0.260,0.580,-4.649,0.0,87.0
40506,-0.156,-0.975,0.140,-1.107,1.832,-4.198,0.0,87.0
40606,-0.162,-0.981,0.144,-2.336,0.275,-4.603,0.0,87.0
40662,-0.162,-0.984,0.147,-2.115,1.092,-4.015,0.0,87.0
40716,-0.151,-0.986,0.152,-1.893,1.626,-4.504,0.0,87.0
40770,-0.155,-0.990,0.143,-1.641,2.069,-4.695,0.0,87.0
40824,-0.164,-0.988,0.158,-1.626,2.176,-5.618,0.0,86.0
40879,-0.152,-0.979,0.155,-1.412,0.939,-4.878,0.0,87.0
40933,-0.152,-0.984,0.144,-1.176,0.855,-5.076,0.0,86.0
40988,-0.157,-0.977,0.140,-1.252,2.214,-4.916,0.0,86.0
41035,-0.161,-0.980,0.132,-1.557,0.939,-4.740,91.0,75.0
41093,-0.166,-0.977,0.146,-1.740,0.374,-4.565,0.0,76.0
41147,-0.155,-0.980,0.129,-2.038,2.244,-4.412,0.0,89.0
41202,-0.163,-0.980,0.137,-1.977,1.863,-4.336,0.0,89.0
41256,-0.157,-0.978,0.140,-1.313,2.176,-3.641,0.0,90.0
41311,-0.159,-0.980,0.125,-1.122,4.565,-2.916,0.0,87.0
41359,-0.159,-0.974,0.128,-0.840,5.321,-3.160,92.0,80.0
41407,-0.158,-0.972,0.135,-0.954,5.519,-3.702,92.0,78.0
41455,-0.167,-0.958,0.133,-0.672,5.931,-3.893,100.0,80.0
41510,-0.151,-0.945,0.128,0.466,5.794,-3.435,0.0,103.0
41569,-0.133,-0.882,0.089,2.855,14.130,0.809,0.0,101.0
41618,-0.141,-0.838,0.096,2.473,17.450,5.893,99.0,90.0
41673,-0.086,-0.782,0.064,5.405,28.374,11.237,0.0,90.0
41729,-0.080,-0.740,0.075,10.542,53.084,16.542,163.0,149.0
41777,-0.086,-0.789,0.024,21.511,78.969,15.046,58.0,103.0
41827,-0.111,-0.840,0.042,22.023,99.733,11.458,71.0,146.0
41876,-0.051,-0.844,-0.024,27.565,127.137,7.695,44.0,146.0
41931,-0.155,-0.889,0.027,38.489,164.664,-0.649,57.0,143.0
41980,-0.302,-0.887,0.135,45.504,138.763,1.466,57.0,141.0
42032,-0.434,-1.087,0.185,55.565,93.664,-9.061,67.0,138.0
42079,-0.492,-1.196,0.073,51.397,46.840,-41.733,38.0,137.0
42126,-0.445,-1.323,0.094,49.756,62.924,-48.321,40.0,134.0
42175,-0.474,-1.324,0.142,61.748,100.817,-41.527,70.0,134.0
42224,-0.503,-0.998,0.270,74.519,102.244,4.328,72.0,135.0
42273,-0.556,-0.952,0.228,72.557,59.672,12.229,30.0,183.0
42319,-0.406,-0.648,0.152,50.763,19.740,7.466,27.0,132.0
42369,-0.494,-0.867,0.130,30.634,-2.763,-0.153,28.0,185.0
42419,-0.467,-0.799,0.094,29.679,-34.031,-12.763,28.0,137.0
42465,-0.467,-0.841,0.138,17.015,-61.786,-17.374,25.0,136.0
42514,-0.189,-1.011,-0.175,29.794,-4.550,-13.595,70.0,137.0
42563,-0.413,-0.551,0.265,-22.069,74.977,-28.115,69.0,138.0
42616,-0.599,-0.687,0.503,-20.962,64.450,13.275,67.0,0.0
42665,-0.586,-0.857,0.475,-17.137,-31.458,65.947,65.0,145.0
42716,-0.266,-0.749,0.520,1.679,-20.679,139.344,64.0,149.0
42765,-0.490,-1.115,0.414,1.985,8.061,146.595,61.0,151.0
42814,-0.859,-1.136,0.707,-29.313,-46.885,108.802,60.0,153.0
42867,-0.921,-1.112,0.702,-28.038,-124.901,83.366,58.0,156.0
42916,-0.779,-1.231,0.404,-2.908,-169.366,61.336,57.0,155.0
42961,-0.581,-0.817,0.410,1.298,-101.985,22.145,56.0,78.0
43009,-0.611,-0.684,0.357,-10.504,-57.924,8.992,56.0,109.0
43054,-0.699,-0.587,0.534,-0.008,-82.153,33.878,55.0,81.0
43100,-0.773,-0.629,0.721,-13.260,-161.603,31.771,69.0,85.0
43188,0.154,-0.384,0.219,100.237,-124.099,106.809,63.0,69.0
43233,0.034,-0.279,0.406,78.870,-33.924,131.168,62.0,71.0
43280,-0.079,-0.275,0.446,45.145,14.107,113.092,36.0,74.0
43324,-0.200,-0.138,0.640,40.183,35.282,94.611,38.0,83.0
43368,-0.416,-0.184,0.926,6.954,20.176,56.145,39.0,87.0
43413,-0.321,-0.170,0.715,5.832,36.420,27.145,46.0,89.0
43459,-0.333,0.280,1.063,-20.397,143.000,58.092,57.0,83.0
43504,-1.263,-0.425,1.400,-88.832,71.153,24.405,49.0,88.0
43549,-1.069,-0.296,1.141,-47.053,-90.237,-86.229,58.0,88.0
43595,-0.485,-0.123,0.986,-12.412,-72.069,8.748,58.0,87.0
43642,-0.204,-0.091,0.726,36.656,-61.985,129.740,80.0,87.0
43692,-0.350,-0.252,0.900,-1.504,-48.977,103.802,63.0,91.0
43738,-0.311,-0.277,0.745,10.336,-54.092,68.351,62.0,90.0
43784,-0.342,0.005,0.845,6.679,-50.977,39.618,62.0,92.0
43828,-0.411,-0.004,0.884,-17.092,-54.779,38.031,60.0,57.0
43874,-0.334,-0.036,0.950,-28.901,-51.313,67.817,59.0,91.0
43920,-0.320,-0.076,0.967,-23.939,-35.145,79.916,58.0,89.0
43966,-0.333,-0.147,0.972,-14.489,-22.649,85.985,58.0,96.0
44012,-0.273,-0.152,0.922,3.611,-24.450,71.656,57.0,83.0
44057,-0.267,-0.125,0.923,18.290,9.366,63.351,57.0,83.0
44105,-0.394,-0.114,1.032,35.015,4.740,69.679,57.0,83.0
44150,-0.327,-0.104,0.990,44.794,-3.611,60.695,56.0,76.0
44195,-0.449,-0.196,1.061,52.252,-4.702,41.053,55.0,78.0
44240,-0.445,-0.182,1.098,65.046,-44.954,57.069,55.0,77.0
44285,-0.246,-0.168,1.078,77.374,-54.046,49.954,54.0,77.0
44331,-0.144,-0.090,0.945,108.420,-29.427,26.183,57.0,79.0
44378,-0.363,0.280,1.113,107.336,-21.031,19.763,72.0,83.0
44423,-0.338,0.467,0.940,110.527,-43.939,50.000,83.0,53.0
44470,-0.122,0.320,0.843,94.870,-39.092,67.328,65.0,55.0
44518,-0.033,0.300,0.827,100.618,-36.924,87.557,119.0,59.0
44566,0.140,0.310,0.744,111.565,-49.053,83.580,115.0,63.0
44615,0.280,0.548,0.791,108.733,-59.267,83.534,113.0,104.0
44665,0.340,0.400,0.620,111.504,-79.656,84.191,102.0,113.0
44716,0.449,0.459,0.443,91.641,-104.313,70.282,70.0,132.0
44767,0.645,0.394,0.165,57.031,-116.473,77.939,72.0,177.0
44821,0.606,0.385,0.064,22.191,-114.504,71.718,92.0,0.0
44877,0.554,0.578,-0.143,-45.527,-158.534,13.611,0.0,117.0
44936,0.731,0.803,-0.412,-86.206,-92.878,11.137,0.0,114.0
44982,0.602,0.918,-0.172,-85.496,18.824,14.069,16.0,113.0
45031,0.436,0.835,0.191,-75.802,32.427,-5.359,16.0,0.0
45081,0.463,0.762,0.367,-14.626,-28.924,-29.863,17.0,0.0
45131,0.601,0.906,0.205,87.244,-100.115,-47.389,10.0,0.0
45175,0.877,1.369,-0.221,110.878,-120.939,-46.565,9.0,100.0
45231,0.975,2.000,-0.303,83.725,-89.908,-9.206,0.0,115.0
45287,0.635,0.433,-0.265,65.939,-72.924,-19.962,0.0,115.0
45345,0.596,0.415,-0.277,44.191,-27.519,-71.374,0.0,155.0
45403,0.649,1.296,-0.065,53.824,-17.992,-110.237,0.0,96.0
45448,0.424,0.241,-0.018,90.244,-48.489,-38.710,18.0,112.0
45491,0.283,0.471,-0.321,95.237,-62.618,-74.557,19.0,59.0
45533,0.470,0.963,-0.642,117.695,-39.061,-76.710,19.0,57.0
45618,0.137,0.641,-0.795,92.061,-66.954,-38.344,20.0,55.0
45670,0.168,0.818,-0.878,74.733,-70.382,-34.802,0.0,55.0
45722,0.132,0.566,-0.972,57.901,-59.351,-25.107,0.0,54.0
45764,0.143,0.741,-1.040,43.038,-15.191,-20.954,19.0,54.0
45809,0.122,0.646,-0.968,21.382,17.809,-16.802,19.0,53.0
45851,0.069,0.561,-0.809,20.794,17.290,-13.916,21.0,53.0
45893,0.127,0.585,-0.812,28.176,2.565,-12.992,19.0,53.0
45935,0.093,0.622,-0.854,31.656,-10.534,-11.679,20.0,52.0
45977,0.145,0.605,-0.885,22.901,-12.015,-17.053,19.0,52.0
46019,0.142,0.556,-0.955,18.519,-1.351,-15.794,21.0,53.0
46061,0.128,0.567,-0.979,15.695,19.321,-9.534,19.0,52.0
46103,0.089,0.505,-0.888,9.725,22.748,-0.885,20.0,52.0
46145,-0.006,0.411,-0.805,17.542,-2.412,0.328,20.0,53.0
46190,0.142,0.590,-0.934,20.397,-23.908,2.099,21.0,52.0
46232,0.199,0.524,-0.930,10.023,14.260,2.611,21.0,52.0
46274,0.128,0.458,-0.953,2.305,-3.305,0.489,20.0,52.0
46316,0.122,0.439,-0.937,-4.679,2.198,-6.985,20.0,52.0
46358,0.116,0.514,-0.931,-3.282,4.542,-6.870,20.0,52.0
46401,0.069,0.551,-0.901,-5.626,5.275,0.473,30.0,52.0
46443,0.075,0.518,-0.883,-5.550,-0.046,3.947,22.0,52.0
46485,0.114,0.499,-0.914,-1.603,-10.588,11.389,19.0,52.0
46527,0.151,0.514,-0.923,-1.756,-6.710,13.191,19.0,53.0
46572,0.178,0.459,-0.914,-2.420,-2.863,6.298,19.0,53.0
46614,0.176,0.476,-0.895,1.282,-1.344,-3.519,23.0,53.0
46656,0.136,0.494,-0.887,5.015,1.855,-13.908,20.0,53.0
46698,0.119,0.532,-0.928,4.939,2.534,-13.008,19.0,53.0
46740,0.102,0.517,-0.934,3.588,3.115,-9.191,19.0,53.0
46782,0.116,0.497,-0.926,0.679,1.840,-3.740,19.0,53.0
46824,0.129,0.496,-0.940,-4.656,3.397,-4.198,20.0,53.0
46866,0.144,0.502,-0.957,-3.718,10.824,-1.038,18.0,53.0
46908,0.108,0.502,-0.865,-1.321,11.702,-6.824,19.0,52.0
46950,0.133,0.539,-0.853,0.389,2.275,-2.977,19.0,52.0
46995,0.148,0.499,-0.885,3.351,-2.756,-1.916,19.0,52.0
47037,0.153,0.474,-0.912,2.702,-6.206,-6.008,19.0,52.0
47079,0.148,0.509,-0.958,3.099,-2.137,-10.359,18.0,53.0
47121,0.107,0.527,-0.932,-0.305,1.168,-6.939,19.0,52.0
47163,0.115,0.510,-0.943,-0.931,4.725,-3.733,19.0,52.0
47205,0.128,0.497,-0.901,-1.107,5.458,-2.504,18.0,53.0
47247,0.139,0.490,-0.890,0.023,3.695,-4.580,19.0,52.0
47289,0.140,0.499,-0.895,1.405,1.473,-6.321,19.0,53.0
47332,0.131,0.506,-0.890,1.985,-1.359,-6.397,20.0,52.0
47377,0.122,0.505,-0.942,2.427,-0.191,-5.687,19.0,53.0
47419,0.122,0.502,-0.932,-0.779,2.198,-3.710,19.0,53.0
47461,0.134,0.494,-0.913,-1.634,2.427,-4.298,19.0,52.0
47503,0.133,0.504,-0.907,-1.069,0.969,-4.580,19.0,52.0
47545,0.136,0.500,-0.903,1.527,1.092,-4.252,19.0,53.0
47588,0.122,0.493,-0.926,1.473,1.397,-4.008,19.0,53.0
47630,0.128,0.499,-0.922,0.053,1.893,-4.137,19.0,53.0
47672,0.131,0.498,-0.916,-1.389,1.962,-4.397,19.0,53.0
47714,0.130,0.499,-0.888,0.282,1.893,-4.885,19.0,53.0
47803,0.130,0.490,-0.912,0.336,1.053,-4.290,19.0,52.0
47845,0.118,0.498,-0.919,0.229,1.603,-4.336,20.0,52.0
47892,0.128,0.496,-0.899,-0.588,1.603,-4.229,19.0,53.0
47934,0.124,0.494,-0.917,0.031,1.763,-4.183,19.0,52.0
47975,0.134,0.489,-0.927,-0.733,3.038,-4.573,19.0,52.0
48016,0.128,0.501,-0.902,-1.206,3.275,-5.344,19.0,52.0
48057,0.110,0.486,-0.894,1.710,0.031,-4.137,19.0,52.0
48098,0.133,0.512,-0.906,1.855,0.435,-3.496,19.0,52.0
48139,0.130,0.491,-0.916,0.947,1.198,-3.985,19.0,52.0
48183,0.128,0.493,-0.923,0.511,0.939,-4.275,19.0,52.0
48224,0.124,0.491,-0.912,-0.198,1.382,-4.603,19.0,52.0
48266,0.127,0.495,-0.910,-0.153,1.458,-4.458,19.0,52.0
48307,0.129,0.496,-0.916,0.405,1.695,-4.550,19.0,52.0
48348,0.119,0.493,-0.916,-0.420,1.817,-4.160,19.0,52.0
48389,0.128,0.493,-0.913,-0.221,1.603,-4.046,19.0,52.0
48430,0.125,0.500,-0.912,-0.099,1.786,-4.290,19.0,52.0
48472,0.124,0.499,-0.906,0.809,1.374,-4.176,19.0,52.0
48513,0.127,0.493,-0.920,0.267,1.779,-3.969,19.0,52.0
48557,0.129,0.494,-0.905,-0.489,1.626,-4.198,19.0,52.0
48598,0.130,0.493,-0.903,-0.015,1.069,-4.244,19.0,52.0
48640,0.129,0.488,-0.904,1.069,1.023,-4.221,19.0,52.0
48680,0.128,0.484,-0.924,0.779,1.374,-4.260,19.0,52.0
48721,0.131,0.495,-0.922,-0.443,1.656,-4.183,19.0,52.0
48762,0.131,0.490,-0.921,-0.611,1.702,-4.176,19.0,52.0
48804,0.133,0.496,-0.911,0.649,1.061,-4.183,19.0,52.0
48845,0.130,0.491,-0.922,0.328,1.870,-4.092,19.0,52.0
48886,0.132,0.490,-0.913,-0.435,1.649,-4.122,19.0,52.0
48928,0.131,0.495,-0.908,-0.382,1.611,-4.130,20.0,52.0
48972,0.124,0.493,-0.901,-0.214,1.397,-3.969,20.0,52.0
49013,0.129,0.494,-0.901,0.191,1.458,-4.008,20.0,52.0
49055,0.132,0.492,-0.905,0.023,1.427,-4.061,20.0,52.0
49096,0.122,0.492,-0.915,0.740,1.069,-4.046,20.0,53.0
49138,0.123,0.487,-0.925,0.542,1.809,-4.099,20.0,53.0
49179,0.129,0.492,-0.907,-0.542,1.992,-3.977,20.0,53.0
49221,0.128,0.489,-0.910,-0.382,1.168,-4.099,20.0,53.0
49262,0.128,0.496,-0.917,0.000,1.260,-4.290,20.0,52.0
49304,0.130,0.492,-0.911,0.397,1.550,-4.069,20.0,53.0
49348,0.125,0.490,-0.912,-0.176,1.397,-4.046,20.0,53.0
49389,0.125,0.491,-0.910,-0.672,1.725,-4.214,20.0,52.0
49431,0.127,0.491,-0.918,-0.565,2.191,-4.069,20.0,52.0
49472,0.122,0.496,-0.894,-0.153,1.290,-3.672,20.0,52.0
49514,0.139,0.491,-0.913,1.115,1.122,-3.878,19.0,52.0
49555,0.130,0.495,-0.928,0.427,0.985,-4.191,19.0,52.0
49597,0.128,0.494,-0.917,-0.710,1.427,-4.252,22.0,53.0
49638,0.132,0.492,-0.911,-0.344,1.565,-4.122,20.0,52.0
49680,0.129,0.492,-0.903,0.397,1.221,-4.099,20.0,52.0
49725,0.122,0.490,-0.924,0.282,1.198,-4.244,20.0,52.0
49766,0.127,0.488,-0.914,-0.656,1.603,-4.275,20.0,52.0
49808,0.125,0.493,-0.900,-0.565,1.679,-4.183,22.0,53.0
49849,0.131,0.496,-0.906,0.198,1.748,-4.031,22.0,53.0
49934,0.129,0.489,-0.920,-0.252,1.565,-4.191,22.0,53.0
49976,0.130,0.489,-0.921,-0.496,1.679,-4.237,20.0,52.0
50018,0.128,0.490,-0.915,-0.336,1.252,-4.321,20.0,53.0
50059,0.132,0.491,-0.922,0.389,1.748,-4.084,20.0,53.0
50101,0.129,0.490,-0.922,-0.183,1.435,-4.260,20.0,52.0
50146,0.127,0.489,-0.911,-0.244,1.038,-4.328,20.0,53.0
50187,0.125,0.491,-0.920,-0.519,1.908,-4.046,19.0,52.0
50229,0.130,0.496,-0.912,-0.206,1.130,-4.275,20.0,53.0
50270,0.128,0.490,-0.915,0.763,1.214,-4.496,20.0,52.0
50312,0.130,0.493,-0.913,0.183,1.168,-4.137,20.0,53.0
50354,0.128,0.494,-0.919,-0.344,1.573,-4.206,20.0,52.0
50396,0.127,0.490,-0.908,-0.603,1.809,-4.092,20.0,53.0
50437,0.128,0.493,-0.902,0.061,1.275,-4.206,20.0,53.0
50479,0.131,0.490,-0.923,0.206,1.466,-4.038,20.0,53.0
50524,0.127,0.494,-0.915,-0.427,1.504,-4.214,20.0,53.0
50565,0.132,0.497,-0.913,-0.008,1.504,-4.191,20.0,53.0
50607,0.120,0.490,-0.908,0.084,1.626,-4.160,20.0,53.0
50649,0.127,0.494,-0.921,0.183,1.290,-4.183,20.0,53.0
50691,0.130,0.490,-0.909,0.000,1.137,-4.405,20.0,53.0
50732,0.129,0.498,-0.908,0.015,1.275,-4.534,20.0,52.0
50774,0.127,0.488,-0.908,-0.092,1.282,-4.328,20.0,53.0
50816,0.128,0.492,-0.913,0.282,1.176,-4.130,20.0,53.0
50857,0.129,0.491,-0.910,0.145,1.435,-4.321,20.0,53.0
50898,0.122,0.490,-0.918,-0.092,1.420,-4.359,20.0,53.0
50944,0.127,0.494,-0.914,-0.145,1.763,-4.099,20.0,53.0
50985,0.121,0.489,-0.912,-0.145,1.122,-4.252,20.0,53.0
51027,0.125,0.495,-0.913,0.344,1.168,-4.206,20.0,53.0
51069,0.132,0.483,-0.903,0.405,1.511,-4.130,20.0,53.0
51111,0.120,0.485,-0.927,-0.153,1.252,-4.168,20.0,53.0
51153,0.127,0.496,-0.918,-0.412,1.733,-3.992,20.0,53.0
51194,0.133,0.483,-0.908,0.023,1.359,-4.298,22.0,53.0
51236,0.129,0.491,-0.910,0.321,0.931,-4.321,20.0,53.0
51278,0.134,0.489,-0.921,-0.145,1.557,-4.160,22.0,53.0
51323,0.126,0.492,-0.908,0.084,1.450,-4.168,22.0,53.0
51365,0.128,0.491,-0.925,0.290,1.389,-4.183,22.0,53.0
51407,0.126,0.488,-0.915,0.153,1.244,-4.099,19.0,53.0
51449,0.129,0.492,-0.922,-0.145,1.519,-4.260,19.0,53.0
51491,0.122,0.491,-0.905,-0.496,1.565,-4.160,22.0,53.0
51533,0.131,0.487,-0.909,0.168,1.206,-4.244,20.0,53.0
51575,0.118,0.489,-0.921,0.725,1.397,-4.092,20.0,53.0
51617,0.124,0.484,-0.913,0.489,1.176,-3.985,20.0,53.0
51659,0.125,0.486,-0.922,0.229,0.931,-4.351,20.0,53.0
51704,0.128,0.489,-0.917,-0.534,1.794,-4.153,20.0,53.0
51746,0.131,0.492,-0.906,-0.427,1.405,-4.145,20.0,53.0
51788,0.120,0.487,-0.910,0.099,1.282,-4.076,20.0,53.0
51830,0.130,0.491,-0.920,0.244,1.550,-4.107,20.0,53.0
51872,0.125,0.485,-0.913,-0.504,1.489,-4.252,20.0,53.0
51914,0.127,0.484,-0.912,-0.260,1.214,-4.237,20.0,53.0
51956,0.129,0.490,-0.911,0.206,1.382,-4.137,20.0,53.0
51998,0.124,0.489,-0.922,0.031,1.542,-4.229,20.0,53.0
52083,0.124,0.493,-0.913,-0.267,1.611,-4.191,22.0,53.0
52128,0.125,0.485,-0.919,0.260,1.290,-4.290,20.0,53.0
52170,0.133,0.489,-0.923,0.053,1.405,-4.137,22.0,53.0
52212,0.123,0.489,-0.907,-0.244,1.565,-4.046,22.0,53.0
52255,0.127,0.489,-0.923,-0.061,1.153,-4.214,20.0,53.0
52297,0.122,0.490,-0.922,-0.046,1.702,-4.122,20.0,53.0
52339,0.124,0.488,-0.920,-0.107,1.305,-4.244,20.0,53.0
52381,0.124,0.485,-0.903,-0.244,1.496,-4.214,22.0,53.0
52423,0.117,0.492,-0.918,-0.130,1.519,-4.336,22.0,53.0
52465,0.122,0.483,-0.913,-0.076,1.198,-4.313,22.0,53.0
52507,0.130,0.489,-0.918,0.031,1.168,-4.328,22.0,53.0
52553,0.125,0.489,-0.918,-0.672,1.786,-4.206,22.0,53.0
52595,0.125,0.487,-0.910,-0.328,1.626,-4.115,22.0,53.0
52637,0.125,0.490,-0.910,-0.008,1.366,-4.183,22.0,53.0
52680,0.122,0.489,-0.924,0.626,1.198,-4.229,22.0,53.0
52722,0.131,0.489,-0.920,-0.092,1.313,-4.153,22.0,53.0
52764,0.131,0.487,-0.908,-0.298,1.611,-4.611,20.0,53.0
52806,0.122,0.487,-0.911,0.145,1.420,-4.153,20.0,53.0
52848,0.118,0.488,-0.925,0.191,1.718,-4.160,20.0,53.0
52890,0.125,0.481,-0.921,-0.198,1.550,-4.122,20.0,53.0
52936,0.122,0.483,-0.913,-0.672,1.527,-4.244,20.0,53.0
52978,0.132,0.489,-0.914,0.023,1.511,-4.092,20.0,53.0
53020,0.125,0.488,-0.913,0.313,1.427,-4.168,20.0,53.0
53063,0.127,0.489,-0.920,-0.061,1.519,-4.137,20.0,53.0
53105,0.123,0.484,-0.917,-0.321,1.115,-4.313,20.0,53.0
53147,0.132,0.491,-0.914,-0.153,1.397,-4.344,19.0,53.0
53189,0.131,0.491,-0.911,-0.107,1.412,-4.099,19.0,53.0
53231,0.129,0.486,-0.920,-0.214,1.443,-4.092,19.0,53.0
53274,0.126,0.494,-0.919,-0.176,1.496,-4.130,19.0,53.0
53323,0.130,0.493,-0.920,-0.252,1.473,-4.046,19.0,53.0
53364,0.128,0.488,-0.917,-0.206,1.443,-4.115,19.0,52.0
53406,0.126,0.489,-0.915,0.198,1.450,-4.206,19.0,53.0
53447,0.126,0.490,-0.926,-0.115,1.130,-4.382,19.0,53.0
53488,0.132,0.490,-0.908,0.191,1.191,-4.137,19.0,53.0
53529,0.122,0.489,-0.916,-0.160,1.573,-4.359,19.0,53.0
53570,0.118,0.490,-0.921,-0.267,1.740,-4.137,19.0,53.0
53612,0.126,0.489,-0.907,-0.053,1.176,-4.267,19.0,53.0
53653,0.129,0.491,-0.920,-0.023,1.542,-4.214,19.0,53.0
53697,0.127,0.487,-0.913,-0.344,1.473,-4.160,19.0,53.0
53738,0.124,0.488,-0.915,-0.191,1.443,-4.198,19.0,53.0
53779,0.133,0.487,-0.918,0.344,1.611,-4.084,19.0,53.0
53821,0.133,0.485,-0.918,0.031,1.427,-4.092,19.0,53.0
53862,0.127,0.487,-0.927,-0.542,1.351,-4.130,19.0,53.0
53903,0.127,0.487,-0.927,-0.435,1.634,-4.061,19.0,53.0
53944,0.127,0.491,-0.922,-0.137,1.206,-4.084,19.0,53.0
53986,0.121,0.491,-0.925,0.092,1.611,-4.031,19.0,53.0
54027,0.127,0.490,-0.901,-0.252,1.435,-4.183,19.0,53.0
54071,0.135,0.486,-0.930,-0.107,1.237,-4.298,19.0,53.0
54112,0.124,0.491,-0.921,-0.489,1.420,-4.160,19.0,53.0
54154,0.128,0.489,-0.916,-0.267,1.275,-4.145,19.0,53.0
54238,0.130,0.489,-0.910,0.305,1.305,-4.191,21.0,53.0
54280,0.119,0.485,-0.913,0.176,1.168,-4.282,20.0,53.0
54321,0.129,0.489,-0.908,-0.229,1.595,-4.122,20.0,53.0
54362,0.128,0.488,-0.912,-0.305,1.305,-4.321,20.0,52.0
54404,0.114,0.476,-0.897,0.069,1.565,-4.198,20.0,53.0
54445,0.124,0.484,-0.926,0.084,1.405,-4.092,20.0,53.0
54487,0.122,0.487,-0.922,-0.519,1.481,-4.168,20.0,53.0
54531,0.123,0.487,-0.921,-0.282,1.351,-4.244,20.0,53.0
54573,0.122,0.492,-0.913,0.122,1.496,-3.908,20.0,53.0
54614,0.123,0.490,-0.917,0.260,1.389,-4.252,20.0,53.0
54654,0.133,0.483,-0.913,-0.519,1.473,-4.206,22.0,53.0
54696,0.128,0.487,-0.917,-0.786,1.420,-4.328,20.0,53.0
54738,0.119,0.495,-0.908,0.008,1.450,-4.214,20.0,53.0
54779,0.121,0.484,-0.915,0.168,1.595,-4.099,20.0,53.0
54820,0.128,0.489,-0.921,-0.221,1.229,-4.191,20.0,53.0
54862,0.125,0.490,-0.913,-0.191,1.511,-4.076,20.0,53.0
54907,0.123,0.484,-0.918,-0.023,1.489,-4.176,20.0,53.0
54948,0.124,0.487,-0.920,-0.084,1.496,-4.069,20.0,53.0
54990,0.129,0.490,-0.923,-0.496,1.550,-4.237,20.0,53.0
55031,0.132,0.485,-0.911,-0.076,1.374,-4.206,20.0,53.0
55073,0.122,0.488,-0.913,0.198,1.473,-4.053,20.0,53.0
55114,0.129,0.487,-0.914,-0.061,1.313,-4.176,20.0,53.0
55156,0.121,0.485,-0.919,-0.069,1.092,-4.221,20.0,53.0
55198,0.122,0.493,-0.915,-0.183,1.481,-4.092,20.0,53.0
55239,0.126,0.488,-0.907,-0.145,1.458,-4.221,20.0,53.0
55284,0.118,0.486,-0.923,0.092,1.511,-4.504,20.0,53.0
55325,0.125,0.489,-0.914,-0.176,1.550,-4.221,20.0,53.0
55367,0.127,0.489,-0.912,-0.359,1.267,-4.183,20.0,53.0
55409,0.122,0.490,-0.917,-0.191,1.611,-4.130,20.0,53.0
55450,0.126,0.489,-0.930,-0.115,1.519,-4.115,20.0,53.0
55492,0.121,0.485,-0.917,-0.031,1.435,-4.198,20.0,53.0
55534,0.124,0.491,-0.912,-0.420,1.534,-4.053,22.0,53.0
55575,0.127,0.488,-0.912,-0.084,1.130,-4.336,20.0,53.0
55617,0.130,0.482,-0.926,-0.214,1.595,-4.649,20.0,53.0
55662,0.133,0.489,-0.913,0.076,1.397,-4.206,20.0,53.0
55703,0.130,0.484,-0.921,0.275,1.023,-4.290,20.0,53.0
55745,0.125,0.488,-0.915,-0.015,1.748,-4.092,20.0,53.0
55787,0.126,0.490,-0.919,-0.305,1.679,-4.038,20.0,53.0
55828,0.129,0.489,-0.920,-0.206,1.519,-4.198,20.0,53.0
55870,0.122,0.486,-0.914,0.137,1.595,-4.031,20.0,53.0
55912,0.123,0.494,-0.921,0.351,1.382,-4.206,20.0,53.0
55954,0.124,0.483,-0.916,-0.160,1.710,-4.076,20.0,53.0
55995,0.125,0.487,-0.919,-0.389,1.466,-4.092,20.0,53.0
56040,0.130,0.492,-0.919,0.031,1.336,-4.252,21.0,53.0
56082,0.129,0.486,-0.921,0.198,1.427,-4.137,20.0,53.0
56124,0.123,0.490,-0.920,-0.511,1.504,-4.237,20.0,53.0
56165,0.130,0.486,-0.917,-0.542,1.580,-4.130,20.0,53.0
56207,0.125,0.486,-0.924,-0.565,1.573,-4.214,20.0,53.0
56249,0.128,0.490,-0.918,-1.565,1.863,-4.084,19.0,53.0
56291,0.123,0.488,-0.913,-0.855,1.679,-4.221,19.0,53.0
56376,0.129,0.486,-0.921,0.634,1.145,-4.168,20.0,53.0
56418,0.121,0.485,-0.917,0.023,1.351,-4.153,20.0,53.0
56459,0.125,0.484,-0.911,0.000,1.656,-4.267,20.0,53.0
56504,0.123,0.490,-0.918,0.145,1.412,-4.191,20.0,53.0
56546,0.127,0.490,-0.916,0.130,1.443,-4.168,20.0,53.0
56588,0.123,0.487,-0.910,-0.626,1.588,-4.168,20.0,53.0
56630,0.129,0.491,-0.920,-0.031,1.336,-4.160,20.0,53.0
56672,0.123,0.485,-0.916,0.366,1.557,-3.947,20.0,53.0
56714,0.120,0.488,-0.909,-0.092,1.565,-4.031,20.0,53.0
56755,0.127,0.486,-0.933,-0.389,1.153,-4.214,20.0,53.0
56797,0.129,0.490,-0.919,-0.176,1.649,-4.031,20.0,53.0
56839,0.123,0.485,-0.918,0.550,1.298,-4.252,20.0,53.0
56884,0.122,0.484,-0.927,-0.176,1.603,-4.198,20.0,53.0
56926,0.132,0.496,-0.916,-0.443,1.260,-4.145,20.0,53.0
56968,0.126,0.489,-0.914,0.145,1.557,-3.954,20.0,53.0
57010,0.126,0.484,-0.915,0.313,1.382,-4.168,22.0,53.0
57052,0.132,0.489,-0.915,0.069,1.366,-4.221,19.0,53.0
57094,0.123,0.484,-0.913,-0.282,1.504,-4.267,19.0,53.0
57136,0.129,0.485,-0.909,-0.275,1.450,-4.031,22.0,53.0
57178,0.122,0.491,-0.922,-0.122,1.481,-4.046,19.0,53.0
57220,0.120,0.482,-0.918,-0.221,1.519,-4.015,19.0,53.0
57265,0.128,0.484,-0.923,-0.176,1.321,-4.168,22.0,53.0
57307,0.122,0.489,-0.916,-0.229,1.588,-4.206,22.0,53.0
57349,0.124,0.488,-0.926,-0.069,1.229,-4.092,20.0,53.0
57391,0.120,0.487,-0.924,-0.412,1.359,-4.176,22.0,53.0
57433,0.133,0.491,-0.920,-0.473,1.412,-4.130,22.0,53.0
57475,0.125,0.490,-0.928,0.168,1.191,-4.328,22.0,53.0
57517,0.126,0.489,-0.922,0.023,1.634,-4.084,20.0,53.0
57559,0.129,0.488,-0.917,-0.427,1.282,-4.122,20.0,53.0
57602,0.124,0.488,-0.916,-0.076,1.397,-4.153,20.0,53.0
57647,0.126,0.489,-0.915,-0.061,1.382,-4.076,20.0,53.0
57689,0.130,0.490,-0.909,0.260,1.267,-4.015,20.0,53.0
57731,0.132,0.485,-0.919,-0.191,1.557,-3.977,20.0,53.0
57773,0.125,0.489,-0.919,-0.519,1.344,-4.282,20.0,53.0
57815,0.118,0.490,-0.909,-0.107,1.656,-4.092,20.0,53.0
57857,0.129,0.490,-0.919,0.206,1.313,-3.992,20.0,53.0
57899,0.123,0.479,-0.917,-0.153,1.389,-4.229,20.0,53.0
57940,0.125,0.484,-0.917,-0.489,1.573,-4.244,20.0,53.0
57984,0.123,0.491,-0.915,-0.084,1.168,-4.260,20.0,53.0
58029,0.125,0.489,-0.907,0.107,1.313,-4.107,20.0,53.0
58071,0.123,0.493,-0.921,-0.031,1.450,-4.092,20.0,53.0
58113,0.125,0.487,-0.920,-0.275,1.122,-4.076,20.0,53.0
58155,0.127,0.491,-0.918,-0.252,1.618,-4.122,20.0,53.0
58198,0.127,0.482,-0.918,-0.321,1.473,-4.122,20.0,53.0
58240,0.118,0.494,-0.911,-0.405,1.344,-4.313,20.0,53.0
58281,0.122,0.485,-0.925,-0.046,1.565,-4.214,20.0,53.0
58323,0.125,0.484,-0.907,0.137,1.588,-4.076,20.0,53.0
58365,0.129,0.481,-0.918,-0.321,1.328,-4.237,20.0,53.0
58408,0.126,0.489,-0.915,-0.206,1.611,-4.252,20.0,53.0
58454,0.130,0.489,-0.921,-0.069,1.389,-4.191,20.0,53.0
58540,0.121,0.488,-0.916,-0.687,1.687,-4.183,20.0,53.0
58582,0.123,0.488,-0.928,-0.252,1.542,-4.069,20.0,53.0
58624,0.129,0.491,-0.918,0.252,1.481,-4.061,20.0,53.0
58665,0.122,0.487,-0.920,0.099,1.466,-4.107,20.0,53.0
58708,0.129,0.481,-0.920,-0.328,1.443,-4.252,20.0,53.0
58750,0.127,0.489,-0.906,0.061,1.412,-4.115,20.0,53.0
58798,0.126,0.489,-0.925,0.160,1.298,-4.198,20.0,53.0
58839,0.125,0.481,-0.922,0.351,1.290,-4.023,20.0,53.0
58883,0.128,0.488,-0.911,-0.176,1.542,-4.252,20.0,53.0
58925,0.122,0.486,-0.914,-0.145,1.550,-4.115,20.0,53.0
58966,0.123,0.484,-0.913,-0.305,1.351,-4.122,20.0,53.0
59006,0.128,0.490,-0.912,-0.015,1.588,-4.099,20.0,53.0
59047,0.121,0.492,-0.913,-0.092,1.427,-4.275,20.0,53.0
59089,0.124,0.486,-0.920,0.107,1.435,-4.053,20.0,53.0
59130,0.123,0.484,-0.916,-0.115,1.565,-4.115,20.0,53.0
59171,0.125,0.485,-0.916,-0.198,1.191,-4.191,20.0,53.0
59213,0.118,0.491,-0.913,0.069,1.550,-4.115,20.0,53.0
59257,0.118,0.488,-0.914,0.107,1.534,-4.160,20.0,53.0
59298,0.120,0.485,-0.921,-0.206,1.328,-4.198,20.0,53.0
59339,0.125,0.487,-0.920,-0.626,1.405,-4.298,20.0,53.0
59381,0.125,0.491,-0.919,-0.183,1.458,-4.122,22.0,53.0
59422,0.121,0.487,-0.920,0.023,1.557,-4.153,19.0,53.0
59463,0.119,0.488,-0.917,-0.252,1.267,-4.053,19.0,53.0
59505,0.128,0.484,-0.915,-0.290,1.260,-3.992,19.0,53.0
59546,0.127,0.487,-0.916,0.191,1.351,-4.237,22.0,53.0
59587,0.125,0.486,-0.914,-0.229,1.466,-4.099,19.0,53.0
59632,0.124,0.483,-0.918,-0.305,1.595,-4.206,22.0,53.0
59673,0.120,0.488,-0.922,-0.321,1.466,-4.237,22.0,53.0
59715,0.124,0.490,-0.919,-0.122,1.420,-4.321,22.0,53.0
59756,0.125,0.485,-0.915,-0.267,1.321,-4.145,22.0,53.0
59798,0.128,0.487,-0.914,-0.542,1.443,-4.168,20.0,53.0
59839,0.123,0.485,-0.917,-0.015,1.573,-4.206,22.0,53.0
59881,0.125,0.488,-0.916,-0.328,1.496,-4.084,22.0,53.0
59922,0.122,0.486,-0.912,-0.046,1.458,-4.282,19.0,53.0
59964,0.128,0.486,-0.928,-0.214,1.389,-4.122,20.0,53.0
60008,0.123,0.484,-0.914,-0.420,1.397,-4.244,20.0,53.0
60049,0.125,0.490,-0.909,-0.008,1.573,-4.229,20.0,53.0
60091,0.124,0.487,-0.919,-0.153,1.580,-4.244,20.0,53.0
60132,0.126,0.489,-0.923,-0.069,1.466,-4.145,20.0,53.0
60174,0.129,0.487,-0.918,-0.298,1.511,-4.191,20.0,53.0
60215,0.121,0.488,-0.914,-0.435,1.298,-4.298,20.0,53.0
60257,0.129,0.489,-0.928,-0.031,1.466,-4.015,20.0,53.0
60298,0.126,0.486,-0.912,0.221,1.328,-4.038,20.0,53.0
60340,0.121,0.483,-0.917,-0.443,1.275,-4.137,20.0,53.0
60384,0.126,0.490,-0.911,-0.511,1.496,-4.115,20.0,53.0
60426,0.128,0.481,-0.917,-0.137,1.389,-4.214,20.0,53.0
60468,0.128,0.479,-0.914,-0.031,1.496,-4.191,20.0,53.0
60509,0.126,0.487,-0.923,-0.084,1.473,-4.015,20.0,53.0
60551,0.118,0.482,-0.922,-0.214,1.313,-4.153,20.0,53.0
60592,0.134,0.490,-0.914,-0.214,1.458,-4.023,20.0,53.0
60677,0.125,0.487,-0.920,-0.290,1.679,-4.115,20.0,53.0
60719,0.121,0.489,-0.914,-0.168,1.275,-4.046,20.0,53.0
60760,0.125,0.483,-0.921,0.130,1.374,-4.137,20.0,53.0
60802,0.130,0.482,-0.913,0.092,1.229,-4.244,20.0,53.0
60847,0.122,0.489,-0.923,-0.214,1.588,-4.183,21.0,53.0
60888,0.126,0.489,-0.910,-0.252,1.473,-4.115,20.0,53.0
60930,0.123,0.483,-0.916,0.153,1.511,-4.260,20.0,53.0
60972,0.129,0.483,-0.922,-0.298,1.664,-4.053,20.0,53.0
61012,0.132,0.486,-0.924,-0.328,1.336,-4.344,20.0,53.0
61054,0.127,0.488,-0.918,-0.122,1.504,-4.191,20.0,53.0
61096,0.120,0.484,-0.912,0.298,1.374,-4.015,20.0,53.0
61137,0.129,0.480,-0.913,-0.038,1.458,-4.260,20.0,53.0
61179,0.122,0.487,-0.926,-0.427,1.557,-4.176,20.0,53.0
61224,0.124,0.487,-0.910,-0.008,1.336,-4.107,20.0,53.0
61265,0.123,0.482,-0.915,0.198,1.366,-4.229,20.0,53.0
61307,0.129,0.487,-0.914,0.145,1.443,-4.221,20.0,53.0
61349,0.120,0.482,-0.917,-0.137,1.763,-4.160,20.0,53.0
61391,0.124,0.484,-0.913,-0.206,1.359,-3.969,20.0,53.0
61432,0.129,0.482,-0.915,-0.382,1.511,-4.107,20.0,53.0
61474,0.123,0.488,-0.915,-0.137,1.374,-4.076,20.0,53.0
61516,0.125,0.483,-0.920,-0.244,1.328,-4.160,20.0,53.0
61558,0.123,0.487,-0.924,0.267,1.504,-4.137,20.0,53.0
61602,0.126,0.483,-0.919,-0.221,1.511,-4.176,22.0,53.0
61644,0.127,0.485,-0.914,-0.252,1.511,-4.092,22.0,53.0
61686,0.124,0.487,-0.919,-0.038,1.710,-4.031,22.0,53.0
61728,0.134,0.490,-0.917,0.130,1.366,-4.214,20.0,53.0
61770,0.129,0.479,-0.915,-0.015,1.443,-4.214,22.0,53.0
61812,0.126,0.480,-0.910,-0.527,1.595,-4.160,22.0,53.0
61854,0.128,0.484,-0.915,-0.168,1.252,-4.267,22.0,53.0
61895,0.128,0.482,-0.906,-0.023,1.519,-4.076,19.0,53.0
61937,0.125,0.487,-0.920,0.053,1.542,-4.191,19.0,53.0
61991,0.126,0.490,-0.913,-0.527,1.443,-4.237,19.0,53.0
62035,0.126,0.484,-0.917,-0.290,1.481,-4.153,19.0,53.0
62080,0.123,0.485,-0.922,0.031,1.427,-4.061,19.0,53.0
62124,0.125,0.482,-0.909,-0.176,1.580,-4.198,19.0,53.0
62168,0.127,0.487,-0.909,-0.183,1.328,-4.191,19.0,53.0
62213,0.124,0.489,-0.916,-0.344,1.519,-4.198,19.0,53.0
62257,0.121,0.488,-0.925,-0.557,1.542,-4.168,22.0,53.0
62301,0.124,0.486,-0.925,-0.321,1.580,-4.092,22.0,53.0
62346,0.124,0.488,-0.917,0.023,1.328,-4.214,22.0,53.0
62393,0.122,0.488,-0.923,0.260,1.427,-4.107,22.0,53.0
62437,0.129,0.488,-0.905,-0.435,1.588,-4.084,20.0,53.0
62481,0.130,0.490,-0.913,-0.275,1.237,-4.122,20.0,52.0
62526,0.119,0.486,-0.918,-0.092,1.656,-4.183,20.0,53.0
62570,0.114,0.489,-0.916,0.092,1.359,-4.115,20.0,53.0
62614,0.125,0.490,-0.918,-0.534,1.618,-4.122,20.0,53.0
62659,0.125,0.489,-0.910,-0.321,1.206,-4.183,20.0,53.0
62703,0.121,0.485,-0.911,0.214,1.748,-4.176,20.0,53.0
62747,0.121,0.479,-0.915,-0.122,1.427,-4.092,20.0,53.0
62792,0.127,0.486,-0.919,-0.397,1.344,-4.107,20.0,53.0
