Timestamp(ms),AccelX(g),AccelY(g),AccelZ(g),GyroX(deg/s),GyroY(deg/s),GyroZ(deg/s),DistanceLeft(cm),DistanceRight(cm)
28494,-0.316,-0.952,0.006,-9.130,-36.519,-16.450,0.0,92.0
28548,-0.296,-0.966,-0.012,-14.145,-40.473,-17.519,0.0,92.0
28603,-0.253,-1.034,-0.068,-12.863,-25.504,-11.763,0.0,95.0
28657,-0.289,-1.058,-0.035,-18.588,-3.198,-5.870,0.0,102.0
28712,-0.364,-1.172,-0.028,-15.756,1.405,-6.244,0.0,106.0
28768,-0.387,-1.139,-0.039,-10.374,-32.031,-3.336,0.0,111.0
28824,-0.198,-0.676,0.009,-2.817,-42.053,28.282,0.0,123.0
28884,-0.245,-1.074,-0.125,-24.176,-59.863,31.710,0.0,162.0
28942,-0.146,-1.079,-0.222,-3.183,-61.519,24.359,0.0,136.0
29000,-0.168,-0.942,-0.134,-13.885,-55.176,21.038,0.0,174.0
29060,-0.136,-0.917,-0.137,-8.649,-40.947,26.427,0.0,179.0
29119,-0.194,-0.903,-0.064,-12.145,-34.908,24.237,0.0,185.0
29171,-0.240,-0.984,-0.037,-7.115,-39.084,2.847,0.0,46.0
29227,-0.188,-0.948,-0.067,1.489,-39.954,-11.237,0.0,54.0
29278,-0.180,-1.040,-0.068,8.275,-11.542,-20.756,0.0,41.0
29333,-0.216,-1.182,-0.063,10.702,10.153,-31.389,0.0,50.0
29388,-0.256,-1.141,0.038,6.405,24.733,-35.069,0.0,55.0
29443,-0.316,-1.313,0.037,11.145,25.260,-34.466,0.0,37.0
29494,-0.241,-0.901,-0.037,29.931,21.053,-33.840,0.0,41.0
29549,-0.060,-0.319,0.020,17.389,39.740,21.198,0.0,43.0
29600,-0.185,-0.883,-0.055,-5.901,64.802,55.366,0.0,47.0
29655,-0.341,-1.249,-0.075,21.809,58.076,13.382,0.0,34.0
29708,-0.226,-0.927,-0.012,26.351,48.191,-13.504,0.0,66.0
29763,-0.188,-0.734,0.045,6.153,74.214,8.534,0.0,57.0
29818,-0.406,-0.923,0.186,-11.031,38.023,13.282,0.0,57.0
29875,-0.386,-0.951,0.129,1.221,-22.305,-15.916,0.0,61.0
29927,-0.264,-0.877,0.061,-6.817,-40.603,-35.198,0.0,65.0
29983,-0.236,-0.969,0.017,-5.137,-16.458,-32.588,0.0,66.0
30035,-0.351,-1.153,0.067,-2.397,-11.260,-32.290,0.0,51.0
30092,-0.307,-1.094,0.069,-6.435,-11.977,-20.198,0.0,66.0
30144,-0.434,-1.326,0.127,-21.855,-25.260,-16.618,0.0,57.0
30201,-0.210,-1.071,-0.120,12.359,-45.496,0.267,0.0,75.0
30254,-0.162,-0.519,0.060,5.611,-21.328,42.542,0.0,63.0
30310,-0.246,-1.088,-0.147,-17.153,-30.244,47.015,0.0,65.0
30366,-0.257,-1.060,-0.091,-1.786,-54.496,31.198,0.0,71.0
30417,-0.196,-0.985,-0.142,-8.664,-74.786,15.649,0.0,32.0
30472,-0.191,-0.899,-0.087,-12.008,-73.947,15.481,0.0,39.0
30524,-0.118,-0.924,-0.125,-7.878,-49.382,21.313,0.0,40.0
30578,-0.173,-0.919,-0.091,-5.878,-8.870,15.595,0.0,40.0
30630,-0.532,-0.958,0.016,-10.107,34.656,13.458,0.0,42.0
30685,-1.766,-1.664,-0.125,32.840,58.725,-45.802,0.0,41.0
30737,-1.669,-0.060,0.527,62.099,28.221,87.779,0.0,52.0
30793,-1.083,-2.000,0.198,-62.344,-92.137,250.130,0.0,60.0
30850,0.254,-1.966,0.200,52.382,-178.374,158.695,0.0,70.0
30900,1.056,-1.070,-0.249,40.191,-212.557,110.389,161.0,53.0
30949,1.061,-0.755,-0.999,39.573,4.069,-10.519,159.0,52.0
31001,-0.712,-0.290,0.109,-46.344,233.282,-98.794,0.0,54.0
31057,-1.810,-0.517,0.948,-3.305,-27.656,43.214,0.0,54.0
31110,-0.641,-0.545,0.203,-11.168,-171.687,-4.466,0.0,55.0
31166,-0.203,-0.643,0.027,5.733,-28.947,1.786,0.0,65.0
31259,-0.652,-0.537,0.231,-18.527,-11.718,-14.031,159.0,65.0
31315,-0.571,-0.568,0.226,-34.687,2.466,1.099,0.0,67.0
31373,-0.724,-0.676,0.430,-32.382,-9.481,6.038,0.0,70.0
31426,-0.639,-0.637,0.469,-33.107,-11.557,4.901,0.0,67.0
31479,-0.646,-0.538,0.414,-21.237,4.702,13.260,0.0,72.0
31533,-0.773,-0.590,0.402,-19.076,6.695,1.427,0.0,74.0
31587,-0.866,-0.572,0.380,-23.122,-21.595,31.107,0.0,84.0
31641,-0.855,-0.794,0.333,-28.275,-19.481,29.779,0.0,82.0
31692,-0.746,-1.011,0.167,-31.756,-29.588,17.237,156.0,91.0
31748,-0.568,-0.659,0.124,-34.557,-52.855,17.267,156.0,87.0
31802,-0.333,-0.801,-0.035,-25.802,-51.023,-4.122,0.0,92.0
31857,-0.411,-0.902,0.227,-38.206,2.351,-0.160,0.0,90.0
31911,-0.665,-0.833,0.474,-11.794,-8.794,-7.527,0.0,92.0
31966,-0.512,-0.796,0.303,7.008,-13.092,-4.817,0.0,90.0
32021,-0.510,-0.669,0.203,16.725,20.000,-5.863,0.0,92.0
32075,-0.557,-0.687,0.196,13.679,17.725,-7.824,0.0,92.0
32130,-0.533,-0.634,0.301,9.336,16.229,-10.718,0.0,88.0
32184,-0.550,-0.702,0.391,14.924,21.237,-27.573,0.0,89.0
32241,-0.638,-0.769,0.330,28.145,36.985,-20.305,0.0,88.0
32295,-0.814,-0.685,0.426,27.168,45.985,-14.588,0.0,91.0
32350,-0.812,-0.826,0.487,30.046,-0.771,-10.420,0.0,85.0
32404,-0.686,-1.017,0.238,36.901,9.679,-19.198,0.0,82.0
32456,-0.663,-0.704,0.176,30.817,2.885,-17.954,162.0,83.0
32509,-0.376,-0.764,0.021,34.221,-6.130,5.893,0.0,83.0
32562,-0.303,-0.725,0.030,26.573,58.099,2.847,161.0,86.0
32614,-0.649,-0.678,0.253,13.557,55.702,-16.382,159.0,88.0
32666,-0.810,-0.524,0.298,3.099,12.832,-19.244,159.0,88.0
32720,-0.667,-0.564,0.178,-7.947,-10.382,-8.412,158.0,84.0
32773,-0.644,-0.633,0.247,-16.534,1.679,4.817,158.0,87.0
32825,-0.620,-0.735,0.397,-19.504,-10.962,6.313,157.0,87.0
32877,-0.564,-0.745,0.380,-15.000,-20.947,1.824,157.0,91.0
32929,-0.579,-0.635,0.292,-9.634,-7.588,-0.397,156.0,92.0
32982,-0.602,-0.664,0.178,-12.634,-0.832,0.809,155.0,93.0
33034,-0.710,-0.659,0.314,-29.260,-11.229,1.718,155.0,95.0
33086,-0.682,-0.671,0.326,-29.786,-22.985,5.687,154.0,97.0
33141,-0.772,-0.750,0.384,-31.603,-10.450,6.015,0.0,106.0
33201,-0.851,-1.104,0.321,-18.107,3.336,2.580,0.0,105.0
33256,-0.734,-0.653,0.203,-6.687,-46.733,11.931,0.0,101.0
33310,-0.422,-0.540,-0.101,-19.786,-67.305,24.695,0.0,95.0
33366,-0.395,-0.797,-0.142,-22.916,-6.313,25.908,0.0,96.0
33421,-0.834,-1.195,0.413,-25.969,101.641,67.137,0.0,93.0
33475,-1.829,-0.999,1.347,-6.748,128.924,193.145,0.0,93.0
33526,-2.000,-1.271,0.789,25.275,-25.618,250.130,129.0,98.0
33577,-1.610,-0.385,-0.061,78.397,-73.160,250.130,117.0,108.0
33632,-0.264,0.587,-1.604,104.908,-166.305,250.130,106.0,121.0
33685,0.469,-0.427,-1.524,-25.725,-114.817,109.802,101.0,150.0
33737,-0.044,-0.579,0.211,-101.298,3.176,57.893,100.0,157.0
33789,-0.635,0.006,1.005,-24.916,9.786,8.702,100.0,146.0
33844,-0.847,0.537,0.589,8.031,-33.321,-3.611,102.0,184.0
33897,-1.056,0.638,0.442,27.962,-43.389,5.160,102.0,161.0
33993,-0.735,0.410,0.492,-4.901,-1.748,-2.115,102.0,159.0
34048,-0.564,0.193,0.346,5.527,-47.412,-4.221,102.0,175.0
34097,-0.439,0.138,0.268,14.771,-5.336,-0.053,37.0,152.0
34149,-0.774,0.268,0.484,9.809,29.481,-12.901,38.0,158.0
34202,-0.973,0.455,0.579,-5.565,18.336,-7.168,105.0,151.0
34254,-0.897,0.578,0.500,-9.015,-5.183,-7.511,106.0,152.0
34309,-0.793,0.510,0.409,-8.573,7.580,24.748,107.0,169.0
34362,-0.703,0.468,0.275,-14.931,1.122,33.977,107.0,148.0
34415,-0.605,0.492,0.191,-35.588,28.069,35.557,108.0,162.0
34467,-0.740,0.439,0.418,-54.992,32.435,28.031,109.0,141.0
34520,-0.677,0.419,0.387,-47.687,34.191,26.092,110.0,139.0
34576,-0.812,0.416,0.427,-50.267,39.229,20.771,111.0,136.0
34624,-0.836,0.433,0.435,-45.947,28.710,26.496,42.0,135.0
34672,-0.783,0.499,0.356,-45.008,18.840,27.305,45.0,132.0
34720,-0.745,0.552,0.340,-48.206,32.847,35.458,42.0,130.0
34768,-0.811,0.580,0.215,-43.153,49.092,46.214,41.0,129.0
34817,-0.819,0.604,0.307,-46.695,48.214,59.282,43.0,134.0
34867,-0.767,0.671,0.364,-51.412,31.198,58.374,80.0,128.0
34917,-0.778,0.580,0.304,-49.298,42.534,52.252,83.0,126.0
34967,-1.022,0.481,0.287,-46.695,71.191,32.275,83.0,125.0
35017,-0.872,0.607,0.155,-65.641,39.748,50.893,34.0,126.0
35065,-0.820,0.374,-0.090,-80.015,43.977,47.366,34.0,130.0
35113,-0.877,0.294,0.112,-102.733,59.763,31.992,36.0,152.0
35163,-0.899,0.297,0.324,-103.618,30.649,17.817,45.0,139.0
35213,-0.784,0.315,0.331,-87.962,45.008,21.061,36.0,166.0
35267,-0.882,0.371,0.353,-66.031,34.710,27.275,38.0,144.0
35314,-0.815,0.331,0.216,-60.901,23.160,27.595,36.0,145.0
35362,-0.778,0.349,0.302,-60.008,33.885,21.397,36.0,156.0
35410,-0.833,0.349,0.381,-53.336,22.015,15.260,36.0,160.0
35462,-0.840,0.337,0.376,-35.565,18.191,14.237,34.0,160.0
35510,-0.955,0.422,0.466,-25.939,10.412,19.847,38.0,140.0
35557,-0.903,0.526,0.470,-17.084,0.405,14.427,36.0,152.0
35613,-0.971,0.523,0.521,-18.649,8.344,18.420,122.0,0.0
35650,-1.012,0.658,0.392,-18.489,5.023,9.260,38.0,0.0
35698,-1.004,0.825,0.302,-37.824,9.756,42.687,38.0,161.0
35749,-1.014,0.735,0.018,-28.344,-2.924,95.443,98.0,136.0
35796,-1.068,1.105,-0.316,-40.244,50.779,142.664,36.0,136.0
35847,-1.387,1.241,-0.441,-84.031,92.244,197.718,94.0,92.0
35896,-1.525,0.313,0.301,-144.214,58.336,229.893,107.0,88.0
35935,-0.766,-0.809,0.831,-147.718,-2.221,182.573,20.0,9.0
35974,-0.023,-0.777,0.839,-76.878,-5.382,128.611,17.0,10.0
36023,0.247,-0.363,0.612,-47.725,8.840,81.756,16.0,0.0
36059,0.135,0.556,0.405,-34.656,70.702,33.595,16.0,0.0
36108,-0.308,0.610,0.708,-34.511,85.672,16.847,16.0,196.0
36158,-0.426,0.700,0.757,-29.527,57.618,17.450,17.0,0.0
36194,-0.406,0.615,0.857,-26.198,33.443,10.916,16.0,0.0
36247,-0.299,0.606,0.906,-24.481,12.237,1.863,16.0,0.0
36283,-0.267,0.719,0.535,12.366,42.206,10.855,16.0,0.0
36332,-0.300,0.802,0.410,4.908,37.328,15.573,17.0,0.0
36368,-0.250,0.896,0.366,-31.237,29.076,15.824,17.0,0.0
36461,-0.457,0.783,0.697,-32.412,54.389,45.748,16.0,0.0
36497,-0.496,0.840,0.666,-7.191,37.107,56.496,16.0,0.0
36546,-0.540,0.824,0.501,0.573,53.557,54.962,17.0,0.0
36583,-0.554,0.954,0.534,-6.038,79.137,57.725,17.0,0.0
36621,-0.625,0.732,0.458,-5.382,72.954,55.267,17.0,9.0
36674,-0.550,0.733,0.328,-8.550,70.595,47.405,17.0,0.0
36710,-0.596,0.703,0.378,-36.053,78.374,39.305,18.0,0.0
36760,-0.646,0.583,0.529,-48.130,47.519,29.237,17.0,0.0
36796,-0.443,0.460,0.489,-31.069,29.939,18.542,18.0,0.0
36846,-0.356,0.512,0.553,-20.351,32.305,13.275,18.0,0.0
36882,-0.432,0.565,0.608,-14.672,16.496,-0.275,16.0,0.0
36932,-0.406,0.582,0.602,-9.252,7.687,-6.794,18.0,0.0
36981,-0.434,0.709,0.596,-0.641,8.023,-9.214,18.0,0.0
37031,-0.481,0.694,0.632,2.443,-6.214,-12.015,16.0,0.0
37085,-0.429,0.624,0.595,1.160,-25.008,-12.519,36.0,0.0
37135,-0.312,0.636,0.547,14.160,-21.511,-19.908,17.0,0.0
37185,-0.429,0.807,0.645,13.634,-15.985,-25.878,19.0,0.0
37222,-0.518,0.887,0.673,-3.382,-29.649,-25.160,18.0,0.0
37272,-0.552,0.870,0.621,-3.282,-35.176,-20.748,19.0,0.0
37321,-0.486,0.847,0.589,-0.015,-10.710,-19.481,19.0,0.0
37372,-0.647,0.449,0.575,4.198,-27.786,0.191,37.0,0.0
37423,-0.452,0.359,0.351,26.137,-40.733,-0.145,19.0,0.0
37459,-0.348,0.559,0.400,18.809,-9.260,-17.458,19.0,0.0
37513,-0.461,0.712,0.488,11.206,8.267,-24.840,19.0,0.0
37562,-0.489,0.824,0.465,6.962,13.527,-15.107,18.0,0.0
37599,-0.526,0.743,0.580,5.053,-1.634,10.000,18.0,0.0
37649,-0.365,0.683,0.478,12.542,-2.015,15.588,18.0,0.0
37685,-0.354,0.607,0.471,1.672,9.924,14.832,18.0,0.0
37735,-0.407,0.622,0.545,0.489,16.084,11.687,19.0,0.0
37785,-0.329,0.650,0.554,-8.725,8.656,3.069,18.0,0.0
37835,-0.492,0.719,0.631,2.710,16.473,8.038,22.0,0.0
37885,-0.450,0.754,0.638,5.168,-17.947,19.687,18.0,0.0
37935,-0.440,0.810,0.964,-6.580,50.969,43.084,17.0,0.0
37978,-1.186,0.459,1.643,-30.649,-9.634,13.832,16.0,8.0
38017,-1.277,0.289,1.474,-30.107,-94.832,15.595,17.0,9.0
38067,-1.100,0.120,1.196,-22.649,-166.298,19.366,29.0,0.0
38126,-0.302,0.451,0.126,71.191,-227.160,-4.534,171.0,0.0
38173,0.155,1.728,-0.898,152.916,-176.267,58.824,0.0,0.0
38219,0.537,1.052,-0.950,54.252,-58.183,35.794,0.0,0.0
38266,0.226,0.888,-0.031,-22.557,20.977,37.733,0.0,0.0
38313,0.170,0.683,0.592,-27.435,22.366,2.099,0.0,0.0
38360,-0.051,0.774,0.793,-2.573,14.000,-15.969,0.0,0.0
38427,-0.093,0.822,0.466,22.206,44.382,-6.145,0.0,0.0
38474,-0.138,0.901,0.142,22.748,11.061,2.435,0.0,0.0
38520,0.044,0.805,0.318,-0.664,22.901,-8.756,0.0,0.0
38567,-0.060,0.700,0.604,-11.420,42.779,-19.237,0.0,0.0
38614,-0.274,0.724,0.741,3.084,22.275,-25.336,0.0,0.0
38661,-0.219,0.928,0.529,17.511,-18.519,-21.405,0.0,0.0
38708,-0.097,1.082,0.397,15.954,-18.557,-5.649,0.0,0.0
38768,-0.112,1.020,0.577,7.198,-6.855,-7.992,0.0,0.0
38872,-0.195,0.956,0.547,9.084,-24.221,-18.305,0.0,0.0
38926,-0.178,0.774,0.496,-0.427,-34.817,-9.550,30.0,0.0
38986,-0.161,0.599,0.306,0.244,-32.611,-14.214,0.0,0.0
39024,-0.020,0.743,0.411,-0.099,-23.756,-28.802,25.0,0.0
39074,-0.061,0.871,0.502,6.824,-6.916,-37.550,25.0,0.0
39121,-0.092,0.995,0.434,9.221,0.473,-25.672,0.0,0.0
39169,-0.195,1.022,0.417,8.382,-3.115,-2.336,0.0,0.0
39215,-0.063,0.836,0.334,4.084,-9.260,6.046,0.0,0.0
39262,0.073,0.841,0.240,-1.260,2.359,6.084,0.0,0.0
39322,0.003,0.900,0.406,-6.954,22.168,-0.725,0.0,0.0
39372,-0.115,0.872,0.495,-2.221,26.298,3.992,0.0,0.0
39419,-0.121,0.925,0.446,1.870,22.244,6.924,0.0,0.0
39465,-0.203,1.016,0.433,-4.710,34.405,22.611,0.0,0.0
39513,-0.207,0.992,0.563,-0.099,13.969,26.420,0.0,0.0
39560,-0.089,1.008,0.433,8.702,13.000,30.443,0.0,0.0
39607,-0.096,1.063,0.540,12.008,26.328,16.336,0.0,0.0
39653,-0.005,0.901,0.232,-5.901,6.092,8.626,0.0,0.0
39700,-0.100,0.738,0.098,-13.206,25.718,13.168,0.0,0.0
39747,-0.210,0.675,0.289,-12.122,46.191,10.366,0.0,0.0
39794,-0.267,0.788,0.509,-7.908,40.145,-5.282,0.0,0.0
39858,-0.275,0.929,0.529,-8.282,37.626,-19.023,0.0,0.0
39918,-0.373,0.911,0.506,-6.321,24.641,-10.748,194.0,0.0
39980,-0.233,0.840,0.264,-7.053,1.733,2.023,198.0,0.0
40040,-0.176,0.740,0.322,-13.412,11.000,-4.305,0.0,0.0
40101,-0.198,0.745,0.460,-7.450,8.389,-18.008,0.0,0.0
40162,-0.257,0.883,0.483,-1.069,0.573,-21.214,0.0,0.0
40223,-0.239,0.945,0.394,3.344,-8.550,-9.847,0.0,0.0
40284,-0.246,1.076,0.464,2.817,-2.015,-5.901,0.0,0.0
40344,-0.372,1.152,0.821,-7.756,-7.282,2.412,0.0,0.0
40409,-0.734,0.863,1.452,3.191,-34.359,11.427,0.0,0.0
40470,-1.005,0.353,1.155,27.847,-97.260,14.588,0.0,0.0
40530,-0.746,0.430,0.034,46.641,-250.137,-1.756,0.0,0.0
40592,0.345,0.955,-0.962,22.153,-203.679,-55.038,0.0,0.0
40652,0.024,0.938,-0.064,-31.443,-51.214,-40.916,0.0,0.0
40699,-0.065,1.030,0.519,6.458,-77.847,-32.336,0.0,0.0
40748,0.124,0.883,0.522,-5.771,-53.710,-12.137,0.0,0.0
40795,0.094,0.845,0.405,17.099,-62.794,-21.710,0.0,0.0
40842,0.186,0.934,0.132,12.275,-51.435,-37.473,0.0,0.0
40882,0.187,1.013,0.120,-2.275,-19.763,-35.832,30.0,0.0
40943,-0.012,0.987,0.372,-18.122,-17.412,-28.511,0.0,0.0
40981,-0.001,0.798,0.408,5.046,-13.031,3.244,30.0,0.0
41031,-0.057,0.817,0.442,14.771,-21.603,2.664,30.0,0.0
41069,0.101,0.840,0.413,15.137,-16.809,6.748,30.0,0.0
41120,0.147,0.955,0.546,24.901,-20.794,0.084,29.0,0.0
41158,0.063,1.053,0.401,29.863,2.420,-21.832,29.0,0.0
41209,-0.156,1.227,0.437,31.664,21.824,-19.794,30.0,0.0
41256,-0.198,1.178,0.355,14.267,-25.557,13.237,0.0,0.0
41311,0.193,0.848,-0.087,-6.977,-19.038,27.183,30.0,0.0
41349,0.158,0.767,0.181,-28.389,44.748,20.328,30.0,0.0
41400,0.103,0.737,0.457,-22.939,26.885,-11.954,30.0,0.0
41495,-0.374,1.081,0.415,-14.641,72.870,-3.748,31.0,0.0
41542,-0.325,0.951,0.432,-13.008,12.924,22.885,0.0,0.0
41609,0.020,0.855,0.274,-23.656,30.275,23.145,0.0,0.0
41646,-0.203,0.760,0.435,-24.282,49.847,10.710,29.0,0.0
41696,-0.256,0.767,0.488,-18.908,27.366,5.008,29.0,0.0
41746,-0.138,0.831,0.466,-12.878,18.206,5.282,29.0,0.0
41799,-0.206,0.843,0.522,-7.786,17.931,8.656,29.0,0.0
41849,-0.084,0.827,0.427,-1.634,8.069,3.031,29.0,0.0
41900,-0.100,0.946,0.531,0.565,22.046,-9.679,30.0,0.0
41950,-0.153,0.962,0.572,14.313,30.565,-6.588,30.0,0.0
41987,-0.183,1.031,0.585,17.450,18.779,-9.374,30.0,0.0
42037,-0.190,0.899,0.469,1.336,5.985,4.466,30.0,0.0
42074,-0.165,0.663,0.361,-10.901,6.160,15.229,30.0,0.0
42124,-0.063,0.642,0.390,-16.481,13.817,4.718,29.0,0.0
42174,0.015,0.751,0.498,-20.817,30.771,-17.588,29.0,0.0
42227,-0.166,0.863,0.619,-26.252,41.076,-35.466,29.0,0.0
42278,-0.328,0.912,0.588,-11.229,12.153,-18.779,30.0,0.0
42329,-0.256,0.883,0.347,-6.618,5.153,3.618,29.0,0.0
42379,-0.153,0.837,0.321,-14.321,11.351,14.015,30.0,0.0
42430,-0.108,0.827,0.404,-17.580,17.969,10.618,30.0,0.0
42467,-0.120,0.838,0.484,-10.595,27.794,6.351,30.0,0.0
42517,-0.186,0.854,0.502,-7.885,31.420,8.420,30.0,0.0
42554,-0.248,0.847,0.487,-7.466,21.145,9.084,30.0,0.0
42604,-0.226,0.847,0.438,-8.672,21.817,14.908,30.0,0.0
42654,-0.243,0.818,0.451,-6.328,24.099,21.420,30.0,0.0
42702,-0.149,0.834,0.326,6.389,27.069,25.794,30.0,0.0
42739,-0.187,0.904,0.328,-0.679,72.183,11.527,31.0,0.0
42789,-0.582,0.818,0.861,-23.893,82.328,-20.634,31.0,0.0
42826,-1.126,0.398,1.451,-32.519,-15.733,-5.771,30.0,0.0
42872,-1.004,0.311,1.097,-0.084,-99.733,-17.611,32.0,108.0
42923,-0.638,0.445,0.438,68.130,-148.359,-33.031,30.0,0.0
42959,0.028,0.818,-0.354,128.137,-127.771,-12.969,29.0,0.0
43011,0.374,1.230,-0.611,114.817,-98.687,12.939,30.0,0.0
43073,0.632,1.613,-0.344,16.504,27.496,12.366,0.0,0.0
43120,-0.479,1.096,0.667,-52.069,128.153,14.328,0.0,0.0
43181,-0.838,0.696,0.745,-31.962,39.359,20.511,0.0,0.0
43241,-0.293,0.778,0.286,-16.504,-2.405,33.931,0.0,0.0
43287,-0.039,0.821,0.249,-25.382,38.313,19.740,0.0,0.0
43328,-0.118,0.847,0.375,-30.046,57.275,11.611,0.0,95.0
43372,-0.321,0.712,0.489,-18.878,54.191,13.489,30.0,89.0
43425,-0.362,0.766,0.498,-6.145,37.527,12.298,0.0,86.0
43470,-0.341,0.817,0.489,-9.580,30.756,12.740,31.0,87.0
43517,-0.269,0.870,0.542,0.252,20.588,10.206,31.0,87.0
43571,-0.156,1.057,0.535,15.145,34.870,-10.015,0.0,88.0
43625,-0.221,1.159,0.597,2.771,40.511,14.359,0.0,95.0
43678,-0.317,0.674,0.431,-8.313,5.000,36.267,0.0,72.0
43736,-0.120,0.578,0.354,-10.038,8.832,30.130,0.0,73.0
43779,-0.004,0.752,0.512,-16.672,23.427,8.649,30.0,73.0
43822,0.146,0.898,0.561,-18.756,37.031,-12.916,30.0,72.0
43866,-0.152,1.024,0.550,-12.756,57.962,-15.435,30.0,72.0
43952,-0.312,0.917,0.306,-16.916,15.053,41.107,31.0,76.0
43999,-0.044,0.836,0.215,-22.481,19.702,44.969,30.0,76.0
44043,0.006,0.796,0.263,-27.496,53.389,37.863,29.0,76.0
44086,-0.146,0.777,0.390,-25.511,65.855,24.122,30.0,75.0
44139,-0.245,0.802,0.434,-21.679,62.366,15.580,0.0,77.0
44193,-0.321,0.844,0.448,-22.740,60.618,20.046,0.0,83.0
44247,-0.331,0.844,0.462,-25.168,54.878,24.504,0.0,78.0
44300,-0.329,0.782,0.495,-25.435,47.191,29.344,0.0,81.0
44344,-0.312,0.717,0.466,-13.015,41.817,30.641,31.0,80.0
44398,-0.241,0.792,0.419,-4.244,49.092,30.863,0.0,84.0
44445,-0.213,0.805,0.299,-5.481,47.313,27.954,29.0,85.0
44490,-0.183,0.828,0.253,-2.122,62.962,17.519,30.0,90.0
44539,-0.208,0.975,0.351,9.718,87.939,9.000,30.0,188.0
44585,-0.422,1.085,0.440,13.122,99.687,4.260,31.0,111.0
44636,-0.462,1.125,0.284,-13.008,82.229,35.397,31.0,181.0
44691,-0.468,1.025,0.362,-60.664,86.603,41.649,0.0,108.0
44736,-0.604,0.779,0.609,-89.519,86.504,38.954,30.0,93.0
44789,-0.683,0.571,0.795,-73.282,63.328,42.427,0.0,84.0
44845,-0.474,0.590,0.675,-44.687,38.183,43.672,0.0,91.0
44902,-0.394,0.631,0.532,-40.092,33.840,41.427,0.0,88.0
44946,-0.409,0.555,0.556,-47.969,29.794,29.924,31.0,90.0
45000,-0.350,0.510,0.561,-46.710,24.153,15.626,0.0,92.0
45043,-0.109,0.558,0.214,-62.160,54.947,-9.061,29.0,62.0
45086,-0.307,0.412,0.283,-100.153,90.779,-41.450,31.0,59.0
45129,-0.250,0.263,0.025,-118.947,100.046,-67.893,30.0,57.0
45171,-0.277,-0.145,-0.091,-160.084,144.992,-135.000,30.0,53.0
45214,-0.313,-0.699,-0.109,-164.802,172.290,-215.794,31.0,51.0
45257,-0.742,-1.207,0.744,-144.473,188.962,-250.137,38.0,50.0
45313,-0.959,-0.853,1.218,-79.282,136.702,-250.137,133.0,116.0
45372,-1.199,-1.270,0.871,-43.458,65.794,-250.137,0.0,174.0
45430,-1.555,-1.064,0.756,-18.908,37.847,-250.137,0.0,159.0
45490,-1.284,-0.740,0.548,-9.153,-0.954,-133.336,0.0,159.0
45547,-0.847,-0.680,0.460,-17.969,-31.542,-52.282,183.0,159.0
45604,-0.399,-0.761,0.274,0.229,-44.290,-0.809,177.0,164.0
45663,-0.132,-0.701,0.174,2.015,-15.336,-9.366,190.0,162.0
45720,-0.283,-0.827,0.325,-11.985,-1.237,-22.939,172.0,177.0
45782,-0.300,-0.914,0.352,-13.244,-13.939,-42.878,169.0,169.0
45838,-0.315,-0.931,0.421,-17.588,-40.008,-43.443,167.0,163.0
45891,-0.211,-0.848,0.342,-4.573,-37.397,-45.076,78.0,173.0
45942,-0.219,-0.873,0.230,-0.824,-12.939,-38.160,75.0,167.0
45995,-0.301,-0.880,0.241,-4.534,-1.351,-29.534,72.0,179.0
46047,-0.342,-0.833,0.307,-9.527,-3.542,-21.000,68.0,179.0
46100,-0.336,-0.939,0.335,-6.344,-28.191,-18.947,64.0,185.0
46152,-0.228,-0.982,0.310,6.130,-42.321,-17.198,61.0,190.0
46204,-0.098,-1.066,0.201,-2.962,-24.870,-22.641,57.0,0.0
46264,-0.095,-0.999,0.302,-24.458,-22.458,-4.420,109.0,0.0
46317,-0.095,-0.957,0.382,-18.458,-67.649,23.489,90.0,166.0
46368,-0.055,-1.137,0.271,-16.183,-114.649,23.069,95.0,136.0
46418,0.226,-1.116,0.103,-5.771,-122.420,39.672,89.0,124.0
46470,0.323,-1.102,-0.002,0.740,-79.542,35.718,84.0,143.0
46563,0.203,-0.945,0.106,-7.137,-32.573,9.863,78.0,136.0
46613,0.118,-0.958,0.131,-7.061,-19.901,-8.656,76.0,137.0
46663,0.026,-0.992,0.130,-1.244,-21.519,-14.725,72.0,139.0
46717,-0.010,-1.002,0.160,-3.366,-8.779,-23.153,70.0,145.0
46769,-0.006,-1.051,0.192,-5.809,-5.092,-15.580,90.0,148.0
46821,0.014,-1.051,0.235,7.840,4.122,-2.435,87.0,152.0
46872,0.084,-1.112,0.173,18.031,14.038,-2.061,83.0,157.0
46925,0.076,-1.022,0.205,19.794,38.573,-0.611,80.0,183.0
46977,0.004,-1.135,0.235,13.092,32.634,-18.519,57.0,163.0
47029,-0.022,-0.678,0.336,-6.527,0.565,-9.481,75.0,165.0
47080,0.079,-0.856,0.188,3.969,-14.626,26.809,73.0,168.0
47140,0.150,-0.894,0.073,8.115,23.626,29.153,0.0,175.0
47203,0.281,-1.058,0.191,-26.908,33.611,23.481,0.0,178.0
47263,0.677,-1.164,0.307,-39.038,-51.076,-51.389,0.0,181.0
47323,0.851,-1.191,0.178,-44.084,-46.122,-145.939,0.0,182.0
47373,0.172,-1.320,0.473,-42.313,-12.031,-177.435,16.0,180.0
47432,-0.136,-1.123,0.524,-13.313,23.924,-171.580,0.0,181.0
47494,0.051,-0.933,0.200,7.206,-4.275,-121.000,0.0,0.0
47553,-0.063,-0.798,0.248,5.244,46.733,-38.756,169.0,0.0
47612,0.048,-0.765,0.347,11.824,-31.809,-2.504,164.0,0.0
47673,0.406,-0.660,0.168,18.885,-3.832,29.580,0.0,0.0
47737,0.406,-0.862,0.217,16.954,-19.145,39.885,0.0,0.0
47799,0.610,-1.009,0.104,11.336,-42.565,30.771,0.0,0.0
47860,0.708,-1.158,-0.006,9.534,-8.183,41.214,0.0,0.0
47915,0.659,-0.866,0.262,10.840,-36.389,63.443,0.0,85.0
47969,0.748,-0.815,0.232,14.397,-87.817,15.237,0.0,83.0
48023,1.016,-1.002,-0.143,21.679,-74.809,-18.695,0.0,82.0
48079,0.818,-0.908,-0.202,9.069,-37.855,-25.267,0.0,112.0
48134,0.570,-0.768,0.068,-1.733,-32.481,-23.450,0.0,80.0
48194,0.678,-0.740,-0.054,6.725,-32.924,-33.954,0.0,94.0
48251,0.591,-0.835,-0.057,-2.664,8.718,-36.099,0.0,98.0
48306,0.499,-0.830,-0.025,-9.000,6.573,-33.786,0.0,97.0
48361,0.592,-0.782,0.010,-11.924,6.718,-21.710,0.0,122.0
48416,0.513,-0.825,0.075,-7.626,27.099,-14.481,0.0,104.0
48470,0.569,-0.885,0.087,-7.718,28.687,-7.282,0.0,90.0
48526,0.603,-0.840,0.057,-3.649,26.588,8.107,0.0,121.0
48582,0.579,-0.989,0.050,-11.908,30.351,13.626,0.0,135.0
48638,0.661,-0.580,0.238,-21.084,31.962,30.786,0.0,140.0
48695,0.806,-0.597,0.133,4.939,7.466,24.695,0.0,136.0
48755,0.817,-0.788,0.014,-16.832,23.580,5.748,0.0,149.0
48813,0.803,-0.838,0.105,-16.901,-3.031,-3.160,0.0,149.0
48870,0.740,-0.803,0.110,-25.015,33.916,-20.275,0.0,150.0
48927,0.432,-0.800,0.214,-16.603,21.809,-29.954,0.0,154.0
48986,0.449,-0.782,0.181,-19.145,-4.550,-29.863,0.0,156.0
49039,0.492,-0.794,0.176,-13.718,4.313,-23.260,101.0,189.0
49094,0.432,-0.839,0.278,-7.061,13.779,-2.450,0.0,107.0
49149,0.437,-0.793,0.229,4.412,-2.504,5.962,0.0,117.0
49212,0.472,-0.873,0.198,8.649,-14.992,19.252,0.0,179.0
49267,0.418,-0.762,0.183,12.374,-1.527,32.947,0.0,115.0
49323,0.120,-0.921,0.305,22.115,17.092,70.794,0.0,119.0
49421,-0.079,-1.119,0.155,46.611,18.595,142.489,0.0,114.0
49476,-0.194,-1.286,0.156,36.290,-9.336,215.389,0.0,104.0
49528,-0.071,-1.648,0.081,32.847,-102.702,250.130,0.0,65.0
49584,0.219,-1.678,-0.048,21.214,-180.405,213.511,0.0,51.0
49636,0.820,-1.325,-0.186,17.641,-128.084,95.710,0.0,56.0
49691,0.910,-0.994,0.122,34.130,-43.985,78.672,0.0,50.0
49746,0.403,-0.819,0.157,33.473,15.527,-21.084,0.0,55.0
49802,-0.634,-1.004,0.240,13.084,36.336,-16.328,0.0,57.0
49854,-0.744,-0.717,0.139,6.489,-16.389,-11.885,0.0,52.0
49909,-0.367,-0.738,0.154,-14.672,39.458,11.611,0.0,52.0
49961,-0.493,-0.864,0.530,-7.496,46.305,19.000,0.0,60.0
50018,-0.361,-0.939,0.543,-15.962,-29.191,1.229,0.0,51.0
50069,-0.070,-1.097,0.398,-7.939,-39.611,-7.038,0.0,53.0
50125,-0.051,-1.105,0.365,-7.977,3.756,-19.076,0.0,56.0
50178,-0.072,-0.981,0.355,-5.580,26.275,-38.786,0.0,59.0
50233,-0.112,-0.730,0.394,1.229,18.458,-7.954,0.0,60.0
50289,-0.053,-0.923,0.257,13.099,9.008,-13.237,0.0,66.0
50341,-0.083,-0.987,0.177,15.458,45.664,-19.901,0.0,64.0
50398,-0.205,-0.920,0.251,3.473,71.740,-13.145,0.0,65.0
50451,-0.354,-0.772,0.396,-5.237,38.847,-15.626,0.0,67.0
50508,-0.370,-0.736,0.382,-12.427,-8.061,-21.679,0.0,79.0
50562,-0.299,-0.812,0.335,-25.031,-11.412,-30.069,0.0,70.0
50615,-0.386,-0.878,0.403,-21.351,-2.443,-31.107,0.0,73.0
50668,-0.392,-0.873,0.415,-16.206,-20.878,-20.817,0.0,74.0
50724,-0.362,-0.898,0.369,-14.000,-32.595,-11.260,0.0,72.0
50778,-0.307,-0.916,0.305,-4.382,-29.939,7.153,0.0,75.0
50831,-0.344,-0.903,0.314,-4.092,-23.427,22.511,0.0,78.0
50885,-0.412,-1.057,0.304,-12.504,-35.809,24.748,0.0,83.0
50939,-0.398,-1.281,0.197,-16.176,-43.878,4.382,0.0,91.0
50994,-0.233,-0.699,0.156,-3.603,-32.809,40.840,0.0,86.0
51047,-0.359,-0.973,0.212,-18.145,-58.206,61.893,0.0,88.0
51102,-0.278,-1.192,0.106,-19.885,-117.351,58.534,0.0,96.0
51158,-0.188,-1.112,0.020,-20.214,-128.344,69.260,0.0,107.0
51216,-0.849,-0.948,0.038,-38.985,-75.031,124.878,0.0,112.0
51272,-2.000,-0.484,-0.281,-31.664,-45.756,210.206,0.0,117.0
51328,-1.890,-1.150,-0.010,-45.496,-124.435,250.130,0.0,110.0
51383,-0.859,-2.000,0.004,-9.359,-195.779,250.130,0.0,101.0
51440,0.540,-2.000,-0.117,37.145,-201.313,196.298,0.0,149.0
51497,0.715,-0.507,-0.187,35.458,-101.214,93.427,0.0,134.0
51554,-0.667,0.167,0.362,20.832,110.802,-15.641,0.0,128.0
51601,-1.484,0.200,0.949,-20.962,10.374,49.321,36.0,127.0
51652,-0.759,-0.261,0.634,-35.992,-62.397,6.763,39.0,135.0
51709,-0.439,-0.271,0.597,-30.985,6.702,10.779,0.0,151.0
51766,-0.535,-0.380,0.560,2.237,-3.908,12.344,0.0,126.0
51823,-0.479,-0.297,0.370,29.000,19.374,-26.840,0.0,140.0
51871,-0.881,0.005,0.527,-2.023,69.779,-18.115,37.0,134.0
51917,-1.090,0.060,0.689,-26.550,28.084,3.137,38.0,112.0
51975,-0.882,0.015,0.571,-32.443,-20.527,20.031,0.0,137.0
52022,-0.663,0.002,0.442,-33.130,-2.550,29.855,36.0,141.0
52070,-0.753,-0.068,0.480,-38.802,10.382,27.214,37.0,129.0
52163,-0.815,-0.106,0.442,-55.023,5.679,28.504,37.0,129.0
52218,-0.845,-0.104,0.498,-55.466,6.809,32.962,189.0,125.0
52272,-0.859,-0.046,0.535,-55.595,4.802,35.412,151.0,108.0
52323,-0.945,-0.041,0.612,-59.328,-7.885,39.229,124.0,108.0
52374,-0.895,0.048,0.576,-59.084,-22.321,42.397,123.0,107.0
52425,-0.835,0.103,0.485,-57.244,-23.725,48.947,123.0,110.0
52476,-0.849,0.101,0.398,-62.053,-14.450,54.473,123.0,110.0
52529,-0.920,-0.005,0.277,-80.031,-3.176,51.000,122.0,121.0
52578,-1.111,-0.108,0.319,-95.328,15.435,44.282,39.0,110.0
52629,-0.927,-0.019,0.221,-107.634,-18.267,70.160,121.0,110.0
52677,-0.897,-0.310,0.198,-104.649,-15.550,64.206,40.0,127.0
52723,-0.934,-0.416,0.266,-95.496,-2.939,51.832,38.0,109.0
52775,-0.946,-0.330,0.338,-100.863,2.573,46.573,141.0,107.0
52829,-0.958,-0.255,0.390,-101.000,-11.298,43.305,140.0,122.0
52880,-0.835,-0.222,0.369,-93.595,-37.405,41.901,138.0,107.0
52936,-0.759,-0.296,0.362,-73.351,-21.344,36.229,0.0,106.0
52981,-0.825,-0.284,0.519,-51.527,-12.779,25.870,39.0,87.0
53030,-0.828,-0.292,0.562,-39.107,-29.023,18.382,39.0,105.0
53076,-0.797,-0.319,0.568,-21.664,-31.000,11.374,38.0,91.0
53123,-0.851,-0.328,0.591,-2.405,-23.061,-3.000,40.0,107.0
53178,-0.891,-0.366,0.604,4.908,-5.275,-20.153,0.0,99.0
53232,-0.888,-0.148,0.667,-8.084,-4.924,-14.321,0.0,98.0
53287,-0.694,-0.116,0.526,3.015,-38.450,12.603,0.0,105.0
53336,-0.652,-0.221,0.285,29.634,-11.618,8.786,37.0,135.0
53392,-0.924,-0.052,0.330,20.664,53.038,21.832,0.0,113.0
53451,-1.621,0.456,0.561,-39.725,47.588,91.359,0.0,112.0
53496,-1.953,0.852,0.367,-69.031,15.298,198.267,36.0,94.0
53544,-2.000,0.224,0.415,-80.718,-31.160,250.130,107.0,67.0
53594,-1.674,-0.231,0.376,-90.481,-72.740,250.130,127.0,68.0
53642,-0.930,-0.680,0.129,-90.282,-66.389,250.130,19.0,165.0
53691,-0.311,-0.755,0.177,-78.305,-24.588,250.130,16.0,177.0
53742,0.058,-0.696,0.367,-55.985,-15.664,167.069,12.0,0.0
53778,0.345,-0.160,0.530,-36.870,-3.107,85.267,12.0,0.0
53828,0.277,0.350,0.708,-37.664,10.473,41.481,10.0,0.0
53881,0.018,0.673,0.692,-23.046,43.206,15.076,11.0,0.0
53918,-0.334,0.846,0.807,-4.206,86.282,22.908,11.0,0.0
53968,-0.542,0.730,0.946,-12.947,71.664,46.733,13.0,0.0
54019,-0.466,0.627,0.937,-29.481,0.328,63.664,12.0,0.0
54055,-0.206,0.622,0.709,-28.252,-7.191,64.389,13.0,0.0
54106,-0.182,0.593,0.637,-16.290,42.267,50.427,12.0,0.0
54142,-0.286,0.681,0.488,3.183,100.901,65.931,13.0,0.0
54193,-0.491,0.680,0.529,2.824,93.069,76.191,13.0,0.0
54228,-0.515,0.457,0.461,-5.420,72.282,58.794,14.0,0.0
54283,-0.496,0.512,0.484,-17.733,78.550,49.947,16.0,0.0
54320,-0.544,0.633,0.604,-50.168,89.947,24.855,14.0,0.0
54370,-0.562,0.582,0.671,-61.359,78.748,20.252,13.0,0.0
54407,-0.519,0.486,0.717,-52.977,47.626,21.008,16.0,0.0
54457,-0.482,0.445,0.755,-41.328,36.275,17.267,17.0,0.0
54494,-0.470,0.402,0.797,-25.557,27.641,7.939,18.0,0.0
54551,-0.493,0.433,0.829,-13.397,7.634,-0.130,131.0,0.0
54644,-0.568,0.521,0.809,-1.672,-3.443,-13.145,16.0,0.0
54695,-0.577,0.553,0.783,1.718,-19.336,-20.832,16.0,0.0
54750,-0.568,0.621,0.789,-10.626,-20.046,-28.611,16.0,0.0
54787,-0.533,0.500,0.765,-29.710,-15.221,-32.229,17.0,0.0
54837,-0.457,0.353,0.650,-16.137,-14.962,-13.817,17.0,0.0
54874,-0.422,0.230,0.570,10.443,-23.282,-4.107,16.0,0.0
54938,-0.467,0.133,0.586,37.954,-11.176,-14.252,151.0,0.0
54983,-0.554,0.300,0.739,21.481,1.527,-33.511,189.0,0.0
55033,-0.524,0.541,0.743,-4.947,8.008,-42.267,17.0,0.0
55069,-0.543,0.567,0.756,-12.435,-4.351,-21.420,16.0,0.0
55118,-0.508,0.427,0.722,-5.015,-11.870,-4.282,14.0,0.0
55157,-0.464,0.332,0.702,14.489,2.137,8.443,14.0,0.0
55206,-0.483,0.302,0.740,17.718,12.748,10.374,14.0,0.0
55256,-0.505,0.333,0.766,15.718,18.168,2.405,14.0,0.0
55291,-0.497,0.411,0.765,14.947,15.359,-1.695,14.0,0.0
55341,-0.518,0.441,0.781,10.695,4.351,0.763,15.0,0.0
55391,-0.494,0.442,0.738,9.267,-9.145,4.435,15.0,0.0
55440,-0.546,0.504,0.752,-5.069,-14.924,14.901,15.0,0.0
55490,-0.647,0.447,0.741,-22.405,-16.466,17.672,16.0,0.0
55526,-0.625,0.505,0.764,-21.519,0.702,-11.015,14.0,0.0
55578,-0.531,0.515,0.686,-16.893,15.687,-9.954,14.0,0.0
55627,-0.476,0.513,0.494,4.817,14.183,-0.076,16.0,0.0
55677,-0.495,0.380,0.510,23.985,13.489,-9.298,17.0,0.0
55727,-0.543,0.502,0.559,12.275,24.504,-22.504,18.0,0.0
55777,-0.682,0.511,0.628,-6.275,20.046,-17.313,18.0,0.0
55827,-0.633,0.500,0.587,-7.221,-7.611,-12.641,18.0,0.0
55863,-0.498,0.489,0.607,11.740,-1.107,-5.763,16.0,0.0
55912,-0.524,0.429,0.771,21.893,11.496,1.649,18.0,0.0
55962,-0.899,0.111,1.436,36.794,-10.435,-1.542,17.0,0.0
56014,-1.308,-0.029,1.738,34.466,-100.573,-13.069,16.0,0.0
56065,-1.030,0.349,1.012,90.267,-147.931,-33.084,17.0,0.0
56116,-0.818,0.758,0.423,121.069,-173.405,-14.519,30.0,0.0
56164,-0.937,0.764,0.238,131.511,-218.183,23.107,16.0,168.0
56213,-0.452,0.435,-0.098,122.290,-238.137,40.702,18.0,0.0
56273,0.099,0.667,-0.257,97.542,-145.595,19.656,0.0,0.0
56334,0.215,0.617,-0.102,55.023,-59.099,33.786,0.0,0.0
56394,0.285,0.759,0.111,33.168,-22.901,-1.649,0.0,0.0
56455,0.183,0.876,0.448,8.573,-17.885,-28.382,0.0,0.0
56518,0.258,0.986,0.576,-14.290,-4.908,-27.962,0.0,0.0
56564,0.188,0.863,0.555,-8.908,18.191,-23.527,0.0,0.0
56611,0.068,0.788,0.501,9.000,9.947,-18.298,0.0,0.0
56657,0.061,0.761,0.426,11.786,-4.389,-14.275,0.0,0.0
56704,0.193,0.850,0.336,11.458,11.237,-7.038,0.0,0.0
56764,0.165,0.864,0.399,3.687,26.015,-2.519,0.0,0.0
56824,0.110,0.924,0.452,6.763,30.252,0.824,0.0,0.0
56885,-0.012,1.107,0.530,13.000,37.557,5.916,0.0,0.0
56945,-0.126,1.312,0.675,4.550,39.214,-0.939,0.0,0.0
57009,-0.156,0.979,0.373,-12.542,34.435,36.863,0.0,0.0
57055,-0.146,0.654,0.281,-17.992,10.015,43.702,0.0,0.0
57102,0.057,0.548,0.201,-18.282,17.725,29.626,0.0,0.0
57205,0.026,0.790,0.387,-15.328,64.496,-29.061,0.0,0.0
57266,-0.129,0.995,0.583,-18.000,60.580,-50.527,0.0,0.0
57326,-0.359,0.956,0.569,-20.710,53.374,-20.763,0.0,0.0
57387,-0.367,0.787,0.521,-10.405,24.763,4.947,0.0,0.0
57447,-0.195,0.755,0.444,-2.924,17.733,9.702,0.0,0.0
57507,-0.122,0.813,0.505,-8.534,22.679,-1.351,0.0,0.0
57571,-0.180,0.843,0.527,-7.718,21.160,-3.847,0.0,0.0
57631,-0.238,0.851,0.548,1.466,3.664,1.618,0.0,0.0
57692,-0.353,0.941,0.639,7.832,-0.008,-0.794,0.0,0.0
57752,-0.347,0.941,0.660,9.328,-13.214,-1.634,0.0,0.0
57812,-0.293,0.923,0.630,-0.802,-6.290,-6.710,0.0,0.0
57863,-0.321,0.513,0.405,-4.099,-47.885,6.214,23.0,199.0
57923,-0.147,0.455,0.277,13.588,-33.160,-10.344,0.0,0.0
57984,-0.174,0.691,0.434,8.092,2.443,-48.359,0.0,193.0
58034,-0.265,0.865,0.653,-15.412,-5.916,-70.725,26.0,189.0
58093,-0.284,0.860,0.602,-6.779,-8.160,-58.397,0.0,186.0
58165,-0.265,0.836,0.442,24.267,-14.611,-24.954,0.0,183.0
58228,-0.013,0.964,0.225,11.992,-14.099,-34.870,0.0,0.0
58291,0.176,1.244,0.104,-43.496,-52.756,-96.344,0.0,0.0
58344,0.162,0.873,-0.132,-109.794,-2.122,-187.649,22.0,0.0
58407,-0.303,0.102,0.153,-204.038,44.038,-250.137,195.0,0.0
58463,-1.090,-2.000,0.551,-250.137,96.069,-250.137,0.0,70.0
58518,-0.917,-0.827,0.838,-64.389,-43.626,-228.115,0.0,66.0
58573,-0.984,-0.239,1.244,-72.802,-137.718,-80.023,0.0,62.0
58625,-0.459,-0.908,0.755,-52.832,-123.634,-81.107,30.0,98.0
58673,-0.468,-0.552,0.745,-20.840,-77.076,-50.282,27.0,111.0
58731,-0.574,-0.701,0.590,-28.611,-42.191,-34.122,0.0,114.0
58789,-0.536,-0.686,0.516,-33.389,-43.611,22.511,0.0,125.0
58849,-0.463,-0.898,0.868,-53.565,-41.763,62.214,0.0,132.0
58908,-0.160,-0.720,0.759,-11.977,-63.122,28.519,0.0,131.0
58968,-0.073,-0.746,0.555,-3.534,-47.130,38.229,0.0,139.0
59028,-0.177,-0.658,0.534,-13.710,-35.267,26.756,0.0,140.0
59091,-0.219,-0.614,0.567,-29.725,-32.763,13.153,0.0,0.0
59144,-0.239,-0.744,0.688,-31.237,-44.878,2.099,0.0,0.0
59207,-0.152,-0.704,0.800,-23.901,-29.695,6.733,0.0,0.0
59256,-0.195,-0.859,0.834,0.115,11.611,18.527,0.0,0.0
59315,-0.283,-0.807,0.835,5.298,-2.115,14.992,0.0,121.0
59373,-0.102,-0.762,0.621,8.832,-10.053,6.931,0.0,119.0
59431,0.047,-0.680,0.457,2.817,15.206,-9.099,0.0,119.0
59495,-0.007,-0.656,0.330,-4.840,22.115,-28.298,0.0,0.0
59558,-0.017,-0.618,0.250,-29.084,14.702,-17.412,0.0,0.0
59617,-0.153,-0.860,0.644,-57.321,-14.092,-14.878,0.0,117.0
59678,-0.128,-0.874,0.807,-38.580,-9.641,-2.092,0.0,113.0
59737,-0.219,-0.939,0.916,-11.260,15.282,-5.878,0.0,111.0
59785,-0.299,-0.704,0.744,10.244,-0.481,-5.015,23.0,109.0
59842,-0.274,-0.851,0.528,11.176,-13.947,5.908,0.0,107.0
59900,-0.319,-0.804,0.431,-8.290,-16.221,8.435,0.0,106.0
59964,-0.362,-0.917,0.373,-19.748,-29.473,10.015,0.0,0.0
60023,-0.220,-0.887,0.289,-32.557,-40.435,11.641,0.0,138.0
60087,-0.271,-0.878,0.458,-34.527,-62.519,22.664,0.0,0.0
