Timestamp(ms),AccelX(g),AccelY(g),AccelZ(g),GyroX(deg/s),GyroY(deg/s),GyroZ(deg/s),DistanceLeft(cm),DistanceRight(cm)
33832,-0.236,-0.971,0.024,-15.008,-15.557,-5.634,0.0,87.0
33887,-0.229,-0.942,0.031,-14.206,-12.947,-5.832,0.0,102.0
33941,-0.262,-1.111,0.020,-15.084,-5.992,-2.267,0.0,88.0
33995,-0.317,-1.229,0.061,-10.832,-12.069,-4.168,0.0,93.0
34050,-0.306,-1.118,0.029,-0.137,-29.802,1.969,0.0,95.0
34104,-0.169,-0.705,0.038,3.534,-24.710,40.489,0.0,94.0
34158,-0.282,-1.036,0.013,-13.450,-32.275,45.748,0.0,99.0
34216,-0.340,-1.176,-0.021,8.115,-70.267,23.542,0.0,107.0
34272,-0.189,-1.109,-0.138,18.168,-81.962,18.542,0.0,112.0
34329,-0.083,-0.833,-0.105,11.450,-45.496,39.847,0.0,159.0
34382,-0.149,-0.888,-0.071,3.038,-9.183,54.794,0.0,65.0
34444,-0.243,-0.954,-0.004,2.527,-5.481,41.168,0.0,168.0
34503,-0.218,-0.927,-0.032,1.855,-19.290,7.901,0.0,173.0
34553,-0.190,-0.952,-0.040,-1.366,-6.725,-10.847,0.0,33.0
34617,-0.212,-1.027,-0.008,-4.305,6.382,-23.511,0.0,182.0
34676,-0.239,-1.116,0.050,-13.153,15.611,-28.031,0.0,182.0
34731,-0.327,-1.318,0.121,-16.565,16.008,-40.634,0.0,46.0
34794,-0.291,-1.085,0.104,-4.260,8.519,-48.107,0.0,191.0
34848,-0.058,-0.495,0.058,6.557,25.824,2.504,0.0,98.0
34900,-0.160,-0.892,-0.007,10.664,59.618,23.382,0.0,51.0
34964,-0.278,-1.167,-0.047,28.817,67.817,-8.771,0.0,199.0
35024,-0.211,-0.926,-0.012,27.015,78.046,-21.840,0.0,0.0
35077,-0.341,-0.746,0.156,0.947,70.794,4.962,0.0,55.0
35140,-0.479,-0.900,0.199,-10.817,0.191,3.275,0.0,0.0
35192,-0.298,-0.916,0.060,-8.611,-56.458,-15.771,0.0,46.0
35247,-0.190,-0.894,-0.027,-10.198,-32.504,-18.244,0.0,48.0
35302,-0.297,-0.937,0.057,-13.580,2.191,-9.176,0.0,48.0
35353,-0.395,-1.083,0.108,-7.855,-3.618,-5.817,0.0,45.0
35409,-0.300,-1.022,0.021,-11.466,-1.740,4.763,0.0,51.0
35462,-0.421,-1.407,-0.279,-17.183,79.435,17.977,0.0,59.0
35518,-0.602,-1.250,-0.556,34.122,157.870,48.053,0.0,72.0
35564,-1.576,-0.693,1.118,-30.252,11.260,18.542,72.0,77.0
35617,-0.608,-0.797,-0.352,-77.786,-250.137,109.969,0.0,65.0
35674,0.107,-0.931,-0.534,-68.969,-150.756,155.748,0.0,74.0
35731,-0.081,-0.993,-0.365,-21.901,-71.740,122.046,0.0,78.0
35784,-0.114,-1.004,-0.322,-43.183,-48.321,89.160,0.0,77.0
35837,-0.185,-1.054,0.020,-56.916,-44.588,65.695,0.0,65.0
35893,-0.236,-1.065,0.233,-13.557,-59.634,14.580,0.0,46.0
35944,-0.185,-0.943,-0.059,25.282,2.580,-42.076,0.0,44.0
35999,-0.602,-0.788,-0.117,49.618,73.664,-44.550,0.0,34.0
36050,-0.863,-0.708,0.013,28.817,56.634,-45.084,0.0,32.0
36106,-0.806,-0.713,-0.030,33.519,44.237,-37.260,0.0,54.0
36163,-0.750,-0.583,-0.073,50.267,62.557,-26.977,0.0,82.0
36214,-0.797,-0.954,0.015,50.008,54.496,-29.931,0.0,36.0
36265,-0.756,-1.304,0.050,36.573,28.145,-41.992,0.0,43.0
36318,-0.454,-0.704,0.077,34.840,-27.145,-21.237,0.0,55.0
36373,-0.222,-0.718,-0.111,36.832,-4.519,-4.809,0.0,50.0
36428,-0.399,-0.696,-0.038,28.954,70.939,0.679,0.0,109.0
36481,-0.785,-0.685,0.228,11.649,56.687,-5.496,0.0,49.0
36533,-0.720,-0.678,0.179,0.092,-34.809,-5.947,0.0,49.0
36628,-0.485,-0.757,0.012,-21.580,-24.374,-7.679,0.0,56.0
36683,-0.582,-0.781,0.126,-28.244,-26.366,-8.473,0.0,58.0
36736,-0.549,-0.790,0.078,-27.260,-44.137,-10.779,0.0,61.0
36792,-0.528,-0.823,0.033,-31.389,-42.198,-10.893,0.0,52.0
36844,-0.602,-0.783,0.057,-41.321,-33.313,-14.130,0.0,58.0
36901,-0.704,-0.727,0.074,-45.863,-42.206,-10.282,0.0,62.0
36955,-0.986,-0.760,0.195,-54.214,-51.015,5.908,0.0,67.0
37011,-1.555,-1.379,0.154,-39.962,-63.626,23.618,0.0,76.0
37063,-1.741,-1.145,0.041,21.443,-156.252,112.611,0.0,49.0
37120,-1.109,-1.352,-0.375,33.656,-169.252,171.145,0.0,63.0
37175,-0.264,-1.616,-0.355,43.710,-144.321,185.160,161.0,75.0
37226,0.458,-1.200,-0.445,7.351,-181.298,120.710,152.0,79.0
37276,0.947,-0.749,-0.500,-8.649,-144.252,56.626,148.0,72.0
37326,0.123,-0.416,0.126,-39.740,52.206,-14.847,147.0,79.0
37378,-1.026,-0.664,0.873,-12.275,49.420,-23.351,148.0,73.0
37428,-0.907,-0.352,0.805,10.275,-48.038,15.214,148.0,73.0
37479,-0.489,-0.601,0.481,20.802,-32.702,23.527,147.0,72.0
37529,-0.358,-0.495,0.557,18.969,23.206,17.008,147.0,72.0
37582,-0.527,-0.516,0.602,24.336,13.069,-14.084,147.0,75.0
37633,-0.438,-0.442,0.400,18.595,-1.641,-34.733,148.0,67.0
37686,-0.518,-0.420,0.456,13.863,37.626,-40.641,0.0,65.0
37736,-0.728,-0.448,0.715,10.588,40.733,-37.939,153.0,65.0
37789,-0.865,-0.689,0.735,26.366,18.038,-41.435,0.0,60.0
37846,-0.846,-0.717,0.520,31.931,23.076,-45.496,0.0,59.0
37897,-0.781,-0.588,0.381,22.962,27.237,-41.351,155.0,67.0
37947,-0.645,-0.665,0.277,22.954,-0.664,-24.618,155.0,68.0
37998,-0.521,-0.514,0.313,4.855,8.107,-20.511,155.0,71.0
38052,-0.577,-0.499,0.348,4.069,22.542,-25.115,157.0,73.0
38104,-0.674,-0.389,0.351,-7.565,15.153,-33.260,161.0,78.0
38156,-0.705,-0.412,0.317,-16.947,12.168,-22.229,159.0,73.0
38207,-0.725,-0.462,0.383,-33.137,1.412,-7.534,158.0,78.0
38258,-0.731,-0.533,0.446,-43.107,-18.679,-1.542,157.0,77.0
38312,-0.687,-0.574,0.457,-48.244,-41.557,7.344,0.0,82.0
38365,-0.587,-0.600,0.367,-48.664,-36.137,4.420,155.0,88.0
38416,-0.671,-0.633,0.420,-49.786,-24.122,0.252,154.0,81.0
38471,-0.733,-0.623,0.485,-50.313,-39.053,9.725,153.0,83.0
38525,-0.741,-0.540,0.442,-50.977,-51.382,20.817,0.0,84.0
38579,-0.770,-0.750,0.282,-55.588,-63.221,14.786,0.0,80.0
38633,-0.604,-1.048,0.070,-60.511,-41.756,1.008,0.0,81.0
38687,-0.596,-0.656,0.075,-59.977,-3.053,27.122,0.0,85.0
38743,-0.609,-0.816,0.001,-76.458,-56.496,21.580,0.0,89.0
38797,-0.503,-1.027,0.056,-87.305,-68.817,19.824,0.0,93.0
38852,-0.491,-0.944,0.229,-84.779,-82.206,28.145,0.0,101.0
38909,-0.441,-0.894,0.198,-67.084,-107.458,33.710,0.0,123.0
38969,-0.289,-0.813,0.095,-39.802,-67.137,23.893,0.0,127.0
39026,-0.448,-0.847,0.199,-18.496,3.565,32.282,0.0,131.0
39083,-0.953,-1.167,0.658,16.328,9.130,87.031,0.0,123.0
39139,-1.568,-1.417,1.026,102.992,51.748,190.351,0.0,112.0
39190,-2.000,-1.271,1.000,139.115,1.794,250.130,129.0,101.0
39241,-1.571,-0.809,0.258,152.466,-82.809,250.130,115.0,112.0
39335,0.016,-1.012,-0.933,122.198,-151.229,239.084,37.0,177.0
39385,0.581,-0.053,-0.768,125.626,-62.168,124.908,25.0,166.0
39442,0.387,0.568,0.017,-60.534,-4.626,2.206,122.0,167.0
39495,-0.404,0.730,0.577,-29.756,50.115,-56.985,97.0,164.0
39545,-0.920,0.605,0.691,-15.374,56.313,-13.878,39.0,162.0
39600,-0.762,0.686,0.464,-2.374,14.588,26.069,124.0,167.0
39653,-0.441,0.512,0.322,-34.206,13.931,25.740,95.0,168.0
39706,-0.449,0.599,0.422,-32.069,42.954,15.962,95.0,162.0
39755,-0.628,0.597,0.521,-36.176,36.321,9.893,24.0,177.0
39804,-0.663,0.625,0.410,-33.542,25.885,10.687,24.0,156.0
39863,-0.711,0.652,0.362,-41.931,44.511,15.802,0.0,159.0
39926,-0.601,0.685,0.322,-58.473,40.618,20.550,0.0,177.0
39979,-0.624,0.733,0.327,-54.160,55.916,30.947,100.0,157.0
40038,-0.758,0.748,0.329,-59.573,52.328,47.817,0.0,167.0
40097,-0.727,0.733,0.260,-72.427,53.840,77.267,0.0,171.0
40157,-0.894,0.613,0.179,-63.847,82.527,61.977,0.0,159.0
40216,-0.864,0.648,0.101,-101.641,87.763,35.733,0.0,173.0
40275,-0.680,0.498,-0.121,-127.412,68.321,44.137,0.0,166.0
40324,-0.988,0.242,0.085,-131.679,130.191,29.489,21.0,156.0
40373,-1.171,0.304,0.234,-124.863,97.763,21.160,23.0,157.0
40424,-0.909,0.296,0.136,-107.802,57.832,27.244,23.0,150.0
40472,-0.905,0.254,0.195,-87.328,74.107,29.038,22.0,142.0
40518,-0.939,0.262,0.314,-74.145,54.557,17.191,22.0,126.0
40569,-0.889,0.207,0.325,-57.679,28.870,8.473,93.0,125.0
40620,-0.813,0.275,0.313,-24.359,23.351,14.000,95.0,122.0
40677,-0.887,0.459,0.291,-2.893,4.092,16.313,97.0,125.0
40727,-1.115,0.498,0.386,-1.916,9.374,7.298,98.0,123.0
40776,-1.295,0.623,0.435,-0.832,-6.557,8.802,99.0,125.0
40825,-1.130,0.415,0.477,1.069,-22.618,21.641,99.0,107.0
40876,-1.106,0.133,0.814,7.504,-60.656,54.817,98.0,78.0
40925,-1.598,-0.374,1.042,31.603,-84.275,58.718,104.0,103.0
40973,-1.611,-0.410,0.827,98.122,-130.603,65.908,122.0,73.0
41022,-1.159,0.072,0.098,137.870,-235.817,27.198,120.0,74.0
41075,-0.781,0.301,-0.452,135.000,-250.137,16.397,119.0,169.0
41126,-0.332,0.534,-0.922,106.794,-250.137,-59.458,115.0,118.0
41182,-0.041,1.316,-0.865,83.947,-206.687,-108.145,0.0,118.0
41226,0.020,1.479,-0.080,11.832,-98.267,-53.015,32.0,86.0
41273,0.003,1.269,0.220,6.824,-61.031,15.573,30.0,88.0
41317,0.011,1.031,0.284,12.023,23.229,46.809,31.0,92.0
41363,-0.365,0.937,0.439,-15.618,35.931,28.282,31.0,125.0
41410,-0.264,0.878,0.378,-38.771,24.229,29.962,32.0,128.0
41456,-0.206,0.837,0.312,-38.550,22.382,40.038,31.0,139.0
41506,-0.222,0.941,0.374,-13.603,33.809,44.122,31.0,188.0
41556,-0.291,1.136,0.551,-5.290,80.985,26.557,30.0,184.0
41606,-0.547,1.040,0.857,-54.634,93.496,49.817,30.0,179.0
41656,-0.569,0.501,0.790,-75.855,21.305,90.191,30.0,200.0
41709,-0.149,0.417,0.540,-41.786,9.015,77.992,30.0,197.0
41758,-0.035,0.689,0.557,-41.160,69.557,50.527,30.0,177.0
41819,-0.371,0.728,0.771,-55.710,65.588,37.023,0.0,0.0
41879,-0.421,0.478,0.725,-65.099,22.756,53.008,0.0,0.0
41972,-0.000,0.263,0.551,-23.947,39.366,19.000,29.0,0.0
42023,-0.166,0.362,0.674,-18.702,56.511,-9.107,30.0,0.0
42074,-0.380,0.507,0.917,-26.947,36.695,-15.511,32.0,0.0
42112,-0.511,0.541,1.075,-2.779,-6.359,2.618,33.0,0.0
42162,-0.333,0.492,1.042,20.519,-14.954,5.214,29.0,0.0
42215,-0.049,0.737,0.936,14.985,35.214,-29.634,30.0,0.0
42265,-0.229,0.495,0.936,-41.985,29.557,-9.626,29.0,0.0
42303,-0.272,0.204,0.828,-33.435,-17.885,-30.511,30.0,0.0
42353,-0.125,0.307,0.667,-10.473,-11.229,-34.496,31.0,0.0
42399,-0.130,0.438,0.660,-12.550,18.855,-38.122,30.0,124.0
42446,-0.270,0.451,0.780,-6.687,8.710,-43.252,31.0,124.0
42497,-0.199,0.574,0.760,8.405,-1.847,-32.832,31.0,0.0
42543,-0.127,0.670,0.592,2.061,29.321,-19.260,30.0,121.0
42590,-0.262,0.548,0.616,-12.588,32.305,-13.008,31.0,133.0
42647,-0.132,0.543,0.415,-16.672,39.641,-13.725,0.0,101.0
42698,-0.099,0.302,0.312,-38.031,84.038,-32.061,133.0,98.0
42743,-0.061,0.023,0.274,-28.221,118.252,-96.740,38.0,95.0
42788,-0.132,-0.676,0.227,-34.115,146.176,-209.847,38.0,93.0
42834,-0.730,-0.937,0.525,-24.611,171.458,-250.137,46.0,93.0
42889,-0.764,-0.709,0.675,-51.748,131.672,-250.137,0.0,97.0
42943,-1.294,-1.257,0.532,-55.786,88.076,-250.137,0.0,92.0
43000,-1.108,-1.729,0.428,-4.053,18.580,-250.137,0.0,133.0
43059,-0.529,-1.531,0.175,27.809,55.786,-250.137,103.0,0.0
43113,-0.678,-1.276,0.488,45.214,107.344,-244.244,100.0,0.0
43158,-0.817,-1.318,0.430,59.450,28.695,-239.496,160.0,0.0
43217,-0.351,-0.779,0.350,41.466,9.786,-154.939,187.0,0.0
43264,-0.175,-0.863,0.270,25.557,-2.557,-71.656,188.0,0.0
43322,-0.003,-0.718,0.249,34.168,-1.389,-31.824,152.0,0.0
43379,0.087,-0.881,0.251,11.786,-2.443,-6.679,148.0,0.0
43425,0.359,-0.970,0.248,-0.473,-14.939,5.359,180.0,0.0
43479,0.383,-1.595,0.493,-35.115,0.275,20.397,82.0,0.0
43538,-0.007,-0.579,1.078,-19.092,5.901,-36.985,124.0,0.0
43595,0.379,-0.532,0.647,54.649,-60.580,35.160,144.0,0.0
43638,0.803,-0.852,0.085,19.260,-53.985,-3.786,127.0,0.0
43694,0.693,-0.738,0.143,-13.366,-14.863,-44.237,123.0,0.0
43750,0.361,-0.776,0.365,-21.038,17.366,-54.763,112.0,0.0
43805,0.213,-0.717,0.347,-22.099,4.580,-50.504,110.0,0.0
43862,0.207,-0.792,0.428,-32.382,15.534,-50.626,117.0,0.0
43916,0.070,-0.757,0.566,-20.084,2.634,-28.313,114.0,187.0
43974,0.187,-0.837,0.475,-16.191,-14.359,-24.527,101.0,191.0
44028,0.135,-0.855,0.544,-13.183,-45.634,-0.725,95.0,0.0
44083,0.382,-1.010,0.284,-3.832,-62.008,7.527,87.0,198.0
44137,0.549,-1.192,0.168,-18.893,-23.397,35.824,80.0,0.0
44190,0.427,-0.832,0.283,-13.344,-73.618,53.214,74.0,0.0
44243,0.673,-0.864,0.159,-10.534,-71.740,42.489,69.0,0.0
44297,0.643,-0.866,0.297,11.901,-82.786,36.855,72.0,0.0
44351,0.838,-0.870,-0.038,19.985,-45.740,21.443,75.0,0.0
44403,0.678,-0.825,-0.087,14.198,-18.282,28.137,62.0,0.0
44460,0.464,-0.897,-0.005,6.511,-29.672,17.015,63.0,0.0
44513,0.492,-0.872,0.051,2.305,-19.603,15.802,66.0,0.0
44608,0.374,-0.942,0.111,5.878,2.328,7.664,58.0,0.0
44661,0.284,-0.951,0.151,3.084,-13.664,-7.687,57.0,0.0
44706,0.382,-0.994,0.028,9.496,1.496,9.137,54.0,76.0
44751,0.270,-1.077,0.119,2.878,3.786,14.427,57.0,81.0
44797,0.421,-1.092,0.040,3.290,16.832,19.565,64.0,85.0
44851,0.324,-1.204,0.168,-10.061,25.725,35.031,60.0,0.0
44903,0.213,-0.699,0.416,-2.153,4.748,43.038,58.0,0.0
44959,0.279,-0.674,0.252,22.870,-35.084,51.702,59.0,0.0
45004,0.531,-1.010,-0.026,18.878,13.275,61.802,58.0,67.0
45056,0.176,-0.986,0.214,7.786,23.832,75.863,172.0,72.0
45110,0.034,-1.081,0.243,10.435,-35.206,95.740,165.0,112.0
45161,0.073,-0.897,0.135,5.450,-18.962,78.336,159.0,80.0
45215,-0.069,-0.874,0.240,-13.214,-16.023,50.305,155.0,120.0
45273,-0.139,-0.922,0.272,-18.550,-52.412,21.863,149.0,0.0
45327,-0.045,-1.001,0.196,-14.359,-58.672,27.870,143.0,126.0
45381,-0.150,-1.000,0.248,-11.595,-53.069,34.840,137.0,148.0
45438,-0.181,-0.989,0.206,-5.015,-42.450,36.107,131.0,156.0
45494,-0.350,-0.968,0.241,-4.313,-50.305,51.412,125.0,173.0
45542,-0.456,-1.006,0.205,-12.076,-88.160,65.473,118.0,57.0
45589,-0.439,-1.208,-0.038,20.214,-45.595,95.366,113.0,47.0
45642,-0.957,-1.046,0.214,4.466,10.550,120.603,0.0,59.0
45696,-1.259,-0.922,0.372,-5.092,-41.771,217.023,0.0,71.0
45748,-1.585,-1.224,0.501,-9.412,-89.130,250.130,0.0,41.0
45806,-1.384,-1.668,0.321,19.420,-91.176,250.130,0.0,99.0
45853,-0.913,-1.400,-0.232,63.763,-74.160,250.130,47.0,107.0
45903,-0.182,-0.544,-0.409,66.015,-17.725,250.130,33.0,116.0
45948,-0.039,-0.103,-0.222,-13.252,19.023,219.328,41.0,77.0
45992,-0.276,-0.064,0.077,-92.145,23.351,131.305,37.0,75.0
46036,-0.431,-0.097,0.314,-102.908,-30.366,32.840,30.0,75.0
46081,-0.342,0.071,0.371,-74.679,-5.947,-12.771,25.0,76.0
46128,-0.638,0.043,0.438,-33.107,62.649,-33.618,34.0,119.0
46174,-1.131,0.191,0.646,-12.557,72.527,-38.374,30.0,119.0
46220,-1.051,0.229,0.626,-1.954,11.595,-19.145,30.0,101.0
46270,-0.777,0.243,0.514,4.969,-16.580,-39.763,36.0,115.0
46317,-0.819,0.344,0.445,18.626,6.130,-46.015,35.0,121.0
46364,-1.027,0.348,0.523,28.992,6.008,-31.336,36.0,122.0
46407,-0.980,0.314,0.415,55.924,-25.214,-23.885,28.0,71.0
46453,-0.857,0.352,0.264,60.588,-6.183,-23.908,30.0,95.0
46496,-0.844,0.253,0.366,44.702,13.878,-19.954,29.0,67.0
46540,-0.734,0.257,0.358,22.779,-11.038,-4.229,30.0,68.0
46583,-0.652,0.145,0.215,11.176,-3.237,-13.382,28.0,65.0
46630,-0.810,0.131,0.291,8.656,37.183,-21.473,30.0,117.0
46681,-0.956,0.337,0.476,-3.122,33.168,-24.626,30.0,116.0
46725,-0.892,0.462,0.399,-20.763,-8.481,-26.229,30.0,83.0
46772,-0.742,0.516,0.225,-30.076,-2.115,-8.237,29.0,118.0
46818,-0.824,0.507,0.226,-39.420,18.779,15.779,30.0,116.0
46865,-0.921,0.380,0.272,-58.389,11.947,26.954,30.0,116.0
46911,-0.935,0.215,0.266,-71.122,6.870,31.107,30.0,117.0
46957,-0.865,0.182,0.288,-76.008,7.695,31.038,29.0,114.0
47000,-0.838,0.102,0.274,-73.634,11.672,23.412,30.0,58.0
47086,-0.884,0.245,0.275,-60.229,14.824,18.427,30.0,49.0
47132,-0.905,0.348,0.273,-62.489,13.183,26.145,31.0,49.0
47180,-0.934,0.449,0.208,-60.153,11.649,43.130,29.0,48.0
47223,-1.023,0.468,0.167,-56.931,26.695,50.321,30.0,59.0
47264,-1.213,0.415,0.164,-59.298,51.282,56.824,29.0,44.0
47305,-1.306,0.158,0.276,-66.802,38.031,62.221,29.0,43.0
47347,-0.902,0.203,0.270,-82.229,5.076,74.908,29.0,44.0
47391,-0.716,0.070,0.143,-95.397,1.198,65.229,30.0,94.0
47432,-0.835,-0.007,0.114,-101.656,20.405,33.458,28.0,43.0
47476,-1.006,0.037,0.121,-97.458,24.031,11.168,29.0,45.0
47521,-1.060,0.102,0.170,-90.366,20.977,13.412,28.0,98.0
47565,-0.908,0.162,0.211,-86.359,20.221,22.748,30.0,91.0
47606,-0.829,0.213,0.242,-87.740,27.046,24.489,36.0,42.0
47651,-0.885,0.240,0.263,-84.542,22.237,26.015,35.0,95.0
47695,-0.930,0.313,0.216,-83.710,10.664,26.260,30.0,89.0
47739,-0.941,0.594,-0.162,-74.916,72.328,30.053,36.0,90.0
47785,-1.428,1.362,-0.427,-75.267,108.901,93.420,36.0,115.0
47832,-1.503,1.601,-0.923,-176.000,108.443,200.191,26.0,116.0
47880,-1.590,0.481,-0.562,-250.137,63.725,230.191,37.0,111.0
47935,-1.602,-0.695,0.053,-250.137,11.901,179.603,0.0,110.0
47980,-0.823,-0.639,0.302,-142.756,29.443,118.069,20.0,110.0
48025,-0.580,-0.023,0.347,-129.626,68.626,67.267,17.0,113.0
48071,-0.649,0.170,0.253,-105.794,79.969,22.664,17.0,133.0
48117,-1.003,0.274,0.564,-111.695,42.702,47.565,23.0,131.0
48162,-0.742,-0.144,0.396,-67.405,-19.672,58.649,16.0,131.0
48207,-0.461,0.013,0.610,-31.679,26.473,40.786,13.0,119.0
48253,-0.632,0.263,0.656,-0.511,29.015,-11.267,14.0,125.0
48302,-0.766,0.561,0.463,4.397,31.840,-16.298,16.0,123.0
48347,-0.866,0.688,0.437,-3.160,12.580,8.427,16.0,123.0
48392,-0.562,0.645,0.319,-13.511,2.160,24.603,16.0,121.0
48437,-0.512,0.663,0.257,-33.321,44.489,28.153,17.0,119.0
48483,-0.767,0.583,0.389,-50.489,55.405,27.122,16.0,137.0
48529,-0.759,0.354,0.499,-65.168,34.305,32.221,17.0,133.0
48576,-0.590,0.478,0.512,-42.443,44.565,29.710,16.0,161.0
48624,-0.632,0.448,0.458,-28.046,41.183,22.634,16.0,161.0
48674,-0.690,0.495,0.451,-21.763,42.878,26.282,16.0,158.0
48721,-0.699,0.543,0.444,-32.176,34.962,18.863,15.0,157.0
48769,-0.688,0.635,0.471,-41.641,36.412,21.061,15.0,156.0
48816,-0.787,0.687,0.539,-41.885,26.504,33.641,15.0,154.0
48866,-0.798,0.680,0.529,-43.847,12.130,48.107,15.0,200.0
48915,-0.792,0.659,0.469,-36.855,8.985,53.809,13.0,196.0
48965,-0.818,0.485,0.440,-26.931,23.679,39.489,15.0,0.0
49014,-0.703,0.491,0.393,-21.527,3.214,36.221,14.0,194.0
49063,-0.312,0.575,0.017,-25.443,-7.031,30.962,15.0,0.0
49116,-0.364,0.613,-0.052,-38.649,73.908,9.908,15.0,187.0
49166,-0.896,0.658,0.307,-58.565,105.420,-2.786,15.0,0.0
49216,-1.037,0.576,0.474,-49.863,49.824,5.840,16.0,0.0
49252,-0.656,0.494,0.409,-42.924,33.160,17.931,17.0,0.0
49302,-0.592,0.451,0.390,-33.374,29.450,13.076,16.0,0.0
49338,-0.558,0.498,0.326,-20.450,23.458,-0.618,17.0,0.0
49431,-0.784,0.535,0.363,-12.176,37.527,-13.206,17.0,0.0
49468,-0.813,0.560,0.436,-13.038,14.969,-13.328,17.0,0.0
49517,-0.755,0.501,0.441,-8.962,3.695,-13.374,17.0,0.0
49557,-0.776,0.480,0.481,3.473,-5.427,-19.069,16.0,0.0
49606,-0.776,0.521,0.449,12.641,-19.847,-22.099,16.0,0.0
49643,-0.794,0.593,0.423,8.244,-19.786,-30.603,16.0,0.0
49693,-0.843,0.620,0.422,-1.282,-15.244,-35.321,16.0,0.0
49729,-0.904,0.678,0.312,2.443,-10.809,-32.947,17.0,0.0
49780,-0.972,0.477,0.240,0.679,0.534,-29.374,26.0,0.0
49817,-0.850,0.428,0.203,-19.275,-13.069,-4.145,27.0,0.0
49866,-0.676,0.270,0.090,-16.145,-21.191,8.412,17.0,0.0
49903,-0.723,0.162,0.166,-1.153,26.420,5.069,14.0,0.0
49955,-0.973,0.218,0.433,-0.947,38.267,-11.496,13.0,0.0
49992,-1.284,0.323,0.699,-10.267,-24.786,-25.542,14.0,0.0
50038,-1.316,0.314,0.929,-14.000,-69.824,-19.450,16.0,128.0
50088,-1.542,-0.282,1.080,-0.924,-147.130,-23.656,17.0,0.0
50124,-0.856,-0.208,0.549,105.008,-195.115,-5.748,17.0,0.0
50172,-0.504,0.386,0.228,155.115,-166.870,-4.924,15.0,166.0
50228,-0.488,0.676,0.031,147.084,-135.603,14.916,0.0,91.0
50271,-0.387,0.979,0.061,78.168,-106.893,36.137,16.0,88.0
50315,-0.214,0.690,0.121,30.122,-92.107,45.221,17.0,85.0
50362,-0.039,0.547,0.256,14.863,-45.366,29.695,18.0,98.0
50405,-0.027,0.604,0.471,7.672,-15.076,18.870,17.0,81.0
50449,-0.083,0.687,0.485,7.130,17.176,13.221,18.0,77.0
50491,-0.231,0.761,0.656,13.473,19.870,7.847,18.0,74.0
50534,-0.328,0.783,0.738,11.664,16.221,13.824,17.0,73.0
50587,-0.385,0.849,0.701,17.611,16.794,19.649,0.0,69.0
50634,-0.395,0.830,0.695,5.939,37.809,1.702,19.0,140.0
50680,-0.367,0.709,0.545,-13.702,18.489,0.244,18.0,137.0
50727,-0.297,0.560,0.400,-12.351,-13.611,4.740,17.0,143.0
50778,-0.184,0.528,0.303,10.008,19.557,3.076,18.0,135.0
50825,-0.341,0.713,0.474,-4.321,63.817,-19.656,17.0,159.0
50871,-0.602,0.722,0.626,-19.771,59.198,-49.053,19.0,124.0
50917,-0.664,0.729,0.609,-30.550,46.870,-38.916,18.0,121.0
50963,-0.667,0.655,0.566,-27.275,24.847,-12.374,18.0,119.0
51009,-0.461,0.611,0.480,-18.580,5.618,3.008,19.0,118.0
51054,-0.441,0.498,0.539,-15.046,9.595,-0.786,17.0,118.0
51104,-0.431,0.573,0.545,-4.939,12.252,-9.947,18.0,0.0
51158,-0.521,0.587,0.578,-0.183,8.603,-21.534,17.0,0.0
51208,-0.538,0.618,0.537,1.931,-3.840,-23.718,18.0,192.0
51257,-0.593,0.623,0.569,4.489,-3.313,-19.351,18.0,187.0
51302,-0.657,0.704,0.670,11.893,-5.672,-14.779,18.0,104.0
51352,-0.724,0.801,0.771,9.260,-10.130,-18.672,18.0,191.0
51400,-0.802,0.640,0.762,-6.336,-2.550,-25.389,18.0,167.0
51449,-0.671,0.385,0.583,-2.656,-36.000,-6.832,19.0,175.0
51495,-0.392,0.176,0.287,26.756,-44.450,-1.489,17.0,113.0
51543,-0.381,0.203,0.253,45.947,-0.611,-15.885,18.0,151.0
51594,-0.541,0.495,0.491,27.046,29.756,-40.626,17.0,161.0
51639,-0.698,0.572,0.598,2.885,23.031,-52.092,18.0,108.0
51684,-0.653,0.642,0.521,-0.290,13.000,-38.344,19.0,104.0
51775,-0.607,0.587,0.511,5.405,16.504,-0.779,19.0,151.0
51822,-0.607,0.541,0.515,-0.748,11.542,6.840,19.0,150.0
51870,-0.596,0.505,0.491,-0.038,12.557,1.977,19.0,150.0
51919,-0.589,0.538,0.455,0.595,15.198,-0.702,20.0,169.0
51966,-0.657,0.633,0.434,-1.412,23.214,-0.771,18.0,158.0
52015,-0.702,0.716,0.468,-11.000,23.992,10.702,19.0,153.0
52066,-0.757,0.821,0.635,-13.809,25.519,36.382,19.0,146.0
52115,-1.074,0.646,1.201,9.145,9.282,66.405,19.0,173.0
52162,-1.357,0.043,1.566,63.374,-49.832,73.695,20.0,156.0
52211,-1.001,-0.066,1.012,130.725,-147.908,56.176,30.0,160.0
52258,-0.756,0.242,0.271,154.420,-162.603,44.328,30.0,125.0
52304,-0.750,0.412,-0.055,132.939,-148.145,22.908,29.0,99.0
52349,-0.952,0.253,-0.098,139.718,-144.611,-3.305,38.0,92.0
52404,-0.741,0.506,-0.360,151.031,-195.649,-45.511,0.0,77.0
52448,-0.255,1.190,-0.735,105.229,-175.000,-34.603,37.0,69.0
52505,-0.149,1.245,-0.578,17.649,-75.779,0.176,0.0,75.0
52559,-0.159,1.149,-0.120,-14.855,-15.870,27.389,0.0,72.0
52614,-0.224,0.883,0.205,-34.595,-11.664,21.466,0.0,80.0
52668,-0.206,0.763,0.315,-11.924,-13.718,8.015,0.0,87.0
52722,-0.317,0.823,0.411,-10.252,-23.443,-8.206,0.0,73.0
52775,-0.401,0.788,0.521,-3.450,-29.756,-16.206,0.0,74.0
52830,-0.448,0.856,0.592,38.725,-35.763,-49.550,0.0,71.0
52883,-0.383,1.226,0.516,45.008,-41.565,-40.198,0.0,69.0
52940,-0.520,0.676,0.167,4.092,-92.511,-6.870,0.0,70.0
52995,-0.202,0.630,0.049,-4.176,-93.618,-32.412,0.0,72.0
53049,-0.111,0.769,0.263,-1.473,-49.634,-61.092,0.0,89.0
53103,-0.229,0.993,0.307,41.847,-41.992,-63.779,0.0,81.0
53158,-0.410,1.165,0.188,30.260,-43.763,-33.344,0.0,84.0
53208,-0.319,0.965,-0.019,11.107,-55.191,-3.931,114.0,73.0
53266,-0.125,0.849,-0.059,1.191,-36.809,6.038,0.0,70.0
53319,-0.047,0.809,0.014,-3.290,-7.588,0.412,0.0,69.0
53362,-0.118,0.956,0.117,-9.244,14.947,-18.305,36.0,70.0
53417,-0.293,1.086,0.274,-18.908,31.359,-32.863,0.0,69.0
53471,-0.564,1.161,0.398,-17.214,32.397,-10.450,0.0,71.0
53523,-0.598,1.054,0.300,6.153,41.221,6.069,0.0,67.0
53575,-0.540,1.036,0.243,-12.153,46.908,32.756,0.0,65.0
53622,-0.397,0.810,0.065,-41.634,19.687,53.977,116.0,63.0
53670,-0.252,0.696,-0.018,-65.000,45.473,25.466,116.0,65.0
53719,-0.407,0.688,0.161,-85.573,86.893,-7.023,117.0,83.0
53767,-0.671,0.684,0.394,-86.916,80.527,-13.313,117.0,64.0
53815,-0.723,0.672,0.384,-72.756,51.718,6.435,117.0,79.0
53866,-0.626,0.620,0.329,-69.580,50.992,20.130,116.0,83.0
53910,-0.502,0.542,0.245,-67.023,50.733,15.969,37.0,67.0
53962,-0.237,0.460,0.027,-75.214,71.855,-10.557,0.0,69.0
54021,0.002,-0.031,-0.033,-94.595,97.427,-84.748,0.0,104.0
54071,-0.236,-0.584,0.160,-75.313,109.763,-222.374,117.0,109.0
54121,-0.866,-0.748,0.583,-22.443,86.916,-250.137,104.0,113.0
54171,-1.173,-1.054,0.905,-1.176,83.924,-250.137,111.0,109.0
54221,-1.663,-1.464,0.812,44.832,80.786,-250.137,120.0,102.0
54276,-1.346,-1.486,0.457,108.053,26.672,-236.420,125.0,171.0
54374,-1.224,-0.507,0.330,99.038,61.702,-200.656,134.0,0.0
54420,-1.448,-0.480,0.509,83.901,-14.489,-220.305,0.0,0.0
54467,-0.848,-0.816,0.043,134.244,-38.992,-167.542,0.0,0.0
54508,-0.353,-0.604,-0.150,101.313,60.885,-130.740,112.0,0.0
54563,-0.520,-0.710,0.108,29.992,96.603,-70.099,112.0,0.0
54605,-0.764,-0.827,0.563,9.328,-35.168,-38.748,112.0,0.0
54660,-0.404,-0.697,0.432,6.481,-93.496,-35.351,110.0,0.0
54702,-0.139,-0.860,0.310,-1.176,-84.855,-13.992,108.0,0.0
54759,-0.160,-0.754,0.528,-4.382,-49.992,-0.504,104.0,0.0
54800,-0.128,-0.803,0.404,-2.137,-44.252,19.916,100.0,0.0
54855,-0.207,-0.837,0.485,-10.740,-54.489,25.282,100.0,0.0
54901,-0.150,-0.988,0.297,-3.191,-54.214,30.740,0.0,0.0
54948,-0.194,-1.213,0.304,-30.351,-65.725,25.550,0.0,0.0
54994,-0.150,-0.855,0.438,-27.130,-88.893,44.107,0.0,0.0
55042,-0.206,-0.848,0.610,-22.786,-122.763,44.061,0.0,0.0
55088,0.000,-0.910,0.659,-20.817,-183.374,76.374,0.0,0.0
55135,0.341,-1.040,0.461,4.916,-179.260,85.695,0.0,0.0
55197,0.625,-1.028,0.252,10.527,-131.427,93.206,0.0,0.0
55255,0.490,-0.963,0.284,5.824,-74.542,56.244,153.0,184.0
55314,0.315,-0.963,0.423,5.901,-98.282,48.519,0.0,187.0
55374,0.304,-0.898,0.399,6.542,-123.397,30.733,0.0,197.0
55434,0.419,-0.823,0.277,14.710,-76.359,29.275,0.0,180.0
55494,0.356,-0.915,0.332,6.008,-36.718,41.443,0.0,199.0
55555,0.204,-1.030,0.465,-10.809,-23.290,38.725,0.0,0.0
55615,0.193,-1.061,0.524,-17.069,-26.496,34.611,0.0,0.0
55675,0.140,-0.723,0.533,-6.053,-15.252,21.992,0.0,196.0
55739,0.152,-0.623,0.449,2.237,-5.435,42.336,0.0,200.0
55793,0.081,-0.960,0.525,-23.748,-20.496,48.756,95.0,0.0
55847,0.091,-0.967,0.536,-18.832,-61.534,27.565,93.0,0.0
55902,0.110,-0.840,0.430,-8.435,-43.069,17.763,88.0,200.0
55956,-0.086,-0.842,0.401,0.771,-28.870,20.359,83.0,0.0
56009,-0.152,-0.890,0.356,-9.298,-58.435,10.389,78.0,0.0
56062,-0.221,-0.930,0.388,-7.153,-76.786,14.893,74.0,0.0
56115,-0.133,-0.944,0.318,-2.710,-99.939,23.924,69.0,183.0
56167,-0.144,-0.906,0.300,-2.420,-103.847,47.916,64.0,188.0
56222,0.063,-0.966,0.125,-7.840,-132.473,63.122,59.0,195.0
56275,-0.011,-0.875,0.072,-9.427,-133.351,53.542,62.0,0.0
56330,-0.225,-0.792,-0.018,-29.366,-162.412,76.641,85.0,0.0
56383,-0.433,-0.998,-0.387,-61.855,-210.069,130.847,75.0,0.0
56422,-0.582,-1.120,-0.668,-143.389,-192.886,151.496,61.0,0.0
56474,-0.795,-1.368,-0.683,-178.176,-205.886,158.473,54.0,0.0
56535,-0.590,-1.446,-0.883,-155.061,-250.137,193.038,0.0,192.0
56592,-0.023,-1.824,-0.824,-86.626,-204.878,194.534,0.0,129.0
56652,0.430,-1.591,-0.568,-30.870,-64.076,169.046,0.0,137.0
56709,-0.140,-1.408,-0.022,-93.786,-58.420,149.756,176.0,144.0
56761,-0.115,-0.833,-0.033,-78.427,-123.855,62.122,169.0,90.0
56814,-0.192,-0.876,-0.216,-37.710,-76.748,20.992,166.0,89.0
56866,-0.476,-0.632,-0.098,-7.099,5.733,5.282,164.0,95.0
56921,-0.730,-0.755,0.016,-9.802,47.748,7.595,0.0,89.0
56975,-0.988,-0.759,0.245,-2.221,0.405,8.916,0.0,87.0
57073,-0.785,-0.691,0.058,18.076,-21.840,-10.542,0.0,92.0
57131,-0.927,-0.840,0.045,24.649,6.916,-26.588,0.0,91.0
57186,-0.635,-0.351,0.085,34.412,-7.359,12.908,0.0,101.0
57241,-0.546,-0.647,-0.026,31.359,2.405,34.763,0.0,99.0
57295,-0.611,-0.716,-0.037,47.489,37.733,30.947,0.0,94.0
57350,-0.805,-0.693,0.093,32.046,46.527,20.771,0.0,92.0
57405,-0.790,-0.421,0.160,13.832,-0.611,10.733,0.0,99.0
57458,-0.681,-0.308,0.083,-2.412,-11.824,0.450,0.0,63.0
57515,-0.780,-0.365,0.047,-4.664,-0.977,-5.137,0.0,65.0
57569,-0.854,-0.368,0.074,-5.038,13.664,-0.061,0.0,87.0
57626,-0.952,-0.427,0.140,-20.763,-2.229,8.076,0.0,91.0
57681,-0.844,-0.491,0.089,-19.137,-21.313,12.847,0.0,88.0
57730,-0.829,-0.469,0.059,-15.649,-0.893,12.962,138.0,53.0
57784,-0.920,-0.434,0.047,-17.473,13.901,12.687,0.0,89.0
57834,-1.370,-0.507,-0.380,-23.710,36.489,-16.748,141.0,71.0
57888,-2.000,0.520,-0.677,-119.344,-20.344,21.565,0.0,71.0
57939,-2.000,0.118,-0.964,-219.809,-171.924,198.000,156.0,79.0
57991,-1.591,-1.202,-0.632,-181.405,-160.084,250.130,127.0,94.0
58041,-0.814,-1.973,-0.437,-129.206,-153.198,230.641,121.0,97.0
58091,0.153,-1.133,-0.104,-98.481,-105.137,136.725,37.0,106.0
58140,0.188,-0.609,0.077,-98.267,-67.153,66.634,35.0,159.0
58186,-0.127,-0.007,0.374,-58.115,0.634,1.649,36.0,117.0
58243,-0.696,0.082,0.286,-15.313,37.115,-19.122,136.0,187.0
58295,-1.242,0.073,0.600,-49.580,34.511,-6.267,135.0,107.0
58347,-0.913,-0.263,0.594,-15.160,-37.771,-5.763,136.0,105.0
58399,-0.723,-0.140,0.535,0.511,-13.931,-24.313,137.0,104.0
58450,-0.745,0.008,0.565,15.794,-11.053,-37.275,137.0,101.0
58511,-0.796,0.182,0.402,33.382,1.748,-52.542,138.0,192.0
58565,-1.268,0.031,0.625,26.496,-10.885,-42.435,140.0,142.0
58620,-1.143,-0.234,0.561,23.618,-54.015,-35.328,141.0,159.0
58673,-0.824,-0.125,0.399,24.420,-23.542,-44.382,139.0,98.0
58728,-0.838,-0.242,0.320,31.435,-16.771,-28.008,0.0,96.0
58787,-0.688,-0.230,0.154,44.206,-3.687,-22.947,0.0,175.0
58838,-0.781,-0.055,0.335,14.527,25.573,-23.710,38.0,173.0
58889,-0.885,-0.017,0.505,-5.282,4.260,-17.672,38.0,193.0
58944,-0.799,-0.025,0.481,-3.931,-2.718,-5.359,159.0,142.0
59004,-0.873,-0.097,0.571,4.863,6.206,8.595,141.0,182.0
59062,-0.762,-0.093,0.472,-5.321,-7.344,6.313,140.0,0.0
59106,-0.804,-0.007,0.516,-10.901,-4.916,11.603,141.0,0.0
59161,-0.709,-0.001,0.426,-16.779,-4.580,13.794,142.0,160.0
59214,-0.781,-0.033,0.487,-20.893,11.740,21.496,142.0,116.0
59268,-0.881,-0.039,0.552,-21.183,15.908,22.595,142.0,115.0
59320,-1.011,-0.047,0.671,-30.573,2.550,32.061,142.0,111.0
59372,-1.112,-0.187,0.835,-29.870,-6.382,36.099,143.0,91.0
59426,-1.430,-0.871,1.208,19.359,28.878,38.550,140.0,87.0
59478,-1.118,-0.563,1.163,89.221,-18.664,69.725,136.0,91.0
59524,-1.021,0.148,0.531,122.870,-31.901,118.534,33.0,102.0
59569,-1.138,0.462,-0.135,142.603,-47.023,149.763,30.0,93.0
59615,-0.859,0.713,-0.537,87.573,-65.145,161.053,28.0,96.0
59661,-0.455,0.586,-0.604,35.092,-53.000,148.740,37.0,103.0
59750,-0.042,0.355,0.096,-60.489,-6.145,64.878,23.0,120.0
59801,-0.336,0.295,0.474,-52.695,47.969,27.779,22.0,0.0
59856,-0.569,0.329,0.757,-20.962,34.031,8.427,180.0,116.0
59912,-0.518,0.480,0.708,3.626,14.641,-21.084,37.0,0.0
59963,-0.599,0.458,0.626,-2.176,-11.084,-39.969,36.0,0.0
60018,-0.643,0.489,0.532,1.985,-19.191,-49.405,190.0,107.0
60080,-0.639,0.622,0.515,11.870,-7.786,-33.824,0.0,104.0
60125,-0.608,0.643,0.525,13.458,-25.985,-33.221,37.0,103.0
60180,-0.637,0.726,0.575,18.405,-14.740,-30.885,0.0,105.0
60234,-0.717,0.713,0.619,19.237,-10.122,-25.977,0.0,97.0
60279,-0.784,0.602,0.714,-4.359,-5.237,-26.634,30.0,102.0
60329,-0.708,0.270,0.785,-14.481,-9.221,-14.237,36.0,0.0
60385,-0.935,-0.162,1.310,5.374,-23.908,-2.305,164.0,99.0
60435,-1.063,-0.319,1.302,69.427,-104.504,-14.458,31.0,0.0
60481,-0.933,0.095,0.757,106.710,-139.542,-49.557,33.0,106.0
60529,-0.986,0.461,0.490,106.565,-115.267,-47.046,33.0,159.0
60582,-0.894,0.657,-0.167,122.130,-176.305,-45.863,163.0,119.0
60641,-0.195,0.731,-0.577,128.130,-136.786,-17.000,0.0,160.0
60689,0.250,0.854,-0.513,87.962,-81.260,-22.656,36.0,157.0
60746,0.363,1.190,-0.094,20.229,5.046,-6.366,0.0,145.0
60805,-0.141,0.953,0.602,-53.198,71.237,-23.099,0.0,115.0
60852,-0.461,0.745,0.782,-36.939,59.275,-14.115,30.0,136.0
60898,-0.559,0.680,0.633,-8.817,40.611,6.802,30.0,127.0
60944,-0.344,0.690,0.436,5.985,39.504,26.305,36.0,130.0
61001,-0.327,0.720,0.439,-0.885,41.634,20.573,0.0,138.0
61051,-0.405,0.769,0.608,-1.336,50.748,-3.038,29.0,0.0
61108,-0.794,0.772,0.961,-4.870,67.092,-29.466,193.0,135.0
61159,-1.387,0.434,1.420,-33.656,41.267,-4.664,37.0,200.0
61218,-1.763,-0.271,1.434,-17.718,-112.947,28.275,198.0,0.0
61278,-0.520,0.226,-0.396,86.710,-250.137,-96.641,0.0,119.0
61325,0.248,1.032,-0.952,102.519,-80.511,-114.214,30.0,133.0
61370,-0.025,1.564,-0.093,76.313,48.519,-14.794,36.0,106.0
61416,-0.468,1.142,0.491,30.672,36.855,60.076,31.0,119.0
61462,-0.778,0.725,0.822,-0.496,-17.962,20.153,34.0,117.0
61508,-0.720,0.575,0.731,-31.076,-41.702,-21.351,32.0,117.0
61554,-0.620,0.436,0.628,-25.763,-51.588,-35.725,33.0,117.0
61600,-0.332,0.657,0.432,3.595,-65.634,-37.282,36.0,116.0
61648,-0.072,0.989,0.263,10.824,-33.504,-21.038,35.0,107.0
61694,-0.217,0.804,0.366,-2.916,8.504,2.863,30.0,120.0
61742,-0.460,0.600,0.562,2.282,14.718,5.221,31.0,138.0
61788,-0.528,0.549,0.635,2.069,-0.092,-4.656,31.0,120.0
61843,-0.508,0.725,0.683,13.672,-26.481,-6.618,0.0,122.0
61899,-0.208,0.854,0.358,33.168,-17.824,-3.863,0.0,125.0
61945,-0.311,1.087,0.517,25.756,27.481,-0.863,30.0,127.0
62002,-0.532,1.181,0.865,38.198,12.740,26.069,0.0,128.0
62062,-0.560,0.857,0.833,65.679,-13.809,125.550,0.0,0.0
62126,-0.428,0.235,0.339,75.252,-47.183,139.855,0.0,0.0
62162,0.193,0.395,0.057,63.641,-64.061,61.298,30.0,0.0
62215,0.364,0.664,0.010,43.763,-68.733,12.481,57.0,0.0
62254,0.618,1.059,-0.115,19.939,4.924,-46.947,57.0,0.0
62357,-0.223,1.305,0.238,2.618,81.565,-36.924,0.0,0.0
62404,-0.276,1.295,0.177,-17.031,35.618,-3.183,0.0,0.0
62456,-0.190,1.114,0.181,-34.435,37.985,19.000,59.0,0.0
62509,-0.101,0.918,0.172,-29.458,42.336,32.420,58.0,0.0
62546,-0.016,0.845,0.131,-20.656,49.939,32.008,58.0,0.0
62611,-0.052,0.896,0.146,-27.015,65.290,27.214,59.0,0.0
62666,-0.214,0.928,0.294,-26.305,71.550,18.420,59.0,0.0
62729,-0.155,1.130,0.398,-14.870,61.870,17.107,0.0,0.0
62791,-0.167,0.961,0.217,-22.611,67.542,35.489,0.0,0.0
62855,-0.066,0.808,-0.016,-28.008,81.618,25.802,0.0,0.0
62904,-0.153,0.917,0.083,-75.595,125.237,-7.321,0.0,0.0
62949,-0.483,1.005,0.490,-100.122,143.916,-9.626,0.0,122.0
63005,-0.963,0.820,0.896,-88.412,128.053,15.855,0.0,89.0
63062,-1.215,0.619,1.153,-33.756,33.893,65.168,0.0,85.0
63121,-0.690,0.443,0.869,30.374,-58.321,96.786,0.0,85.0
63168,-0.184,0.471,0.479,61.702,-72.000,87.305,29.0,85.0
63224,0.141,0.545,0.154,63.130,-69.221,62.466,0.0,87.0
63281,0.235,0.666,-0.000,50.748,-41.336,2.786,0.0,89.0
63329,0.212,0.999,-0.021,21.718,18.092,-31.649,58.0,88.0
63392,-0.109,1.141,0.257,-8.664,29.832,-36.763,0.0,0.0
63438,-0.245,1.282,0.503,-18.076,-3.481,-19.137,30.0,89.0
63488,-0.135,1.209,0.555,-16.939,-7.290,-2.473,61.0,88.0
63544,-0.052,1.070,0.554,2.046,-22.328,10.550,0.0,91.0
63604,0.210,0.760,0.102,5.450,-15.916,52.046,59.0,96.0
63652,0.190,0.639,0.084,-26.344,13.878,19.481,63.0,95.0
63709,0.330,0.809,0.051,-75.244,40.435,-24.145,0.0,95.0
63764,0.430,0.759,-0.201,-166.519,97.916,-79.527,0.0,76.0
63819,0.289,0.145,-0.432,-250.137,186.687,-155.427,0.0,71.0
63865,-0.264,-0.531,-0.275,-250.137,250.130,-207.542,36.0,68.0
63912,-0.920,-0.914,0.279,-250.137,243.840,-236.290,37.0,91.0
63970,-1.209,-1.246,1.053,-238.267,174.008,-248.656,0.0,115.0
64018,-1.292,-1.345,0.842,-132.679,85.847,-248.008,50.0,87.0
64076,-1.339,-1.171,0.678,-82.832,60.008,-196.718,0.0,84.0
64133,-1.376,-0.655,0.604,-14.962,22.641,-95.771,0.0,83.0
64193,-1.019,-0.320,0.494,-2.969,-11.115,-28.282,0.0,159.0
64244,-0.802,-0.280,0.250,-0.916,-35.870,10.687,123.0,89.0
64293,-0.961,-0.558,0.184,-43.237,-36.275,9.351,118.0,37.0
64345,-0.765,-0.781,0.048,-68.847,-75.626,17.832,111.0,97.0
64399,-0.508,-0.947,0.103,-78.840,-104.084,22.901,105.0,141.0
64447,-0.331,-1.260,-0.021,-66.397,-108.099,10.206,98.0,42.0
64501,-0.193,-1.364,-0.051,-46.664,-84.351,-0.656,94.0,109.0
64561,-0.022,-1.140,-0.001,-27.672,-55.374,-35.740,0.0,145.0
64619,0.259,-0.895,0.029,-13.664,-37.473,-92.046,0.0,131.0
64678,0.082,-1.554,-0.129,7.069,3.176,-173.725,0.0,149.0
64731,-0.095,-1.215,0.155,14.153,41.305,-185.069,71.0,142.0
64785,-0.219,-1.061,0.311,-4.107,27.771,-185.198,73.0,176.0
64841,-0.314,-1.118,0.375,3.840,6.977,-184.366,76.0,0.0
64898,-0.274,-1.323,0.537,24.435,-36.786,-142.031,87.0,0.0
64954,-0.010,-0.708,0.610,48.122,-56.221,-68.832,95.0,0.0
65013,0.564,-0.814,0.252,80.397,-50.389,2.687,83.0,0.0
