Timestamp(ms),AccelX(g),AccelY(g),AccelZ(g),GyroX(deg/s),GyroY(deg/s),GyroZ(deg/s),DistanceLeft(cm),DistanceRight(cm)
35092,-0.354,-0.055,0.924,-1.611,-1.160,-1.878,0.0,164.0
35149,-0.343,-0.055,0.914,-1.870,1.115,-1.740,0.0,162.0
35208,-0.341,-0.049,0.898,-2.519,4.969,-1.336,0.0,163.0
35266,-0.372,-0.054,0.926,-2.328,3.832,-1.702,0.0,163.0
35324,-0.359,-0.065,0.918,-1.656,0.916,-1.626,0.0,166.0
35382,-0.349,-0.060,0.919,-1.947,0.824,-1.992,0.0,163.0
35440,-0.354,-0.058,0.916,-2.122,3.344,-1.771,0.0,163.0
35501,-0.361,-0.057,0.920,-1.947,3.000,-1.718,0.0,164.0
35559,-0.364,-0.057,0.921,-2.336,1.260,-1.542,0.0,163.0
35617,-0.345,-0.051,0.918,-1.718,1.038,-1.878,0.0,163.0
35675,-0.348,-0.066,0.918,-1.870,2.817,-2.076,0.0,163.0
35733,-0.359,-0.059,0.909,-2.130,4.031,-1.321,0.0,166.0
35791,-0.359,-0.052,0.923,-2.031,2.794,-1.740,0.0,163.0
35850,-0.374,-0.054,0.918,-3.305,1.847,-0.916,0.0,162.0
35907,-0.375,-0.072,0.932,-2.053,-7.153,-0.336,0.0,164.0
35965,-0.340,-0.050,0.928,-1.740,-10.969,-0.084,0.0,163.0
36023,-0.295,-0.051,0.936,-1.244,-5.779,-2.008,0.0,89.0
36076,-0.271,-0.055,0.930,-2.244,7.985,-2.298,0.0,90.0
36130,-0.343,-0.185,1.184,1.779,24.122,12.160,0.0,88.0
36191,-0.476,-0.458,1.104,70.244,123.344,156.527,0.0,0.0
36251,-1.453,0.379,0.876,142.702,127.053,247.130,0.0,0.0
36307,-0.860,0.725,0.793,95.313,72.229,242.618,136.0,0.0
36364,-0.482,0.443,0.319,9.908,27.664,250.130,128.0,199.0
36415,-0.184,0.629,0.410,-91.206,28.679,206.656,36.0,0.0
36474,0.012,0.649,0.610,-143.244,-3.626,159.962,0.0,0.0
36531,0.106,0.203,0.688,-153.282,-52.573,98.748,67.0,0.0
36591,0.449,0.217,0.507,-96.672,-57.878,64.153,0.0,0.0
36652,0.250,0.328,0.680,-108.206,57.084,82.672,0.0,0.0
36711,0.160,0.222,1.087,-125.221,60.573,45.397,0.0,200.0
36766,-0.032,0.038,0.968,-125.679,56.137,12.458,106.0,198.0
36820,-0.152,-0.003,0.956,-96.954,41.496,-23.107,102.0,196.0
36876,-0.117,-0.141,0.930,-128.313,34.344,-29.580,101.0,195.0
36930,-0.005,-0.295,0.957,-150.084,38.099,-19.244,100.0,195.0
36984,-0.054,-0.568,0.906,-137.000,46.611,-16.855,99.0,195.0
37042,-0.215,-0.624,0.898,-86.809,14.718,-4.122,97.0,195.0
37096,-0.175,-0.545,0.754,-69.099,-31.870,9.763,96.0,196.0
37150,0.004,-0.656,0.529,-64.817,-39.069,13.771,97.0,196.0
37204,0.085,-0.712,0.539,-67.176,2.412,19.969,97.0,197.0
37260,-0.092,-0.885,0.543,-51.053,32.176,15.939,98.0,0.0
37314,-0.236,-0.843,0.604,-45.382,34.763,12.969,98.0,0.0
37368,-0.254,-0.950,0.481,-24.931,31.466,8.153,98.0,0.0
37424,-0.324,-0.774,0.539,-6.359,42.267,7.023,99.0,0.0
37478,-0.378,-0.829,0.650,0.908,29.443,3.763,99.0,0.0
37535,-0.405,-0.920,0.704,11.809,-17.099,-21.031,99.0,0.0
37591,-0.338,-0.626,0.873,37.595,-31.015,-77.153,98.0,0.0
37645,-0.262,-0.577,0.684,27.435,17.275,-50.260,99.0,195.0
37699,-0.460,-0.639,0.631,51.008,42.366,81.069,96.0,195.0
37753,-0.629,-0.804,0.684,16.382,-83.031,72.779,83.0,196.0
37807,-0.157,-0.714,0.371,12.824,-191.275,42.954,80.0,198.0
37860,0.243,-0.696,0.396,24.168,-196.481,21.496,77.0,0.0
37957,0.771,-0.697,0.594,-56.733,24.489,-20.382,93.0,193.0
38014,-0.128,-0.730,0.856,-41.618,100.344,-7.092,93.0,200.0
38069,-0.375,-0.733,1.151,-12.672,5.351,0.649,94.0,196.0
38123,-0.191,-0.655,0.892,10.893,-48.099,5.710,95.0,0.0
38183,-0.332,-0.406,1.025,27.473,-60.557,64.687,0.0,0.0
38245,-0.122,-0.289,0.972,20.656,-89.496,151.458,0.0,0.0
38303,0.327,-1.427,0.743,-40.160,-231.969,60.153,0.0,169.0
38362,1.133,-0.761,-0.718,71.412,-46.672,-32.870,0.0,165.0
38414,0.530,-0.556,0.113,-8.214,250.130,-40.901,73.0,165.0
38467,-0.543,-0.902,0.485,-98.985,250.130,-99.855,75.0,0.0
38524,-0.885,-0.741,0.817,-41.733,162.176,-70.718,92.0,200.0
38580,-1.191,-0.597,1.193,-29.183,42.542,18.954,94.0,200.0
38629,-0.983,-0.715,1.102,-2.046,-120.153,54.931,94.0,108.0
38677,-0.567,-0.656,1.013,26.557,-221.191,81.580,75.0,112.0
38728,-0.149,-1.111,0.758,13.496,-250.137,61.000,72.0,163.0
38788,0.519,-1.240,-0.413,69.740,-246.374,-1.931,0.0,166.0
38846,1.332,-0.680,-0.378,54.252,31.550,-2.939,0.0,167.0
38906,0.407,-0.681,0.198,-36.931,250.130,-83.756,0.0,0.0
38965,-0.354,-0.824,0.506,-60.344,250.130,-139.977,92.0,0.0
39019,-1.064,-0.465,0.887,-11.977,250.130,-25.290,94.0,0.0
39074,-1.648,-0.352,1.273,5.061,87.527,57.321,95.0,0.0
39114,-1.120,-0.257,0.985,-20.763,-130.160,55.740,79.0,0.0
39162,-0.931,-0.519,0.961,-57.267,-245.824,63.435,75.0,109.0
39216,-0.332,-1.254,0.647,-28.954,-250.137,18.962,73.0,0.0
39264,0.576,-0.898,-0.285,52.305,-250.137,-10.374,17.0,166.0
39325,1.586,-0.518,-0.460,35.122,-109.000,14.779,0.0,0.0
39386,0.761,-0.724,-0.156,-29.298,250.130,-56.855,0.0,0.0
39438,-0.323,-0.982,0.251,-73.221,250.130,-92.832,75.0,109.0
39492,-1.125,-0.606,0.369,2.504,250.130,10.153,93.0,0.0
39547,-2.000,-0.308,1.292,24.504,122.733,19.450,95.0,0.0
39587,-1.279,-0.372,0.710,-39.527,-198.679,23.313,79.0,0.0
39641,-0.877,-0.572,0.635,-56.191,-250.137,32.481,76.0,0.0
39687,-0.364,-1.094,0.540,-3.389,-250.137,2.786,16.0,115.0
39737,0.417,-0.883,0.066,27.405,-250.137,-12.908,62.0,166.0
39796,1.243,-0.709,-0.225,18.115,-194.740,-4.321,0.0,167.0
39856,1.221,-0.754,-0.432,4.489,166.092,-24.092,0.0,168.0
39914,0.258,-0.694,0.208,-44.244,250.130,-55.023,0.0,112.0
39968,-0.767,-0.735,0.303,-11.863,250.130,-18.954,77.0,0.0
40023,-2.000,-0.491,1.499,3.779,213.420,18.786,82.0,0.0
40062,-1.525,-0.220,0.974,-32.817,-176.878,29.527,79.0,0.0
40112,-0.936,-0.648,0.671,-26.290,-250.137,41.908,76.0,110.0
40162,-0.156,-0.954,0.443,-8.763,-250.137,-3.450,16.0,0.0
40223,0.578,-0.919,-0.023,25.389,-250.137,-14.985,0.0,0.0
40284,1.162,-0.668,-0.167,22.206,-87.443,-4.015,0.0,0.0
40348,0.822,-0.688,0.072,-19.466,213.977,-56.000,0.0,0.0
40401,-0.070,-0.812,0.364,-33.550,250.130,-71.214,74.0,0.0
40456,-0.727,-0.605,0.593,-13.664,250.130,-20.870,77.0,0.0
40510,-1.640,-0.367,1.336,-8.878,161.458,13.252,79.0,0.0
40558,-1.578,-0.470,1.122,-30.176,-121.061,53.847,78.0,108.0
40607,-0.914,-0.810,0.756,-11.351,-250.137,67.145,74.0,113.0
40710,0.663,-0.923,-0.161,49.740,-250.137,-10.939,0.0,173.0
40771,1.637,-0.421,-0.426,36.382,-64.740,12.145,0.0,0.0
40832,0.775,-0.724,0.148,-30.939,250.130,-50.794,0.0,0.0
40896,0.059,-0.944,0.253,-40.176,250.130,-88.626,0.0,0.0
40950,-0.647,-0.845,0.601,-4.672,250.130,-72.069,77.0,0.0
40993,-1.508,-0.670,1.254,19.740,173.252,-94.573,82.0,14.0
41049,-1.601,-0.484,1.085,2.947,-22.198,-72.000,93.0,199.0
41103,-0.953,-0.371,0.698,22.779,-192.573,31.779,79.0,199.0
41156,-0.494,-0.723,0.579,43.901,-250.137,93.107,73.0,0.0
41207,0.183,-1.133,0.249,57.634,-250.137,40.137,14.0,0.0
41257,1.400,-0.590,-0.353,57.145,-250.137,-47.794,10.0,0.0
41322,1.591,-0.771,-0.506,41.969,11.489,-50.092,0.0,0.0
41372,0.883,-0.634,0.116,16.069,250.130,-78.023,16.0,0.0
41422,0.143,-0.853,0.795,3.817,250.130,-115.000,17.0,0.0
41475,-0.632,-0.927,1.021,56.122,250.130,-157.794,27.0,0.0
41526,-0.624,-0.459,1.115,126.626,122.718,-127.802,22.0,0.0
41568,-0.379,-0.113,0.882,142.122,36.611,-136.145,99.0,0.0
41622,-0.138,0.073,0.812,120.191,-6.977,-134.275,97.0,0.0
41678,0.146,0.205,0.772,86.504,16.519,-104.588,100.0,0.0
41720,0.011,0.343,0.713,78.374,139.809,-49.153,106.0,0.0
41779,-0.294,0.622,0.683,88.351,154.931,-3.985,108.0,0.0
41835,-0.701,0.654,0.839,57.756,134.588,-2.427,112.0,0.0
41891,-0.807,0.580,0.877,8.321,111.771,-16.580,114.0,0.0
41948,-0.763,0.371,0.835,-5.420,45.359,5.573,116.0,0.0
42004,-0.644,0.285,0.792,9.687,-20.176,4.450,116.0,0.0
42066,-0.374,0.179,0.811,22.939,-17.687,1.008,117.0,0.0
42122,-0.338,0.022,0.820,38.595,-22.099,-11.099,118.0,0.0
42177,-0.336,-0.114,0.658,67.573,-24.099,-42.328,120.0,0.0
42233,-0.198,0.169,0.681,95.855,-1.733,-91.321,122.0,0.0
42292,-0.336,0.236,0.598,73.992,15.267,-102.740,125.0,0.0
42348,-0.726,0.460,0.647,61.450,-36.481,-112.824,129.0,0.0
42407,-0.896,0.705,0.630,42.374,177.992,28.282,0.0,0.0
42455,-1.370,0.590,0.662,34.832,126.496,-64.084,0.0,0.0
42514,-0.986,0.578,0.598,11.366,-0.015,-67.519,0.0,0.0
42561,-0.777,0.237,0.257,15.176,-109.687,-67.931,0.0,0.0
42620,-0.494,0.354,0.285,-12.427,-58.206,-77.145,0.0,0.0
42668,-0.824,0.145,0.515,-35.290,7.611,-91.534,0.0,0.0
42727,-1.011,0.192,0.758,-34.802,-21.053,-129.687,0.0,0.0
42776,-1.132,0.061,0.676,-46.725,-139.519,-143.305,0.0,0.0
42836,-0.691,-0.142,0.813,21.473,-122.435,-32.924,0.0,0.0
42884,-0.580,0.067,0.854,2.137,-44.145,19.321,0.0,0.0
42940,-0.299,-0.213,0.613,0.756,-43.496,9.817,0.0,145.0
42997,-0.359,0.032,0.817,5.908,-26.603,-12.443,0.0,147.0
43057,-0.461,-0.039,0.899,-11.374,18.466,-16.992,0.0,177.0
43117,-0.573,-0.106,0.846,5.336,38.603,-2.137,0.0,0.0
43163,-0.523,-0.077,0.777,14.130,24.748,-19.580,0.0,0.0
43224,-0.521,-0.018,0.771,12.298,26.443,-24.458,0.0,0.0
43273,-0.642,-0.061,0.797,14.397,43.496,-19.435,0.0,0.0
43333,-0.606,-0.003,0.735,10.588,34.466,-18.611,0.0,0.0
43379,-0.712,-0.042,0.768,7.000,26.527,-14.733,0.0,0.0
43483,-0.644,-0.074,0.699,12.115,25.008,-18.298,0.0,0.0
43529,-0.705,-0.046,0.702,10.832,23.275,-14.366,0.0,0.0
43576,-0.767,-0.034,0.734,7.985,5.710,-10.328,0.0,0.0
43622,-0.650,0.026,0.659,2.031,7.099,-8.008,0.0,0.0
43668,-0.710,-0.025,0.722,-6.176,9.718,3.107,0.0,0.0
43714,-0.637,-0.042,0.668,-6.160,19.977,-0.374,0.0,0.0
43778,-0.703,-0.065,0.669,-2.832,28.855,-2.244,0.0,0.0
43824,-0.757,-0.067,0.635,-0.145,19.244,-7.580,0.0,0.0
43871,-0.788,-0.066,0.599,-2.153,3.565,-2.588,0.0,0.0
43917,-0.808,-0.071,0.633,-2.580,-8.695,3.557,0.0,0.0
43963,-0.714,-0.063,0.653,-1.779,-12.740,-0.176,0.0,0.0
44010,-0.692,-0.053,0.678,-0.198,-2.634,-1.153,0.0,0.0
44056,-0.682,-0.045,0.654,-1.198,2.618,-0.702,0.0,0.0
44103,-0.745,-0.053,0.656,-1.260,5.351,-1.656,0.0,0.0
44149,-0.750,-0.031,0.642,-1.885,-2.069,-2.008,0.0,0.0
44198,-0.732,-0.076,0.673,-1.321,-18.588,-2.603,0.0,0.0
44246,-0.707,-0.082,0.700,-0.580,-27.244,-2.588,0.0,0.0
44292,-0.735,-0.057,0.712,-4.000,-46.374,16.328,0.0,0.0
44339,-0.642,-0.162,0.558,3.153,-61.252,57.901,0.0,0.0
44385,-0.489,0.273,0.883,18.282,-124.008,93.290,0.0,0.0
44431,-0.444,0.064,0.937,-34.076,18.481,-21.771,0.0,0.0
44478,-0.563,-0.093,0.652,-3.992,64.214,-50.405,0.0,0.0
44524,-0.840,0.122,0.876,0.779,-26.107,-0.321,0.0,0.0
44561,-0.385,-0.070,0.787,-5.328,-51.198,-12.893,16.0,0.0
44613,-0.297,0.067,0.839,-1.389,32.824,-18.420,17.0,0.0
44660,-0.501,-0.067,0.692,10.504,48.687,-2.160,0.0,0.0
44707,-0.753,-0.070,0.684,4.725,44.458,-2.405,0.0,0.0
44753,-0.851,0.120,0.894,12.420,-2.405,16.206,0.0,0.0
44800,-0.483,0.099,0.841,13.328,-21.855,5.580,0.0,0.0
44836,-0.505,0.039,0.752,-8.191,6.221,-15.557,19.0,0.0
44897,-0.524,0.077,0.891,-12.855,10.290,-3.710,0.0,0.0
44943,-0.573,0.102,0.802,-9.641,24.565,-5.008,0.0,0.0
44990,-0.728,-0.078,0.720,-3.115,13.931,-12.076,0.0,0.0
45040,-0.639,0.002,0.723,-3.962,12.290,-12.130,0.0,0.0
45086,-0.642,0.018,0.751,1.740,0.206,8.389,0.0,0.0
45133,-0.590,-0.051,0.721,-1.870,-0.756,-7.084,0.0,0.0
45179,-0.704,0.025,0.764,-3.252,-5.626,-0.382,0.0,0.0
45227,-0.574,0.004,0.755,-1.076,-5.977,1.046,0.0,0.0
45273,-0.556,-0.001,0.733,-0.336,3.618,0.336,0.0,0.0
45320,-0.702,0.011,0.791,-5.267,10.954,-9.168,0.0,0.0
45366,-0.549,0.005,0.739,-2.305,-6.443,9.496,0.0,0.0
45413,-0.565,0.019,0.782,-6.412,19.183,-9.443,0.0,0.0
45459,-0.724,-0.077,0.741,-1.038,13.939,-2.130,0.0,0.0
45500,-0.647,-0.000,0.736,-3.573,1.282,3.206,30.0,0.0
45560,-0.648,0.016,0.747,1.206,9.443,-1.206,0.0,0.0
45606,-0.646,0.004,0.763,-1.405,0.061,2.069,0.0,0.0
45654,-0.635,0.051,0.754,-3.954,9.649,-5.550,0.0,0.0
45700,-0.646,-0.041,0.728,-1.023,0.092,-4.252,0.0,0.0
45747,-0.631,0.031,0.734,-2.374,1.573,-3.008,0.0,0.0
45794,-0.740,-0.002,0.781,-6.084,4.939,-7.626,0.0,0.0
45897,-0.650,-0.018,0.774,-4.252,-0.878,-6.000,0.0,0.0
45944,-0.600,0.010,0.731,0.000,-6.412,2.947,0.0,0.0
46011,-0.606,-0.038,0.693,-3.344,10.382,-11.489,0.0,0.0
46048,-0.664,-0.038,0.715,-3.344,-10.962,-13.198,29.0,0.0
46099,-0.649,-0.005,0.698,-2.611,-12.344,-11.794,29.0,0.0
46137,-0.833,-0.002,0.869,-9.542,-52.588,-21.672,30.0,0.0
46187,-0.723,-0.049,0.880,-16.473,-72.351,-36.038,30.0,0.0
46235,-0.498,-0.031,0.758,-11.160,-77.115,-29.099,0.0,0.0
46275,-0.537,-0.137,0.865,-22.137,-101.863,-35.153,0.0,87.0
46320,-0.360,-0.094,0.889,-17.527,-92.061,-41.725,37.0,91.0
46374,-0.274,-0.100,0.914,-29.794,-68.023,-31.389,0.0,88.0
46433,-0.214,-0.238,0.905,-34.153,-15.282,-32.298,0.0,87.0
46487,-0.293,-0.279,0.986,-37.656,25.740,-53.092,0.0,88.0
46533,-0.636,-0.304,1.208,-21.229,-18.206,-68.107,42.0,92.0
46578,-0.364,-0.254,0.983,-5.916,-38.863,-74.397,42.0,88.0
46632,-0.341,-0.375,0.927,-9.718,-67.145,-55.969,0.0,90.0
46687,-0.036,-0.226,0.897,0.870,-51.595,-30.634,0.0,91.0
46742,-0.098,-0.416,0.899,4.664,-69.580,69.771,0.0,93.0
46797,0.159,-0.434,0.870,38.710,-16.992,56.855,0.0,96.0
46856,0.140,-0.290,0.871,31.977,-12.107,40.458,0.0,101.0
46901,0.446,-0.127,0.734,13.908,70.282,7.931,30.0,100.0
46946,-0.045,-0.092,1.157,-28.092,64.084,14.939,30.0,100.0
46991,0.028,-0.409,0.775,-4.527,-1.511,-5.405,26.0,99.0
47046,0.046,-0.191,1.135,-2.328,21.061,-46.107,0.0,99.0
47101,0.019,-0.294,0.799,-11.527,14.550,-60.397,0.0,97.0
47147,0.028,-0.260,0.876,1.481,63.450,-33.595,29.0,96.0
47192,-0.184,-0.260,0.785,7.305,75.771,-6.802,30.0,96.0
47246,-0.324,-0.226,0.900,2.771,64.237,-3.504,0.0,94.0
47304,-0.475,-0.218,0.989,-11.115,33.366,-11.611,0.0,87.0
47358,-0.464,-0.307,0.920,-4.382,-20.099,-23.916,0.0,88.0
47404,-0.311,-0.209,1.036,0.870,-27.519,-9.702,36.0,89.0
47450,-0.264,-0.292,0.876,7.130,-17.275,6.031,38.0,94.0
47495,-0.190,-0.208,0.918,14.687,-1.863,22.267,30.0,96.0
47540,-0.185,-0.199,0.882,10.290,9.122,35.634,29.0,95.0
47595,-0.236,-0.182,0.919,4.084,5.038,29.687,0.0,98.0
47640,-0.245,-0.140,0.929,0.107,-24.321,23.565,36.0,97.0
47695,-0.083,-0.099,0.897,-0.489,-58.435,28.069,0.0,99.0
47745,0.092,-0.161,0.800,-8.916,-33.893,22.542,29.0,100.0
47800,0.005,-0.222,0.913,-17.962,5.565,27.542,0.0,100.0
47855,-0.139,-0.301,1.217,-27.885,9.420,62.672,0.0,101.0
47912,-0.313,-0.291,1.395,3.183,4.901,74.427,0.0,144.0
47970,-0.459,-0.248,1.297,56.733,-56.641,111.176,0.0,138.0
48031,-0.340,-0.185,0.888,86.740,-98.901,142.084,0.0,200.0
48082,-0.042,-0.250,0.828,86.588,-85.679,209.305,17.0,0.0
48141,-0.115,-0.175,1.008,121.756,-54.489,250.130,152.0,0.0
48197,-0.129,-0.212,0.903,145.382,-95.962,239.672,122.0,0.0
48240,0.092,-0.306,0.509,170.840,-108.710,171.924,65.0,0.0
48296,0.226,-0.006,0.611,181.519,-111.969,128.214,116.0,0.0
48345,0.615,0.045,0.375,158.924,-128.443,93.809,0.0,0.0
48392,1.430,0.624,0.102,159.794,-53.916,87.687,0.0,0.0
48492,1.139,0.813,0.480,-24.366,85.740,115.473,0.0,147.0
48550,0.724,0.164,0.690,-41.870,34.076,30.802,0.0,147.0
48614,0.619,0.091,0.369,7.893,-38.298,-30.267,0.0,146.0
48671,0.731,0.340,0.324,36.214,-0.969,-20.092,0.0,146.0
48728,0.785,0.398,0.175,42.053,85.931,21.038,0.0,148.0
48781,0.788,0.554,0.303,39.435,152.771,34.160,17.0,0.0
48830,0.647,0.525,0.498,32.115,182.771,44.618,17.0,0.0
48880,0.509,0.525,0.778,14.206,167.687,62.756,16.0,0.0
48929,0.537,0.569,1.083,1.641,146.107,51.626,18.0,0.0
48982,0.456,0.108,1.218,3.565,147.336,10.198,56.0,0.0
49033,-0.003,0.313,1.230,18.916,100.672,-27.382,57.0,0.0
49085,-0.231,0.271,1.001,19.137,26.076,-60.954,57.0,0.0
49124,-0.051,0.337,0.747,32.046,-54.450,-54.557,58.0,0.0
49175,0.076,0.433,0.651,42.122,-75.160,-43.374,58.0,0.0
49217,0.309,0.680,0.646,32.702,-52.565,-28.382,57.0,0.0
49268,0.427,0.894,0.772,16.435,-8.015,-13.870,57.0,0.0
49319,0.338,0.793,0.935,-6.176,36.641,-1.435,44.0,0.0
49372,0.126,0.561,1.028,-6.344,31.916,-11.313,59.0,0.0
49423,0.079,0.699,0.894,16.687,16.053,-3.137,36.0,0.0
49473,-0.094,1.049,1.028,11.718,-5.008,55.885,34.0,199.0
49524,-0.074,1.425,0.745,3.527,-35.473,122.313,45.0,0.0
49575,0.181,1.369,0.520,-36.000,-9.099,228.000,42.0,0.0
49628,0.246,0.586,0.243,-93.397,-23.656,250.130,57.0,0.0
49684,0.460,-0.041,0.190,-132.527,21.130,250.130,80.0,0.0
49738,0.450,-0.654,0.329,-124.038,116.656,145.046,83.0,198.0
49790,-0.053,-1.049,0.796,-148.305,250.130,18.534,59.0,0.0
49845,-0.600,-0.930,0.777,-155.435,220.267,-53.679,89.0,0.0
49896,-0.407,-0.649,0.884,-110.412,120.809,-56.153,57.0,182.0
49947,-0.341,-0.608,0.728,-61.695,88.122,-45.534,56.0,179.0
49998,-0.285,-0.502,0.838,-49.786,38.557,-22.382,61.0,179.0
50050,-0.353,-0.704,0.792,-26.145,2.534,-2.427,57.0,179.0
50103,-0.307,-0.922,0.844,8.023,-53.282,4.817,45.0,180.0
50153,-0.024,-1.017,0.693,48.504,-66.595,-16.366,44.0,181.0
50203,0.093,-0.895,0.741,70.061,-23.573,-32.321,43.0,182.0
50254,-0.044,-0.825,0.739,101.725,-5.550,-38.779,43.0,184.0
50306,-0.037,-0.584,0.719,135.282,-23.076,-63.191,55.0,186.0
50358,0.077,-0.286,0.608,160.916,-23.725,-73.656,57.0,0.0
50410,0.045,-0.082,0.740,154.702,0.489,-82.962,55.0,0.0
50461,-0.010,-0.119,0.748,132.634,-7.550,-84.137,44.0,0.0
50513,0.061,-0.063,0.926,142.351,-32.466,-95.351,56.0,0.0
50569,0.192,0.176,0.666,170.374,-45.221,-118.389,57.0,0.0
50621,0.144,0.632,0.707,196.176,-33.275,-150.947,48.0,0.0
50667,0.157,1.554,0.959,143.939,-41.847,-146.481,29.0,131.0
50714,0.057,1.362,0.704,66.191,-26.206,-144.458,29.0,129.0
50767,0.042,0.846,0.427,28.305,23.511,-139.153,68.0,0.0
50820,-0.145,0.451,0.356,23.771,89.893,-131.237,72.0,193.0
50869,-0.384,0.317,0.219,44.221,114.595,-106.275,76.0,119.0
50922,-0.712,0.630,0.327,52.565,141.008,-84.122,78.0,0.0
50975,-0.894,0.890,0.379,11.115,128.962,-61.977,80.0,0.0
51019,-1.099,0.930,0.152,-13.931,96.947,-37.611,83.0,0.0
51116,-1.055,0.628,0.503,-68.840,56.611,-8.260,83.0,0.0
51155,-1.250,0.806,0.484,-174.076,21.534,47.733,80.0,0.0
51209,-1.087,0.544,0.293,-179.603,-28.748,89.527,78.0,0.0
51249,-0.531,0.442,0.667,-122.336,-106.611,106.023,73.0,0.0
51298,-0.383,0.493,0.789,-143.916,-130.641,87.908,69.0,125.0
51346,-0.032,0.411,0.432,-136.863,-110.672,32.458,67.0,129.0
51389,0.165,0.386,0.626,-75.641,-77.115,32.176,64.0,19.0
51444,-0.062,0.352,0.865,-72.634,-65.893,21.038,58.0,0.0
51495,-0.044,0.160,0.736,-81.076,-28.687,-31.527,61.0,177.0
51547,-0.135,0.352,0.938,-59.023,-19.443,-25.382,55.0,184.0
51600,-0.157,0.129,0.978,-62.519,-11.496,-31.473,55.0,0.0
51652,-0.137,0.179,1.051,-56.603,-9.298,-17.550,59.0,0.0
51704,-0.070,0.017,0.964,-61.618,-20.634,-22.305,54.0,0.0
51746,0.024,0.061,0.990,-53.565,-15.366,-12.160,52.0,26.0
51800,0.036,-0.045,0.951,-51.634,6.565,-4.786,64.0,0.0
51843,-0.015,-0.092,0.949,-39.359,18.298,5.298,64.0,23.0
51888,-0.069,-0.104,0.947,-30.672,24.817,4.443,66.0,23.0
51941,-0.110,-0.143,0.966,-29.038,24.053,0.870,65.0,0.0
51993,-0.122,-0.184,0.928,-23.328,22.237,-10.641,57.0,0.0
52036,-0.143,-0.191,0.963,-20.626,22.595,-19.901,67.0,21.0
52079,-0.123,-0.233,0.947,-13.725,24.313,-31.420,68.0,20.0
52122,-0.148,-0.333,0.926,-4.954,21.214,-43.565,69.0,19.0
52175,-0.091,-0.351,0.856,5.527,32.115,-63.656,71.0,0.0
52229,-0.071,-0.299,0.792,14.504,55.924,-85.092,72.0,200.0
52272,-0.114,-0.313,0.727,13.489,113.779,-108.931,75.0,12.0
52319,-0.276,-0.344,0.530,18.824,159.153,-112.733,99.0,10.0
52363,-0.828,-0.183,1.068,4.412,164.344,-78.992,101.0,5.0
52418,-1.375,-0.499,1.021,5.893,68.748,-39.153,104.0,0.0
52459,-0.771,-0.278,0.711,72.962,-73.382,21.947,104.0,0.0
52503,-0.515,-0.198,0.755,54.115,-86.626,38.595,104.0,10.0
52548,-0.312,-0.300,0.818,37.779,-71.397,38.023,103.0,12.0
52603,-0.102,-0.217,0.808,52.756,-33.733,43.450,104.0,0.0
52644,-0.089,0.089,0.863,72.985,28.420,34.985,104.0,0.0
52703,-0.216,0.263,0.847,58.229,76.725,14.748,107.0,199.0
52759,-0.557,0.280,0.786,50.046,102.443,-8.115,110.0,0.0
52801,-0.729,0.347,0.664,61.305,81.115,-4.779,112.0,0.0
52856,-0.776,0.344,0.690,53.832,53.534,3.969,114.0,0.0
52899,-0.743,0.377,0.674,31.786,36.252,18.939,115.0,0.0
52955,-0.761,0.357,0.693,26.504,23.046,33.427,116.0,0.0
52995,-0.734,0.390,0.623,34.756,12.779,17.565,75.0,0.0
53048,-0.663,0.490,0.677,29.153,12.145,6.481,75.0,0.0
53089,-0.551,0.540,0.384,12.718,30.511,-2.496,76.0,0.0
53145,-0.548,0.679,0.337,12.702,33.160,29.618,76.0,0.0
53185,-0.693,0.677,0.561,-49.206,39.542,46.511,75.0,0.0
53233,-0.950,0.375,0.846,-98.382,23.611,51.885,177.0,7.0
53282,-1.149,0.144,0.571,-121.504,-7.618,31.672,177.0,7.0
53324,-0.775,0.208,0.588,-87.489,-60.901,63.237,74.0,8.0
53367,-0.508,0.472,0.644,-100.473,-50.481,104.466,72.0,9.0
53409,-0.357,0.405,0.728,-131.534,-26.962,115.580,70.0,10.0
53452,-0.299,0.047,0.545,-104.115,-16.901,120.924,68.0,11.0
53549,-0.379,0.003,0.835,-58.076,-13.748,47.901,68.0,0.0
53605,-0.620,0.110,1.019,-41.466,-25.443,21.626,66.0,0.0
53658,-0.585,0.076,1.038,-26.695,-60.481,-3.710,67.0,0.0
53710,-0.305,0.259,0.989,-8.328,-76.939,-2.214,65.0,172.0
53762,-0.082,0.208,0.904,-5.298,-53.176,1.183,64.0,171.0
53814,-0.015,0.098,0.823,3.847,-23.519,2.412,63.0,173.0
53857,-0.048,0.087,0.954,20.160,1.603,-20.282,63.0,29.0
53900,-0.198,-0.035,1.073,37.061,-0.908,-47.069,61.0,30.0
53951,-0.230,-0.210,0.932,85.336,-30.137,-87.870,60.0,172.0
54004,-0.261,0.056,0.946,118.794,-48.878,-131.962,60.0,0.0
54061,-0.130,0.386,0.772,112.649,-67.275,-159.298,64.0,200.0
54110,0.029,0.520,0.754,101.542,-46.229,-143.153,54.0,126.0
54159,-0.031,0.480,0.670,79.069,-4.473,-101.214,67.0,124.0
54208,-0.107,0.413,0.628,91.824,20.420,-101.679,71.0,123.0
54261,-0.237,0.700,0.767,103.237,43.160,-98.427,73.0,0.0
54316,-0.691,0.555,0.821,69.489,-72.763,-118.405,78.0,0.0
54373,-0.309,0.488,0.538,31.718,-69.580,-178.443,126.0,0.0
54429,-0.321,0.299,0.447,12.687,10.832,-175.748,130.0,199.0
54490,-0.543,0.251,0.421,-1.305,104.313,-162.366,137.0,191.0
54541,-0.967,0.134,0.498,-11.328,130.130,-177.733,0.0,8.0
54590,-1.593,-0.000,0.574,-11.244,86.962,-226.198,0.0,4.0
54640,-1.330,0.255,0.018,0.756,5.634,-186.038,0.0,4.0
54690,-1.731,-0.180,0.595,14.947,-39.718,58.466,0.0,4.0
54739,-0.560,0.075,0.418,-6.718,-43.206,59.672,0.0,5.0
54790,-0.571,0.012,0.461,-25.351,13.473,55.809,0.0,4.0
54839,-0.879,0.001,0.622,-24.191,54.924,49.000,0.0,4.0
54887,-1.122,0.076,0.545,11.031,91.481,123.702,164.0,5.0
54940,-1.196,0.702,0.268,36.427,122.527,213.023,0.0,7.0
55001,-1.335,0.920,-0.229,25.313,205.115,250.130,189.0,0.0
55053,-1.190,0.696,-0.037,-102.809,126.176,237.908,183.0,0.0
55106,-0.761,0.618,0.226,-136.443,40.221,217.687,80.0,0.0
55146,-0.377,0.368,0.345,-125.069,-38.969,206.679,77.0,0.0
55198,-0.153,0.292,0.369,-96.282,-70.916,175.084,75.0,186.0
55250,-0.029,0.309,0.331,-71.595,-54.443,108.534,74.0,187.0
55303,0.044,0.430,0.432,-60.718,-31.206,47.733,73.0,188.0
55355,0.029,0.382,0.374,-31.687,-5.710,-7.641,73.0,188.0
55410,0.038,0.575,0.456,-8.191,33.229,-32.382,73.0,187.0
55462,-0.088,0.950,0.482,-6.626,49.092,-51.214,74.0,189.0
55511,-0.238,1.308,0.689,-34.282,32.046,-60.198,74.0,116.0
55563,-0.243,1.060,0.560,-57.733,-18.947,-68.992,75.0,185.0
55608,-0.270,0.836,0.649,-88.702,-18.008,-62.603,32.0,115.0
55654,-0.378,0.380,0.611,-92.824,-13.740,-79.420,36.0,114.0
55700,-0.203,0.368,0.550,-61.336,-35.313,-69.130,38.0,114.0
55746,-0.060,0.786,0.776,-42.924,-12.153,-40.015,43.0,115.0
55800,-0.061,0.826,0.906,-55.473,79.878,-11.076,42.0,193.0
55853,-0.466,0.457,0.687,-10.710,129.031,1.710,81.0,188.0
55906,-0.728,0.389,0.703,8.115,107.092,7.473,80.0,187.0
55958,-0.881,0.400,0.722,2.252,36.344,5.832,81.0,187.0
56011,-0.676,0.505,0.719,-9.939,-36.260,-13.779,81.0,189.0
56065,-0.429,0.536,0.664,-11.840,-51.992,-19.046,80.0,189.0
56159,-0.439,0.478,0.700,-3.244,17.397,7.733,59.0,190.0
56211,-0.515,0.496,0.753,6.763,9.565,9.702,60.0,190.0
56262,-0.484,0.538,0.712,10.420,-14.191,8.000,60.0,190.0
56316,-0.392,0.605,0.629,12.244,-14.496,11.267,59.0,189.0
56369,-0.390,0.597,0.633,3.260,-1.679,6.702,59.0,189.0
56420,-0.430,0.611,0.666,-11.237,20.527,-1.397,61.0,189.0
56472,-0.585,0.577,0.714,-19.397,11.588,12.298,60.0,189.0
56523,-0.697,0.679,0.743,-23.107,-17.649,33.977,59.0,190.0
56576,-0.774,0.672,0.744,-43.336,-28.504,56.145,59.0,190.0
56628,-0.789,0.399,0.740,-77.786,11.008,56.740,57.0,193.0
56678,-0.532,0.295,0.641,-71.794,30.802,64.511,57.0,173.0
56731,-0.511,0.300,1.000,-72.779,6.092,37.130,62.0,200.0
56784,-0.266,0.438,0.924,-101.382,-43.076,-41.611,64.0,173.0
56838,-0.089,0.222,0.687,-84.336,-57.481,-134.076,61.0,0.0
56890,0.068,0.319,0.828,-49.198,-19.504,-137.710,59.0,0.0
56942,-0.097,0.312,0.902,-42.573,13.840,-136.939,58.0,0.0
56994,-0.324,0.226,0.969,-20.412,-3.763,-118.359,57.0,0.0
57047,-0.364,0.144,0.918,-2.847,-26.313,-67.588,57.0,0.0
57099,-0.196,0.240,0.887,-10.122,-10.756,-38.748,56.0,0.0
57151,-0.319,0.100,0.973,-26.763,0.618,-32.206,55.0,0.0
57206,-0.336,-0.039,1.007,-43.626,-25.779,-39.221,54.0,0.0
57255,-0.251,-0.131,0.943,-47.656,-52.084,-29.290,54.0,146.0
57304,-0.117,-0.249,0.854,-34.275,-67.893,-6.000,44.0,147.0
57353,0.020,-0.272,0.877,-22.137,-62.489,30.229,44.0,148.0
57401,0.171,-0.258,0.791,-6.931,-54.168,50.176,39.0,150.0
57449,0.238,-0.221,0.817,4.145,-22.786,56.893,39.0,152.0
57498,0.188,-0.301,0.817,3.084,1.084,65.176,48.0,152.0
57549,0.172,-0.320,0.857,9.855,12.206,76.756,38.0,0.0
57601,0.147,-0.221,0.921,7.366,26.412,65.282,49.0,0.0
57664,0.183,0.049,0.871,0.382,70.901,45.939,0.0,0.0
57716,-0.390,0.042,1.181,-28.046,64.137,-7.000,51.0,0.0
57767,-0.448,-0.103,1.284,-39.115,53.580,-19.420,51.0,187.0
57820,-0.695,-0.176,1.361,-22.405,-26.107,1.420,54.0,0.0
57872,-0.220,-0.146,0.975,-43.092,-29.565,-9.076,45.0,0.0
57924,-0.113,-0.186,0.823,-27.870,-9.954,-2.176,55.0,0.0
57976,-0.247,-0.283,0.643,-10.824,54.366,-12.458,57.0,0.0
58030,-0.519,-0.341,0.671,4.656,53.832,-26.824,60.0,0.0
58082,-0.583,-0.052,0.788,-8.939,8.511,-31.000,62.0,0.0
58137,-0.483,-0.221,0.868,-30.443,-59.595,-6.053,57.0,0.0
58190,0.016,-0.583,0.890,0.947,-119.763,34.458,57.0,0.0
58242,0.244,-0.762,1.249,55.893,-170.267,44.809,46.0,0.0
58294,0.781,-0.371,0.891,20.412,27.802,-7.290,56.0,0.0
58347,-0.055,-0.095,0.741,-9.809,193.336,-44.214,57.0,0.0
58399,-0.641,-0.086,0.372,-43.382,217.229,-6.595,63.0,0.0
58452,-1.126,-0.145,0.612,-25.374,129.198,-14.504,65.0,0.0
58506,-0.916,-0.293,1.028,-48.939,-94.473,3.885,62.0,0.0
58548,-0.449,-0.741,0.876,-20.275,-250.137,-6.573,57.0,21.0
58603,0.519,-1.069,0.565,98.573,-250.137,-34.237,45.0,0.0
58655,1.386,0.341,1.009,90.481,58.092,30.168,58.0,0.0
58697,0.079,0.050,0.546,24.267,250.130,36.733,57.0,21.0
58783,-1.162,-0.144,0.516,-71.397,245.695,9.779,66.0,15.0
58836,-1.473,-0.233,1.073,-65.718,36.595,-32.237,67.0,0.0
58875,-0.950,-0.342,0.810,-18.183,-164.137,-46.824,62.0,0.0
58928,-0.455,-0.347,0.731,-4.145,-187.069,-41.198,61.0,0.0
58981,-0.030,-0.510,0.840,20.099,-150.191,-32.527,66.0,0.0
59034,0.414,-0.500,1.082,51.153,-23.260,-12.954,57.0,0.0
59089,0.041,-0.074,0.816,40.870,130.412,9.084,59.0,0.0
59132,-0.398,-0.046,0.716,3.695,178.221,-4.107,64.0,19.0
59174,-0.816,0.003,0.661,-15.947,155.382,1.664,65.0,19.0
59217,-1.118,-0.169,0.739,-34.962,42.527,-8.069,66.0,22.0
59260,-1.044,-0.240,0.755,-66.122,-89.794,-20.153,62.0,19.0
59302,-0.717,-0.400,0.750,-77.427,-186.939,-6.618,61.0,22.0
59356,-0.315,-0.943,0.935,-16.038,-235.634,-5.656,57.0,0.0
59408,0.756,-0.677,0.983,98.695,-170.809,-32.031,45.0,0.0
59463,0.721,0.065,0.587,75.229,54.252,0.641,56.0,0.0
59506,0.007,0.146,0.683,24.321,187.802,-2.718,58.0,27.0
59548,-0.396,0.078,0.619,-20.718,211.924,-14.969,58.0,21.0
59591,-0.757,0.072,0.488,-55.366,206.130,-0.611,65.0,20.0
59644,-1.455,-0.260,0.680,-68.382,105.527,12.672,67.0,0.0
59698,-1.198,-0.391,0.933,-60.710,-93.954,-10.580,67.0,0.0
59751,-0.564,-0.561,0.807,-28.939,-198.656,-7.336,58.0,0.0
59803,0.185,-0.727,0.813,40.473,-169.145,-28.802,46.0,0.0
59855,0.690,-0.266,0.825,61.794,-38.679,-17.489,57.0,0.0
59912,0.271,0.045,0.660,40.405,156.267,-7.649,57.0,0.0
59955,-0.336,0.030,0.694,-5.702,232.718,-5.718,60.0,22.0
60008,-0.923,-0.120,0.487,-18.412,212.702,17.687,66.0,0.0
60061,-1.663,-0.286,0.939,-26.252,20.588,-6.076,70.0,0.0
60101,-1.028,-0.267,0.697,-55.038,-171.695,-25.229,69.0,0.0
60154,-0.472,-0.474,0.703,-45.244,-190.389,-0.038,61.0,0.0
60207,0.061,-0.651,0.863,24.481,-177.145,3.511,59.0,0.0
60260,0.605,-0.265,0.785,67.504,-72.718,-10.252,56.0,0.0
60312,0.324,-0.099,0.705,49.168,127.313,0.435,57.0,0.0
60358,-0.273,-0.017,0.689,23.565,214.389,-4.695,60.0,20.0
60411,-0.899,-0.000,0.690,1.328,207.305,-13.748,67.0,0.0
60465,-1.777,-0.263,0.652,11.679,2.710,-51.260,69.0,0.0
60505,-0.764,-0.114,0.554,13.748,-176.191,-15.351,65.0,0.0
60558,-0.419,-0.112,0.748,-31.519,-202.427,2.687,60.0,0.0
60610,0.018,-0.450,1.141,-63.115,-192.527,48.824,44.0,0.0
60662,0.825,-0.362,1.006,102.107,-98.611,-4.870,44.0,0.0
60715,0.569,0.160,0.661,93.817,76.748,5.137,44.0,0.0
60767,0.012,0.273,0.681,28.115,197.473,-16.397,57.0,0.0
60823,-0.588,0.226,0.636,-53.740,249.145,-25.527,61.0,0.0
60876,-2.000,-0.385,1.023,-69.412,76.832,-49.122,63.0,0.0
60930,-0.835,-0.181,0.551,-13.580,-160.611,-37.634,61.0,0.0
60983,-0.344,-0.167,0.779,-23.382,-192.466,20.489,58.0,0.0
61036,0.127,-0.693,1.050,-7.069,-188.351,27.397,58.0,0.0
61089,0.873,-0.210,0.844,84.740,-62.344,-20.649,60.0,0.0
61142,0.462,0.099,0.705,61.145,138.183,-13.084,51.0,0.0
61194,-0.128,0.211,0.716,11.420,228.344,-12.679,58.0,181.0
61250,-1.012,0.152,0.710,-34.229,242.176,-16.473,62.0,0.0
61346,-0.985,-0.090,0.734,-46.779,-158.450,-6.969,61.0,0.0
61401,-0.363,-0.244,0.853,-67.656,-202.137,38.511,65.0,0.0
61454,0.105,-0.967,1.140,18.099,-198.427,21.435,57.0,0.0
61506,0.715,-0.124,0.713,100.580,-88.374,-22.939,57.0,0.0
61558,0.402,0.186,0.675,65.038,98.275,-20.534,45.0,0.0
61611,-0.095,0.250,0.634,10.847,191.237,-21.359,57.0,181.0
61668,-0.734,0.029,0.771,-35.832,187.969,-20.557,59.0,181.0
61721,-1.578,-0.394,1.022,-23.008,5.534,-51.534,71.0,0.0
61775,-0.803,-0.278,0.820,31.557,-198.687,5.740,50.0,189.0
61827,-0.012,-0.179,0.826,44.366,-191.405,49.443,42.0,0.0
61877,0.434,-0.121,1.012,59.649,-127.260,97.145,43.0,193.0
61928,0.524,0.044,0.889,88.290,-42.687,87.321,38.0,198.0
61979,0.320,0.316,0.817,84.901,29.985,22.985,39.0,0.0
62029,0.136,0.288,0.828,52.939,38.244,-25.893,38.0,0.0
62081,-0.016,0.445,0.924,-1.458,38.336,-62.504,40.0,0.0
62132,-0.004,0.560,0.781,-50.565,47.198,-57.794,43.0,0.0
62184,-0.131,0.603,1.269,-126.359,84.427,5.802,52.0,0.0
62238,-0.448,-0.301,1.063,-34.916,61.237,46.130,54.0,0.0
62279,-0.363,-0.013,1.097,-20.847,-5.382,56.168,50.0,19.0
62330,-0.253,-0.113,0.776,-5.679,-46.687,29.511,51.0,183.0
62381,-0.061,-0.030,0.802,14.756,-43.702,1.145,52.0,183.0
62432,-0.070,-0.049,0.827,5.191,8.191,-15.656,52.0,182.0
62484,-0.250,-0.125,1.027,22.061,22.557,-9.069,51.0,0.0
62535,-0.269,-0.072,1.138,46.214,-3.244,-18.885,53.0,0.0
62586,-0.061,0.139,0.950,66.290,-8.985,-23.840,44.0,0.0
62639,-0.063,0.304,0.841,55.252,21.710,-22.992,52.0,0.0
62693,-0.212,0.402,0.813,56.061,37.672,-4.397,53.0,187.0
62744,-0.348,0.288,0.781,30.076,10.328,-0.725,54.0,0.0
62795,-0.181,0.426,1.120,-2.435,-63.916,-10.305,53.0,180.0
62846,-0.054,0.021,1.011,10.053,-41.809,28.863,52.0,183.0
62898,0.133,0.545,0.947,117.802,-16.405,-31.344,43.0,0.0
62949,0.045,0.640,0.869,79.252,31.580,-16.038,43.0,0.0
63001,-0.091,0.617,0.440,27.031,94.565,-29.145,54.0,0.0
63051,-0.369,0.720,0.618,-4.985,92.336,-11.901,55.0,178.0
63104,-0.441,0.468,0.821,-41.069,25.122,-15.313,56.0,0.0
63159,-0.339,0.261,0.853,-34.519,-15.153,-28.420,56.0,0.0
63211,-0.220,0.434,1.066,-28.908,7.504,-54.427,57.0,0.0
63263,-0.093,0.425,0.833,32.168,66.260,-24.748,57.0,0.0
63315,-0.361,0.638,0.526,62.008,124.809,-19.679,58.0,0.0
63368,-1.004,0.655,0.439,20.191,136.756,-4.229,60.0,0.0
63420,-0.969,0.586,0.761,-53.740,-22.450,15.504,60.0,0.0
63459,-0.543,0.261,0.695,-111.038,-156.641,17.649,58.0,0.0
63500,-0.365,0.195,0.881,-135.229,-179.725,-11.168,56.0,10.0
63555,0.469,-0.151,1.040,-85.573,-86.779,-27.771,56.0,0.0
63607,-0.026,0.221,0.770,152.046,65.969,-43.595,56.0,0.0
63661,-0.516,0.798,0.323,119.145,169.550,-36.023,58.0,0.0
63713,-1.079,0.948,0.575,-16.702,103.076,30.305,59.0,0.0
63765,-0.835,0.427,0.457,-103.084,-67.160,46.481,58.0,0.0
63817,-0.587,0.080,0.695,-124.588,-175.374,23.748,57.0,0.0
63869,-0.048,0.211,1.606,-117.168,-202.183,-27.130,55.0,0.0
63964,0.266,0.903,0.861,129.237,87.779,-37.344,54.0,181.0
64015,-0.609,0.870,0.499,49.130,197.748,-17.656,56.0,181.0
64070,-0.772,0.569,0.622,-56.954,60.832,18.275,57.0,0.0
64122,-0.505,0.179,0.552,-102.336,-72.290,12.618,56.0,0.0
64175,-0.431,0.072,1.037,-133.649,-140.397,-26.458,55.0,0.0
64227,0.790,-0.869,0.636,-7.145,-49.290,-15.435,42.0,0.0
64279,0.156,0.866,1.007,179.275,44.427,-4.710,54.0,0.0
64329,-0.386,0.662,0.382,99.008,142.206,-5.328,56.0,178.0
64382,-0.844,0.893,0.722,-39.435,102.557,20.962,56.0,0.0
64435,-0.448,0.319,0.535,-114.458,-39.969,41.290,55.0,0.0
64487,-0.303,-0.020,0.981,-135.511,-102.779,21.061,55.0,0.0
64550,0.288,-1.219,0.987,85.107,-52.053,-125.931,43.0,0.0
64605,0.127,0.876,0.774,104.153,82.672,-5.031,55.0,0.0
64659,-0.675,0.869,0.484,72.252,161.099,43.122,56.0,180.0
64712,-0.620,0.421,0.675,-53.336,60.405,25.008,56.0,179.0
64766,-0.418,0.081,0.523,-97.435,-67.595,11.382,55.0,0.0
64822,-0.348,0.376,1.638,-87.458,-119.740,-27.145,55.0,0.0
64876,0.307,-0.154,1.211,98.847,11.160,-69.450,54.0,0.0
64930,-0.198,0.629,0.721,88.611,106.527,3.137,56.0,178.0
64988,-0.716,0.737,0.593,33.382,133.832,25.649,57.0,0.0
65043,-0.645,0.290,0.593,-49.031,16.160,12.573,57.0,0.0
65097,-0.333,0.156,0.614,-93.374,-54.718,-14.046,56.0,0.0
65153,-0.529,0.410,1.796,-112.664,-104.115,-10.641,56.0,0.0
65208,-0.109,0.049,1.192,103.992,-38.626,-11.008,55.0,0.0
65261,-0.184,0.591,0.633,120.763,30.511,9.183,56.0,178.0
65314,-0.461,0.738,0.694,10.542,77.092,-4.664,56.0,180.0
65369,-0.408,0.334,0.566,-68.954,-20.550,-11.214,56.0,180.0
65424,-0.336,0.179,0.864,-81.458,-92.084,-14.412,55.0,0.0
65481,0.127,-0.036,1.002,-53.687,-60.611,-26.885,55.0,0.0
65536,-0.118,0.544,0.930,138.664,24.397,26.695,55.0,179.0
65589,-0.345,0.771,0.862,64.550,57.244,3.198,56.0,177.0
65642,-0.374,0.370,0.574,-45.244,20.260,-5.954,55.0,181.0
65696,-0.296,0.126,0.654,-59.244,-52.992,23.252,54.0,180.0
65750,-0.222,0.309,1.163,-49.779,-83.824,1.443,54.0,180.0
65805,0.193,-0.032,0.844,3.878,-34.786,-24.313,54.0,0.0
65858,-0.174,0.291,1.146,74.595,-34.496,-33.252,54.0,183.0
65913,0.028,0.403,0.956,43.214,-80.718,-59.817,54.0,0.0
65971,0.021,0.263,0.699,49.450,-100.618,-82.817,45.0,0.0
66026,0.108,0.591,0.813,58.290,-95.053,-96.260,57.0,0.0
66079,0.295,0.746,0.692,16.061,-10.397,-99.794,24.0,0.0
66119,0.080,0.634,0.651,-12.229,114.748,-84.069,30.0,0.0
66171,-0.096,0.463,0.657,-16.466,145.588,-69.794,58.0,163.0
66226,-0.365,0.421,0.701,-12.840,146.069,-48.832,66.0,162.0
66281,-0.455,0.569,0.918,-5.206,164.733,-9.023,67.0,0.0
66336,-0.865,0.456,0.618,2.214,133.824,50.092,68.0,0.0
66379,-0.950,0.487,0.766,7.511,74.893,-12.153,70.0,0.0
66438,-0.820,0.498,0.683,0.947,-2.351,-3.137,70.0,0.0
66480,-0.661,0.503,0.651,-3.748,-40.679,-0.176,69.0,0.0
66535,-0.675,0.471,0.761,-4.382,-36.061,-13.916,69.0,0.0
66577,-0.455,0.399,0.597,12.397,-94.908,-37.389,69.0,0.0
