Timestamp(ms),AccelX(g),AccelY(g),AccelZ(g),GyroX(deg/s),GyroY(deg/s),GyroZ(deg/s),DistanceLeft(cm),DistanceRight(cm)
35500,-1.125,0.063,0.029,-61.863,-33.023,136.412,0.0,152.0
35554,-1.451,-0.143,-0.018,-122.977,-12.061,217.328,0.0,85.0
35596,-2.000,-0.763,-0.294,-160.038,-26.313,250.130,45.0,43.0
35642,-2.000,-0.951,-0.270,-127.725,-61.443,250.130,52.0,88.0
35691,-1.135,-1.115,-0.299,-82.870,-97.237,191.687,150.0,66.0
35742,-0.189,-0.904,-0.304,-37.878,-87.496,80.260,145.0,96.0
35786,0.180,-0.784,-0.155,-24.374,-67.473,-58.824,37.0,65.0
35831,0.359,-0.760,-0.339,-12.336,-43.817,-183.015,32.0,63.0
35875,0.051,-0.646,-0.060,-17.115,2.794,-245.855,35.0,62.0
35917,-0.635,-0.955,0.027,-4.168,61.015,-231.176,39.0,56.0
35970,-1.620,-1.095,-0.235,63.519,202.542,-157.191,0.0,54.0
36026,-2.000,-0.890,0.121,86.779,250.130,-39.611,0.0,73.0
36071,-1.965,-0.303,0.291,72.031,43.473,-17.061,58.0,74.0
36116,-1.170,-0.145,-0.074,50.725,-18.053,-6.924,56.0,70.0
36166,-0.678,0.164,-0.108,36.771,15.069,8.977,155.0,66.0
36219,-0.446,0.557,0.015,5.511,47.015,5.458,151.0,82.0
36264,-0.249,1.088,0.131,-55.466,31.824,25.374,58.0,79.0
36318,-0.662,0.828,-0.102,-161.832,24.718,74.107,182.0,92.0
36364,-2.000,-0.349,-1.082,-190.221,31.786,129.519,57.0,88.0
36413,-2.000,-1.050,-1.125,-186.878,-63.382,167.069,117.0,88.0
36465,-1.495,-0.930,-0.836,-123.679,-115.916,138.534,151.0,94.0
36515,-0.586,-0.658,-0.370,-109.504,-58.916,83.817,115.0,99.0
36563,-0.094,-0.641,-0.014,-93.336,-70.870,-3.351,119.0,76.0
36610,0.499,-0.854,-0.249,-33.061,-139.145,-89.160,40.0,105.0
36656,0.771,-0.614,-0.405,26.336,-70.061,-144.137,37.0,60.0
36702,-0.173,-0.817,-0.428,74.244,27.061,-136.542,44.0,97.0
36747,-2.000,-0.643,-0.695,136.504,240.527,-145.290,43.0,91.0
36793,-2.000,-0.557,-0.180,117.977,250.130,-1.489,55.0,89.0
36839,-2.000,-0.109,0.229,71.695,-3.893,23.985,55.0,92.0
36889,-1.058,-0.002,-0.233,76.382,-65.557,9.145,127.0,96.0
36939,-0.559,0.402,-0.194,75.000,2.366,17.855,123.0,95.0
36989,-0.436,0.658,0.052,39.145,1.344,21.519,124.0,98.0
37043,-0.313,0.967,-0.020,-53.099,-72.733,15.840,122.0,98.0
37093,-0.555,0.973,-0.739,-202.863,-55.977,29.000,126.0,95.0
37142,-2.000,0.241,-1.718,-250.137,44.740,59.695,127.0,73.0
37192,-2.000,-0.355,-1.425,-250.137,-69.527,117.313,128.0,93.0
37238,-1.407,-0.817,-1.111,-195.939,-99.977,121.038,45.0,98.0
37288,-0.620,-0.693,-0.696,-148.137,-17.008,71.649,118.0,103.0
37339,-0.171,-0.615,-0.195,-115.053,12.908,27.710,114.0,109.0
37385,0.277,-0.695,0.042,-83.221,-29.748,-36.466,44.0,98.0
37440,0.376,-0.678,-0.032,-12.435,-54.176,-74.855,45.0,0.0
37487,-0.596,-0.788,-0.336,70.298,-25.710,-138.115,47.0,129.0
37535,-2.000,-0.732,-1.151,118.550,120.046,-195.832,50.0,123.0
37586,-2.000,-0.003,-0.578,45.359,192.115,-56.863,114.0,121.0
37640,-1.791,0.049,-0.194,-29.489,-26.321,-48.511,128.0,133.0
37691,-0.840,0.213,-0.465,0.893,-80.443,-14.542,116.0,128.0
37741,-0.451,0.450,-0.195,30.931,9.466,7.290,112.0,99.0
37795,-0.398,1.056,0.066,-16.931,42.038,12.214,0.0,101.0
37846,-1.084,1.354,-0.103,-187.580,24.160,82.611,103.0,99.0
37898,-1.609,0.496,-1.317,-250.137,-135.641,84.924,102.0,100.0
37990,-1.871,-0.421,-2.000,-250.137,-0.069,76.603,101.0,100.0
38039,-1.093,-0.620,-1.069,-250.137,-24.878,32.038,96.0,104.0
38088,-0.264,-0.585,-0.536,-216.382,-29.153,8.763,93.0,107.0
38140,0.322,-0.824,-0.161,-150.076,-46.298,-33.046,93.0,156.0
38191,0.517,-0.664,-0.049,-50.511,-21.191,-106.229,97.0,109.0
38239,-0.034,-0.548,0.043,-6.000,5.710,-130.939,44.0,126.0
38285,-1.546,-0.881,-0.474,44.115,65.977,-185.664,50.0,96.0
38339,-2.000,-0.996,-0.983,29.214,152.008,-77.954,133.0,114.0
38392,-2.000,-0.188,-0.171,-18.710,6.382,-24.725,133.0,121.0
38445,-1.124,-0.115,-0.358,-26.099,-53.893,-33.420,128.0,122.0
38498,-0.723,0.132,-0.231,-7.878,-11.595,-23.672,124.0,140.0
38550,-0.491,0.603,0.042,-21.817,-7.969,-21.176,123.0,129.0
38606,-0.593,0.863,-0.222,-78.763,-26.695,12.145,126.0,0.0
38663,-1.094,0.594,-0.813,-209.962,4.947,102.145,127.0,0.0
38702,-2.000,-0.235,-1.458,-245.405,-25.244,143.962,52.0,0.0
38755,-2.000,-0.856,-1.556,-220.313,-123.000,155.298,122.0,95.0
38806,-0.864,-1.042,-1.061,-165.840,-88.275,116.382,114.0,101.0
38856,-0.006,-0.982,-0.538,-114.679,-23.145,35.023,108.0,106.0
38906,0.458,-0.838,-0.159,-50.687,5.817,-73.901,106.0,107.0
38957,0.460,-0.778,-0.091,18.580,1.191,-147.160,113.0,103.0
39003,-0.085,-0.724,-0.187,66.153,28.771,-175.366,45.0,100.0
39054,-1.885,-0.973,-1.120,137.649,141.069,-155.702,139.0,93.0
39107,-2.000,-0.345,-0.738,56.939,231.374,-24.824,139.0,110.0
39166,-1.940,-0.166,-0.149,-0.626,-72.855,2.244,126.0,194.0
39217,-0.535,0.115,-0.587,48.412,-45.672,11.626,122.0,99.0
39268,-0.443,0.458,-0.192,41.557,71.595,19.794,120.0,102.0
39320,-0.423,0.557,0.176,-1.481,18.695,16.420,146.0,102.0
39371,-0.169,0.700,-0.011,-79.672,-59.618,15.740,144.0,101.0
39418,-0.637,0.434,-0.729,-159.634,-28.588,48.748,51.0,95.0
39470,-2.000,-0.039,-1.567,-144.824,67.435,72.313,151.0,81.0
39520,-2.000,-0.852,-1.466,-177.603,-8.702,113.702,150.0,67.0
39572,-1.409,-0.943,-0.785,-184.198,-24.481,45.427,146.0,91.0
39625,-0.544,-0.416,-0.331,-112.626,-35.618,13.794,141.0,75.0
39677,-0.007,-0.439,-0.015,-78.321,-34.412,4.450,138.0,103.0
39728,0.392,-0.774,-0.027,10.191,-51.237,-16.672,137.0,77.0
39778,-0.049,-0.825,-0.186,118.542,-23.870,-57.733,140.0,73.0
39830,-1.198,-0.927,-1.021,191.695,82.580,-84.748,146.0,96.0
39882,-2.000,-0.322,-0.978,117.511,178.160,-71.695,150.0,97.0
39934,-2.000,0.164,-0.519,76.908,-29.939,-55.351,149.0,96.0
39987,-0.912,0.266,-0.523,66.603,-63.153,-36.779,146.0,99.0
40042,-0.440,0.424,-0.111,47.481,-7.962,-19.466,143.0,101.0
40094,-0.249,0.460,0.096,11.038,-6.947,-7.130,143.0,102.0
40146,-0.396,0.615,0.040,-76.267,-30.779,-1.695,144.0,99.0
40199,-0.757,0.738,-0.770,-140.313,-58.229,4.298,148.0,96.0
40251,-2.000,0.196,-2.000,-181.916,-13.847,34.740,151.0,102.0
40304,-2.000,-0.204,-1.869,-250.137,-35.160,118.008,147.0,99.0
40356,-1.018,-0.921,-1.160,-250.137,-59.374,82.656,141.0,103.0
40409,-0.220,-1.043,-0.516,-195.534,-57.924,49.901,135.0,108.0
40464,0.393,-0.848,-0.126,-75.473,-53.924,-21.893,131.0,114.0
40515,0.568,-0.580,-0.118,-1.427,-30.931,-63.985,132.0,99.0
40610,-0.932,-0.905,-0.623,103.969,2.924,-194.237,146.0,100.0
40670,-2.000,-0.673,-1.642,113.893,130.893,-134.748,151.0,0.0
40714,-2.000,-0.128,-0.374,-61.580,35.038,7.992,151.0,0.0
40772,-1.010,-0.129,-0.519,-34.466,-88.748,7.908,147.0,0.0
40816,-0.312,0.344,-0.271,29.847,31.244,34.267,143.0,0.0
40868,-0.476,0.522,0.207,16.336,26.656,39.939,141.0,101.0
40921,-0.527,0.766,0.434,-52.786,-96.649,17.427,141.0,102.0
40976,-0.398,1.207,-0.657,-167.710,-130.702,30.069,143.0,100.0
41028,-1.810,0.974,-2.000,-250.137,43.473,56.321,146.0,100.0
41081,-2.000,0.126,-2.000,-250.137,-51.634,90.008,146.0,104.0
41127,-1.502,-0.639,-1.746,-250.137,-36.244,118.053,44.0,101.0
41180,-0.439,-0.677,-0.867,-250.137,30.931,56.336,135.0,106.0
41232,0.160,-0.996,-0.470,-188.779,23.855,-21.198,132.0,111.0
41284,0.602,-1.007,-0.392,-60.374,15.084,-123.779,132.0,113.0
41337,-0.004,-0.739,-0.094,17.885,36.649,-187.206,137.0,105.0
41393,-1.308,-0.672,-0.492,43.542,25.496,-160.198,145.0,97.0
41451,-2.000,-0.365,-0.611,29.977,154.863,-71.481,151.0,197.0
41493,-2.000,-0.237,-0.113,14.321,8.550,-31.351,51.0,8.0
41551,-1.417,-0.121,-0.491,4.328,-54.214,-30.519,150.0,0.0
41594,-0.855,0.191,-0.471,-8.046,0.794,-0.626,135.0,0.0
41652,-0.640,0.730,-0.178,-46.321,-0.061,13.672,132.0,0.0
41696,-0.351,0.802,-0.144,-118.405,-53.573,42.504,143.0,0.0
41749,-0.139,0.633,-0.498,-159.321,-36.198,59.962,144.0,101.0
41799,-0.919,0.180,-1.006,-195.565,22.489,79.534,47.0,98.0
41849,-2.000,-0.210,-1.501,-176.611,46.351,90.832,127.0,87.0
41906,-2.000,-0.422,-1.241,-180.176,-6.527,34.092,124.0,95.0
41953,-1.043,-0.324,-0.847,-149.702,-8.351,2.847,70.0,98.0
41998,-0.505,-0.321,-0.385,-119.740,18.901,-24.580,68.0,61.0
42044,-0.041,-0.455,0.051,-57.359,-8.351,-52.176,66.0,105.0
42090,0.475,-0.525,-0.054,8.107,-41.542,-70.260,51.0,103.0
42137,0.272,-0.354,-0.341,53.237,-4.756,-84.580,60.0,99.0
42182,-0.969,-0.510,-0.651,76.748,74.076,-94.405,62.0,75.0
42230,-2.000,-0.431,-0.850,85.412,78.435,-20.038,60.0,92.0
42276,-1.752,-0.061,-0.644,22.382,34.840,1.756,59.0,92.0
42321,-1.237,0.010,-0.816,29.160,4.168,-3.603,57.0,86.0
42362,-1.054,0.279,-0.478,27.084,33.809,22.237,57.0,9.0
42403,-0.797,0.414,-0.152,19.908,39.023,39.489,57.0,8.0
42444,-0.561,0.458,0.071,2.206,15.733,47.985,51.0,7.0
42490,-0.296,0.321,0.024,-22.641,-40.176,50.603,51.0,99.0
42535,-0.393,0.301,-0.190,-58.786,-58.893,37.817,53.0,96.0
42582,-1.338,0.160,-0.525,-89.870,-81.458,36.046,57.0,93.0
42631,-1.913,0.060,-1.383,-75.656,66.634,49.573,57.0,93.0
42678,-2.000,-0.007,-0.882,-117.282,11.084,57.099,74.0,96.0
42725,-1.222,-0.176,-0.661,-113.977,-81.145,33.893,74.0,100.0
42772,-0.411,-0.184,-0.348,-93.504,-40.359,10.679,73.0,105.0
42821,0.093,-0.435,-0.011,-68.336,-2.779,-38.336,94.0,107.0
42869,0.328,-0.625,0.060,-13.878,-25.664,-105.595,93.0,100.0
42915,0.271,-0.534,-0.182,26.313,-21.725,-135.679,46.0,103.0
42964,-0.215,-0.728,-0.609,79.679,30.718,-124.328,125.0,70.0
43015,-2.000,-0.760,-1.161,139.519,175.137,-84.954,86.0,92.0
43104,-1.560,-0.096,-0.607,77.214,-43.473,15.611,52.0,95.0
43150,-0.876,0.152,-0.646,86.710,-6.481,38.214,48.0,98.0
43196,-0.606,0.472,-0.359,67.046,36.137,50.740,59.0,97.0
43242,-0.513,0.408,0.059,28.817,-6.931,57.458,61.0,100.0
43289,-0.254,0.818,0.313,5.290,-49.031,50.015,65.0,100.0
43338,-0.270,0.880,-0.096,-62.771,-76.275,60.466,117.0,97.0
43384,-0.896,1.216,-1.341,-153.916,57.802,33.901,50.0,95.0
43426,-2.000,0.414,-1.929,-250.137,54.626,34.580,55.0,11.0
43475,-2.000,0.084,-1.504,-250.137,-146.443,42.687,58.0,97.0
43526,-0.897,-0.614,-1.377,-250.137,-111.588,75.153,115.0,103.0
43576,-0.138,-0.585,-0.605,-170.328,45.374,62.695,112.0,109.0
43624,0.226,-0.683,-0.100,-88.565,95.924,-2.069,110.0,84.0
43678,0.479,-0.752,0.065,-13.817,76.038,-51.183,110.0,183.0
43735,0.158,-0.687,-0.094,77.344,53.260,-95.672,114.0,0.0
43777,-1.764,-0.912,-1.397,200.336,69.641,-172.198,118.0,0.0
43832,-2.000,-0.326,-1.619,122.863,74.351,-116.435,119.0,0.0
43878,-1.976,0.117,-0.703,-19.595,14.779,-87.427,116.0,0.0
43933,-1.266,0.150,-0.561,-25.221,-37.870,-71.191,113.0,0.0
43982,-0.699,0.421,-0.243,18.214,-8.206,-17.450,108.0,100.0
44032,-0.572,0.563,0.012,8.412,-32.092,0.015,104.0,100.0
44081,-0.237,0.845,0.036,-45.092,-67.886,-14.947,103.0,100.0
44132,-0.384,0.805,-0.387,-147.260,-79.939,-35.351,125.0,99.0
44182,-0.885,0.592,-1.589,-250.137,-53.702,-77.321,130.0,102.0
44239,-1.985,-0.220,-2.000,-250.137,-107.748,-58.977,134.0,0.0
44284,-1.758,-0.485,-1.860,-250.137,-79.939,32.855,108.0,0.0
44334,-0.979,-0.531,-1.191,-191.260,-39.802,65.954,104.0,98.0
44389,-0.461,-0.675,-0.473,-168.412,-1.672,52.344,100.0,0.0
44430,0.311,-0.920,0.057,-84.863,-34.130,-9.809,98.0,0.0
44484,0.571,-0.787,0.180,-1.672,-55.947,-71.534,98.0,0.0
44535,-0.091,-0.580,-0.019,77.427,-77.687,-117.191,104.0,124.0
44587,-1.679,-0.911,-1.385,150.603,3.313,-188.206,127.0,110.0
44638,-2.000,-0.621,-1.338,48.832,125.061,-56.641,130.0,109.0
44690,-1.826,-0.073,-0.393,-36.618,37.687,-54.672,130.0,120.0
44741,-1.133,0.066,-0.377,-30.137,-50.511,-53.679,128.0,129.0
44791,-0.615,0.374,-0.206,-23.931,-35.878,-24.595,123.0,100.0
44843,-0.347,0.692,0.021,-34.122,-36.321,-2.313,120.0,101.0
44893,-0.307,0.915,-0.184,-83.969,-30.702,17.771,123.0,99.0
44943,-1.078,0.492,-0.878,-203.504,-23.748,55.069,126.0,94.0
44994,-2.000,-0.087,-1.992,-243.595,-35.229,76.260,128.0,92.0
45044,-1.888,-0.669,-2.000,-250.137,-67.405,128.565,124.0,94.0
45093,-0.965,-0.917,-1.177,-241.534,-31.756,91.038,116.0,77.0
45145,-0.115,-0.812,-0.631,-166.603,-11.931,13.366,112.0,79.0
45195,0.334,-0.888,-0.120,-103.557,20.237,-57.084,109.0,105.0
45245,0.529,-0.812,0.006,-13.298,15.092,-104.130,110.0,104.0
45294,0.092,-0.797,-0.019,65.886,38.893,-140.382,117.0,75.0
45344,-1.379,-1.263,-1.135,163.931,87.427,-178.198,126.0,93.0
45405,-2.000,-0.617,-1.359,93.649,156.160,-64.282,0.0,184.0
45465,-1.681,-0.227,-0.583,24.824,-46.000,-8.344,0.0,189.0
45516,-0.577,0.188,-0.638,59.122,8.733,10.260,127.0,99.0
45570,-0.512,0.646,-0.086,45.855,63.450,19.603,124.0,101.0
45668,-0.301,0.867,-0.069,-78.924,-41.947,24.260,0.0,98.0
45720,-0.853,0.384,-0.839,-191.985,-20.885,32.481,153.0,87.0
45771,-2.000,-0.586,-1.911,-204.229,-60.412,61.198,156.0,81.0
45824,-1.498,-0.869,-1.779,-220.634,-73.649,83.260,152.0,85.0
45875,-0.815,-1.065,-1.032,-161.328,-21.321,29.275,147.0,89.0
45927,-0.242,-0.648,-0.247,-113.855,-5.656,-0.122,143.0,97.0
45978,0.312,-0.727,0.105,-45.290,-20.534,-60.435,141.0,98.0
46033,0.418,-0.538,0.106,59.924,-28.763,-102.229,143.0,96.0
46086,-0.112,-0.607,-0.246,106.756,4.718,-92.282,149.0,92.0
46137,-1.695,-0.878,-1.646,189.985,124.046,-68.962,156.0,88.0
46194,-2.000,-0.535,-0.785,55.405,107.809,23.687,159.0,169.0
46246,-1.234,-0.249,-0.575,0.023,-86.748,10.649,156.0,92.0
46299,-0.630,0.038,-0.586,62.183,-20.863,32.168,153.0,93.0
46351,-0.521,0.326,-0.168,91.649,35.763,57.794,151.0,93.0
46403,-0.425,0.367,0.024,82.595,-3.397,54.580,150.0,93.0
46454,-0.339,0.585,-0.187,16.229,-48.015,42.878,151.0,91.0
46510,-0.615,0.689,-1.034,-121.916,31.656,0.130,155.0,87.0
46563,-2.000,-0.456,-1.747,-208.481,37.916,-72.786,158.0,104.0
46619,-1.900,-0.648,-1.508,-250.137,-139.099,-21.931,156.0,163.0
46666,-0.336,-0.919,-1.042,-204.160,-81.977,-25.908,50.0,91.0
46717,-0.186,-0.813,-0.611,-139.252,3.260,-33.733,147.0,95.0
46770,-0.189,-0.631,-0.278,-71.489,5.481,-83.107,146.0,96.0
46822,-0.185,-0.358,-0.058,-40.595,-27.565,-134.298,146.0,96.0
46874,-0.178,-0.262,-0.034,19.496,-48.115,-184.962,150.0,94.0
46929,-0.191,-0.414,0.085,107.084,93.267,-164.763,156.0,90.0
46988,-1.193,-0.484,0.347,180.969,-84.573,-148.336,0.0,139.0
47045,-1.676,-1.405,-0.393,-40.771,-66.580,-175.489,0.0,138.0
47104,-1.616,-1.785,-0.488,-35.008,-209.939,68.702,0.0,144.0
47162,-0.472,-1.113,0.009,39.588,-166.282,133.542,0.0,152.0
47220,-0.485,-0.141,0.814,119.366,-23.405,110.863,0.0,161.0
47280,-0.899,-1.409,0.330,148.565,86.573,47.351,194.0,170.0
47335,-0.817,-1.136,0.223,141.450,-9.260,27.489,191.0,100.0
47398,-0.094,-1.261,-0.569,49.237,-114.863,-41.855,186.0,0.0
47444,-0.135,-0.726,-0.329,-40.718,-50.672,9.908,181.0,0.0
47503,-0.405,-0.304,0.541,-28.649,-57.702,6.824,0.0,154.0
47561,-0.611,-0.348,0.780,-5.626,34.557,36.756,0.0,154.0
47619,-0.547,-0.467,0.656,9.542,-25.786,1.008,179.0,153.0
47677,-0.643,-0.377,0.247,16.954,-21.015,-9.733,0.0,154.0
47736,-0.845,-0.467,0.500,-1.947,-41.244,1.595,0.0,155.0
47795,-0.585,-0.378,0.479,-9.878,-34.275,2.198,199.0,155.0
47850,-0.586,-0.407,0.603,-4.802,-7.290,-5.588,176.0,123.0
47909,-0.594,-0.498,0.512,3.534,-11.160,-6.992,0.0,116.0
47966,-0.648,-0.486,0.651,-1.878,-15.351,-5.832,0.0,118.0
48022,-0.619,-0.448,0.665,1.885,-21.756,-8.611,0.0,118.0
48077,-0.489,-0.465,0.471,2.603,9.534,-11.977,171.0,120.0
48133,-0.731,-0.448,0.566,1.130,9.405,-6.198,176.0,120.0
48191,-0.608,-0.487,0.525,-6.053,-14.214,-10.000,0.0,156.0
48248,-0.685,-0.516,0.667,-6.580,-1.611,-7.954,0.0,121.0
48304,-0.485,-0.534,0.574,-7.832,-6.053,-4.427,171.0,123.0
48359,-0.472,-0.506,0.715,-1.244,13.771,5.183,176.0,122.0
48463,0.638,-0.903,0.903,39.076,-5.641,-69.244,0.0,149.0
48525,0.786,-1.273,0.388,77.397,5.733,-138.534,0.0,0.0
48591,-0.566,-1.339,-0.487,70.191,233.527,-195.924,0.0,0.0
48648,-1.956,-1.309,-0.066,41.626,100.496,-213.328,0.0,123.0
48703,-1.194,-0.907,-0.022,-14.260,-2.969,-191.489,176.0,151.0
48760,-1.139,-0.568,0.443,-22.542,87.382,-148.031,0.0,143.0
48818,-1.447,-0.644,0.521,-13.595,85.435,-62.611,0.0,142.0
48875,-0.847,-0.801,0.881,-7.947,-11.855,-2.588,0.0,143.0
48934,0.226,-1.121,0.783,7.618,-131.504,-8.794,0.0,139.0
48995,0.611,-0.769,0.309,18.298,-31.198,-16.656,0.0,0.0
49052,-0.182,-0.738,0.489,-1.733,-30.115,-77.420,0.0,161.0
49112,-0.365,-0.814,0.566,-0.763,-54.519,-35.076,0.0,174.0
49169,0.005,-0.822,0.575,2.733,-15.863,-23.710,0.0,160.0
49226,0.059,-0.850,0.469,6.397,-18.656,-18.573,171.0,184.0
49286,0.095,-0.811,0.247,-10.290,-12.366,-19.008,0.0,171.0
49344,-0.092,-0.835,0.447,-26.557,-25.382,-11.588,0.0,168.0
49402,0.098,-0.827,0.551,-16.595,1.618,8.710,0.0,172.0
49466,0.129,-0.938,0.636,-9.153,-7.901,3.840,0.0,0.0
49524,0.279,-0.894,0.458,3.305,-27.802,-8.130,0.0,174.0
49585,0.331,-1.075,0.447,10.656,-1.710,0.374,0.0,0.0
49643,0.393,-0.924,0.469,6.038,4.305,-21.595,0.0,173.0
49701,-0.025,-0.813,0.539,3.382,6.725,-26.015,0.0,171.0
49760,0.036,-0.745,0.404,-0.542,8.397,-25.893,0.0,169.0
49820,-0.168,-0.701,0.358,0.763,16.229,-11.160,0.0,0.0
49879,-0.066,-0.752,0.332,-15.260,-31.802,17.107,0.0,171.0
49938,0.090,-1.061,0.567,-22.702,-41.763,54.458,0.0,174.0
49998,-0.456,-0.724,0.428,-23.214,-32.992,73.198,166.0,183.0
50053,-1.093,-0.830,-0.183,-22.870,-2.573,204.565,148.0,143.0
50106,-1.525,-1.463,-0.212,-85.786,11.840,250.130,141.0,141.0
50167,-1.284,-1.959,0.217,-99.809,4.198,250.130,0.0,0.0
50213,-0.683,-2.000,1.157,-100.412,-141.252,250.130,0.0,0.0
50270,0.452,-1.768,0.745,-28.542,-250.137,123.786,0.0,134.0
50324,1.700,-0.472,-0.388,40.275,-172.527,-103.710,0.0,84.0
50381,-1.018,-0.318,-0.323,47.176,197.809,-51.260,0.0,146.0
50442,-1.643,-0.131,0.554,7.809,51.282,17.481,0.0,146.0
50499,-0.598,-0.532,0.552,-35.786,-39.229,18.099,0.0,146.0
50556,-0.451,-0.516,0.635,-10.214,-8.260,-1.527,0.0,147.0
50614,-0.440,-0.427,0.421,-9.824,21.573,-21.908,0.0,135.0
50671,-0.750,-0.581,0.505,-4.962,29.031,-27.221,0.0,146.0
50728,-0.716,-0.450,0.443,-19.931,23.443,-33.328,0.0,146.0
50789,-0.754,-0.477,0.449,-18.656,6.954,-32.519,0.0,0.0
50846,-0.649,-0.592,0.408,-28.344,10.084,-31.573,191.0,150.0
50906,-0.568,-0.604,0.350,-33.107,8.183,-43.160,192.0,0.0
50956,-0.552,-0.696,0.294,-45.786,0.282,-54.992,193.0,0.0
51015,-0.494,-0.686,0.324,-51.969,-6.176,-59.115,196.0,0.0
51076,-0.535,-0.883,0.356,-44.542,-1.244,-58.031,194.0,0.0
51136,-0.603,-0.822,0.304,-30.244,20.031,-51.328,200.0,0.0
51196,-0.673,-0.779,0.291,-18.611,18.672,-31.809,197.0,0.0
51257,-0.547,-0.874,0.248,-15.435,8.122,-18.771,0.0,0.0
51316,-0.549,-0.865,0.279,-15.000,22.244,-8.145,0.0,167.0
51418,-0.493,-0.838,0.274,-3.382,-3.962,1.191,200.0,163.0
51476,-0.487,-0.874,0.204,4.794,1.008,3.481,199.0,164.0
51537,-0.563,-0.850,0.211,2.374,7.061,5.466,0.0,162.0
51598,-0.490,-0.820,0.189,2.947,-11.397,9.649,0.0,0.0
51656,-0.444,-0.860,0.153,1.992,-1.870,9.634,199.0,164.0
51717,-0.452,-0.854,0.177,-1.053,1.229,7.382,0.0,0.0
51777,-0.477,-0.858,0.195,-2.901,0.076,1.191,0.0,0.0
51837,-0.454,-0.871,0.194,2.718,3.244,0.443,0.0,0.0
51898,-0.440,-0.854,0.139,6.015,21.099,1.664,198.0,0.0
51956,-0.476,-0.919,0.191,11.847,27.305,2.641,198.0,166.0
52015,-0.690,-0.813,0.191,11.267,42.725,15.221,198.0,166.0
52077,-1.724,-0.346,0.107,-12.137,124.840,130.901,195.0,169.0
52130,-2.000,-0.179,-0.221,-72.145,33.580,250.130,188.0,93.0
52183,-2.000,-0.854,-0.516,-112.672,-80.031,250.130,144.0,99.0
52230,-1.409,-1.275,-0.596,-158.924,-156.351,250.130,133.0,18.0
52277,-0.425,-1.536,-0.609,-162.718,-169.260,250.130,40.0,121.0
52331,0.368,-0.962,-0.328,-111.496,-92.832,177.427,125.0,174.0
52378,0.184,0.053,0.680,-109.275,-7.489,59.756,22.0,133.0
52426,-0.253,-0.165,0.877,-78.061,-0.191,-27.924,21.0,166.0
52478,-0.757,0.281,0.476,20.695,45.435,-21.313,23.0,161.0
52537,-1.022,0.435,0.378,11.618,60.076,11.977,0.0,160.0
52593,-0.903,0.484,0.537,-21.061,-27.985,8.962,0.0,127.0
52649,-0.539,0.459,0.511,-9.466,-19.565,-3.252,0.0,128.0
52708,-0.765,0.349,0.492,12.229,22.573,0.069,0.0,163.0
52767,-0.817,0.360,0.421,6.176,-7.160,-3.244,0.0,175.0
52825,-0.652,0.386,0.372,-1.702,3.695,-8.244,0.0,133.0
52881,-0.750,0.387,0.458,-1.618,20.588,-10.198,0.0,130.0
52939,-0.801,0.374,0.412,1.756,14.534,-10.809,0.0,163.0
53000,-0.780,0.363,0.412,0.695,14.183,-10.023,0.0,127.0
53056,-0.741,0.397,0.374,4.664,21.153,-14.237,0.0,127.0
53108,-0.837,0.333,0.383,3.656,23.374,-16.504,123.0,125.0
53160,-0.818,0.354,0.335,-0.267,25.183,-11.794,123.0,124.0
53213,-0.929,0.345,0.393,-2.534,9.336,-10.000,123.0,123.0
53265,-0.853,0.322,0.299,-2.008,7.893,-6.924,123.0,124.0
53316,-0.863,0.325,0.318,-4.122,8.786,-4.725,123.0,123.0
53368,-0.853,0.322,0.314,-5.397,5.672,-10.954,124.0,123.0
53421,-0.856,0.229,0.316,-5.611,15.267,-7.214,124.0,123.0
53476,-0.941,0.285,0.369,3.160,7.115,-7.412,123.0,123.0
53523,-0.866,0.342,0.269,0.710,1.389,-3.809,37.0,122.0
53575,-0.870,0.300,0.277,-9.160,1.084,-3.687,124.0,121.0
53626,-0.887,0.268,0.314,-9.389,5.786,-1.046,124.0,122.0
53673,-0.876,0.277,0.350,-4.832,0.267,-4.008,25.0,121.0
53720,-0.887,0.258,0.323,-3.756,2.374,-4.046,25.0,121.0
53766,-0.891,0.278,0.311,-1.534,-1.458,-0.985,24.0,122.0
53812,-0.871,0.265,0.277,-3.679,-3.336,-2.992,25.0,121.0
53861,-0.889,0.285,0.298,-5.855,1.832,-0.435,25.0,120.0
53907,-0.866,0.241,0.313,-6.389,2.588,0.885,25.0,120.0
53954,-0.853,0.260,0.306,-9.351,1.802,-1.244,26.0,121.0
54000,-0.953,0.260,0.355,-9.817,1.366,-4.229,24.0,120.0
54046,-1.297,-0.009,0.659,-3.473,-13.756,3.282,25.0,121.0
54135,-1.307,-0.411,0.707,87.061,-130.389,-0.794,123.0,18.0
54194,-1.207,-0.272,0.597,109.954,-152.481,-11.122,0.0,162.0
54253,-0.792,0.075,0.160,157.221,-180.000,-5.763,0.0,161.0
54301,-0.450,0.530,-0.479,197.000,-133.435,-6.954,34.0,143.0
54352,-0.380,1.011,-0.477,168.076,-80.916,-21.534,37.0,142.0
54410,-0.310,1.168,-0.188,105.840,-50.359,-12.985,179.0,146.0
54464,-0.176,1.085,0.417,-13.534,13.992,-8.618,178.0,111.0
54521,-0.359,0.834,0.799,-35.962,25.870,-19.160,177.0,148.0
54576,-0.629,0.596,0.562,-20.267,0.679,-24.962,177.0,105.0
54630,-0.750,0.513,0.538,-5.557,-3.542,-0.511,178.0,101.0
54684,-0.598,0.406,0.540,4.603,-11.847,-3.702,177.0,100.0
54738,-0.467,0.468,0.490,11.336,14.191,-21.595,177.0,104.0
54793,-0.620,0.502,0.562,18.641,-14.435,-28.916,177.0,104.0
54850,-0.598,0.533,0.463,20.107,-12.420,-30.634,177.0,99.0
54904,-0.664,0.598,0.535,17.679,2.595,-20.679,177.0,98.0
54958,-0.646,0.576,0.532,18.046,-16.374,-19.664,177.0,99.0
55012,-0.598,0.543,0.477,22.679,-6.252,-16.542,178.0,101.0
55066,-0.624,0.567,0.470,23.290,-13.252,-21.641,178.0,100.0
55120,-0.611,0.588,0.422,20.626,-9.893,-18.229,178.0,97.0
55175,-0.671,0.585,0.485,21.191,-0.489,-14.511,178.0,97.0
55232,-0.629,0.631,0.458,18.092,-6.809,-12.847,178.0,155.0
55289,-0.625,0.624,0.455,14.443,-6.405,-12.061,178.0,98.0
55344,-0.604,0.575,0.417,10.756,-9.031,-13.038,178.0,97.0
55397,-0.598,0.582,0.407,7.863,0.809,-17.321,178.0,97.0
55451,-0.649,0.604,0.393,0.489,1.634,-19.519,178.0,97.0
55505,-0.647,0.605,0.379,-3.305,8.107,-16.267,179.0,98.0
55560,-0.695,0.601,0.417,-10.107,13.305,-10.802,180.0,98.0
55614,-0.682,0.576,0.417,-13.969,10.695,-8.725,180.0,97.0
55668,-0.710,0.509,0.442,-15.588,9.664,-6.191,180.0,96.0
55728,-0.693,0.462,0.434,-15.519,11.427,-9.786,180.0,96.0
55784,-0.714,0.448,0.405,-14.198,9.840,-15.962,181.0,94.0
55834,-0.696,0.435,0.397,-11.290,17.405,-17.038,129.0,96.0
55887,-0.743,0.444,0.420,-12.985,22.718,-16.534,182.0,97.0
55938,-0.752,0.429,0.384,-15.137,20.618,-16.924,129.0,106.0
55989,-0.818,0.385,0.423,-11.924,21.466,-15.802,129.0,106.0
56039,-0.834,0.371,0.432,-8.863,17.130,-14.328,128.0,106.0
56090,-0.797,0.350,0.426,-5.893,7.534,-19.290,129.0,103.0
56140,-0.776,0.347,0.373,0.641,12.924,-19.985,122.0,102.0
56192,-0.781,0.364,0.351,0.191,11.832,-20.481,122.0,127.0
56242,-0.665,0.506,0.249,-7.710,18.992,-16.870,123.0,125.0
56287,-0.735,0.442,0.188,-16.870,33.198,-0.542,38.0,103.0
56333,-0.896,0.340,0.115,-18.847,45.214,0.137,38.0,122.0
56379,-0.947,0.269,0.102,-26.802,55.466,1.183,36.0,121.0
56425,-1.025,0.262,0.211,-33.695,64.588,5.382,37.0,120.0
56476,-1.203,0.131,0.565,-27.351,37.702,13.786,126.0,118.0
56523,-1.510,-0.102,1.210,-6.099,-36.847,14.313,37.0,119.0
56568,-1.534,-0.645,1.219,39.038,-135.313,-8.183,37.0,101.0
56621,-1.335,-0.557,0.570,89.840,-111.489,-61.458,124.0,90.0
56668,-1.539,-0.137,0.113,187.847,-98.947,-88.137,37.0,128.0
56726,-1.461,0.239,-0.407,239.099,-192.160,-83.718,0.0,159.0
56829,0.054,1.345,-0.952,166.672,-151.214,22.962,0.0,0.0
56878,-0.416,0.740,0.258,42.496,-0.771,75.718,33.0,164.0
56928,-0.747,0.238,0.914,27.702,-16.183,23.679,33.0,185.0
56976,-0.571,0.307,0.844,32.015,-20.031,-28.695,32.0,158.0
57026,-0.531,0.653,0.616,47.145,-22.847,-43.779,33.0,188.0
57076,-0.464,1.020,0.394,42.061,-23.595,-15.542,36.0,189.0
57140,-0.572,0.779,0.367,15.466,3.763,15.519,0.0,0.0
57177,-0.571,0.535,0.619,-2.328,-21.557,15.176,31.0,0.0
57227,-0.444,0.492,0.579,4.344,-21.595,-5.977,31.0,0.0
57278,-0.457,0.664,0.532,18.130,-12.779,-25.191,31.0,0.0
57338,-0.486,0.778,0.396,12.023,-4.641,-20.832,0.0,0.0
57399,-0.579,0.735,0.463,-7.863,-4.229,-1.870,0.0,0.0
57449,-0.497,0.609,0.556,-6.053,-20.618,-1.725,32.0,0.0
57499,-0.408,0.618,0.532,2.466,-10.458,-12.626,32.0,177.0
57549,-0.492,0.722,0.531,-1.145,1.779,-15.626,31.0,0.0
57604,-0.595,0.657,0.520,-12.466,-5.298,-4.817,32.0,0.0
57662,-0.472,0.612,0.484,-7.015,-11.084,0.527,32.0,0.0
57712,-0.473,0.621,0.512,-6.053,8.053,0.702,33.0,0.0
57763,-0.519,0.608,0.577,-6.328,3.321,-1.695,36.0,0.0
57823,-0.492,0.619,0.514,-3.191,2.260,-0.947,0.0,0.0
57881,-0.521,0.613,0.526,-4.824,9.198,-2.573,0.0,159.0
57940,-0.540,0.637,0.594,-5.908,3.344,1.992,0.0,0.0
58001,-0.514,0.631,0.563,-4.153,8.229,-0.511,0.0,0.0
58061,-0.539,0.604,0.555,-6.168,4.374,2.969,0.0,0.0
58124,-0.512,0.591,0.557,-7.901,2.382,1.290,0.0,0.0
58174,-0.527,0.580,0.524,-5.687,5.687,-1.366,34.0,0.0
58225,-0.578,0.577,0.579,-5.695,5.550,-2.336,33.0,0.0
58275,-0.550,0.586,0.546,-5.328,1.588,-0.046,34.0,0.0
58327,-0.540,0.577,0.555,-7.206,0.710,0.366,34.0,0.0
58377,-0.541,0.538,0.563,-3.107,-0.076,0.160,33.0,0.0
58427,-0.508,0.604,0.492,3.336,3.076,-0.962,33.0,0.0
58478,-0.482,0.649,0.411,4.282,12.168,2.817,33.0,0.0
58528,-0.327,0.692,0.148,-16.084,40.603,-4.763,33.0,0.0
58583,-0.298,0.472,0.025,-77.366,49.366,-44.763,35.0,0.0
58631,0.558,0.022,-0.123,-134.824,32.924,-178.863,37.0,163.0
58687,0.392,-0.490,0.062,-204.496,109.969,-250.137,0.0,122.0
58746,-0.612,-1.368,0.324,-224.221,73.832,-250.137,0.0,188.0
58803,-1.138,-2.000,0.525,-151.702,-49.221,-250.137,0.0,132.0
58860,-0.739,-2.000,0.184,-19.260,-145.023,-250.137,0.0,136.0
58919,-0.231,-0.536,0.826,-121.115,13.779,-170.389,0.0,187.0
58979,-0.646,-1.428,1.307,-72.504,-184.313,-152.000,0.0,174.0
59039,0.351,-0.868,0.427,-39.534,-104.313,-172.420,199.0,0.0
59102,0.329,-1.176,0.295,40.725,94.412,9.603,200.0,179.0
59154,0.117,-0.919,0.327,32.405,80.748,35.252,96.0,176.0
59208,0.282,-0.911,0.020,42.084,1.603,21.992,94.0,0.0
59249,0.349,-0.866,-0.057,17.168,-5.305,18.557,93.0,0.0
59301,0.327,-0.917,0.083,4.137,-13.870,25.542,94.0,174.0
59360,0.433,-0.839,0.178,-7.122,-13.214,15.809,188.0,175.0
59420,0.281,-1.081,0.371,-4.397,-30.336,0.649,0.0,189.0
59479,0.428,-0.925,0.290,-3.397,-23.656,0.031,186.0,188.0
59585,0.288,-0.951,0.328,9.038,0.649,-12.214,199.0,187.0
59643,0.316,-0.908,0.229,6.420,-2.504,-18.374,190.0,187.0
59704,0.357,-0.876,0.143,0.901,9.290,-13.328,189.0,0.0
59750,0.258,-0.903,0.244,-2.473,-3.313,-8.328,192.0,0.0
59809,0.323,-0.903,0.237,-4.298,-4.580,-7.374,0.0,187.0
59870,0.317,-0.896,0.247,-2.733,1.977,0.611,193.0,0.0
59916,0.314,-0.947,0.255,-3.290,-5.550,-2.550,191.0,0.0
59974,0.353,-0.904,0.262,-5.046,0.542,-1.824,191.0,176.0
60033,0.367,-0.944,0.253,-1.038,-8.023,-2.336,0.0,177.0
60095,0.429,-0.924,0.200,-0.664,-8.794,-3.122,0.0,182.0
60154,0.320,-0.905,0.270,-2.237,2.298,-5.725,0.0,183.0
60215,0.405,-0.913,0.188,-2.817,6.229,-5.168,0.0,0.0
60262,0.257,-0.932,0.283,-0.206,6.489,2.748,0.0,0.0
60307,0.269,-0.925,0.279,-1.634,-12.351,1.565,0.0,176.0
60365,0.315,-0.937,0.259,1.015,-24.740,0.733,183.0,183.0
60424,0.366,-0.931,0.208,3.725,-15.359,7.595,182.0,180.0
60484,0.377,-0.926,0.181,1.489,3.321,8.252,200.0,0.0
60531,0.356,-0.927,0.203,-3.076,9.344,7.198,199.0,0.0
60591,0.329,-0.926,0.266,-5.618,1.008,0.511,198.0,0.0
60651,0.356,-0.948,0.240,-0.122,-19.160,1.595,192.0,160.0
60709,0.401,-0.949,0.156,-3.534,-24.779,5.336,191.0,161.0
60769,0.654,-1.024,0.129,-19.015,-48.420,-29.626,181.0,0.0
60816,0.966,-0.720,-0.229,-6.947,24.023,-33.740,0.0,0.0
60861,1.183,-0.606,-0.535,-40.435,138.359,-36.939,0.0,171.0
60914,0.126,-0.986,0.280,-54.618,139.298,-75.382,104.0,169.0
60969,0.207,-1.120,0.173,-60.870,64.802,-126.931,109.0,0.0
61014,0.180,-0.961,0.082,-44.771,141.672,-56.527,141.0,0.0
61074,-0.504,-1.128,0.385,-24.061,128.282,1.336,141.0,0.0
61131,0.025,-1.028,0.338,-30.092,38.168,37.763,140.0,0.0
61187,0.329,-0.872,0.473,-11.214,-35.107,46.634,110.0,0.0
61242,0.700,-0.960,0.341,7.916,-28.573,50.160,109.0,0.0
61284,0.977,-0.894,0.144,0.260,24.099,24.870,107.0,0.0
61338,0.780,-0.908,0.197,3.878,24.076,-5.374,107.0,0.0
61393,0.479,-0.979,0.299,2.183,18.366,-32.153,107.0,0.0
61437,0.419,-0.942,0.194,-1.641,28.344,-37.763,137.0,0.0
61493,0.411,-0.920,0.201,-3.328,39.489,-26.000,110.0,0.0
61551,0.262,-0.898,0.278,2.435,22.130,-17.695,111.0,0.0
61606,0.198,-0.919,0.354,3.847,-8.031,-13.809,112.0,0.0
61663,0.316,-0.836,0.382,-1.053,14.756,2.099,115.0,0.0
61718,0.511,-0.787,0.240,12.053,-22.244,9.573,116.0,0.0
61775,0.466,-0.917,0.262,9.328,-22.198,-3.107,140.0,0.0
61833,0.512,-0.856,0.312,-1.191,-6.130,-5.969,140.0,0.0
61889,0.502,-0.843,0.307,7.618,2.321,-0.702,112.0,0.0
61944,0.582,-0.826,0.186,6.237,-2.740,-6.847,114.0,0.0
62002,0.381,-0.857,0.276,7.916,-7.450,-9.351,143.0,0.0
62061,0.367,-0.860,0.335,-4.298,1.855,-3.061,113.0,0.0
62116,0.504,-0.780,0.285,-3.992,-0.985,0.626,113.0,0.0
62173,0.510,-0.866,0.312,5.275,-7.229,4.939,111.0,0.0
62228,0.497,-0.919,0.332,3.939,-9.672,-1.153,112.0,0.0
62283,0.508,-0.857,0.315,6.168,-2.656,-4.191,112.0,0.0
62383,0.446,-0.837,0.316,7.122,-0.260,-8.336,113.0,0.0
62438,0.509,-0.834,0.267,6.794,-1.748,-4.023,113.0,0.0
62494,0.535,-0.808,0.285,3.573,3.473,-4.214,114.0,0.0
62551,0.408,-0.860,0.394,9.580,-2.107,-0.939,115.0,0.0
62609,0.512,-0.863,0.344,7.275,-8.107,-1.641,111.0,0.0
62664,0.575,-0.807,0.321,9.015,0.550,0.412,111.0,0.0
62721,0.543,-0.807,0.359,7.863,-0.473,-2.015,112.0,0.0
62776,0.625,-0.823,0.304,10.420,2.191,-4.366,114.0,0.0
62832,0.593,-0.758,0.277,1.855,23.290,-18.977,115.0,0.0
62874,0.423,-0.811,0.340,-4.107,58.435,-10.344,116.0,0.0
62930,0.222,-0.852,0.494,1.435,9.359,-16.565,116.0,0.0
62987,0.546,-0.763,0.314,-2.214,-8.519,-4.061,117.0,0.0
63043,0.471,-0.751,0.307,-4.076,46.031,2.817,118.0,0.0
63099,0.372,-0.792,0.456,-3.366,0.870,4.206,118.0,0.0
63153,0.577,-0.696,0.334,-6.954,25.954,26.840,118.0,0.0
63209,0.313,-0.668,0.702,7.908,36.595,120.397,119.0,0.0
63265,0.810,-1.166,0.820,37.145,22.870,25.008,113.0,0.0
63322,0.782,-1.114,1.086,45.435,50.107,-31.252,116.0,0.0
63378,0.792,-1.056,0.803,91.588,57.985,-82.458,125.0,0.0
63434,0.743,-1.049,0.371,102.664,116.435,-100.878,122.0,0.0
63494,0.506,-0.824,0.256,103.908,167.115,-111.053,171.0,0.0
63552,0.168,-0.757,0.225,96.771,151.061,-119.183,155.0,0.0
63617,-0.158,-0.392,0.357,74.519,97.649,-102.611,0.0,0.0
63678,-0.412,-0.225,0.700,35.115,23.527,-74.931,0.0,0.0
63738,-0.294,-0.172,0.918,11.374,-28.718,-43.802,0.0,0.0
63800,-0.178,-0.142,0.844,11.870,-34.527,-5.137,0.0,0.0
63861,-0.054,-0.300,0.838,-7.214,-29.992,22.817,0.0,0.0
63922,0.154,-0.255,0.841,-15.611,-32.198,44.924,0.0,0.0
63983,0.295,-0.340,0.782,-20.664,-39.260,41.947,0.0,0.0
64045,0.414,-0.363,0.745,-34.763,-32.527,38.969,0.0,0.0
64090,0.324,-0.444,0.895,-34.252,-33.580,27.756,176.0,0.0
64153,0.388,-0.466,0.877,-35.107,-27.954,31.855,174.0,0.0
64198,0.403,-0.468,0.879,-25.824,-26.786,27.252,171.0,0.0
64258,0.332,-0.526,0.945,-24.191,-16.710,21.511,169.0,0.0
64304,0.377,-0.553,0.909,-15.878,-13.275,26.321,166.0,0.0
64362,0.378,-0.503,0.879,-9.198,-10.702,22.679,165.0,0.0
64408,0.350,-0.559,0.885,-4.603,-14.664,15.962,165.0,0.0
64466,0.438,-0.521,0.777,-3.130,-2.053,15.305,164.0,0.0
64526,0.314,-0.508,0.782,-2.084,7.092,13.939,164.0,0.0
64585,0.260,-0.550,0.798,-6.511,-5.405,9.771,164.0,0.0
64647,0.315,-0.584,0.769,-8.366,-9.542,13.053,164.0,0.0
64706,0.326,-0.555,0.766,-8.466,5.458,15.435,160.0,0.0
64764,0.309,-0.571,0.809,-8.962,3.977,13.061,162.0,0.0
64830,0.283,-0.555,0.780,-8.916,8.427,11.290,163.0,0.0
64887,0.220,-0.588,0.798,-9.168,19.321,10.634,163.0,0.0
64946,0.187,-0.606,0.802,-8.275,10.733,15.885,163.0,0.0
65001,0.203,-0.615,0.777,-9.344,0.099,14.969,128.0,0.0
65057,0.237,-0.588,0.699,-6.893,6.168,15.321,126.0,0.0
65114,0.154,-0.613,0.695,-13.733,9.748,18.962,126.0,0.0
65180,0.084,-0.589,0.672,-22.550,8.344,27.328,125.0,0.0
65285,-0.133,-0.576,0.393,-53.931,5.611,126.550,187.0,0.0
65330,-0.535,-0.812,0.375,-95.710,101.305,227.649,122.0,0.0
65391,-1.010,-1.004,0.587,-105.206,115.992,250.130,181.0,0.0
65440,-1.410,-1.128,0.936,-95.977,35.824,250.130,0.0,0.0
65486,-1.244,-1.119,0.820,-62.840,-3.489,250.130,0.0,157.0
65540,-1.155,-1.100,0.721,-35.275,7.733,250.130,142.0,110.0
65594,-0.917,-0.909,0.471,17.863,26.672,250.130,130.0,115.0
65648,-0.772,-0.610,0.421,33.420,12.374,250.130,123.0,122.0
65710,-0.510,-0.219,0.256,46.580,-21.985,227.687,0.0,133.0
65772,-0.340,0.071,0.257,43.244,-42.298,148.076,0.0,0.0
65835,-0.186,0.502,0.290,45.817,-55.847,70.160,0.0,0.0
65884,-0.082,0.802,0.126,46.038,-23.779,7.397,0.0,0.0
65933,-0.376,0.846,0.252,40.649,9.443,-2.756,0.0,0.0
65995,-0.539,0.785,0.182,41.305,-4.939,-4.053,0.0,0.0
66058,-0.575,0.766,0.207,23.382,6.962,-3.611,0.0,0.0
66120,-0.624,0.718,0.257,18.107,-12.214,-4.534,0.0,0.0
66183,-0.487,0.772,0.169,24.176,-9.519,-7.267,0.0,0.0
66243,-0.533,0.809,0.117,22.733,14.137,-7.931,0.0,113.0
66300,-0.628,0.841,0.133,8.947,6.763,-6.977,0.0,111.0
66358,-0.611,0.820,0.113,-4.748,2.031,-5.237,0.0,111.0
66416,-0.594,0.802,0.149,-8.237,1.214,-1.695,0.0,110.0
66473,-0.575,0.749,0.158,-9.481,0.397,-6.924,0.0,111.0
66531,-0.575,0.777,0.154,-9.580,8.786,-10.397,0.0,112.0
66594,-0.642,0.744,0.169,-10.397,5.611,-10.206,0.0,0.0
66656,-0.666,0.753,0.166,-10.588,6.069,-3.557,0.0,184.0
66718,-0.657,0.745,0.185,-14.763,2.374,1.008,0.0,0.0
66783,-0.611,0.705,0.208,-14.206,0.786,-0.756,0.0,188.0
66846,-0.645,0.708,0.241,-13.832,2.359,-4.275,0.0,0.0
66895,-0.625,0.733,0.198,-9.405,1.473,-4.221,0.0,0.0
66944,-0.617,0.725,0.171,-12.740,10.916,0.908,0.0,0.0
66993,-0.656,0.695,0.191,-19.214,7.809,-0.824,0.0,0.0
67042,-0.649,0.681,0.232,-24.244,2.870,-1.756,0.0,0.0
67104,-0.657,0.688,0.286,-23.450,1.000,-0.351,0.0,0.0
67166,-0.641,0.661,0.295,-15.344,4.366,2.023,0.0,184.0
67228,-0.632,0.654,0.266,-7.794,5.023,2.802,0.0,0.0
67294,-0.631,0.673,0.232,-9.229,7.053,2.878,0.0,0.0
67355,-0.532,0.775,-0.006,-24.099,23.115,0.794,0.0,174.0
67416,-0.427,0.748,-0.127,-88.672,61.924,-21.656,0.0,163.0
67477,-0.231,0.531,-0.205,-149.008,78.176,-69.359,0.0,169.0
67531,-0.107,0.202,-0.352,-193.481,96.481,-132.496,122.0,127.0
67586,-0.315,-0.025,-0.448,-212.191,115.252,-185.527,126.0,117.0
67640,-0.803,-0.356,-0.411,-219.122,132.412,-222.565,134.0,106.0
67694,-1.454,-0.810,-0.154,-219.176,55.115,-241.214,144.0,97.0
67755,-1.574,-1.349,0.020,-195.840,-58.924,-248.725,0.0,161.0
67819,-0.996,-1.545,0.168,-123.634,-120.031,-176.779,0.0,164.0
67879,-0.430,-1.093,0.143,-81.817,-92.779,-65.824,0.0,162.0
67943,-0.480,-1.115,0.228,-95.641,-61.771,13.977,200.0,191.0
68005,-0.483,-0.924,0.088,-65.130,-94.214,-10.130,200.0,0.0
68069,-0.438,-0.905,-0.059,-34.092,-62.313,-37.771,0.0,0.0
68127,-0.393,-0.909,-0.158,22.840,14.473,-15.649,120.0,0.0
