Timestamp(ms),AccelX(g),AccelY(g),AccelZ(g),GyroX(deg/s),GyroY(deg/s),GyroZ(deg/s),DistanceLeft(cm),DistanceRight(cm)
34254,-2.000,-0.625,-0.300,-74.046,58.626,206.779,155.0,89.0
34299,-1.542,-0.773,-0.129,-48.229,-20.908,200.153,48.0,93.0
34345,-0.421,-0.501,-0.133,-18.221,-52.588,135.237,38.0,99.0
34391,0.116,-0.490,-0.267,-6.550,-25.550,11.580,57.0,90.0
34436,0.380,-0.454,-0.278,-5.542,42.099,-97.908,45.0,87.0
34480,0.128,-0.427,-0.103,14.298,92.618,-134.840,36.0,70.0
34527,-0.466,-0.461,0.051,21.695,95.824,-118.710,76.0,97.0
34575,-1.704,-0.719,-0.180,91.122,35.885,-104.237,79.0,70.0
34621,-2.000,-0.489,-0.418,102.267,75.290,-76.481,73.0,70.0
34666,-1.989,0.031,-0.210,85.771,70.290,-3.336,80.0,58.0
34710,-1.549,0.150,-0.180,64.534,7.305,6.710,52.0,57.0
34760,-0.929,0.265,-0.279,54.939,-23.092,20.939,149.0,83.0
34811,-0.439,0.554,-0.139,35.427,-2.366,13.519,146.0,89.0
34863,-0.231,0.726,-0.078,0.015,2.794,20.481,143.0,97.0
34908,-0.625,0.738,-0.228,-73.466,48.824,81.183,51.0,96.0
34957,-1.406,0.634,-0.629,-179.588,52.321,133.969,105.0,93.0
35009,-2.000,0.004,-1.168,-238.053,-12.191,125.137,105.0,95.0
35057,-1.809,-0.525,-0.843,-191.702,-106.382,101.031,115.0,81.0
35106,-0.548,-0.586,-0.522,-118.664,-62.260,44.115,100.0,99.0
35155,0.047,-0.534,-0.145,-55.290,8.603,-32.260,106.0,91.0
35204,0.374,-0.776,-0.029,3.519,8.756,-103.557,114.0,79.0
35253,0.517,-0.522,-0.017,77.382,-1.580,-139.023,111.0,81.0
35299,-0.085,-0.483,-0.243,127.115,24.099,-139.374,51.0,98.0
35349,-2.000,-0.808,-1.290,216.611,147.321,-141.099,127.0,92.0
35401,-2.000,-0.310,-0.505,86.977,203.733,8.122,129.0,90.0
35451,-2.000,-0.067,-0.166,51.626,-80.107,-13.763,126.0,93.0
35502,-0.842,0.315,-0.557,52.214,-83.046,-17.649,125.0,95.0
35552,-0.448,0.642,-0.268,27.366,22.298,10.107,122.0,99.0
35601,-0.307,0.800,0.069,-32.046,-12.733,15.237,121.0,75.0
35651,-0.128,0.906,-0.270,-108.092,-56.145,21.267,120.0,99.0
35701,-0.625,0.909,-1.148,-196.061,-17.061,53.588,121.0,98.0
35750,-2.000,0.624,-1.612,-250.137,102.634,110.992,124.0,73.0
35804,-2.000,-0.359,-1.408,-250.137,-80.397,95.962,121.0,98.0
35854,-1.099,-0.532,-1.012,-203.954,-71.565,74.702,117.0,104.0
35904,-0.253,-0.506,-0.356,-160.489,-9.473,39.718,112.0,111.0
35959,0.393,-0.649,-0.072,-107.489,-13.405,-34.366,105.0,0.0
36015,0.619,-0.770,-0.153,-18.214,-29.046,-102.328,103.0,0.0
36065,-0.026,-0.748,-0.228,42.649,-10.534,-146.000,105.0,103.0
36114,-1.980,-0.854,-0.931,107.832,73.977,-199.847,108.0,96.0
36160,-2.000,-0.187,-1.263,78.603,219.855,-94.656,52.0,95.0
36218,-2.000,0.188,-0.181,11.992,-5.038,-29.252,112.0,0.0
36261,-0.924,0.433,-0.334,8.924,-72.290,-13.534,128.0,0.0
36315,-0.578,0.485,-0.179,28.748,-15.504,18.618,126.0,151.0
36365,-0.351,0.720,0.013,18.458,-11.863,24.924,102.0,101.0
36414,-0.237,1.253,-0.324,-66.229,-58.008,13.901,100.0,102.0
36461,-0.632,1.238,-1.150,-250.137,-25.641,45.198,51.0,112.0
36507,-2.000,0.513,-1.961,-250.137,66.550,71.534,50.0,96.0
36556,-2.000,-0.280,-1.872,-250.137,-52.229,56.389,103.0,96.0
36605,-1.504,-0.711,-1.424,-250.137,-98.496,83.931,99.0,102.0
36658,-0.310,-0.627,-0.659,-216.031,-1.580,61.076,92.0,109.0
36750,0.531,-0.828,-0.096,-69.870,10.191,-58.565,87.0,113.0
36799,0.380,-0.510,-0.018,13.115,-5.756,-104.290,92.0,109.0
36845,-0.267,-0.296,-0.192,36.076,9.405,-141.382,43.0,101.0
36894,-2.000,-0.561,-1.341,52.924,176.977,-164.389,106.0,93.0
36950,-2.000,-0.096,-0.815,20.557,164.260,-52.153,112.0,0.0
37001,-1.510,0.040,-0.386,-45.626,-74.267,-24.802,51.0,0.0
37047,-0.846,0.137,-0.367,-31.901,-40.878,-9.115,51.0,109.0
37097,-0.567,0.298,-0.037,-9.191,-9.153,-9.351,50.0,124.0
37144,-0.228,0.587,0.077,-25.359,-38.664,-31.046,50.0,117.0
37190,-0.100,0.877,-0.239,-76.038,-33.069,-35.557,51.0,108.0
37245,-0.607,1.042,-0.732,-162.916,29.405,20.244,122.0,0.0
37296,-2.000,0.874,-1.584,-250.137,52.397,72.267,115.0,96.0
37345,-2.000,-0.284,-1.801,-250.137,-120.137,98.809,119.0,96.0
37393,-1.094,-0.488,-1.182,-197.427,-59.496,96.786,114.0,72.0
37441,-0.486,-0.638,-0.452,-130.931,-1.969,46.863,110.0,79.0
37489,0.222,-0.864,-0.018,-61.130,-41.519,-29.878,104.0,87.0
37540,0.594,-0.801,-0.230,37.992,-36.710,-137.275,104.0,86.0
37590,0.073,-0.851,-0.582,89.886,30.550,-173.641,110.0,101.0
37636,-1.766,-0.576,-0.735,101.153,160.954,-127.626,50.0,97.0
37686,-2.000,-0.441,-0.533,109.695,140.290,-56.015,124.0,94.0
37736,-2.000,-0.064,-0.375,96.191,-12.420,-39.122,124.0,97.0
37786,-1.319,0.163,-0.654,75.901,-10.038,-27.847,121.0,98.0
37836,-0.912,0.330,-0.238,36.420,-6.214,1.855,120.0,101.0
37886,-0.395,0.821,-0.084,-7.962,-26.405,13.550,117.0,102.0
37939,-0.141,0.759,-0.166,-54.115,-1.893,44.969,118.0,100.0
37985,-0.452,0.805,-0.398,-118.053,57.176,74.916,51.0,99.0
38035,-1.736,0.413,-0.961,-189.550,66.389,86.061,124.0,95.0
38084,-2.000,-0.187,-1.446,-215.313,-63.985,78.710,119.0,95.0
38134,-1.817,-0.465,-1.186,-210.878,-85.397,97.420,114.0,97.0
38183,-0.520,-0.624,-0.640,-121.595,-32.679,47.878,109.0,101.0
38234,0.220,-0.758,-0.158,-61.511,15.435,-11.298,105.0,103.0
38282,0.497,-0.909,0.052,21.947,6.107,-94.679,104.0,99.0
38335,0.172,-0.719,-0.259,93.916,-19.206,-148.450,108.0,108.0
38384,-1.029,-0.558,-0.740,122.237,46.962,-117.756,115.0,89.0
38435,-2.000,-0.301,-1.158,143.542,182.328,-33.313,150.0,85.0
38487,-2.000,-0.107,-0.323,94.992,79.695,0.038,151.0,86.0
38537,-1.308,0.058,-0.511,79.473,-46.740,-12.542,149.0,85.0
38588,-0.574,0.388,-0.314,68.076,14.198,2.947,147.0,87.0
38639,-0.424,0.688,-0.096,42.840,13.763,1.626,145.0,90.0
38690,-0.343,0.770,-0.096,-23.122,3.450,23.176,146.0,90.0
38742,-0.621,0.672,-0.346,-118.023,1.992,60.885,148.0,89.0
38796,-2.000,0.391,-1.460,-176.084,26.084,77.740,150.0,90.0
38846,-2.000,-0.519,-1.567,-182.817,-38.618,89.275,149.0,68.0
38897,-1.488,-0.487,-0.968,-169.466,-67.298,51.115,143.0,101.0
38949,-0.455,-0.437,-0.477,-139.382,-44.260,5.947,136.0,108.0
39001,0.307,-0.659,0.042,-95.542,-39.336,-25.687,132.0,112.0
39053,0.799,-0.697,-0.132,14.427,-29.450,-83.756,131.0,110.0
39104,0.466,-0.492,-0.499,99.466,100.870,-101.344,136.0,104.0
39155,-1.757,-0.565,-0.647,138.679,106.947,-75.084,144.0,98.0
39211,-2.000,-0.623,-1.276,152.519,35.786,-30.046,148.0,94.0
39306,-1.226,-0.048,-0.536,91.176,-5.740,14.008,145.0,107.0
39357,-0.685,0.361,-0.234,100.687,-17.443,22.145,141.0,104.0
39409,-0.324,0.659,0.012,39.305,-28.069,7.794,139.0,104.0
39460,-0.034,0.960,-0.026,-40.084,-70.443,-8.069,139.0,103.0
39513,0.076,1.219,-0.647,-154.420,-30.137,-10.260,141.0,102.0
39564,-1.041,1.126,-1.729,-250.137,88.359,19.557,146.0,98.0
39616,-2.000,-0.193,-2.000,-250.137,-57.115,39.687,148.0,97.0
39670,-1.772,-0.675,-2.000,-250.137,-63.389,70.740,144.0,99.0
39723,-0.671,-0.585,-0.717,-202.137,15.252,41.672,138.0,105.0
39780,0.081,-0.690,-0.185,-142.313,16.344,-4.565,135.0,0.0
39833,0.395,-0.708,0.209,-51.344,12.000,-62.344,132.0,139.0
39889,0.272,-0.609,0.001,37.901,-9.206,-110.542,136.0,0.0
39933,-1.533,-0.927,-1.116,117.420,19.855,-180.458,143.0,0.0
39991,-2.000,-0.267,-1.721,96.031,115.763,-111.977,148.0,0.0
40035,-2.000,0.073,-0.470,0.023,-11.718,-25.618,148.0,0.0
40095,-1.120,0.302,-0.476,-10.664,-66.779,-37.511,145.0,0.0
40139,-0.613,0.380,-0.292,-0.397,-43.275,5.511,142.0,0.0
40190,-0.353,0.577,-0.135,1.748,-27.802,11.481,140.0,102.0
40243,-0.090,0.982,-0.080,-64.542,-15.992,-8.947,140.0,104.0
40295,-0.459,0.826,-0.634,-204.183,-43.916,-44.252,143.0,105.0
40347,-1.279,0.719,-1.833,-250.137,-12.305,-47.260,146.0,105.0
40397,-2.000,-0.231,-2.000,-250.137,-90.702,-12.870,51.0,161.0
40450,-1.820,-0.377,-1.765,-250.137,-74.282,57.168,144.0,98.0
40501,-0.769,-0.509,-0.906,-213.107,-15.557,69.779,138.0,104.0
40556,0.175,-0.895,-0.492,-155.031,-9.992,28.588,133.0,111.0
40608,0.628,-0.859,-0.222,-54.298,18.359,-47.115,132.0,111.0
40660,0.364,-0.578,-0.071,36.252,30.565,-108.176,135.0,109.0
40712,-0.884,-0.393,-0.299,44.008,1.977,-139.298,143.0,99.0
40770,-2.000,-0.099,-0.993,56.603,84.656,-48.191,148.0,196.0
40825,-2.000,0.029,-0.434,45.817,-19.534,-7.534,149.0,161.0
40883,-1.315,0.166,-0.425,2.244,-29.740,-9.458,147.0,196.0
40940,-0.781,0.246,-0.214,1.489,-38.244,3.160,142.0,192.0
40995,-0.158,0.571,-0.156,-45.962,-41.107,-21.305,140.0,103.0
41047,0.084,0.420,-0.307,-83.634,11.282,-26.328,141.0,102.0
41099,-0.430,0.492,-0.239,-129.496,49.000,7.779,144.0,98.0
41150,-1.396,0.353,-0.906,-158.763,56.664,12.924,132.0,93.0
41198,-2.000,-0.269,-1.427,-181.443,-26.802,51.359,82.0,92.0
41245,-1.817,-0.336,-1.064,-179.107,-73.733,70.267,76.0,95.0
41293,-0.907,-0.468,-0.765,-138.886,-49.145,36.458,68.0,100.0
41340,-0.263,-0.517,-0.360,-96.496,-32.626,4.641,54.0,106.0
41395,0.418,-0.798,-0.112,-42.863,-28.366,-60.580,135.0,107.0
41443,0.580,-0.669,-0.124,32.718,-3.809,-97.840,61.0,105.0
41490,-0.028,-0.697,-0.092,76.046,26.153,-120.122,67.0,99.0
41538,-2.000,-0.978,-1.219,177.603,109.947,-174.206,73.0,94.0
41585,-2.000,-0.236,-0.902,71.015,213.107,-9.084,76.0,93.0
41632,-2.000,-0.225,-0.184,62.901,12.305,18.290,62.0,95.0
41679,-1.020,0.010,-0.422,73.252,-74.832,24.534,57.0,97.0
41726,-0.370,0.370,-0.281,72.305,-13.466,39.985,64.0,100.0
41774,-0.116,0.558,-0.092,39.366,30.817,38.649,60.0,102.0
41825,-0.198,0.391,0.011,-24.855,24.229,30.061,71.0,101.0
41915,-1.361,0.463,-0.904,-102.313,43.115,38.191,76.0,95.0
41963,-2.000,-0.123,-1.356,-162.565,40.580,59.237,82.0,94.0
42011,-2.000,-0.181,-0.964,-178.214,-80.015,83.611,81.0,98.0
42060,-0.846,-0.480,-0.669,-151.031,-93.252,74.069,77.0,104.0
42110,0.065,-0.688,-0.165,-115.824,-68.954,34.855,98.0,108.0
42160,0.596,-1.038,-0.137,-20.901,-77.527,-44.954,100.0,110.0
42207,0.559,-0.837,-0.350,74.992,-46.511,-105.489,45.0,107.0
42259,-0.490,-0.720,-0.421,112.695,18.557,-138.733,115.0,77.0
42308,-2.000,-0.589,-1.073,160.466,156.458,-166.145,127.0,68.0
42359,-2.000,-0.277,-0.713,100.153,153.534,-36.336,132.0,93.0
42411,-1.714,0.080,-0.285,66.977,-20.542,-10.328,129.0,98.0
42462,-0.690,0.406,-0.241,70.473,-7.802,6.557,124.0,100.0
42513,-0.440,0.654,0.013,43.046,7.802,19.573,120.0,102.0
42561,-0.196,0.611,0.021,-1.069,-40.015,28.550,79.0,101.0
42612,-0.141,0.785,-0.258,-75.511,-38.870,17.405,119.0,99.0
42662,-0.923,0.831,-1.171,-191.481,49.519,33.557,126.0,95.0
42713,-2.000,-0.310,-1.784,-250.137,18.870,46.481,56.0,95.0
42760,-2.000,-0.373,-1.631,-243.878,-117.779,77.359,59.0,97.0
42809,-0.856,-0.618,-1.050,-195.893,-49.092,74.489,116.0,77.0
42860,-0.131,-0.608,-0.399,-134.298,-13.977,45.221,110.0,109.0
42911,0.429,-0.785,-0.053,-68.634,-15.168,-8.031,110.0,112.0
42960,0.488,-0.675,-0.062,5.214,-18.267,-70.595,110.0,84.0
43012,-0.144,-0.597,-0.231,47.450,-1.687,-109.466,115.0,105.0
43061,-1.640,-0.782,-1.172,102.260,63.168,-156.534,121.0,70.0
43121,-2.000,-0.101,-1.271,86.809,137.985,-73.985,122.0,0.0
43177,-1.815,0.081,-0.330,9.641,-16.412,-17.519,119.0,0.0
43219,-0.866,0.289,-0.282,16.053,-39.519,0.771,113.0,0.0
43270,-0.570,0.453,-0.070,18.031,-18.817,14.191,110.0,101.0
43320,-0.390,0.885,0.107,-17.221,-39.450,14.901,104.0,102.0
43370,-0.328,1.041,-0.115,-107.595,-66.992,15.573,102.0,102.0
43421,-0.716,0.927,-0.939,-213.992,-48.412,30.198,123.0,102.0
43472,-2.000,0.489,-1.955,-250.137,16.748,33.198,50.0,177.0
43531,-2.000,-0.099,-1.702,-250.137,-55.252,67.458,101.0,99.0
43579,-0.958,-0.621,-1.134,-232.595,-22.038,35.130,96.0,104.0
43628,-0.285,-0.554,-0.548,-187.435,34.901,10.824,91.0,111.0
43678,0.129,-0.671,-0.077,-134.794,25.153,-31.382,87.0,127.0
43727,0.335,-0.663,-0.090,-61.122,20.725,-82.550,88.0,119.0
43774,0.031,-0.586,0.023,11.817,6.137,-88.046,93.0,92.0
43824,-0.789,-0.669,-0.529,76.244,20.542,-119.855,99.0,102.0
43873,-2.000,-0.469,-1.145,106.924,108.634,-136.641,107.0,108.0
43927,-2.000,-0.065,-0.899,47.603,88.176,-76.206,132.0,107.0
43978,-1.598,0.055,-0.420,-32.489,-69.656,-44.748,130.0,112.0
44028,-0.588,0.221,-0.353,-18.359,-61.122,-34.359,126.0,101.0
44080,-0.343,0.561,-0.134,-26.023,-12.023,-22.130,123.0,103.0
44130,-0.412,0.656,-0.118,-73.916,-30.672,-13.496,122.0,104.0
44181,-0.486,0.728,-0.549,-168.702,-43.885,2.076,124.0,121.0
44237,-0.901,0.567,-1.233,-250.137,-26.183,26.565,126.0,0.0
44288,-2.000,-0.303,-1.862,-250.137,-54.084,58.153,115.0,94.0
44336,-1.711,-0.494,-1.721,-239.336,-95.595,76.122,118.0,76.0
44387,-0.750,-0.635,-1.038,-201.863,-27.534,41.603,116.0,73.0
44478,0.460,-0.895,-0.093,-91.183,-16.656,-52.260,111.0,81.0
44527,0.619,-0.796,-0.082,-3.626,-9.550,-105.229,112.0,81.0
44575,0.065,-0.758,-0.157,54.473,35.595,-143.305,116.0,80.0
44625,-1.621,-1.239,-1.053,126.084,101.893,-155.908,122.0,94.0
44682,-2.000,-0.607,-1.073,85.802,162.397,-75.031,128.0,0.0
44725,-2.000,-0.138,-0.493,55.679,-8.115,-35.779,141.0,0.0
44780,-1.202,-0.009,-0.574,55.038,-26.672,-8.450,124.0,0.0
44834,-0.584,0.355,-0.292,60.641,14.153,31.771,123.0,103.0
44884,-0.319,0.632,0.022,24.977,-8.328,44.664,120.0,102.0
44935,-0.135,0.807,-0.093,-43.290,-13.802,48.748,122.0,100.0
44984,-0.615,0.729,-0.497,-152.656,16.779,63.908,120.0,97.0
45035,-2.000,0.012,-1.344,-184.855,12.977,63.069,127.0,94.0
45084,-2.000,-0.576,-1.621,-193.786,-60.947,71.237,120.0,95.0
45134,-1.271,-0.725,-1.104,-193.931,-50.931,43.641,115.0,100.0
45185,-0.408,-0.551,-0.668,-142.634,-28.198,7.885,110.0,102.0
45237,0.274,-0.598,-0.132,-86.802,-8.313,-28.153,107.0,91.0
45286,0.512,-0.667,0.087,-9.137,-14.366,-71.863,107.0,101.0
45335,0.168,-0.792,0.000,48.702,-30.656,-98.382,118.0,93.0
45386,-0.844,-0.959,-1.026,119.450,13.901,-125.809,145.0,87.0
45437,-2.000,-0.290,-1.467,159.779,238.863,-14.878,152.0,86.0
45489,-2.000,-0.140,-0.228,66.573,28.344,12.580,153.0,86.0
45540,-1.129,-0.019,-0.537,36.695,-76.405,4.458,148.0,87.0
45591,-0.562,0.331,-0.234,59.679,12.023,25.977,145.0,93.0
45642,-0.395,0.758,0.162,41.298,-9.145,29.023,143.0,92.0
45697,-0.233,0.809,-0.036,-8.069,-50.405,28.809,143.0,94.0
45747,-0.488,0.743,-0.603,-95.786,0.870,42.153,146.0,71.0
45798,-2.000,0.411,-1.521,-179.962,72.557,67.092,149.0,93.0
45850,-2.000,-0.593,-1.484,-226.763,-53.130,69.931,148.0,96.0
45901,-1.364,-0.530,-1.117,-206.015,-20.069,37.931,143.0,101.0
45954,-0.560,-0.505,-0.370,-160.298,-3.198,9.053,138.0,105.0
46005,0.193,-0.570,0.008,-73.626,-18.275,-46.733,134.0,109.0
46055,0.459,-0.553,-0.013,-1.977,1.687,-97.130,135.0,80.0
46109,0.055,-0.513,-0.258,40.985,24.763,-95.817,140.0,101.0
46161,-1.306,-0.641,-1.133,127.702,43.168,-52.160,146.0,96.0
46213,-2.000,-0.410,-0.961,119.099,85.130,9.878,150.0,95.0
46271,-1.959,-0.236,-0.358,65.214,-7.107,12.588,150.0,0.0
46323,-0.984,0.004,-0.423,84.847,-46.695,10.221,147.0,102.0
46374,-0.527,0.392,-0.269,98.191,-17.229,28.718,144.0,99.0
46427,-0.396,0.687,0.037,75.107,-33.626,36.000,143.0,99.0
46478,-0.309,1.169,0.258,1.458,-95.214,49.588,144.0,98.0
46524,-0.135,1.984,-0.235,-85.687,-127.046,46.305,50.0,95.0
46578,-0.966,0.578,-1.070,-123.237,-81.336,-32.008,151.0,90.0
46630,-2.000,-1.920,-0.731,-109.145,-87.588,-170.267,155.0,86.0
46683,-0.689,-2.000,-1.107,-96.427,-214.466,-250.137,160.0,88.0
46740,-0.130,-0.787,-0.168,-115.023,-177.244,-198.794,0.0,139.0
46794,-0.413,-1.324,-0.219,-106.519,-250.137,-250.137,142.0,148.0
46852,0.648,-0.761,-0.309,-51.290,-168.985,-57.244,137.0,0.0
46909,-0.170,-1.020,0.559,-43.611,36.229,-25.473,135.0,0.0
46965,-0.486,-0.987,0.754,-20.153,-29.832,-7.382,129.0,0.0
47023,0.123,-1.197,0.489,-8.321,-64.893,11.405,128.0,155.0
47122,-0.131,-1.046,0.221,-19.824,-14.916,5.863,125.0,0.0
47178,0.079,-0.921,0.215,-27.893,-54.168,0.214,125.0,0.0
47236,0.169,-0.686,0.125,-21.817,-10.489,-8.053,125.0,0.0
47290,0.051,-0.923,0.085,-12.771,-15.359,-2.313,125.0,170.0
47346,0.098,-1.019,-0.011,-20.840,-5.626,-9.076,126.0,0.0
47404,0.026,-1.106,0.140,-7.916,14.473,-4.664,128.0,0.0
47460,-0.180,-1.083,0.212,1.374,42.641,0.275,130.0,0.0
47520,-0.339,-0.985,0.209,5.863,48.511,-0.374,131.0,0.0
47572,-0.352,-0.963,0.160,4.687,3.031,11.466,132.0,121.0
47625,-0.227,-0.892,0.118,-1.634,21.534,5.656,133.0,119.0
47677,-0.254,-0.953,0.194,1.702,13.290,14.718,129.0,119.0
47733,-0.246,-1.017,0.242,5.076,10.321,12.954,130.0,198.0
47791,-0.231,-0.979,0.235,11.794,12.053,15.130,129.0,0.0
47847,-0.265,-0.951,0.225,11.794,2.962,12.115,129.0,199.0
47899,-0.260,-0.954,0.232,12.321,-13.183,8.916,129.0,126.0
47952,-0.332,-0.995,0.133,7.847,-4.718,10.870,128.0,127.0
48010,-0.225,-0.980,0.143,-8.878,-5.023,21.855,131.0,152.0
48062,-0.404,-1.167,0.700,-3.595,22.656,16.496,129.0,133.0
48116,-0.761,-1.582,1.342,36.947,10.305,21.695,129.0,154.0
48175,-0.835,-1.455,1.146,140.664,-34.252,59.519,0.0,160.0
48234,-0.426,-1.091,0.491,170.939,12.931,105.160,0.0,165.0
48294,-0.250,-0.828,0.230,166.359,-59.282,65.618,0.0,184.0
48355,0.382,-0.453,-0.899,115.351,-100.931,43.298,0.0,0.0
48415,-0.239,-0.084,-0.159,-4.168,44.191,27.863,0.0,178.0
48475,-0.544,-0.436,1.111,6.206,1.695,24.496,0.0,178.0
48537,-0.213,-0.633,0.938,42.466,33.580,-0.809,0.0,166.0
48596,-0.555,-0.171,0.313,26.084,41.107,6.779,0.0,191.0
48657,-0.536,-0.185,0.095,-56.969,-12.847,-28.244,0.0,190.0
48717,-0.282,-0.796,1.279,-62.137,-82.649,-10.321,0.0,181.0
48777,-0.083,-0.721,1.094,7.344,33.878,-43.008,0.0,177.0
48836,-0.892,-0.384,0.635,35.229,109.046,-2.611,0.0,166.0
48896,-0.815,-0.298,0.541,-9.290,-28.740,2.092,0.0,178.0
48955,-0.223,-0.490,0.609,-24.397,-37.336,-4.107,0.0,176.0
49018,-0.367,-0.528,0.834,-6.031,19.863,-3.901,0.0,187.0
49079,-0.537,-0.598,0.773,2.550,-20.641,-18.626,0.0,177.0
49139,-0.358,-0.485,0.695,-6.198,-21.481,11.122,0.0,189.0
49199,-0.288,-0.518,0.693,3.672,15.023,-18.855,0.0,175.0
49259,-0.742,-0.448,0.661,-3.779,20.817,-18.550,0.0,191.0
49318,-0.811,-0.318,0.574,-20.504,-26.817,1.840,0.0,176.0
49378,-0.506,-0.583,0.645,-33.275,-54.504,32.084,0.0,165.0
49437,0.193,-0.702,0.842,-39.298,-44.985,1.008,0.0,168.0
49496,0.800,-1.188,1.267,1.420,-46.649,-33.321,0.0,161.0
49558,1.165,-1.311,0.373,61.840,69.893,-121.870,0.0,155.0
49614,-0.238,-1.559,-0.478,56.809,190.214,-226.802,0.0,124.0
49671,-2.000,-0.459,-0.207,-18.817,189.824,-250.137,0.0,108.0
49726,-1.582,-0.352,0.373,-78.359,-22.267,-127.107,0.0,102.0
49781,-0.752,-0.762,0.770,-81.313,12.824,-55.977,192.0,104.0
49836,-0.606,-1.455,1.380,-25.435,-20.176,51.977,174.0,102.0
49890,0.087,-0.929,0.866,14.840,-65.649,-4.313,168.0,105.0
49947,0.204,-0.720,0.400,14.496,-53.916,-19.924,166.0,172.0
50044,0.497,-1.198,0.312,25.908,5.748,-26.748,168.0,106.0
50102,-0.264,-0.592,0.334,5.115,55.053,-64.702,170.0,107.0
50156,-0.319,-0.552,0.364,-19.870,8.588,-36.618,171.0,108.0
50214,0.204,-0.990,0.414,-9.916,18.580,8.664,176.0,164.0
50270,-0.123,-0.734,0.493,-14.252,90.817,-11.641,177.0,127.0
50326,-0.493,-0.591,0.446,-37.298,51.550,-27.939,198.0,124.0
50382,0.110,-1.204,0.647,-33.069,-50.053,-31.962,199.0,104.0
50442,0.288,-1.181,0.766,-6.237,-8.863,0.489,0.0,162.0
50499,-0.186,-0.736,0.529,17.221,45.992,-29.382,0.0,147.0
50567,-0.755,-0.413,0.131,-12.687,34.679,-9.466,0.0,160.0
50627,-0.576,-0.886,0.511,-51.695,-119.313,20.664,200.0,0.0
50682,0.756,-1.185,0.377,-25.344,-160.344,22.802,172.0,153.0
50740,0.822,-1.142,0.032,-5.870,11.863,-35.580,159.0,178.0
50793,-0.707,-0.695,0.043,-20.328,66.252,-2.359,177.0,104.0
50850,-0.651,-0.651,0.393,-74.107,-90.382,8.542,156.0,189.0
50902,0.684,-1.443,0.665,-36.802,-188.664,48.550,147.0,106.0
50958,1.568,-1.145,0.119,21.092,-6.931,-29.557,148.0,184.0
51015,0.204,-1.158,0.028,27.176,118.626,-42.336,151.0,184.0
51076,-0.652,-0.776,0.197,-1.565,6.229,-32.321,154.0,0.0
51133,0.090,-0.890,0.055,-29.771,-60.359,-16.718,153.0,0.0
51177,0.593,-1.207,0.486,-15.893,-2.695,22.947,152.0,0.0
51232,0.667,-1.095,0.457,13.244,29.244,-22.237,153.0,177.0
51289,0.266,-0.904,0.117,19.229,71.534,-34.939,155.0,177.0
51345,0.114,-0.850,0.194,-2.046,71.656,-32.885,159.0,167.0
51402,0.670,-1.237,0.447,18.366,65.695,-4.954,176.0,166.0
51463,0.811,-1.181,0.248,70.534,157.061,-28.084,0.0,0.0
51523,0.224,-0.894,-0.107,101.282,237.939,-38.718,0.0,153.0
51577,-0.317,-0.836,-0.436,45.954,244.977,-130.557,124.0,181.0
51639,-1.789,-1.167,0.055,-17.595,112.481,-115.695,0.0,0.0
51681,-1.353,-0.374,0.840,-73.725,-73.435,-65.214,122.0,0.0
51736,-0.217,-0.874,0.835,-34.000,-134.847,-5.588,124.0,0.0
51778,0.882,-1.077,0.713,21.191,-51.420,73.282,115.0,0.0
51830,0.831,-1.209,0.551,42.489,-14.893,26.412,114.0,149.0
51884,0.546,-0.709,0.216,16.137,38.504,-40.160,113.0,150.0
51937,0.173,-0.965,0.100,-0.298,-6.710,-61.321,117.0,168.0
51995,-0.036,-0.752,0.454,-36.863,-28.977,-42.290,116.0,0.0
52037,-0.024,-0.712,0.924,-21.702,-67.924,-57.519,118.0,0.0
52093,0.457,-1.097,0.757,0.992,-72.397,-36.389,125.0,0.0
52135,0.456,-0.706,0.461,28.565,41.015,-4.527,117.0,0.0
52191,0.217,-0.885,0.284,25.313,26.687,-6.427,118.0,0.0
52233,0.310,-0.591,0.192,-10.603,-18.794,-7.519,122.0,0.0
52289,0.549,-0.680,0.154,-32.939,-28.580,-33.756,122.0,0.0
52333,0.351,-1.126,0.397,-29.969,22.153,-45.374,151.0,0.0
52391,-0.177,-0.644,0.815,-17.237,2.580,8.847,123.0,0.0
52434,0.224,-0.950,0.564,-9.588,-94.481,34.832,123.0,0.0
52490,0.587,-0.893,0.426,4.809,-65.870,29.542,122.0,0.0
52532,0.666,-0.919,0.141,7.939,48.962,27.427,120.0,0.0
52588,0.362,-0.771,0.049,-1.939,89.206,24.031,120.0,0.0
52630,0.202,-0.631,0.392,-46.595,40.656,15.275,118.0,0.0
52683,0.134,-1.174,0.875,-45.237,-76.336,12.336,117.0,160.0
52780,0.941,-0.980,0.050,32.038,33.420,-17.107,116.0,153.0
52833,0.178,-0.518,0.107,7.954,127.023,12.435,118.0,160.0
52889,0.111,-0.807,-0.031,-7.870,18.908,-9.450,114.0,158.0
52942,0.222,-0.852,0.274,-59.756,-44.679,-21.168,118.0,161.0
52997,0.463,-1.153,0.646,-50.008,-15.985,4.023,117.0,164.0
53052,0.321,-1.078,0.990,1.389,22.924,10.802,117.0,0.0
53094,0.468,-0.846,0.735,49.916,87.847,109.405,120.0,0.0
53150,0.269,-1.668,1.179,99.947,147.855,216.763,116.0,0.0
53211,-0.015,-1.585,0.762,229.908,153.191,223.489,0.0,0.0
53271,-0.185,-0.486,0.050,215.908,220.122,146.672,0.0,0.0
53331,-0.177,-0.294,-0.192,137.886,137.840,154.206,0.0,0.0
53395,-0.124,-0.120,-0.072,9.824,-63.359,-94.000,0.0,0.0
53456,-0.969,-0.364,0.677,-26.366,-7.374,-98.336,0.0,0.0
53517,-1.085,-0.386,0.737,41.542,117.076,-17.947,0.0,0.0
53577,-0.929,-0.571,0.698,7.664,97.824,51.725,0.0,0.0
53638,-0.453,-0.378,0.746,-5.634,-33.855,12.511,0.0,0.0
53698,-0.249,-0.462,0.394,11.382,-65.534,-46.481,0.0,0.0
53745,-0.752,-0.410,0.322,7.389,32.916,-37.198,0.0,0.0
53792,-1.164,-0.190,0.264,-4.275,74.756,-1.740,0.0,0.0
53838,-1.089,-0.115,0.522,-62.115,-15.519,-3.794,0.0,0.0
53906,-0.580,-0.657,0.720,-55.542,-91.458,-6.893,0.0,0.0
53966,-0.145,-0.587,0.754,20.359,-10.466,-21.954,0.0,0.0
54013,-0.696,-0.644,0.390,36.840,66.321,-12.954,0.0,0.0
54060,-0.981,-0.229,0.316,-5.427,-31.710,-34.878,0.0,0.0
54107,-0.978,-0.191,0.364,-59.145,-74.443,-46.947,0.0,0.0
54154,-0.864,-0.517,0.699,-44.069,-61.137,-5.336,0.0,0.0
54201,-0.555,-0.656,0.883,-4.122,4.557,28.015,0.0,0.0
54247,-0.467,-0.761,0.737,15.061,35.260,44.504,0.0,0.0
54294,-0.346,-0.624,0.380,10.870,-10.099,16.565,0.0,0.0
54362,-0.139,-0.583,0.127,-22.809,-55.969,-35.176,0.0,0.0
54422,-0.605,-0.413,0.368,-31.046,86.198,-48.130,0.0,0.0
54469,-1.313,-0.483,1.034,-13.740,75.405,19.824,0.0,0.0
54516,-1.154,-0.544,0.945,4.412,-36.756,33.893,0.0,0.0
54562,-0.368,-0.742,0.372,13.290,-77.573,37.458,0.0,0.0
54609,-0.014,-0.480,0.042,23.168,-8.328,7.206,0.0,0.0
54657,-0.281,-0.531,0.089,-27.137,28.191,-18.046,0.0,0.0
54704,-0.844,-0.559,0.283,-35.435,43.275,-16.336,0.0,0.0
54750,-1.315,-0.297,0.679,-39.702,74.298,47.305,0.0,0.0
54817,-1.832,-0.163,0.984,-20.191,109.977,98.542,0.0,0.0
54861,-1.919,-0.619,0.952,8.137,106.863,221.718,141.0,0.0
54913,-1.614,-0.981,0.827,23.832,38.863,250.130,134.0,111.0
54965,-0.766,-1.004,0.387,59.702,-13.969,250.130,125.0,119.0
55017,0.089,-0.791,-0.159,94.527,-3.115,189.214,119.0,119.0
55067,0.279,-0.478,-0.359,61.282,-0.313,99.053,116.0,99.0
55117,-0.018,0.280,-0.304,-4.130,-2.534,25.496,118.0,98.0
55173,-0.628,0.772,0.060,-25.565,47.496,-39.527,0.0,99.0
55228,-1.434,1.179,0.240,3.779,44.374,-49.374,122.0,123.0
55279,-1.446,0.912,0.088,22.672,41.183,15.802,122.0,122.0
55331,-0.902,0.091,-0.056,-14.763,34.550,39.794,120.0,125.0
55384,-0.514,-0.061,0.250,-30.122,-3.611,-5.206,119.0,126.0
55479,-1.041,0.695,0.114,28.786,-43.313,-28.237,120.0,125.0
55531,-1.162,0.799,-0.046,15.588,18.992,31.908,120.0,125.0
55583,-0.798,0.436,0.031,-8.817,14.260,47.389,119.0,129.0
55635,-0.587,0.069,0.235,-31.336,-20.725,-17.557,118.0,126.0
55688,-0.700,0.252,0.154,4.374,-58.649,-41.229,119.0,123.0
55743,-0.969,0.790,-0.095,27.626,3.336,-23.076,119.0,122.0
55795,-1.219,0.618,-0.110,5.992,54.954,40.771,119.0,124.0
55847,-0.774,0.199,0.169,-28.504,28.389,35.466,119.0,127.0
55900,-0.620,-0.053,0.357,-22.634,-41.275,-22.427,119.0,126.0
55952,-0.717,0.449,0.236,34.718,-44.565,-38.779,120.0,124.0
56004,-1.260,0.768,0.001,32.290,36.130,-5.397,121.0,123.0
56055,-1.181,0.456,-0.045,13.908,27.458,39.977,121.0,124.0
56108,-0.655,0.413,0.010,-8.565,2.565,12.542,120.0,126.0
56164,-0.623,0.201,0.052,-10.702,-19.550,-16.733,120.0,125.0
56216,-0.806,0.413,-0.101,9.573,2.969,-19.298,121.0,124.0
56268,-1.136,0.672,-0.021,-3.863,41.939,14.008,121.0,124.0
56320,-0.854,0.474,0.048,-3.298,26.863,12.504,121.0,116.0
56372,-0.976,0.294,0.120,-21.992,-6.901,-7.916,122.0,118.0
56424,-0.758,0.240,0.119,-5.863,-26.214,-2.641,122.0,124.0
56476,-0.758,0.347,0.108,10.870,6.290,-4.573,122.0,124.0
56532,-0.731,0.226,0.101,24.641,18.015,-15.305,0.0,117.0
56585,-0.357,0.009,0.142,28.550,8.137,-89.298,124.0,121.0
56640,-0.612,-0.048,0.470,6.641,-33.687,-179.008,126.0,115.0
56692,-0.915,-0.724,0.419,32.939,-128.870,-213.901,131.0,110.0
56744,-0.735,-0.726,0.295,57.595,-100.015,-235.756,138.0,105.0
56797,-0.872,-0.721,-0.133,75.863,-64.595,-250.137,146.0,100.0
56858,-1.437,-0.739,0.023,8.901,-21.947,-250.137,0.0,0.0
56906,-1.483,-1.145,0.101,25.786,-56.252,-250.137,0.0,0.0
56953,-1.093,-0.866,0.113,13.160,-83.145,-232.740,0.0,0.0
57015,-0.906,-0.493,0.476,-24.038,-18.023,-112.573,0.0,0.0
57079,-0.670,-0.764,0.680,-40.267,-77.038,19.328,0.0,0.0
57140,-0.059,-1.383,0.617,-19.603,-108.832,28.947,0.0,0.0
57201,0.304,-0.922,0.405,17.260,-33.092,9.748,0.0,0.0
57263,0.010,-0.975,0.293,15.359,22.611,-11.076,0.0,0.0
57323,-0.378,-1.022,0.392,18.160,64.557,26.588,0.0,0.0
57384,-0.400,-0.886,0.602,19.939,-0.458,3.748,0.0,0.0
57451,0.014,-0.819,0.428,26.656,-57.718,13.504,0.0,0.0
57510,0.239,-0.976,0.237,11.634,-24.893,-20.847,0.0,0.0
57571,-0.227,-0.772,0.477,11.053,17.046,-4.160,0.0,0.0
57633,-0.340,-0.830,0.455,11.733,22.420,0.855,0.0,0.0
57694,-0.361,-0.792,0.674,-2.191,-31.527,20.763,0.0,0.0
57754,0.067,-0.885,0.439,-1.099,-85.641,-10.466,0.0,0.0
57814,0.142,-0.889,0.448,5.985,9.710,1.351,0.0,0.0
57872,-0.120,-0.835,0.489,15.954,48.947,-9.397,169.0,0.0
57932,-0.032,-0.829,0.470,7.534,12.687,-4.702,0.0,0.0
57993,-0.006,-0.800,0.473,2.649,-48.634,-22.023,0.0,0.0
58052,-0.184,-0.943,0.584,-0.153,8.458,-26.802,0.0,0.0
58113,-0.348,-0.763,0.578,15.840,38.290,-3.863,0.0,0.0
58176,-0.236,-0.806,0.480,10.481,-18.374,25.489,0.0,0.0
58236,0.163,-0.718,0.346,-3.603,-91.786,16.511,0.0,0.0
58339,-0.121,-0.963,0.505,-23.176,54.221,-30.725,0.0,0.0
58399,-0.545,-0.917,0.832,-0.573,24.649,2.832,0.0,0.0
58460,-0.324,-0.608,0.521,5.740,-27.504,40.107,0.0,0.0
58518,0.243,-0.896,0.472,-26.183,-66.779,64.901,174.0,0.0
58577,0.604,-0.985,0.117,-13.443,-27.260,-19.122,172.0,0.0
58636,-0.397,-0.702,0.323,-26.672,62.718,-13.191,171.0,0.0
58696,-1.109,-0.825,0.032,-37.160,-71.756,39.092,0.0,0.0
58756,-0.684,-0.900,-0.446,-109.366,-140.618,48.229,133.0,0.0
58802,-0.630,-1.329,-0.096,-125.107,-177.924,113.435,195.0,0.0
58858,-0.400,-1.922,0.067,-145.412,-250.137,147.000,119.0,0.0
58899,-0.121,-1.477,0.018,-65.145,-250.137,101.328,109.0,0.0
58954,0.625,-1.427,-0.390,24.924,-250.137,155.168,157.0,144.0
59005,1.224,-1.085,-0.339,43.557,-104.702,96.176,150.0,101.0
59058,0.243,-0.994,0.187,59.321,-73.931,127.817,149.0,101.0
59110,-0.297,-0.662,0.131,-13.397,20.313,-28.580,148.0,102.0
59161,-0.599,-1.106,0.430,-27.626,-21.626,-22.397,147.0,103.0
59211,-0.335,-0.999,0.532,-3.168,-122.374,25.870,145.0,105.0
59262,0.223,-1.023,0.345,6.092,-68.450,13.359,142.0,105.0
59315,0.270,-1.017,0.230,2.679,13.962,-46.481,142.0,103.0
59366,-0.235,-0.847,0.354,1.427,3.542,-47.969,143.0,102.0
59418,-0.417,-0.808,0.309,-13.504,-1.290,-33.809,145.0,103.0
59469,-0.229,-0.812,0.467,-12.405,-4.481,-3.435,146.0,103.0
59522,0.093,-0.994,0.533,-3.328,1.473,-9.733,146.0,101.0
59573,0.058,-1.004,0.445,2.672,13.023,-47.344,147.0,101.0
59628,-0.490,-0.831,0.451,4.153,30.214,-59.626,149.0,99.0
59680,-0.563,-0.767,0.207,2.305,-31.122,-4.855,149.0,100.0
59731,-0.185,-0.862,0.352,-22.992,-42.046,36.702,149.0,101.0
59784,0.437,-1.250,0.508,-1.763,-42.115,42.481,148.0,102.0
59836,0.302,-0.890,0.516,0.443,2.115,-16.221,148.0,102.0
59888,-0.363,-0.899,0.542,-1.130,-14.496,-53.832,150.0,100.0
59939,-0.492,-0.594,0.322,2.061,-16.908,-33.069,150.0,101.0
59992,-0.174,-0.774,-0.003,-15.985,28.641,9.573,150.0,102.0
60047,-0.138,-1.095,0.580,-35.336,-28.290,52.969,148.0,101.0
60099,0.284,-1.238,0.759,-17.954,-94.908,7.725,146.0,103.0
60151,0.649,-1.227,0.479,27.733,-86.344,-15.412,147.0,104.0
60208,0.111,-0.726,0.347,43.229,45.710,-19.763,150.0,170.0
60260,-0.677,-0.684,0.197,42.412,49.122,-16.748,153.0,107.0
60312,-0.641,-0.643,0.144,3.931,-18.802,-3.374,153.0,107.0
60368,0.000,-1.017,0.495,-18.206,-67.756,68.252,150.0,171.0
60422,0.772,-1.233,0.547,25.443,-52.168,36.641,148.0,112.0
60474,0.409,-0.894,0.391,37.985,76.168,3.611,150.0,105.0
60529,-0.860,-0.629,0.585,39.450,80.473,-0.153,146.0,104.0
60583,-1.169,-0.577,0.580,23.542,19.511,18.985,196.0,105.0
60636,-1.132,-1.242,0.984,27.969,23.229,144.672,146.0,108.0
60692,-0.861,-1.960,1.463,102.534,-17.580,250.130,0.0,119.0
60750,-0.465,-1.682,1.208,186.458,-51.863,250.130,0.0,158.0
60807,-0.311,-0.904,0.539,178.870,-81.237,229.695,0.0,122.0
60866,-0.165,-0.248,-0.168,133.107,-91.687,165.137,0.0,183.0
60926,0.212,-0.104,-0.279,87.740,-28.878,118.038,0.0,183.0
60989,-0.009,0.226,0.568,27.672,27.863,79.794,0.0,171.0
61090,-0.396,0.805,0.765,-22.427,-9.137,-21.855,0.0,173.0
61150,-0.575,-0.007,0.901,-30.931,-30.534,28.084,0.0,178.0
61211,0.231,-0.532,1.022,-2.198,-101.634,12.328,0.0,199.0
61271,0.469,0.374,0.492,39.550,-12.832,-92.504,0.0,184.0
61330,-0.970,0.805,0.699,10.160,110.382,-88.954,0.0,176.0
61389,-1.192,0.488,1.115,-10.107,-9.420,7.061,0.0,170.0
61450,-0.096,-0.033,1.063,5.252,-119.840,8.130,0.0,0.0
61510,0.401,0.479,0.419,41.008,19.130,-49.244,0.0,0.0
61574,-0.904,0.772,0.580,3.466,154.710,-28.160,0.0,198.0
61635,-0.857,0.101,0.998,-23.718,-51.481,15.908,0.0,0.0
61693,0.151,0.385,0.543,-13.160,-47.573,-25.336,0.0,166.0
61753,-0.403,0.450,0.624,-33.611,93.191,-31.550,0.0,167.0
61812,-0.934,0.280,0.866,-38.710,29.099,-12.573,0.0,181.0
61871,-0.424,0.145,0.858,-46.771,-21.313,7.351,0.0,165.0
61930,-0.362,0.293,0.622,-24.389,32.794,-24.519,0.0,176.0
61986,-0.784,0.331,0.606,-40.290,81.237,-2.649,0.0,123.0
62044,-0.868,-0.062,0.974,-70.053,-9.840,20.137,0.0,124.0
62103,-0.279,-0.134,0.973,-44.252,-42.519,3.763,0.0,124.0
62159,-0.357,-0.110,0.976,-18.786,14.221,-9.183,0.0,126.0
62216,-0.689,0.067,1.012,10.649,32.809,-12.885,0.0,124.0
62272,-1.299,0.318,1.897,33.351,9.527,44.489,0.0,123.0
62329,-1.364,0.042,1.822,164.603,-58.214,109.076,0.0,124.0
62388,-0.857,0.222,0.677,222.611,-48.748,155.832,0.0,168.0
62436,-0.726,0.253,0.086,165.389,-56.664,196.611,28.0,145.0
62486,-0.307,-0.017,-0.108,97.939,-91.038,176.450,24.0,192.0
62536,0.348,-0.146,-0.280,49.847,-59.336,128.191,23.0,179.0
62588,0.567,0.480,0.318,-7.008,12.878,74.779,20.0,182.0
62639,0.452,0.954,0.631,-8.412,-14.443,23.412,18.0,0.0
62700,0.212,1.140,0.717,-1.519,-35.237,-14.962,0.0,0.0
62750,-0.048,1.071,0.175,37.519,-4.611,-16.267,20.0,0.0
62799,-0.136,0.676,0.311,-15.511,-1.206,24.237,19.0,182.0
62850,0.291,0.448,0.538,-37.718,-52.710,-4.748,18.0,181.0
62899,0.433,0.740,0.551,-41.588,-39.924,-33.008,17.0,190.0
62959,0.077,0.907,0.709,-30.061,-17.466,-52.718,0.0,186.0
63012,-0.123,0.768,0.708,1.137,-28.542,-23.420,20.0,0.0
63074,0.171,0.642,0.593,14.313,-28.893,-14.489,0.0,0.0
63134,0.200,0.842,0.541,8.397,-1.405,-24.740,0.0,0.0
63196,0.036,0.989,0.611,-11.466,-12.214,-23.084,0.0,0.0
63256,0.047,0.857,0.548,-8.557,-27.634,-23.542,0.0,0.0
63318,0.031,0.747,0.444,-6.061,0.191,-18.382,0.0,0.0
63378,0.019,0.812,0.462,-9.275,3.649,-11.191,0.0,0.0
63439,0.097,0.835,0.490,-29.099,2.511,-9.634,0.0,0.0
63499,0.126,0.724,0.539,-38.122,14.160,-29.863,0.0,177.0
63558,-0.079,0.654,0.628,-37.878,20.763,-34.511,0.0,175.0
63632,-0.006,0.678,0.598,-58.046,10.924,-29.908,0.0,0.0
63693,-0.025,0.554,0.563,-65.168,31.221,-31.985,0.0,172.0
63757,-0.065,0.385,0.289,-75.412,48.344,-41.214,0.0,188.0
63818,-0.075,0.021,-0.153,-146.779,87.916,-68.137,0.0,171.0
63878,-0.279,-0.339,0.146,-250.137,104.740,-149.252,0.0,119.0
63937,-0.487,-0.944,0.529,-250.137,84.947,-172.954,0.0,123.0
64041,-0.738,-1.331,0.827,-250.137,73.176,-166.695,0.0,163.0
64101,-0.941,-1.408,0.835,-219.489,39.443,-115.748,130.0,0.0
64161,-0.728,-1.363,0.865,-131.588,-43.221,-34.382,131.0,151.0
64219,-0.315,-1.002,0.431,-47.229,-13.137,20.420,134.0,152.0
64275,-0.232,-1.024,0.205,-15.252,21.832,-10.634,133.0,149.0
64332,-0.308,-1.063,0.008,8.092,9.870,-7.290,134.0,148.0
64389,-0.438,-0.925,-0.041,1.275,4.656,4.595,133.0,149.0
64446,-0.336,-0.944,-0.067,-1.656,8.947,0.198,133.0,151.0
64502,-0.408,-0.950,0.036,-8.740,12.412,-6.977,133.0,148.0
64560,-0.321,-1.013,0.001,-3.252,-11.550,-10.702,133.0,148.0
64616,-0.384,-0.968,0.019,-2.229,-17.992,3.008,133.0,148.0
64681,-0.418,-0.903,-0.032,-4.893,-20.588,1.397,134.0,149.0
64738,-0.351,-0.926,-0.031,-5.435,-19.000,4.992,140.0,149.0
64797,-0.356,-0.987,0.031,-10.740,-24.939,2.870,0.0,149.0
64857,-0.248,-0.986,-0.022,-11.748,-37.947,0.267,0.0,151.0
64918,-0.362,-0.937,0.045,-11.802,-12.939,0.290,0.0,168.0
64977,-0.261,-0.940,-0.018,-6.550,-29.756,-3.168,0.0,153.0
65039,-0.295,-1.000,0.020,-6.687,-23.840,-2.405,0.0,169.0
65099,-0.275,-0.984,0.014,-4.389,-31.389,0.244,0.0,168.0
65163,-0.341,-0.939,0.068,-6.099,-22.275,2.389,0.0,170.0
65213,-0.250,-0.958,0.016,-5.580,-20.710,-2.924,17.0,170.0
65263,-0.247,-1.037,0.065,-0.534,-28.817,-2.458,17.0,171.0
65314,-0.243,-0.990,0.057,2.580,-23.420,-1.542,16.0,185.0
65366,-0.238,-0.973,0.059,4.824,-19.664,-4.511,16.0,184.0
65416,-0.140,-1.150,0.129,-0.443,-23.443,-11.710,17.0,162.0
65466,0.112,-1.781,0.337,-14.473,-75.237,-51.626,17.0,163.0
65518,0.479,-1.540,0.001,35.038,-135.901,-98.420,19.0,0.0
65557,0.457,-0.972,-0.510,36.588,15.626,-149.008,30.0,0.0
65613,-0.351,-0.724,-0.162,14.275,123.641,-149.359,46.0,198.0
65674,-0.942,-0.620,0.266,-0.427,31.809,-132.443,0.0,159.0
65734,-0.157,-0.846,0.291,12.473,14.664,-15.466,0.0,158.0
65794,0.458,-0.984,0.450,38.405,47.924,15.565,177.0,159.0
65852,0.506,-0.855,-0.010,21.962,99.031,-76.153,178.0,157.0
65912,-0.452,-1.157,0.478,-5.084,-12.221,-51.527,0.0,156.0
65975,0.364,-0.777,0.002,-27.618,-71.603,-36.153,181.0,0.0
66036,0.374,-0.907,0.172,-18.740,22.733,-16.931,179.0,0.0
66086,0.234,-0.880,0.300,-20.550,-5.344,-21.527,178.0,0.0
66148,0.409,-0.926,0.075,-11.580,-44.809,-3.519,178.0,0.0
66196,0.515,-0.903,0.025,-25.992,-6.389,-10.053,177.0,0.0
66257,0.527,-0.904,0.038,-17.076,8.748,-0.076,177.0,0.0
66319,0.416,-0.934,0.131,-17.237,8.382,-5.427,178.0,0.0
66380,0.265,-0.999,0.312,-0.290,25.160,8.405,179.0,0.0
66427,0.276,-0.946,0.281,14.267,17.107,18.183,179.0,0.0
66487,0.336,-0.955,0.213,24.702,-4.611,20.366,142.0,0.0
66546,0.312,-0.972,0.176,22.695,10.595,23.763,140.0,0.0
66595,0.218,-1.016,0.247,24.679,-17.153,31.809,139.0,0.0
66655,0.252,-1.034,0.265,35.389,-30.046,43.000,139.0,0.0
66717,0.212,-0.962,0.282,37.977,-6.626,47.397,0.0,0.0
66779,0.181,-0.936,0.343,29.870,-33.725,41.893,0.0,184.0
66841,0.168,-0.953,0.324,32.595,-32.435,35.351,0.0,183.0
