Timestamp(ms),AccelX(g),AccelY(g),AccelZ(g),GyroX(deg/s),GyroY(deg/s),GyroZ(deg/s),DistanceLeft(cm),DistanceRight(cm)
42914,-1.055,-0.180,-0.298,-40.214,11.626,46.565,0.0,190.0
42968,-1.129,0.080,-0.358,-76.214,-4.931,72.237,0.0,80.0
43019,-1.260,0.169,-0.394,-127.229,-20.550,144.397,167.0,79.0
43070,-1.645,-0.281,-0.770,-161.656,-41.519,203.656,164.0,80.0
43118,-1.708,-0.561,-0.709,-150.015,-95.359,205.023,91.0,83.0
43165,-1.341,-1.066,-0.585,-100.282,-132.519,120.466,85.0,89.0
43212,-0.335,-0.685,-0.406,-43.412,-105.550,58.977,83.0,94.0
43266,0.095,-0.558,-0.321,-5.153,-16.229,-42.435,145.0,71.0
43313,0.182,-0.493,-0.229,21.443,39.740,-140.214,81.0,97.0
43363,0.066,-0.353,-0.090,54.702,72.733,-175.519,148.0,66.0
43409,-0.483,-0.501,-0.051,49.847,77.740,-181.511,75.0,88.0
43456,-1.817,-1.051,-1.023,116.519,115.809,-146.504,82.0,87.0
43506,-2.000,-0.772,-0.685,74.656,122.939,-2.534,125.0,84.0
43553,-1.603,-0.418,-0.296,46.305,-15.031,34.221,83.0,87.0
43599,-0.964,-0.176,-0.451,50.977,-42.153,25.252,65.0,91.0
43649,-0.600,0.180,-0.356,63.969,13.618,34.489,66.0,91.0
43696,-0.603,0.572,-0.050,40.313,28.855,31.710,73.0,96.0
43742,-0.501,0.746,-0.123,-6.962,1.107,35.924,58.0,94.0
43788,-0.814,0.972,-0.356,-98.275,32.748,81.336,62.0,92.0
43834,-1.962,0.556,-0.953,-196.328,14.435,120.176,60.0,90.0
43880,-2.000,-0.825,-1.319,-227.634,-128.794,158.313,63.0,91.0
43926,-1.572,-1.058,-1.102,-137.504,-157.878,140.176,51.0,97.0
43976,-0.496,-0.740,-0.501,-97.504,-44.504,93.160,113.0,104.0
44025,0.155,-0.700,-0.187,-72.183,3.405,4.435,93.0,108.0
44078,0.534,-0.723,-0.098,-2.321,-10.901,-87.008,91.0,109.0
44127,0.455,-0.558,-0.147,68.534,-54.160,-136.557,137.0,76.0
44172,-0.014,-0.501,-0.419,80.573,-28.473,-179.229,48.0,78.0
44221,-1.700,-0.727,-1.677,140.115,250.130,-141.443,151.0,52.0
44269,-2.000,-0.175,-0.515,105.198,250.130,-19.878,85.0,90.0
44316,-2.000,-0.093,-0.042,28.527,-93.031,7.733,68.0,91.0
44362,-0.854,0.088,-0.506,51.183,-119.649,23.374,62.0,94.0
44409,-0.405,0.452,-0.231,78.008,8.985,54.855,70.0,96.0
44463,-0.533,0.726,0.217,53.321,8.855,63.679,121.0,97.0
44508,-0.340,0.902,-0.138,-5.107,-45.573,51.336,44.0,95.0
44554,-0.495,1.164,-0.741,-124.924,15.069,72.603,57.0,95.0
44601,-2.000,0.720,-1.556,-239.855,85.702,84.687,66.0,92.0
44646,-2.000,-0.180,-1.671,-250.137,-71.824,101.298,50.0,94.0
44693,-1.579,-0.447,-1.298,-230.901,-125.191,111.641,49.0,100.0
44739,-0.466,-0.550,-0.741,-162.954,-28.023,70.687,50.0,107.0
44790,-0.065,-0.541,-0.290,-139.038,33.168,8.053,109.0,112.0
44840,0.246,-0.812,-0.058,-99.626,11.527,-64.221,106.0,115.0
44894,0.417,-0.691,-0.133,-21.069,27.740,-104.389,108.0,112.0
44943,-0.117,-0.688,-0.222,76.435,37.878,-123.649,113.0,80.0
44993,-1.730,-0.918,-0.995,172.710,112.443,-212.153,123.0,95.0
45049,-2.000,-0.327,-1.228,116.832,169.275,-110.305,129.0,0.0
45106,-2.000,-0.022,-0.306,37.466,-5.878,-43.847,125.0,0.0
45157,-0.916,0.246,-0.319,72.832,-78.305,-2.435,120.0,117.0
45207,-0.432,0.571,-0.087,56.687,-38.733,23.420,114.0,100.0
45257,-0.239,1.070,-0.013,-1.084,-60.695,21.092,109.0,100.0
45309,-0.100,1.537,-0.572,-122.282,-40.756,25.168,106.0,98.0
45403,-2.000,-0.017,-2.000,-250.137,29.878,98.427,111.0,116.0
45453,-2.000,-0.547,-1.921,-250.137,-88.000,106.573,109.0,95.0
45502,-0.907,-0.778,-1.269,-246.924,-23.397,83.588,99.0,101.0
45551,-0.331,-0.787,-0.517,-200.450,31.542,54.504,94.0,107.0
45600,0.253,-0.968,-0.025,-134.015,10.389,-17.710,90.0,110.0
45650,0.419,-0.870,0.102,-38.740,-40.504,-80.992,91.0,114.0
45697,-0.180,-0.773,0.019,63.595,-72.626,-141.427,43.0,104.0
45749,-1.511,-0.881,-0.910,127.565,35.878,-205.534,103.0,96.0
45799,-2.000,-0.623,-1.127,135.656,174.771,-112.992,110.0,100.0
45849,-2.000,0.288,-0.371,75.137,32.908,-92.168,110.0,106.0
45899,-1.244,0.508,-0.377,21.160,-63.573,-68.809,108.0,108.0
45948,-0.619,0.804,-0.143,-4.115,-38.099,-27.366,106.0,99.0
45998,-0.365,1.453,-0.157,-44.359,-30.847,12.481,105.0,100.0
46049,-0.352,2.000,-0.680,-160.725,-7.992,93.908,132.0,99.0
46099,-1.150,0.769,-1.693,-250.137,8.565,147.198,112.0,105.0
46152,-2.000,-0.749,-2.000,-250.137,-22.588,73.000,108.0,92.0
46202,-2.000,-0.659,-2.000,-250.137,-114.573,92.916,119.0,97.0
46252,-0.680,-0.900,-1.450,-250.137,-12.107,69.863,102.0,103.0
46302,0.044,-0.885,-0.498,-192.427,45.931,31.573,102.0,107.0
46352,0.568,-1.073,-0.012,-72.702,18.542,-46.977,104.0,109.0
46402,0.396,-0.755,0.246,-0.435,-32.206,-142.214,110.0,109.0
46449,-0.311,-0.936,-0.226,43.260,11.519,-202.122,45.0,100.0
46495,-2.000,-1.197,-1.286,126.489,178.267,-163.092,50.0,92.0
46551,-2.000,-0.371,-0.700,100.565,185.176,-54.412,128.0,123.0
46607,-1.872,0.172,-0.520,32.008,-64.878,-62.435,126.0,0.0
46652,-0.640,0.495,-0.537,14.130,-18.458,-15.931,146.0,0.0
46702,-0.393,0.822,-0.097,-3.267,29.206,8.985,121.0,101.0
46752,-0.325,0.896,0.186,-40.099,-28.672,27.962,121.0,102.0
46801,-0.322,0.747,-0.271,-76.053,-46.046,40.824,120.0,67.0
46852,-1.064,0.671,-0.889,-142.626,31.305,84.855,123.0,95.0
46903,-2.000,0.296,-1.538,-219.901,14.351,107.916,125.0,93.0
46953,-2.000,-0.581,-1.660,-250.137,-135.282,105.084,118.0,95.0
47006,-0.746,-0.889,-1.212,-195.511,-68.847,81.832,111.0,101.0
47056,-0.082,-0.912,-0.556,-120.359,9.168,41.282,106.0,96.0
47107,0.451,-1.012,-0.156,-36.244,19.885,-34.901,105.0,106.0
47156,0.395,-0.803,-0.041,39.061,1.557,-104.603,107.0,89.0
47205,-0.344,-0.669,-0.285,87.061,3.427,-141.397,112.0,86.0
47255,-1.641,-0.745,-1.077,133.366,133.336,-161.580,127.0,86.0
47305,-2.000,-0.331,-0.813,94.420,219.061,-54.969,0.0,10.0
47364,-2.000,-0.098,-0.374,71.718,1.733,-5.328,0.0,83.0
47418,-0.765,0.251,-0.533,92.527,-22.298,15.145,148.0,87.0
47473,-0.557,0.636,-0.129,71.466,22.084,21.206,0.0,96.0
47524,-0.323,0.784,0.044,36.397,-23.420,21.565,144.0,92.0
47577,-0.366,0.983,-0.216,-58.351,-23.176,45.267,145.0,100.0
47628,-0.804,0.643,-0.663,-201.305,17.099,115.107,148.0,84.0
47680,-2.000,-0.027,-1.197,-222.886,15.771,97.588,151.0,86.0
47732,-2.000,-0.327,-1.652,-181.969,-32.260,83.504,149.0,95.0
47784,-1.278,-0.569,-0.834,-159.863,-23.412,81.145,144.0,101.0
47837,-0.410,-0.534,-0.210,-123.511,-26.725,19.496,138.0,107.0
47885,0.211,-1.021,0.079,-68.275,-82.962,-64.191,135.0,81.0
47979,0.116,-0.797,-0.300,97.481,-23.313,-148.832,140.0,75.0
48030,-1.540,-0.986,-1.040,195.908,144.321,-154.374,147.0,94.0
48077,-2.000,-0.493,-0.894,185.198,214.061,-56.229,52.0,91.0
48130,-2.000,-0.010,-0.388,105.901,34.595,-40.679,151.0,93.0
48182,-1.115,0.169,-0.756,90.779,-35.481,-35.168,148.0,97.0
48234,-0.598,0.714,-0.437,56.458,48.168,-4.137,145.0,100.0
48286,-0.405,0.887,0.028,-17.221,49.053,17.702,143.0,102.0
48342,-0.470,0.703,0.238,-106.473,-47.733,28.069,143.0,100.0
48394,-0.401,0.598,-0.413,-159.641,-84.275,42.282,145.0,99.0
48442,-1.714,0.853,-1.902,-176.740,20.527,29.450,149.0,11.0
48499,-2.000,0.414,-2.000,-250.137,-31.901,74.702,149.0,0.0
48544,-1.541,-0.686,-1.671,-250.137,-65.954,97.992,142.0,0.0
48596,-0.583,-0.943,-0.936,-234.382,-28.351,73.389,136.0,107.0
48649,0.050,-1.085,-0.247,-190.420,-17.924,20.214,130.0,113.0
48701,0.433,-1.101,-0.055,-88.611,-38.992,-25.573,129.0,119.0
48760,0.288,-0.883,-0.198,50.412,-13.863,-78.618,132.0,168.0
48818,-0.745,-0.890,-0.515,156.733,9.252,-150.481,139.0,0.0
48863,-2.000,-0.692,-1.552,215.687,166.786,-245.763,148.0,0.0
48921,-2.000,-0.023,-1.332,137.099,191.130,-133.748,151.0,0.0
48965,-1.738,0.237,-0.563,40.130,-62.519,-47.595,148.0,0.0
49017,-0.628,0.530,-0.549,36.115,-81.740,-11.969,144.0,101.0
49071,-0.343,0.756,-0.095,-13.176,-30.870,23.450,140.0,104.0
49123,-0.231,0.875,0.048,-77.969,-66.336,22.840,140.0,103.0
49178,-0.131,1.220,-0.357,-192.603,-65.824,21.168,141.0,100.0
49230,-0.931,1.229,-1.337,-250.137,-61.534,9.725,146.0,99.0
49290,-2.000,-0.547,-2.000,-250.137,-94.183,0.466,150.0,107.0
49341,-1.936,-0.768,-2.000,-250.137,-111.206,111.641,146.0,95.0
49387,-0.659,-0.735,-1.437,-250.137,-37.198,69.901,45.0,101.0
49438,-0.193,-0.879,-0.791,-200.191,-7.931,56.756,136.0,106.0
49489,0.453,-1.036,-0.305,-102.092,-8.122,-3.260,133.0,110.0
49541,0.493,-0.956,0.115,-1.534,-16.534,-117.534,135.0,110.0
49595,-0.097,-0.926,-0.058,54.527,-47.664,-241.260,141.0,100.0
49646,-2.000,-0.748,-1.548,90.496,196.099,-207.053,150.0,94.0
49703,-2.000,-0.187,-0.452,62.847,197.160,0.145,141.0,195.0
49761,-1.623,0.042,-0.359,0.954,-82.466,-26.786,150.0,0.0
49804,-0.650,0.060,-0.345,-36.008,-25.779,-7.534,147.0,0.0
49860,-0.526,0.426,0.015,-43.153,-22.427,-16.939,142.0,197.0
49912,-0.338,0.690,-0.094,-64.176,-59.221,-7.458,145.0,100.0
49960,-0.446,0.755,-0.406,-119.527,-22.771,32.221,89.0,99.0
50007,-1.012,0.521,-0.986,-179.557,10.160,86.580,50.0,96.0
50056,-2.000,0.304,-1.465,-241.824,8.947,129.954,79.0,91.0
50105,-2.000,-0.586,-1.697,-225.511,-78.565,135.145,101.0,91.0
50150,-1.453,-0.987,-1.233,-160.626,-55.771,110.328,45.0,96.0
50197,-0.673,-0.661,-0.549,-90.084,-0.229,38.374,62.0,101.0
50243,-0.141,-0.677,-0.224,-92.282,13.969,-21.122,50.0,104.0
50289,0.298,-0.731,0.002,-37.069,-16.824,-98.435,50.0,105.0
50335,0.380,-0.537,-0.027,12.397,-19.290,-150.847,57.0,95.0
50381,-0.118,-0.615,-0.272,42.183,28.771,-158.947,57.0,100.0
50430,-1.635,-1.011,-1.126,129.725,160.137,-136.473,52.0,93.0
50477,-2.000,-0.301,-0.780,126.542,162.168,-27.939,65.0,91.0
50566,-1.204,0.072,-0.689,61.527,-2.176,-8.618,57.0,96.0
50611,-0.847,0.310,-0.404,44.107,34.458,22.534,50.0,68.0
50657,-0.644,0.649,-0.011,18.153,16.626,35.687,57.0,97.0
50703,-0.353,0.648,0.103,-10.634,-47.779,51.771,57.0,97.0
50749,-0.251,0.583,-0.140,-42.649,-48.183,70.779,61.0,95.0
50795,-0.846,0.477,-0.801,-82.015,22.710,108.092,57.0,93.0
50841,-2.000,0.251,-1.093,-146.588,58.969,141.588,58.0,91.0
50890,-2.000,-0.465,-1.265,-173.687,-67.267,95.305,65.0,93.0
50937,-1.224,-0.677,-0.975,-145.855,-81.000,41.366,76.0,98.0
50987,-0.440,-0.347,-0.485,-117.763,-6.168,-30.450,98.0,103.0
51037,0.028,-0.501,-0.130,-93.870,20.603,-85.313,99.0,107.0
51084,0.471,-0.737,-0.072,-24.740,22.855,-140.366,77.0,106.0
51133,0.205,-0.680,-0.094,40.916,35.817,-154.840,113.0,80.0
51181,-0.779,-0.789,-0.654,156.153,42.466,-113.725,127.0,67.0
51232,-2.000,-0.348,-1.244,194.954,121.992,-64.282,131.0,92.0
51281,-2.000,-0.412,-0.674,109.115,69.710,33.527,57.0,93.0
51328,-1.344,-0.194,-0.472,85.282,-35.893,18.618,54.0,96.0
51375,-0.644,0.222,-0.506,88.916,-29.122,7.771,64.0,99.0
51422,-0.417,0.551,-0.234,60.733,19.244,12.084,82.0,99.0
51472,-0.412,0.666,0.115,15.122,11.786,19.115,121.0,99.0
51522,-0.534,0.710,0.093,-53.504,-31.115,40.466,124.0,96.0
51569,-0.839,0.712,-0.734,-130.977,-13.595,63.015,57.0,95.0
51615,-2.000,0.536,-1.747,-202.168,52.527,61.840,60.0,95.0
51662,-2.000,0.081,-2.000,-250.137,-48.115,75.038,64.0,96.0
51716,-1.410,-0.718,-1.498,-250.137,-125.229,47.092,120.0,99.0
51766,-0.375,-0.790,-0.994,-215.695,-70.847,33.634,116.0,104.0
51815,0.140,-0.827,-0.448,-140.626,-23.244,15.450,111.0,84.0
51865,0.445,-0.768,-0.206,-69.420,1.122,-37.969,111.0,111.0
51915,0.284,-0.790,0.021,7.931,-8.267,-77.870,113.0,108.0
51964,-0.485,-0.868,0.051,57.427,-78.901,-165.023,116.0,73.0
52009,-1.579,-1.273,-1.249,131.740,33.130,-240.092,51.0,93.0
52062,-2.000,-0.455,-1.424,126.076,250.130,-103.504,122.0,128.0
52117,-2.000,0.030,-0.085,39.511,26.053,-47.947,118.0,131.0
52169,-0.925,0.250,-0.529,6.511,-115.672,-18.565,112.0,133.0
52219,-0.317,0.411,-0.341,24.534,-7.962,27.771,107.0,100.0
52269,-0.442,0.934,0.110,-7.756,-6.824,31.099,104.0,101.0
52318,-0.311,1.125,-0.074,-117.595,-90.076,23.542,105.0,101.0
52368,-0.624,0.885,-0.892,-241.389,-58.038,36.878,127.0,96.0
52419,-2.000,0.569,-2.000,-250.137,8.840,52.817,108.0,119.0
52469,-2.000,-0.396,-2.000,-250.137,-129.840,103.366,106.0,99.0
52521,-1.032,-0.887,-1.772,-250.137,-40.840,92.878,102.0,100.0
52571,-0.490,-0.709,-0.861,-218.718,13.389,28.817,97.0,104.0
52620,-0.117,-0.678,-0.389,-167.931,-3.939,-14.878,95.0,107.0
52669,0.362,-0.697,-0.269,-96.893,-8.794,-74.313,96.0,92.0
52718,0.298,-0.734,-0.133,-36.992,23.977,-107.160,98.0,105.0
52767,-0.411,-0.696,-0.021,17.107,29.466,-135.351,105.0,100.0
52818,-1.695,-1.085,-0.934,96.260,47.595,-193.756,127.0,94.0
52872,-2.000,-0.535,-0.849,34.756,144.382,-117.718,132.0,135.0
52932,-2.000,-0.200,-0.443,-15.511,-31.397,-69.267,142.0,0.0
52989,-0.875,0.190,-0.440,-7.328,-54.740,-23.557,140.0,0.0
53084,-0.490,0.739,-0.062,-48.000,-43.573,22.038,121.0,100.0
53134,-0.581,0.674,-0.363,-100.954,-56.221,54.550,123.0,99.0
53185,-0.850,0.396,-0.935,-163.977,-30.191,92.534,125.0,96.0
53235,-2.000,-0.154,-1.730,-201.557,16.382,111.511,122.0,94.0
53284,-2.000,-0.766,-1.578,-208.130,-49.634,101.832,123.0,73.0
53334,-1.100,-0.767,-0.958,-200.351,-45.962,56.153,117.0,74.0
53386,-0.314,-0.726,-0.510,-175.344,-29.206,-0.809,112.0,79.0
53436,0.283,-0.846,-0.138,-126.321,-30.443,-62.985,111.0,105.0
53487,0.641,-0.824,-0.162,-22.038,-6.534,-115.427,115.0,104.0
53537,0.008,-0.730,-0.138,33.565,46.168,-126.557,119.0,98.0
53587,-1.545,-1.212,-1.155,144.809,98.458,-138.557,124.0,92.0
53644,-2.000,-0.673,-0.985,104.275,191.405,-41.573,129.0,185.0
53700,-1.867,-0.185,-0.415,47.893,17.511,-19.260,128.0,189.0
53757,-0.860,0.186,-0.447,48.214,-24.359,1.695,127.0,196.0
53809,-0.445,0.626,-0.173,35.366,8.641,22.832,125.0,100.0
53862,-0.305,0.664,0.103,-3.160,-10.130,30.191,125.0,100.0
53913,-0.539,0.687,-0.165,-64.450,-12.420,53.489,128.0,97.0
53964,-1.310,0.425,-0.851,-137.160,5.252,93.466,131.0,92.0
54012,-2.000,-0.486,-1.569,-161.603,-19.351,101.847,152.0,19.0
54064,-1.937,-0.517,-1.454,-170.130,-31.985,100.588,150.0,85.0
54115,-0.938,-0.651,-0.747,-169.992,-19.939,59.076,144.0,75.0
54165,-0.158,-0.562,-0.328,-146.901,-25.824,0.595,139.0,76.0
54217,0.264,-0.728,-0.061,-87.573,-31.649,-49.145,137.0,100.0
54273,0.478,-0.688,-0.147,3.718,-11.863,-73.443,138.0,100.0
54324,-0.111,-0.695,-0.163,63.405,26.160,-90.053,143.0,95.0
54376,-1.753,-1.023,-1.326,191.099,105.855,-103.847,151.0,88.0
54428,-2.000,-0.322,-0.815,130.634,120.015,-8.130,154.0,91.0
54480,-1.692,-0.047,-0.509,82.886,-52.481,-3.115,153.0,92.0
54533,-0.688,0.333,-0.563,96.550,-18.031,6.473,149.0,95.0
54585,-0.507,0.697,-0.093,75.328,32.931,16.344,147.0,97.0
54637,-0.329,0.812,0.153,15.443,-34.611,11.412,147.0,97.0
54692,-0.324,0.883,-0.424,-93.321,-31.908,17.153,149.0,94.0
54745,-1.495,0.684,-1.294,-185.626,51.237,43.542,152.0,91.0
54803,-2.000,-0.353,-1.975,-218.573,-70.450,56.695,152.0,0.0
54855,-1.333,-0.687,-1.579,-240.137,-77.038,60.450,147.0,96.0
54907,-0.614,-0.548,-0.712,-200.405,-33.260,5.611,141.0,102.0
54960,-0.106,-0.566,-0.315,-166.153,-28.145,-23.443,136.0,107.0
55013,0.316,-0.677,-0.100,-116.954,-25.046,-52.809,134.0,112.0
55065,0.332,-0.843,-0.004,-25.931,-20.656,-62.977,136.0,108.0
55117,-0.363,-1.175,0.047,68.206,-31.748,-145.305,142.0,102.0
55173,-1.897,-1.000,-1.484,170.802,81.527,-221.244,150.0,95.0
55227,-2.000,-0.174,-1.233,95.038,200.618,-60.015,153.0,118.0
55281,-1.833,0.018,-0.619,39.069,-10.962,3.695,151.0,122.0
55333,-0.654,0.091,-0.536,46.023,-13.336,36.511,147.0,98.0
55386,-0.452,0.376,-0.098,34.908,28.672,36.664,145.0,99.0
55438,-0.263,0.699,0.265,-16.481,-20.435,14.183,144.0,100.0
55490,-0.383,0.956,-0.038,-111.069,-30.420,-4.634,146.0,99.0
55549,-1.427,0.718,-1.220,-232.115,-13.702,-13.740,149.0,0.0
55598,-2.000,-0.267,-2.000,-250.137,-115.313,52.328,150.0,0.0
55650,-1.759,-0.461,-1.873,-250.137,-120.115,92.802,145.0,97.0
55743,-0.199,-0.746,-0.899,-190.489,-46.084,77.580,134.0,80.0
55795,0.432,-0.863,-0.494,-153.534,-13.931,24.954,131.0,112.0
55854,0.483,-0.927,-0.172,-85.176,6.176,-45.214,132.0,113.0
55905,-0.118,-0.756,-0.065,-12.015,18.221,-109.458,137.0,107.0
55951,-1.551,-0.897,-0.764,89.427,95.595,-206.649,50.0,100.0
56008,-2.000,-0.477,-1.028,57.725,202.908,-147.305,149.0,0.0
56055,-2.000,-0.026,-0.389,-1.748,-15.321,-75.733,149.0,0.0
56112,-1.026,0.121,-0.469,8.756,-86.786,-36.771,148.0,0.0
56156,-0.476,0.490,-0.327,12.420,-15.061,-10.580,144.0,0.0
56207,-0.409,0.790,-0.166,-17.244,-11.702,-2.397,141.0,102.0
56258,-0.279,1.052,-0.384,-106.160,-41.344,-0.519,143.0,101.0
56312,-0.582,0.758,-0.885,-250.137,-4.924,27.290,96.0,0.0
56356,-1.870,0.284,-1.634,-250.137,14.931,41.618,152.0,0.0
56403,-2.000,-0.527,-1.877,-250.137,-115.916,75.412,83.0,91.0
56452,-1.556,-0.837,-1.644,-182.931,-96.939,89.504,74.0,58.0
56499,-0.639,-0.639,-0.997,-122.916,-9.145,53.794,74.0,100.0
56546,-0.171,-0.670,-0.634,-115.618,2.756,17.191,71.0,103.0
56593,0.372,-0.834,-0.323,-98.160,-7.931,-47.351,61.0,104.0
56639,0.409,-0.751,-0.221,-23.008,-21.725,-96.695,64.0,100.0
56686,-0.099,-0.675,-0.104,21.160,15.992,-137.656,61.0,98.0
56732,-1.292,-0.872,-0.834,98.893,96.634,-154.115,60.0,93.0
56778,-2.000,-0.601,-1.008,77.817,194.366,-85.359,66.0,95.0
56825,-2.000,-0.065,-0.502,58.313,73.458,-42.366,63.0,99.0
56875,-1.277,0.031,-0.390,40.427,-34.267,-4.260,59.0,101.0
56922,-0.520,0.253,-0.190,38.023,-28.214,13.405,65.0,98.0
56968,-0.274,0.633,0.004,31.527,-25.313,15.153,60.0,99.0
57015,-0.189,0.680,-0.099,1.985,-32.046,24.893,73.0,99.0
57061,-0.407,0.775,-0.426,-73.061,-4.458,58.229,60.0,95.0
57107,-1.194,0.579,-0.958,-144.450,34.771,104.298,63.0,93.0
57154,-2.000,-0.125,-1.518,-177.206,4.634,124.534,78.0,90.0
57200,-1.909,-0.611,-1.629,-163.244,-19.092,88.702,61.0,93.0
57251,-1.239,-0.618,-0.927,-171.328,24.046,30.496,79.0,97.0
57298,-0.710,-0.382,-0.250,-158.313,-26.504,-25.565,77.0,101.0
57349,-0.141,-0.542,0.092,-109.008,-71.886,-57.198,101.0,105.0
57397,0.428,-0.748,0.003,1.573,-85.527,-90.886,104.0,90.0
57447,0.472,-0.730,-0.364,76.481,-3.137,-117.771,119.0,100.0
57495,-0.654,-0.881,-0.771,140.168,85.443,-125.611,125.0,69.0
57543,-2.000,-0.559,-1.257,174.870,170.733,-90.260,90.0,90.0
57593,-2.000,-0.317,-0.738,88.718,63.122,-9.122,134.0,92.0
57645,-1.395,-0.068,-0.670,64.473,-8.504,-8.580,127.0,93.0
57697,-0.792,0.346,-0.408,78.023,8.160,17.947,123.0,97.0
57746,-0.483,0.632,-0.074,70.580,-6.107,22.733,87.0,100.0
57795,-0.168,0.681,-0.088,37.122,-25.183,21.947,122.0,99.0
57845,-0.111,0.826,-0.198,-46.954,15.137,33.824,124.0,96.0
57896,-0.698,0.610,-0.651,-167.443,18.267,32.282,128.0,93.0
57938,-2.000,0.153,-1.994,-231.405,-24.198,13.969,67.0,9.0
57988,-2.000,-0.464,-2.000,-250.137,-80.473,80.634,72.0,131.0
58037,-1.185,-0.999,-1.372,-248.137,-52.725,79.214,123.0,79.0
58090,-0.335,-0.585,-0.494,-202.122,-22.504,16.084,116.0,103.0
58139,0.080,-0.640,-0.245,-146.374,-15.885,-31.901,113.0,82.0
58232,0.288,-0.519,-0.029,-25.282,-36.351,-70.061,113.0,111.0
58278,-0.150,-0.546,-0.059,50.191,-23.962,-86.282,46.0,102.0
58328,-1.338,-0.809,-1.111,166.275,50.008,-116.450,122.0,69.0
58380,-2.000,-0.438,-1.378,152.221,175.557,-50.359,52.0,0.0
58422,-2.000,0.124,-0.346,35.794,30.863,-19.588,120.0,0.0
58477,-1.198,0.135,-0.382,15.145,-92.008,-24.427,117.0,0.0
58530,-0.448,0.382,-0.460,51.435,-22.626,18.008,112.0,96.0
58579,-0.516,0.576,-0.006,30.977,6.824,47.137,107.0,97.0
58629,-0.343,0.789,0.002,-10.504,-51.389,41.466,106.0,97.0
58678,-0.303,1.000,-0.548,-112.542,-33.977,32.328,107.0,95.0
58729,-1.474,0.840,-1.745,-221.710,75.534,-12.748,108.0,116.0
58779,-2.000,-0.042,-2.000,-250.137,-17.420,-18.847,108.0,121.0
58829,-1.328,-0.609,-1.866,-250.137,-93.443,25.366,103.0,98.0
58878,-0.397,-0.533,-1.011,-250.137,-7.939,28.076,98.0,103.0
58928,-0.142,-0.549,-0.561,-217.977,29.000,16.160,94.0,109.0
58985,0.172,-0.586,-0.195,-157.427,14.298,-8.527,91.0,0.0
59026,0.277,-0.650,-0.109,-83.954,-21.275,-43.763,94.0,0.0
59076,-0.091,-0.677,-0.070,-14.595,-23.550,-94.573,98.0,108.0
59125,-0.907,-0.859,-0.581,94.008,8.084,-180.901,105.0,101.0
59182,-2.000,-0.734,-1.345,95.863,151.878,-166.000,128.0,0.0
59226,-2.000,-0.090,-0.560,0.168,53.557,-68.275,130.0,0.0
59282,-1.400,0.049,-0.554,-16.702,-93.397,-49.649,130.0,0.0
59332,-0.490,0.332,-0.461,-1.901,-27.176,-16.420,124.0,99.0
59386,-0.456,0.658,-0.142,-24.298,17.924,-14.092,134.0,99.0
59443,-0.347,0.914,-0.274,-118.534,-6.550,-26.023,120.0,0.0
59500,-0.784,0.514,-0.674,-247.611,-32.466,-25.863,123.0,0.0
59556,-1.915,0.200,-1.557,-250.137,-66.031,-25.672,129.0,0.0
59599,-1.927,-0.374,-2.000,-250.137,-116.824,40.595,122.0,0.0
59650,-1.083,-0.632,-1.473,-224.458,-84.191,57.466,118.0,98.0
59699,-0.336,-0.643,-0.813,-167.153,-40.336,50.519,116.0,74.0
59747,0.152,-0.776,-0.349,-114.672,-28.168,12.344,111.0,79.0
59801,0.585,-0.839,0.060,-37.641,-38.443,-57.893,114.0,103.0
59850,0.233,-0.870,-0.052,38.641,-16.267,-138.031,118.0,76.0
59900,-1.075,-1.097,-1.113,137.076,101.832,-161.802,125.0,94.0
59957,-2.000,-0.673,-1.243,111.137,219.687,-30.389,130.0,179.0
60008,-2.000,-0.214,-0.427,63.641,6.321,-3.061,130.0,110.0
60060,-1.136,-0.061,-0.674,70.534,-47.183,-2.511,127.0,106.0
60110,-0.605,0.234,-0.373,69.748,18.748,17.443,121.0,98.0
60161,-0.413,0.460,-0.035,57.344,14.855,19.962,119.0,100.0
60212,-0.182,0.875,-0.010,-2.802,-14.427,19.725,122.0,99.0
60266,-0.528,0.789,-0.375,-136.198,-7.069,40.786,125.0,96.0
60316,-1.710,0.334,-1.454,-192.115,22.481,50.061,129.0,93.0
60367,-2.000,-0.504,-1.701,-199.504,-21.046,71.924,130.0,94.0
60419,-1.404,-0.901,-1.062,-230.939,-41.351,51.321,126.0,90.0
60470,-0.542,-0.699,-0.537,-176.519,-43.244,-12.137,143.0,96.0
60521,-0.034,-0.637,-0.281,-122.427,-26.924,-49.969,139.0,78.0
60573,0.269,-0.592,-0.144,-33.420,-8.527,-77.000,139.0,104.0
60625,0.170,-0.587,-0.111,41.031,11.893,-70.160,142.0,100.0
60681,-0.422,-0.924,-0.563,144.359,40.786,-67.076,148.0,94.0
60733,-1.950,-0.855,-1.261,181.550,144.687,-57.244,154.0,90.0
60828,-1.600,-0.126,-0.472,61.145,-31.954,13.458,155.0,92.0
60880,-0.607,0.236,-0.503,69.420,-35.244,32.969,151.0,94.0
60933,-0.319,0.478,-0.250,65.656,6.458,46.336,149.0,97.0
60985,-0.234,0.675,-0.062,35.031,-0.550,39.885,149.0,96.0
61037,-0.438,0.718,-0.414,-26.053,0.496,50.336,151.0,93.0
61089,-1.682,0.652,-1.231,-128.191,66.649,42.061,154.0,90.0
61145,-2.000,-0.378,-1.572,-213.069,-5.893,49.710,154.0,96.0
61197,-1.539,-0.738,-1.115,-250.137,-76.275,38.924,149.0,95.0
61249,-0.418,-0.497,-0.613,-192.084,-57.000,-2.084,142.0,100.0
61302,0.013,-0.465,-0.199,-126.855,-28.359,-38.176,138.0,104.0
61352,0.147,-0.559,-0.071,-50.603,-33.473,-86.649,137.0,79.0
61403,0.040,-0.474,-0.189,4.542,-36.275,-82.588,139.0,75.0
61454,-0.713,-0.709,-0.593,63.763,21.863,-38.473,142.0,72.0
61506,-1.420,-0.816,-1.180,160.427,132.916,13.679,147.0,94.0
61564,-2.000,-0.292,-0.605,95.817,151.282,12.046,149.0,0.0
61612,-1.351,-0.116,-0.578,59.924,-46.244,22.740,147.0,0.0
61664,-0.586,0.216,-0.453,71.260,-24.252,47.550,145.0,102.0
61712,-0.506,0.228,-0.160,83.298,17.840,57.893,143.0,14.0
61763,-0.546,0.252,-0.006,82.977,-8.427,56.183,142.0,101.0
61815,-0.522,0.260,-0.079,59.840,-51.153,56.511,143.0,99.0
61868,-0.737,0.354,-0.411,19.679,-50.061,49.023,144.0,99.0
61920,-1.049,0.837,-0.810,-30.458,23.496,29.664,146.0,96.0
61972,-1.592,0.094,-0.548,-83.122,3.969,-20.840,148.0,95.0
62028,-0.889,0.349,-0.143,-174.771,-95.427,-34.733,147.0,96.0
62081,-1.053,0.591,-0.120,-178.802,-166.176,-78.382,147.0,93.0
62127,-1.183,0.243,-0.488,-135.763,-250.137,-156.496,51.0,94.0
62186,-1.604,-1.601,-0.990,-88.160,-250.137,-250.137,0.0,161.0
62237,-1.822,-2.000,-0.041,-144.260,-250.137,-250.137,31.0,187.0
62288,1.148,1.416,-0.550,183.618,-219.634,-72.397,27.0,0.0
62345,0.383,-1.122,0.086,-36.557,81.229,132.771,23.0,193.0
62395,-0.412,-0.508,0.765,29.397,162.290,48.855,24.0,196.0
62448,-0.696,-0.738,1.134,-28.725,-10.214,32.603,25.0,0.0
62496,-0.287,-0.781,0.842,9.206,-104.542,-9.344,25.0,171.0
62543,0.060,-0.657,0.642,14.962,-48.275,-2.115,22.0,141.0
62589,-0.049,-0.790,0.502,18.038,39.656,-9.725,22.0,143.0
62637,-0.346,-0.624,0.708,9.359,50.840,-9.252,24.0,142.0
62683,-0.347,-0.648,0.670,3.527,-4.206,-14.458,23.0,144.0
62732,-0.168,-0.642,0.565,5.145,-10.595,-5.053,23.0,171.0
62778,-0.194,-0.605,0.604,-0.969,25.504,-8.702,23.0,142.0
62836,-0.295,-0.738,0.706,-1.863,21.252,-12.618,0.0,171.0
62886,-0.301,-0.661,0.705,1.992,-13.710,-18.252,24.0,142.0
62937,-0.302,-0.663,0.709,3.198,0.725,-12.550,26.0,0.0
62997,-0.302,-0.704,0.637,5.450,5.473,-8.031,0.0,0.0
63052,-0.354,-0.681,0.669,-0.359,-2.885,-4.885,118.0,0.0
63106,-0.284,-0.596,0.627,-1.076,-10.130,3.000,117.0,172.0
63155,-0.242,-0.651,0.658,-4.588,1.046,7.321,23.0,172.0
63213,-0.256,-0.681,0.721,-2.260,-5.969,6.962,0.0,172.0
63271,-0.204,-0.656,0.671,-0.565,-9.473,-8.679,0.0,172.0
63331,-0.239,-0.675,0.647,0.183,6.855,-4.412,0.0,173.0
63393,-0.328,-0.635,0.687,-4.099,5.534,-6.878,0.0,0.0
63496,-0.300,-0.674,0.663,-4.511,-4.466,2.634,0.0,176.0
63556,-0.260,-0.666,0.645,-5.618,-1.115,1.519,0.0,0.0
63616,-0.249,-0.679,0.646,-6.947,5.008,1.527,0.0,191.0
63675,-0.281,-0.687,0.711,-6.336,-1.206,1.695,0.0,190.0
63735,-0.272,-0.666,0.685,-4.344,-6.947,0.870,0.0,194.0
63796,-0.299,-0.657,0.645,-5.267,-6.176,-4.328,0.0,0.0
63855,-0.305,-0.670,0.655,-7.840,-0.763,-1.947,0.0,0.0
63916,-0.273,-0.696,0.681,-6.366,-5.985,6.672,0.0,0.0
63977,-0.271,-0.662,0.697,-4.473,-1.305,4.443,0.0,172.0
64036,-0.324,-0.667,0.721,-4.458,-9.321,-0.733,0.0,174.0
64095,-0.271,-0.706,0.677,-1.229,-23.824,0.840,0.0,174.0
64156,-0.195,-0.689,0.626,-0.939,4.710,3.168,0.0,0.0
64215,-0.162,-0.721,0.632,-3.557,6.924,1.740,0.0,173.0
64275,0.015,-0.981,0.851,-1.351,-8.130,1.473,0.0,0.0
64331,0.361,-1.224,1.074,43.519,-3.229,15.725,0.0,141.0
64381,0.440,-1.509,0.796,99.061,-57.931,36.573,38.0,185.0
64443,0.457,-1.051,0.150,127.725,-8.809,-21.282,0.0,0.0
64505,-0.231,-0.666,-0.026,82.511,71.718,-144.550,0.0,0.0
64565,-1.336,-0.007,0.492,-38.282,107.710,-250.137,0.0,175.0
64622,-1.092,-0.573,0.782,-53.656,-10.496,-136.229,139.0,0.0
64678,-0.587,-0.432,1.102,-52.634,28.527,-79.893,129.0,0.0
64736,-0.350,-0.428,1.024,-21.305,6.588,-41.939,143.0,0.0
64793,-0.028,-0.700,0.656,2.702,34.870,-21.901,144.0,0.0
64837,-0.012,-0.814,0.699,-4.122,46.985,-12.817,144.0,0.0
64894,-0.013,-0.627,0.762,-7.573,27.290,-20.954,145.0,0.0
64937,0.057,-0.743,0.637,-4.321,4.351,-36.000,145.0,0.0
64998,-0.126,-0.707,0.713,-14.718,15.947,-33.664,144.0,0.0
65042,-0.080,-0.667,0.687,-4.924,14.718,-27.511,144.0,0.0
65097,-0.140,-0.695,0.703,-10.664,20.916,-17.466,145.0,167.0
65155,-0.161,-0.688,0.702,-9.374,17.573,-18.427,146.0,0.0
65199,-0.159,-0.781,0.691,-9.641,-7.298,-4.786,147.0,0.0
65256,-0.031,-0.706,0.651,-9.863,-11.435,-1.176,146.0,198.0
65313,0.016,-0.736,0.610,-12.374,7.878,-5.992,148.0,198.0
65371,-0.091,-0.737,0.684,-14.237,-3.366,-2.817,148.0,0.0
65431,-0.026,-0.733,0.627,-12.809,-18.885,-3.191,146.0,0.0
65475,0.009,-0.792,0.592,-11.511,-6.542,0.908,146.0,0.0
65532,-0.027,-0.764,0.628,-12.473,-3.122,6.496,145.0,0.0
65576,0.044,-0.795,0.578,-13.099,-9.977,1.221,145.0,0.0
65634,0.106,-0.796,0.565,-16.359,5.695,-1.565,147.0,0.0
65692,0.042,-0.844,0.590,-12.160,9.885,-12.214,152.0,0.0
65735,0.006,-0.839,0.597,-11.206,-0.718,-7.405,133.0,0.0
65788,-0.007,-0.826,0.603,-8.863,-0.702,-5.237,133.0,151.0
65843,0.014,-0.835,0.593,-6.863,-4.427,-5.183,133.0,152.0
65901,0.024,-0.828,0.595,-4.870,4.656,-1.832,133.0,172.0
65956,0.000,-0.834,0.601,0.366,2.344,1.145,133.0,178.0
66013,0.010,-0.838,0.589,1.832,3.550,4.206,133.0,178.0
66066,0.058,-0.809,0.556,5.244,11.168,-0.267,134.0,151.0
66122,0.002,-0.820,0.531,1.099,13.573,-5.519,134.0,178.0
66178,-0.033,-0.802,0.513,-5.282,15.733,-7.802,134.0,175.0
66232,-0.016,-0.825,0.503,-4.656,22.412,-6.321,135.0,150.0
66330,0.021,-0.796,0.530,-2.977,21.244,-7.557,135.0,163.0
66387,-0.106,-0.847,0.620,-9.527,12.504,-2.366,135.0,0.0
66445,-0.084,-0.822,0.598,-4.069,4.076,-1.962,136.0,163.0
66500,-0.172,-0.849,0.612,5.977,4.313,27.359,136.0,166.0
66554,-0.332,-0.812,0.710,22.176,24.802,59.481,136.0,149.0
66610,-0.801,-0.787,1.001,35.099,18.473,118.099,164.0,139.0
66665,-1.054,-0.854,1.445,59.000,-20.740,174.511,172.0,125.0
66721,-0.964,-1.195,1.575,135.634,-36.672,216.115,188.0,132.0
66780,-0.729,-1.425,1.258,209.176,-33.863,250.130,183.0,178.0
66840,-0.200,-1.084,0.652,237.985,-31.092,250.130,183.0,0.0
66904,0.012,-0.394,0.289,178.260,-0.183,217.740,0.0,0.0
66956,-0.009,0.013,-0.013,119.779,-34.786,137.718,42.0,0.0
66994,0.074,0.450,-0.101,79.305,-27.733,53.153,39.0,0.0
67045,0.124,0.779,0.085,31.802,-23.382,24.038,38.0,190.0
67096,-0.052,0.619,0.439,-20.710,0.458,-6.595,38.0,194.0
67148,-0.179,0.567,0.816,-28.321,-26.840,-31.412,38.0,0.0
67200,-0.300,0.583,0.788,1.191,-11.618,-28.710,39.0,0.0
67237,-0.234,0.667,0.678,4.206,4.847,-17.366,39.0,0.0
67289,-0.290,0.677,0.700,-0.634,12.466,-9.053,39.0,192.0
67343,-0.305,0.602,0.784,-18.183,-5.000,-9.527,39.0,192.0
67395,-0.242,0.557,0.763,-14.061,-6.718,-10.008,40.0,0.0
67433,-0.256,0.584,0.742,-5.160,-1.565,-10.160,39.0,0.0
67484,-0.230,0.585,0.688,-3.924,7.282,-11.244,39.0,0.0
67522,-0.268,0.637,0.673,-9.481,24.397,-12.664,41.0,0.0
67574,-0.335,0.619,0.716,-19.420,17.542,-17.931,42.0,0.0
67612,-0.422,0.566,0.788,-21.847,-3.115,-18.496,43.0,0.0
67664,-0.388,0.531,0.790,-15.626,-14.412,-14.061,40.0,0.0
67702,-0.288,0.527,0.744,-10.160,-6.511,-9.733,39.0,0.0
67757,-0.276,0.521,0.661,-4.061,10.351,-7.733,40.0,192.0
67807,-0.372,0.519,0.721,-6.832,19.260,-9.153,41.0,175.0
67859,-0.376,0.515,0.720,-8.634,7.870,-11.267,41.0,0.0
67910,-0.363,0.500,0.737,-12.725,3.206,-12.779,39.0,0.0
67961,-0.394,0.490,0.787,-12.008,14.153,-8.916,39.0,184.0
68014,-0.418,0.477,0.811,-6.672,8.412,-8.947,39.0,0.0
68064,-0.406,0.480,0.816,-4.969,3.977,-9.198,39.0,182.0
68115,-0.392,0.461,0.711,-0.031,7.206,-10.282,40.0,181.0
68166,-0.420,0.470,0.687,-1.237,22.466,-8.863,43.0,193.0
68221,-0.497,0.463,0.762,-7.824,17.725,-7.008,45.0,188.0
68272,-0.510,0.442,0.793,-3.038,2.168,-4.496,45.0,178.0
68323,-0.487,0.406,0.849,4.832,2.168,-3.053,43.0,177.0
68374,-0.643,0.157,1.514,-22.344,-0.901,-10.267,42.0,185.0
68426,-0.946,-0.594,2.000,-0.427,-117.954,-16.221,43.0,0.0
68487,-0.539,-0.316,1.064,140.519,-155.878,-58.840,189.0,0.0
68548,-0.461,0.205,-0.074,190.527,-13.618,-72.473,195.0,0.0
68586,-0.860,0.494,-0.300,192.756,-48.489,-41.870,36.0,0.0
68637,-0.468,0.628,-0.639,209.229,-128.351,-26.443,39.0,0.0
68692,0.365,1.333,-1.008,165.366,-73.061,-15.053,36.0,190.0
68744,-0.005,1.651,-0.169,32.710,86.534,-6.954,35.0,188.0
68795,-0.700,1.173,0.726,-29.664,56.328,-11.038,36.0,0.0
68845,-0.705,0.828,0.681,6.168,-41.328,-9.550,36.0,162.0
68939,-0.250,0.956,0.171,27.733,26.290,17.832,36.0,0.0
68992,-0.291,1.016,0.200,9.626,19.229,12.718,36.0,0.0
69044,-0.291,0.963,0.189,-8.191,-12.504,1.115,37.0,0.0
69095,-0.260,0.926,0.181,-13.489,-10.893,-1.191,36.0,0.0
69137,-0.354,0.905,0.253,-17.336,3.908,-3.084,35.0,0.0
69188,-0.412,0.882,0.331,-18.267,-0.924,0.115,35.0,0.0
69232,-0.308,0.943,0.292,-17.603,-11.183,3.053,36.0,0.0
69282,-0.273,0.936,0.272,-24.008,-9.076,3.145,36.0,0.0
69319,-0.272,0.911,0.310,-27.374,-5.847,3.748,37.0,0.0
69369,-0.272,0.873,0.338,-27.427,-4.885,5.397,36.0,0.0
69407,-0.321,0.823,0.406,-25.893,-4.092,4.511,36.0,0.0
69457,-0.323,0.791,0.442,-24.855,-7.901,4.252,37.0,0.0
69494,-0.237,0.763,0.352,-16.107,-2.992,6.061,36.0,0.0
69544,-0.226,0.792,0.363,-18.542,1.916,0.290,36.0,196.0
69606,-0.252,0.807,0.426,-22.885,1.115,-6.244,36.0,197.0
69656,-0.250,0.794,0.417,-20.947,-3.153,-9.779,36.0,196.0
69706,-0.277,0.815,0.421,-20.931,5.763,-7.481,36.0,194.0
69757,-0.320,0.816,0.479,-22.725,12.229,-5.298,36.0,0.0
69808,-0.353,0.776,0.528,-20.924,2.435,-6.008,37.0,193.0
69859,-0.324,0.748,0.522,-21.771,-0.641,-6.588,37.0,0.0
69909,-0.276,0.756,0.465,-20.359,2.908,-7.137,36.0,195.0
69960,-0.242,0.827,0.343,-29.832,16.992,-9.130,37.0,0.0
70000,-0.316,0.871,0.350,-66.962,43.443,-4.664,37.0,0.0
70050,-0.395,0.747,0.324,-81.886,36.000,-6.328,37.0,0.0
70102,-0.275,0.536,0.126,-112.359,41.237,-14.687,39.0,0.0
70139,-0.143,0.241,-0.086,-161.183,77.794,-55.359,39.0,0.0
70190,-0.193,-0.052,-0.018,-205.748,102.947,-91.282,44.0,184.0
70247,-0.132,-0.555,-0.061,-226.206,118.977,-151.718,0.0,149.0
70304,-0.530,-0.932,0.362,-229.489,162.565,-197.275,0.0,144.0
70363,-0.747,-1.486,0.559,-164.374,95.481,-250.137,0.0,165.0
70422,-0.773,-1.770,0.343,-98.046,50.763,-250.137,0.0,176.0
70484,-0.691,-1.746,0.211,-11.519,123.473,-250.137,0.0,0.0
70545,-1.065,-1.790,0.661,2.145,161.740,-250.137,0.0,0.0
70601,-0.955,-1.709,0.570,35.947,85.916,-250.137,123.0,0.0
70643,-0.761,-0.494,0.607,11.855,83.053,-158.527,127.0,0.0
70700,-0.475,-0.743,0.471,27.038,23.412,33.130,128.0,0.0
70743,0.176,-0.927,0.079,35.885,38.450,57.176,131.0,0.0
70798,0.106,-1.014,0.093,16.405,4.000,49.733,127.0,0.0
70841,0.260,-0.884,0.174,-7.237,-54.611,37.893,124.0,0.0
70896,0.660,-0.930,0.175,-17.725,-46.847,32.267,123.0,0.0
70949,0.628,-0.923,0.278,-11.366,11.847,-0.496,122.0,0.0
71008,0.309,-1.052,0.376,-4.908,18.168,-29.626,123.0,0.0
71053,0.132,-0.914,0.396,-1.733,15.679,-28.863,125.0,0.0
71111,0.185,-0.962,0.299,2.580,17.336,-31.313,127.0,0.0
71156,0.188,-0.921,0.182,9.328,20.389,-10.863,132.0,0.0
71216,-0.093,-0.951,0.432,-2.351,7.420,-5.252,145.0,0.0
71261,0.243,-0.953,0.261,1.008,-9.969,9.275,129.0,0.0
71319,0.304,-0.952,0.267,1.275,-6.038,9.389,129.0,0.0
71377,0.258,-0.929,0.364,1.275,-11.069,0.969,129.0,0.0
71439,0.337,-0.970,0.299,4.267,-4.924,-0.336,128.0,0.0
71541,0.169,-0.950,0.337,7.412,-5.351,-7.878,129.0,0.0
71600,0.240,-0.945,0.286,1.366,4.351,-9.008,130.0,0.0
71658,0.188,-0.949,0.386,4.298,-4.053,-0.427,131.0,0.0
71717,0.284,-0.940,0.377,7.985,-20.817,0.924,131.0,0.0
71776,0.388,-0.967,0.382,13.084,-6.588,-1.550,131.0,0.0
71835,0.418,-0.886,0.381,21.954,-14.130,-9.863,131.0,0.0
71894,0.404,-0.833,0.468,29.336,-26.336,-29.282,133.0,0.0
71953,0.374,-0.962,0.358,40.053,-21.344,-47.977,135.0,0.0
72015,0.277,-1.068,0.377,8.313,-11.687,-40.847,139.0,0.0
72075,0.186,-0.597,0.506,24.252,-11.733,-35.450,142.0,0.0
72135,0.413,-0.780,0.339,27.359,-45.718,-7.298,143.0,0.0
72196,0.442,-0.838,0.345,10.893,-8.221,-13.908,170.0,0.0
72256,0.360,-0.682,0.429,5.931,-10.115,-4.534,142.0,0.0
72315,0.404,-0.733,0.398,9.336,-22.321,18.901,142.0,0.0
72375,0.315,-0.772,0.378,-0.656,-37.260,8.427,141.0,0.0
72434,0.424,-0.754,0.328,-4.687,-34.321,41.664,141.0,0.0
72496,0.366,-0.797,0.369,-4.260,-20.168,30.916,168.0,0.0
72559,0.288,-0.909,0.449,-9.092,-45.718,64.710,165.0,0.0
72620,0.128,-0.853,0.427,0.847,-103.328,89.870,162.0,0.0
72683,0.461,-1.120,0.223,8.336,-104.489,82.847,0.0,0.0
72732,0.615,-0.898,0.152,22.748,14.328,82.023,0.0,0.0
72781,0.366,-0.991,0.278,11.290,48.481,67.664,0.0,0.0
72838,0.334,-1.075,0.590,-5.130,-1.305,34.237,126.0,159.0
72900,0.772,-1.427,0.734,16.824,-107.588,-15.870,193.0,0.0
72949,1.522,-0.914,0.175,90.313,34.588,-75.076,0.0,0.0
73019,0.709,-1.057,-0.007,90.969,230.954,-63.588,0.0,0.0
73064,-0.132,-0.751,-0.164,113.260,250.130,-25.489,137.0,0.0
73127,-0.674,-0.728,0.032,70.565,204.924,-19.977,0.0,0.0
73177,-0.413,-0.645,0.050,21.130,125.298,-62.260,0.0,0.0
73240,-0.411,-0.663,0.094,7.771,140.947,-41.183,0.0,0.0
73289,-0.595,-0.700,0.449,-30.550,122.214,-17.206,0.0,0.0
73352,-0.800,-0.637,1.011,-52.771,28.534,-3.679,0.0,0.0
73415,-0.418,-0.794,0.927,-33.916,-79.618,8.802,0.0,0.0
73464,-0.106,-0.892,0.823,-7.809,-48.359,12.611,0.0,0.0
73534,-0.019,-0.841,0.745,15.260,-18.702,10.824,0.0,0.0
73583,-0.059,-0.804,0.633,26.924,-5.260,-16.763,0.0,0.0
73647,-0.093,-0.766,0.643,26.969,1.939,-19.557,0.0,0.0
73696,-0.131,-0.663,0.538,26.061,6.992,-27.809,0.0,0.0
73758,-0.263,-0.709,0.619,16.092,7.962,-29.366,0.0,0.0
73807,-0.267,-0.622,0.691,8.069,-13.443,-18.145,0.0,0.0
73858,-0.209,-0.668,0.686,5.252,-34.702,-8.046,0.0,0.0
73920,-0.162,-0.673,0.760,2.382,-32.435,-4.420,0.0,0.0
73984,-0.034,-0.680,0.728,8.313,-35.649,4.397,0.0,0.0
74049,-0.096,-0.700,0.783,13.260,-34.084,-1.313,200.0,0.0
74113,0.047,-0.698,0.672,11.573,-35.992,-10.771,200.0,0.0
74176,0.017,-0.678,0.660,13.756,-3.473,-4.710,200.0,0.0
74238,-0.054,-0.702,0.775,7.809,-10.473,-7.031,200.0,0.0
74302,-0.040,-0.599,0.853,9.466,-49.290,-4.191,0.0,0.0
74365,0.080,-0.586,0.800,13.046,-58.931,6.901,0.0,0.0
74425,0.167,-0.631,0.706,18.290,-20.595,0.267,144.0,0.0
