Timestamp(ms),AccelX(g),AccelY(g),AccelZ(g),GyroX(deg/s),GyroY(deg/s),GyroZ(deg/s),DistanceLeft(cm),DistanceRight(cm)
33439,-0.454,-0.329,0.893,-7.176,27.939,2.267,0.0,104.0
33490,-0.602,-0.572,0.705,-22.664,66.664,14.588,128.0,113.0
33545,-0.889,-0.616,0.592,-35.802,66.710,31.931,0.0,109.0
33598,-1.112,-0.315,0.598,-65.908,-25.450,49.870,0.0,76.0
33651,-0.589,-0.029,0.196,-92.374,-42.794,43.672,0.0,78.0
33694,-0.446,0.036,0.126,-109.550,43.786,40.092,17.0,80.0
33750,-0.354,0.060,0.153,-116.435,92.924,21.237,0.0,111.0
33810,-0.558,-0.003,0.369,-129.893,107.634,1.779,0.0,140.0
33868,-0.916,-0.440,0.580,-129.702,102.771,-9.313,0.0,163.0
33925,-1.677,-1.137,0.470,-96.046,61.481,5.779,0.0,129.0
33978,-1.416,-0.805,0.417,-62.023,-6.397,50.885,155.0,132.0
34035,-0.877,-0.435,-0.028,-60.817,-51.328,23.443,0.0,140.0
34089,-0.538,0.083,-0.223,-86.183,-12.321,10.031,153.0,144.0
34136,-0.539,0.404,-0.167,-116.321,4.252,9.244,45.0,96.0
34182,-0.702,0.330,-0.399,-131.947,18.389,12.321,51.0,93.0
34233,-1.116,0.427,-0.519,-158.481,53.664,53.046,156.0,89.0
34285,-1.917,0.084,-1.018,-233.282,47.046,147.084,122.0,87.0
34334,-2.000,-0.413,-1.192,-247.954,-34.305,159.137,116.0,86.0
34382,-1.665,-1.212,-1.125,-186.344,-105.122,162.611,95.0,91.0
34429,-0.515,-0.883,-0.686,-108.901,-61.313,97.954,71.0,97.0
34477,-0.055,-0.968,-0.550,-73.809,-2.038,17.374,58.0,99.0
34523,0.171,-1.039,-0.151,-31.725,-16.031,-74.237,59.0,101.0
34570,0.254,-0.863,-0.185,30.458,-14.145,-156.687,62.0,99.0
34621,-0.164,-0.644,-0.081,55.565,40.198,-199.046,149.0,92.0
34675,-1.669,-1.043,-1.091,148.756,196.450,-177.229,156.0,88.0
34727,-2.000,-0.881,-0.850,144.504,202.519,-50.137,160.0,87.0
34780,-1.851,-0.245,-0.378,97.275,-9.985,-4.634,158.0,92.0
34832,-0.751,0.056,-0.564,108.237,-35.985,-4.374,153.0,96.0
34879,-0.407,0.730,-0.343,87.443,27.389,-7.458,79.0,100.0
34931,-0.429,1.151,-0.056,5.229,38.344,21.244,150.0,99.0
34982,-0.725,1.048,-0.114,-108.191,7.611,70.053,152.0,96.0
35033,-1.626,0.728,-1.044,-207.145,-1.366,155.282,114.0,94.0
35085,-2.000,-0.400,-1.576,-229.427,-78.969,183.496,113.0,93.0
35135,-2.000,-0.813,-1.405,-193.626,-90.725,159.542,118.0,97.0
35184,-0.840,-0.924,-0.756,-149.634,-40.366,100.763,113.0,81.0
35232,-0.075,-0.968,-0.186,-137.458,-46.412,19.931,111.0,84.0
35281,0.687,-1.327,-0.231,-51.053,-105.137,-70.893,112.0,82.0
35330,0.809,-1.034,-0.465,70.176,-9.382,-152.969,114.0,79.0
35379,-0.339,-0.923,-0.414,146.084,100.557,-168.992,120.0,71.0
35425,-2.000,-1.083,-1.426,250.130,171.603,-187.206,51.0,94.0
35478,-2.000,0.022,-1.054,181.733,136.336,-81.893,126.0,93.0
35528,-1.990,0.186,-0.581,91.832,9.649,-26.740,125.0,99.0
35578,-0.828,0.327,-0.235,80.779,-6.626,-0.557,121.0,101.0
35630,-0.364,0.560,0.118,54.099,-15.954,7.809,119.0,103.0
35680,-0.182,1.020,0.327,1.221,-40.603,23.603,119.0,105.0
35730,-0.440,1.709,-0.090,-134.153,-94.824,67.786,120.0,100.0
35780,-0.836,1.373,-1.786,-250.137,-62.947,112.595,123.0,96.0
35829,-2.000,0.197,-2.000,-250.137,12.176,88.977,125.0,71.0
35879,-2.000,-0.415,-2.000,-250.137,-46.832,95.687,124.0,94.0
35933,-1.128,-0.974,-1.775,-250.137,7.511,46.931,121.0,100.0
36025,-0.118,-0.935,-0.130,-120.198,37.580,-6.031,111.0,79.0
36075,0.376,-1.050,0.219,-18.450,-23.305,-81.244,107.0,112.0
36125,0.147,-0.864,0.208,66.924,-60.939,-160.527,108.0,106.0
36175,-0.778,-0.823,-0.577,127.397,-18.084,-192.260,111.0,99.0
36221,-2.000,-0.397,-1.208,168.000,82.122,-133.382,51.0,97.0
36270,-2.000,0.114,-0.841,85.504,51.550,-60.664,52.0,137.0
36322,-1.595,0.070,-0.502,-9.847,-7.008,-16.557,109.0,144.0
36376,-0.720,-0.032,-0.210,-7.176,-5.710,12.725,121.0,103.0
36426,-0.337,0.236,0.121,27.481,-4.641,9.901,119.0,104.0
36476,-0.237,0.791,0.422,12.015,-54.893,-4.176,119.0,105.0
36527,-0.007,2.000,-0.027,-86.473,-84.756,21.573,100.0,102.0
36576,-1.210,1.725,-1.629,-250.137,-23.748,128.427,105.0,99.0
36622,-2.000,0.031,-2.000,-250.137,-54.374,122.237,50.0,94.0
36671,-2.000,-0.436,-2.000,-250.137,-106.878,165.359,104.0,96.0
36720,-0.997,-0.875,-1.643,-250.137,-19.794,123.603,99.0,103.0
36773,-0.231,-0.938,-0.788,-221.221,67.679,45.397,94.0,108.0
36823,0.333,-1.104,-0.123,-143.214,40.718,-50.947,93.0,112.0
36873,0.411,-0.997,0.085,-21.771,15.855,-163.427,95.0,108.0
36922,-0.037,-0.762,-0.019,18.076,10.015,-208.023,103.0,102.0
36968,-1.584,-0.966,-0.940,75.015,120.695,-174.229,49.0,100.0
37016,-2.000,-0.435,-1.038,120.305,170.870,-71.771,51.0,129.0
37073,-2.000,-0.113,-0.726,101.130,52.321,-28.282,130.0,0.0
37126,-1.257,0.316,-0.322,24.794,41.069,-13.702,125.0,123.0
37177,-0.860,0.728,-0.142,4.053,-5.198,-18.794,137.0,102.0
37231,-0.308,1.196,0.034,-61.557,-56.695,-9.656,118.0,101.0
37281,-0.170,1.133,-0.245,-157.290,-48.664,31.863,122.0,102.0
37334,-1.035,0.615,-0.927,-250.137,-10.351,66.115,50.0,0.0
37377,-2.000,0.365,-1.879,-250.137,-53.802,107.962,122.0,0.0
37427,-2.000,-0.547,-2.000,-243.053,-172.244,121.893,120.0,93.0
37476,-1.083,-0.522,-1.628,-156.145,-42.069,105.046,116.0,75.0
37526,-0.626,-0.665,-0.928,-136.130,47.275,47.382,111.0,103.0
37575,-0.004,-1.070,-0.146,-138.282,5.687,-21.473,108.0,84.0
37629,0.557,-1.103,-0.021,-52.779,-31.885,-134.069,111.0,105.0
37680,0.145,-0.874,0.129,44.786,-25.626,-199.153,116.0,101.0
37730,-0.854,-1.111,-0.503,124.084,9.855,-199.786,121.0,94.0
37781,-2.000,-0.507,-1.356,155.130,250.130,-102.336,129.0,89.0
37836,-2.000,-0.215,-0.435,96.824,163.542,-17.931,0.0,104.0
37888,-1.371,0.042,-0.458,34.893,-34.763,-12.534,131.0,99.0
37939,-0.496,0.302,-0.350,44.107,4.550,13.473,122.0,99.0
37989,-0.304,0.700,0.105,27.267,43.626,25.061,120.0,101.0
38043,-0.112,0.722,0.181,-18.809,15.824,28.275,126.0,100.0
38094,-0.514,0.884,-0.152,-116.176,12.901,50.588,130.0,93.0
38145,-1.941,0.631,-1.402,-185.550,23.542,65.886,131.0,82.0
38197,-2.000,-0.384,-2.000,-230.206,-41.237,109.122,153.0,83.0
38247,-1.723,-0.950,-1.403,-224.725,-72.145,114.901,147.0,70.0
38299,-0.652,-0.911,-0.633,-149.916,-23.374,73.626,141.0,104.0
38352,0.056,-1.005,-0.018,-77.985,-20.992,24.374,136.0,108.0
38403,0.569,-1.034,0.082,28.450,-49.206,-64.092,134.0,83.0
38456,0.472,-0.737,-0.106,119.969,-28.908,-132.588,138.0,77.0
38503,-0.951,-0.980,-0.621,189.244,-24.015,-161.130,49.0,91.0
38597,-2.000,0.205,-0.746,159.618,196.702,-6.214,154.0,89.0
38648,-1.797,0.150,-0.358,61.611,-71.702,-16.763,151.0,65.0
38701,-0.600,0.468,-0.510,48.969,-57.023,-11.290,147.0,96.0
38753,-0.321,0.720,-0.135,17.954,27.878,9.603,145.0,99.0
38805,-0.248,0.643,0.147,-41.878,11.840,31.985,145.0,99.0
38855,-0.459,0.539,-0.150,-126.389,-23.191,34.366,147.0,69.0
38907,-1.320,0.680,-1.295,-180.038,35.328,37.824,150.0,93.0
38963,-2.000,-0.162,-2.000,-247.008,-40.771,65.237,150.0,92.0
39015,-1.741,-0.424,-1.558,-250.137,-101.198,85.847,144.0,99.0
39067,-0.699,-0.554,-0.826,-227.817,-40.115,62.756,137.0,107.0
39120,-0.071,-0.742,-0.281,-175.374,-27.763,35.153,131.0,113.0
39177,0.420,-0.898,-0.104,-88.924,-35.916,-17.137,128.0,0.0
39221,0.279,-0.702,-0.148,39.771,-28.611,-71.763,130.0,0.0
39273,-0.343,-0.694,-0.312,91.840,-6.763,-95.237,134.0,109.0
39325,-1.628,-0.629,-1.002,152.817,84.115,-141.160,141.0,103.0
39385,-2.000,-0.029,-1.241,180.695,129.878,-129.656,146.0,154.0
39437,-2.000,0.507,-0.591,129.000,54.664,-31.786,145.0,105.0
39489,-1.102,0.538,-0.189,77.672,-44.107,41.374,141.0,101.0
39541,-0.336,0.587,0.002,29.740,-67.809,36.977,137.0,105.0
39593,-0.027,0.932,-0.024,-37.679,-82.366,8.504,136.0,106.0
39646,-0.009,1.303,-0.284,-142.412,-37.053,21.725,137.0,105.0
39704,-0.881,1.698,-1.581,-250.137,114.824,44.748,143.0,0.0
39748,-2.000,0.263,-2.000,-250.137,-137.244,18.550,143.0,0.0
39803,-1.794,-0.229,-2.000,-250.137,-151.076,100.534,139.0,102.0
39857,-0.732,-0.698,-1.301,-250.137,39.046,89.000,133.0,108.0
39915,-0.105,-0.946,-0.578,-165.534,63.672,47.779,129.0,128.0
39971,0.355,-1.142,0.121,-81.359,3.664,-37.641,128.0,0.0
40025,0.288,-1.297,0.132,59.374,-74.527,-182.595,132.0,145.0
40076,-0.750,-1.016,-1.056,156.802,42.351,-250.137,140.0,102.0
40128,-2.000,-0.283,-1.304,109.031,250.130,-151.603,148.0,112.0
40185,-2.000,0.065,-0.233,21.061,66.053,-66.092,149.0,0.0
40228,-1.354,0.213,-0.674,-34.420,-125.405,-43.878,147.0,0.0
40279,-0.772,0.302,-0.572,-44.351,-57.519,17.947,144.0,120.0
40330,-0.505,0.549,-0.114,-53.176,-11.687,62.893,141.0,102.0
40387,-0.281,0.773,-0.072,-79.710,-39.885,61.015,140.0,0.0
40444,-0.358,0.758,-0.653,-152.351,-3.496,67.267,142.0,0.0
40501,-1.470,0.562,-1.651,-250.137,78.344,74.076,146.0,0.0
40545,-2.000,-0.388,-1.829,-250.137,-64.176,43.885,145.0,0.0
40596,-1.691,-0.640,-1.664,-250.137,-58.420,29.336,142.0,100.0
40646,-0.785,-0.626,-0.793,-185.901,31.763,-1.847,137.0,76.0
40699,0.019,-0.844,-0.160,-127.435,41.779,-48.405,123.0,108.0
40751,0.471,-1.064,0.212,-10.481,-6.382,-122.305,123.0,108.0
40802,0.303,-0.867,-0.114,91.008,-12.489,-186.580,137.0,103.0
40849,-1.041,-0.873,-0.952,164.229,83.221,-163.878,76.0,98.0
40901,-2.000,-0.017,-1.228,140.527,194.748,-71.328,149.0,101.0
40954,-2.000,-0.196,-0.571,79.130,32.084,-9.588,76.0,0.0
40993,-1.358,0.007,-0.553,24.695,-41.229,-7.168,72.0,0.0
41040,-0.880,0.157,-0.398,8.649,-5.450,24.550,72.0,100.0
41091,-0.571,0.480,-0.097,-4.183,6.336,49.756,71.0,101.0
41138,-0.298,0.775,0.052,-25.962,-13.267,47.931,68.0,101.0
41227,-1.026,0.851,-0.684,-213.992,34.527,101.588,64.0,96.0
41273,-2.000,0.045,-1.565,-250.137,-45.382,105.725,57.0,93.0
41320,-2.000,-0.848,-1.881,-250.137,-141.756,97.153,58.0,96.0
41366,-1.329,-0.660,-1.292,-174.802,-12.168,67.557,55.0,100.0
41413,-0.682,-0.576,-0.642,-121.573,56.412,23.740,57.0,105.0
41460,-0.149,-0.707,-0.217,-79.763,48.397,-15.649,70.0,110.0
41511,0.276,-0.894,0.067,-13.321,-2.389,-79.275,132.0,110.0
41573,0.450,-0.724,-0.139,82.573,-24.000,-125.237,136.0,80.0
41623,-0.442,-0.714,-0.325,145.511,2.840,-149.595,142.0,98.0
41675,-1.855,-0.661,-1.272,217.443,103.466,-125.916,150.0,92.0
41724,-2.000,-0.261,-0.949,163.176,188.221,-35.405,111.0,91.0
41773,-2.000,-0.012,-0.414,83.443,-19.076,6.458,103.0,93.0
41821,-0.871,0.286,-0.407,65.656,-67.489,15.802,93.0,98.0
41868,-0.348,0.676,-0.170,51.244,-11.473,23.603,113.0,56.0
41919,-0.348,0.813,0.010,19.260,-0.275,29.817,141.0,101.0
41969,-0.164,1.074,-0.267,-77.176,5.748,78.832,77.0,98.0
42015,-0.715,1.036,-0.744,-183.160,80.374,127.931,59.0,95.0
42056,-2.000,0.287,-1.303,-241.267,44.870,95.374,51.0,15.0
42102,-2.000,-0.563,-1.652,-241.618,-103.931,45.527,63.0,94.0
42151,-1.569,-0.661,-1.320,-220.038,-79.557,41.214,116.0,101.0
42199,-0.476,-0.471,-0.594,-149.107,-3.939,-0.084,62.0,104.0
42247,0.023,-0.542,-0.227,-105.893,18.794,-34.031,109.0,82.0
42296,0.411,-0.656,-0.029,-25.427,15.473,-73.779,108.0,84.0
42347,0.315,-0.693,0.010,56.824,18.893,-108.092,112.0,80.0
42395,-0.437,-0.775,-0.182,96.290,-6.313,-153.565,118.0,85.0
42444,-1.741,-0.889,-1.367,152.145,51.969,-147.672,124.0,77.0
42493,-2.000,-0.468,-1.377,119.802,181.527,-47.244,127.0,73.0
42546,-2.000,0.030,-0.356,55.908,32.168,7.290,129.0,130.0
42596,-0.866,0.119,-0.205,40.206,-56.313,22.321,124.0,101.0
42646,-0.362,0.432,-0.027,49.992,-36.496,22.366,121.0,101.0
42696,-0.170,0.581,0.026,27.435,-38.115,8.511,120.0,101.0
42746,-0.251,0.806,-0.227,-42.336,-33.626,4.489,119.0,100.0
42799,-0.600,0.881,-0.738,-157.908,-1.702,18.176,118.0,98.0
42850,-2.000,0.885,-1.657,-250.137,8.863,17.115,114.0,115.0
42905,-2.000,0.137,-2.000,-250.137,-120.298,59.145,112.0,0.0
42947,-1.276,-0.798,-1.840,-250.137,-84.511,99.282,111.0,0.0
42997,-0.544,-0.549,-1.033,-211.282,2.031,79.374,119.0,103.0
43047,-0.057,-0.684,-0.522,-135.191,6.061,41.725,99.0,112.0
43098,0.384,-0.832,-0.198,-73.687,-9.504,-15.084,115.0,112.0
43147,0.085,-0.812,0.106,-10.931,-49.130,-58.084,92.0,110.0
43196,-0.639,-0.715,-0.368,70.389,-90.954,-158.595,44.0,114.0
43242,-1.618,-0.555,-1.286,130.244,123.847,-193.458,50.0,99.0
43292,-2.000,0.009,-0.638,94.641,213.985,-103.275,106.0,106.0
43344,-1.956,0.313,-0.141,7.214,-1.916,-67.397,149.0,106.0
43394,-0.837,0.438,-0.241,-8.664,-74.489,-49.771,103.0,105.0
43443,-0.524,0.603,-0.039,-18.954,-39.214,-16.511,99.0,103.0
43495,-0.354,0.819,0.062,-60.420,-50.771,12.420,143.0,103.0
43545,-0.408,0.980,-0.351,-156.847,-71.198,17.924,131.0,99.0
43598,-0.845,0.808,-1.629,-250.137,11.634,40.076,106.0,100.0
43649,-2.000,0.102,-2.000,-250.137,50.374,47.130,108.0,122.0
43742,-1.021,-0.837,-1.307,-250.137,-69.466,46.092,107.0,99.0
43791,-0.301,-0.790,-0.723,-174.649,-1.366,30.450,100.0,103.0
43840,0.120,-0.838,-0.207,-84.511,21.153,-9.008,98.0,107.0
43889,0.219,-0.676,0.047,-14.397,-29.076,-69.252,103.0,106.0
43939,0.103,-0.581,-0.066,35.794,-45.137,-113.031,110.0,102.0
43985,-0.957,-0.826,-0.975,102.863,45.107,-167.817,49.0,96.0
44042,-2.000,-0.537,-1.167,104.611,162.756,-83.298,123.0,0.0
44096,-2.000,0.094,-0.397,49.069,31.053,-27.870,124.0,0.0
44152,-1.049,0.242,-0.230,0.656,-34.344,-16.130,125.0,0.0
44203,-0.429,0.556,0.009,2.611,-16.794,10.511,117.0,100.0
44253,-0.199,0.894,0.078,-25.641,-16.473,12.397,120.0,100.0
44303,-0.318,0.800,-0.376,-96.321,-15.092,21.588,120.0,99.0
44358,-1.231,0.704,-1.106,-189.534,41.855,65.092,139.0,173.0
44408,-2.000,0.231,-1.514,-250.137,-10.740,85.824,126.0,93.0
44459,-2.000,-0.694,-1.674,-218.244,-140.779,64.939,120.0,93.0
44512,-0.721,-0.605,-1.177,-158.580,-43.634,45.458,115.0,99.0
44562,-0.162,-0.785,-0.582,-111.107,1.137,10.649,109.0,104.0
44612,0.419,-0.780,-0.274,-71.321,0.053,-58.282,107.0,105.0
44661,0.438,-0.740,-0.083,6.069,6.908,-113.603,108.0,84.0
44706,-0.343,-0.810,-0.109,57.061,-16.366,-154.466,45.0,98.0
44755,-1.693,-0.774,-1.319,141.954,97.679,-153.260,126.0,73.0
44803,-2.000,-0.206,-0.855,112.557,249.893,3.092,50.0,98.0
44853,-2.000,0.108,0.051,76.527,49.611,15.076,127.0,95.0
44906,-0.883,0.133,-0.398,63.924,-29.656,4.389,127.0,97.0
44956,-0.514,0.486,-0.117,43.763,23.420,11.748,124.0,95.0
45006,-0.353,0.615,0.052,20.305,-1.908,14.366,125.0,90.0
45059,-0.129,0.744,-0.011,-39.580,-8.321,25.611,148.0,91.0
45110,-0.665,0.749,-0.408,-125.802,13.252,61.450,150.0,82.0
45161,-2.000,0.507,-1.369,-178.160,-5.443,80.672,154.0,81.0
45212,-2.000,-0.571,-1.779,-194.886,-101.863,124.450,151.0,92.0
45264,-1.217,-0.810,-1.000,-179.473,-48.198,101.313,145.0,99.0
45317,-0.373,-0.698,-0.359,-127.023,-28.458,40.908,139.0,105.0
45372,0.244,-0.896,-0.004,-69.748,-17.481,-37.809,135.0,108.0
45422,0.495,-0.896,0.021,33.153,-0.611,-99.573,136.0,79.0
45472,-0.078,-0.965,-0.094,116.290,27.046,-134.656,140.0,74.0
45522,-1.930,-1.388,-1.323,235.634,74.817,-177.427,147.0,70.0
45576,-2.000,-0.413,-1.208,167.420,174.527,-59.626,151.0,92.0
45628,-2.000,0.167,-0.791,133.427,-0.573,-48.878,151.0,93.0
45679,-1.158,0.547,-0.792,93.458,19.901,-5.328,148.0,97.0
45731,-0.730,0.708,-0.187,43.573,43.504,29.160,144.0,101.0
45787,-0.361,0.597,0.079,-9.275,-21.061,30.847,142.0,102.0
45839,-0.081,0.598,0.018,-36.885,-17.115,29.885,142.0,101.0
45891,-0.332,0.728,-0.218,-127.313,12.168,29.695,145.0,99.0
45948,-1.916,0.942,-1.566,-250.137,27.061,-13.908,150.0,0.0
45993,-2.000,0.108,-2.000,-250.137,-158.992,30.130,149.0,0.0
46044,-1.121,-0.645,-1.966,-250.137,-67.595,72.534,143.0,72.0
46094,-0.479,-0.646,-0.732,-219.962,-1.023,36.893,137.0,79.0
46146,0.120,-0.891,-0.372,-164.924,-15.244,-1.099,133.0,112.0
46206,0.512,-0.862,-0.052,-83.336,-29.115,-59.206,133.0,0.0
46251,0.157,-0.930,0.132,18.626,-29.756,-120.519,136.0,0.0
46345,-2.000,-1.178,-1.236,171.290,20.198,-250.137,149.0,96.0
46404,-2.000,-0.273,-1.181,87.519,224.740,-89.687,152.0,0.0
46448,-1.741,0.220,-0.233,-7.450,-36.198,-19.580,149.0,0.0
46500,-0.667,0.373,-0.321,-5.046,-81.374,11.237,145.0,101.0
46553,-0.202,0.505,-0.095,6.595,-9.099,31.977,142.0,103.0
46604,-0.225,0.842,0.216,-15.031,-9.053,31.511,141.0,102.0
46656,-0.247,1.277,-0.183,-130.511,-24.466,25.565,144.0,99.0
46717,-1.561,0.947,-1.890,-250.137,59.229,13.183,149.0,0.0
46763,-2.000,-0.179,-2.000,-250.137,-171.573,60.687,150.0,0.0
46814,-1.594,-0.800,-2.000,-250.137,-85.130,126.756,145.0,96.0
46866,-0.754,-0.960,-1.110,-250.137,10.244,112.718,139.0,103.0
46919,0.011,-1.219,-0.379,-176.137,-11.374,57.000,134.0,115.0
46971,0.506,-1.129,0.132,-55.802,-13.069,-43.458,131.0,115.0
47024,0.289,-0.883,0.174,44.863,-24.458,-137.649,135.0,108.0
47076,-0.879,-0.471,-0.419,94.260,-7.046,-182.420,141.0,102.0
47130,-2.000,-0.082,-1.456,82.397,123.420,-90.015,51.0,172.0
47188,-2.000,0.404,-0.561,32.710,88.374,-16.618,148.0,0.0
47233,-1.101,0.293,-0.405,-30.084,-23.053,-9.740,144.0,0.0
47290,-0.594,0.262,-0.267,-33.336,-22.015,-11.382,132.0,0.0
47341,-0.406,0.416,0.031,-40.794,-34.855,-31.969,127.0,104.0
47393,-0.432,0.552,-0.200,-55.985,-35.374,-27.366,141.0,104.0
47447,-0.501,0.563,-0.561,-159.481,10.954,40.267,143.0,111.0
47498,-0.924,0.486,-1.055,-225.817,73.336,63.000,130.0,98.0
47549,-2.000,0.027,-1.468,-209.824,-12.779,30.954,75.0,96.0
47597,-2.000,-0.098,-1.632,-205.198,-35.260,57.710,71.0,97.0
47645,-1.307,-0.486,-0.926,-184.718,-4.267,61.809,64.0,101.0
47692,-0.368,-0.740,-0.395,-153.924,-11.466,30.595,50.0,107.0
47740,0.274,-0.956,0.015,-86.168,-26.901,-32.939,66.0,109.0
47788,0.587,-0.828,-0.023,21.565,-39.893,-101.863,58.0,108.0
47834,0.157,-0.661,-0.113,100.000,6.229,-146.137,60.0,73.0
47881,-1.312,-1.111,-0.988,178.687,64.092,-167.901,61.0,97.0
47928,-2.000,-0.496,-1.088,143.466,183.214,-128.183,50.0,93.0
47978,-2.000,-0.144,-0.686,74.710,65.145,-69.000,65.0,94.0
48026,-1.367,0.186,-0.581,54.725,-26.985,-38.878,67.0,96.0
48079,-0.574,0.549,-0.337,42.405,-2.176,7.725,67.0,96.0
48125,-0.390,0.623,-0.042,19.557,24.344,25.969,51.0,100.0
48172,-0.283,0.614,0.108,-12.458,2.511,44.832,56.0,100.0
48217,-0.391,0.641,-0.138,-65.237,14.351,71.237,57.0,96.0
48264,-1.082,0.482,-0.783,-125.550,42.916,106.053,74.0,93.0
48310,-2.000,-0.013,-1.483,-177.206,4.687,110.267,57.0,90.0
48358,-2.000,-0.468,-1.724,-219.588,-82.832,91.534,59.0,93.0
48407,-1.135,-0.695,-1.156,-194.702,-56.962,50.595,108.0,99.0
48456,-0.353,-0.480,-0.540,-149.565,-18.519,16.031,101.0,104.0
48505,0.241,-0.687,-0.255,-99.679,38.687,-17.015,97.0,108.0
48553,0.439,-0.872,0.084,-11.298,35.366,-52.893,92.0,102.0
48603,0.171,-0.884,0.032,90.061,-7.824,-95.603,108.0,87.0
48651,-0.741,-0.822,-0.659,172.527,3.733,-134.954,122.0,72.0
48698,-2.000,-0.470,-1.529,220.748,124.031,-119.809,81.0,93.0
48747,-2.000,-0.072,-0.988,106.924,80.160,-12.466,60.0,98.0
48793,-1.410,0.102,-0.754,80.389,-35.908,10.534,58.0,98.0
48886,-0.343,0.652,-0.096,76.191,11.527,24.076,119.0,101.0
48933,-0.253,0.816,0.172,20.710,-28.573,10.031,79.0,101.0
48984,-0.288,0.867,-0.054,-55.061,-64.664,12.084,119.0,100.0
49034,-0.697,0.773,-0.809,-154.756,-20.756,33.954,124.0,97.0
49080,-2.000,0.451,-1.903,-219.282,44.763,47.748,59.0,94.0
49127,-2.000,-0.103,-1.924,-250.137,-63.954,58.344,63.0,96.0
49176,-1.558,-0.645,-1.502,-250.137,-83.702,49.046,119.0,100.0
49229,-0.448,-0.455,-0.703,-211.740,-33.977,41.084,112.0,107.0
49278,0.202,-0.733,-0.256,-151.092,-17.908,12.504,110.0,87.0
49327,0.559,-0.814,-0.014,-77.565,-23.870,-46.847,109.0,86.0
49382,0.429,-0.967,-0.209,6.084,-27.351,-102.389,111.0,0.0
49432,-0.719,-1.080,-0.950,124.725,44.359,-169.092,118.0,100.0
49480,-2.000,-0.631,-1.556,171.260,221.237,-152.229,123.0,67.0
49537,-2.000,0.050,-0.680,91.237,123.107,-83.198,122.0,0.0
49593,-1.516,0.125,-0.448,19.924,-72.702,-45.176,117.0,0.0
49645,-0.509,0.420,-0.321,35.725,-12.863,-12.206,111.0,101.0
49694,-0.544,0.667,-0.102,9.504,33.870,12.786,106.0,103.0
49743,-0.425,1.092,-0.004,-63.260,-41.916,23.824,103.0,101.0
49793,-0.389,1.086,-0.571,-171.313,-67.603,26.176,105.0,100.0
49844,-0.975,0.960,-1.691,-250.137,-6.046,-5.695,108.0,123.0
49895,-2.000,-0.277,-2.000,-250.137,-108.015,-15.641,109.0,119.0
49944,-1.423,-0.571,-2.000,-250.137,-122.740,30.008,104.0,97.0
49993,-0.644,-0.699,-1.210,-247.687,-3.969,37.969,99.0,102.0
50040,-0.247,-0.790,-0.483,-156.305,-18.588,45.412,95.0,33.0
50096,0.263,-0.732,0.015,-92.511,-54.855,13.397,93.0,0.0
50136,0.552,-0.937,-0.051,-5.298,-72.718,-62.817,96.0,0.0
50185,0.193,-0.814,-0.061,45.107,-26.321,-153.794,100.0,104.0
50234,-1.501,-1.071,-1.367,119.702,119.489,-212.229,108.0,96.0
50286,-2.000,-0.501,-1.289,93.115,163.786,-74.886,128.0,117.0
50342,-1.959,-0.056,-0.569,38.534,3.641,-52.649,128.0,0.0
50394,-0.965,0.384,-0.468,33.664,11.244,-48.298,124.0,118.0
50446,-0.711,0.531,-0.099,5.389,13.962,-18.779,122.0,130.0
50505,-0.388,0.757,0.141,-47.626,-53.718,-5.634,120.0,0.0
50562,-0.352,0.892,-0.175,-120.084,-47.794,7.489,131.0,0.0
50618,-0.892,0.870,-1.066,-214.260,-13.038,48.641,121.0,0.0
50674,-2.000,0.572,-2.000,-250.137,-85.809,47.550,126.0,0.0
50717,-1.938,-0.342,-2.000,-250.137,-138.985,76.107,118.0,0.0
50765,-0.913,-0.879,-1.420,-250.137,-50.214,68.107,114.0,77.0
50813,-0.151,-0.830,-0.754,-188.908,-5.733,38.603,110.0,79.0
50863,0.411,-1.051,-0.286,-107.290,15.771,-18.137,108.0,81.0
50916,0.578,-0.864,-0.105,-24.649,21.542,-100.878,110.0,104.0
50962,0.065,-0.938,-0.171,42.748,48.313,-156.435,44.0,99.0
51012,-1.245,-1.147,-1.091,136.618,119.756,-196.718,127.0,92.0
51062,-2.000,-0.703,-1.396,117.588,195.237,-53.000,128.0,90.0
51107,-2.000,-0.114,-0.477,42.672,35.847,3.824,129.0,7.0
51159,-1.136,-0.088,-0.448,33.366,-47.565,18.924,125.0,102.0
51210,-0.481,0.178,-0.229,62.115,-8.504,47.626,121.0,105.0
51260,-0.345,0.486,0.127,61.099,9.687,41.076,119.0,101.0
51313,-0.299,0.831,0.016,5.489,-43.443,13.870,120.0,100.0
51363,-0.617,0.921,-0.707,-128.374,9.374,24.534,124.0,98.0
51457,-2.000,-0.265,-1.938,-213.031,-100.519,40.366,128.0,85.0
51507,-1.344,-0.366,-1.479,-227.519,-67.679,58.557,116.0,89.0
51556,-0.677,-0.358,-0.698,-193.489,-27.366,36.939,111.0,95.0
51606,0.038,-0.686,-0.408,-156.504,-22.595,25.641,135.0,81.0
51658,0.570,-1.050,-0.329,-102.084,-39.534,0.359,134.0,101.0
51709,0.546,-0.974,-0.167,13.870,-10.710,-50.015,137.0,105.0
51756,-0.369,-1.153,-0.385,150.916,-39.710,-147.939,43.0,99.0
51811,-1.838,-0.709,-1.291,201.786,143.450,-178.542,151.0,87.0
51857,-2.000,-0.187,-1.260,161.603,250.130,-5.031,53.0,86.0
51908,-2.000,0.173,-0.178,78.489,53.954,11.359,155.0,90.0
51960,-0.705,0.313,-0.549,91.160,-69.580,14.290,150.0,95.0
52013,-0.244,0.675,-0.390,85.061,30.328,35.779,147.0,96.0
52064,-0.269,0.709,0.035,28.603,52.321,42.702,147.0,99.0
52116,-0.433,0.677,-0.007,-61.718,-31.969,27.626,149.0,95.0
52168,-0.796,0.651,-0.971,-151.611,-31.504,-2.954,152.0,91.0
52218,-2.000,-0.198,-1.828,-201.504,-1.985,-0.267,155.0,9.0
52271,-2.000,-0.504,-1.353,-250.137,-73.458,18.481,152.0,93.0
52323,-0.720,-0.547,-0.823,-226.618,-95.183,-13.069,147.0,97.0
52375,-0.205,-0.312,-0.423,-150.237,-61.374,-30.695,142.0,100.0
52425,0.077,-0.448,-0.135,-98.298,-49.847,-53.656,140.0,74.0
52475,0.254,-0.542,-0.118,-63.817,-57.824,-36.458,141.0,74.0
52528,-0.207,-1.051,-0.688,61.038,-28.840,-26.725,144.0,97.0
52580,-1.756,-0.563,-1.045,149.115,182.802,-26.473,149.0,92.0
52641,-2.000,-0.468,-0.396,80.779,100.893,14.023,151.0,0.0
52685,-0.986,-0.228,-0.573,81.618,-34.473,2.374,149.0,0.0
52737,-0.554,0.179,-0.667,125.115,37.962,11.313,147.0,98.0
52789,-0.669,0.419,-0.364,128.092,75.267,31.954,145.0,97.0
52841,-0.558,0.660,0.085,92.557,2.427,37.725,145.0,97.0
52893,-0.365,0.662,0.007,28.649,-53.046,27.847,145.0,96.0
52944,-0.587,0.804,-0.054,-80.779,-23.824,9.702,148.0,93.0
52990,-1.105,0.798,-0.321,-155.733,-35.122,-16.840,50.0,89.0
53043,-1.557,0.500,-0.606,-134.122,-61.496,-129.679,155.0,86.0
53098,-2.000,-1.321,-1.013,-23.695,-250.137,-233.168,158.0,85.0
53157,-1.608,-2.000,-0.917,35.916,-250.137,-250.137,193.0,168.0
53217,0.229,-0.662,-2.000,197.031,-250.137,-250.137,0.0,183.0
53269,0.350,-0.261,-0.045,-1.046,11.115,164.489,30.0,0.0
53329,-0.037,-0.862,0.186,43.221,141.458,43.748,0.0,188.0
53390,-0.574,-0.912,1.093,-5.908,-10.656,54.076,0.0,189.0
53450,-0.231,-0.543,0.827,37.931,-66.947,-15.145,0.0,196.0
53510,-0.090,-0.615,0.511,33.053,2.588,11.969,0.0,169.0
53572,-0.344,-0.605,0.599,19.267,16.832,0.412,0.0,166.0
53632,-0.417,-0.549,0.585,6.351,-34.985,-10.405,177.0,0.0
53691,-0.271,-0.573,0.618,-5.168,-27.771,-11.145,162.0,0.0
53748,-0.296,-0.603,0.734,-2.000,-16.580,5.427,177.0,170.0
53807,-0.263,-0.631,0.724,-3.542,-14.023,-3.000,177.0,170.0
53866,-0.310,-0.624,0.734,1.863,-9.351,-1.817,176.0,0.0
53924,-0.281,-0.586,0.776,-1.061,3.076,5.420,176.0,170.0
53984,-0.322,-0.572,0.746,2.351,-3.504,-8.092,176.0,0.0
54044,-0.318,-0.560,0.696,3.985,-19.221,-13.221,176.0,0.0
54107,-0.267,-0.589,0.653,1.954,-6.053,-1.374,178.0,0.0
54211,-0.300,-0.592,0.741,-0.023,-4.840,3.168,0.0,0.0
54268,-0.264,-0.581,0.744,-3.015,0.153,1.046,177.0,169.0
54330,-0.322,-0.574,0.774,-4.053,-7.008,-3.412,0.0,0.0
54387,-0.257,-0.586,0.686,-5.458,-0.481,-0.664,125.0,0.0
54444,-0.315,-0.610,0.749,-8.183,-0.992,2.466,125.0,0.0
54503,-0.273,-0.595,0.777,-7.588,-9.679,3.252,175.0,0.0
54564,-0.264,-0.578,0.740,-3.336,-8.305,6.038,0.0,197.0
54624,-0.256,-0.622,0.711,-1.374,-0.496,9.130,176.0,199.0
54685,-0.277,-0.601,0.725,-3.046,2.969,4.351,176.0,170.0
54744,-0.301,-0.628,0.748,-1.931,1.000,3.389,176.0,169.0
54802,-0.293,-0.580,0.729,0.115,4.130,11.802,175.0,178.0
54866,-0.161,-0.543,0.912,0.107,4.985,17.397,0.0,170.0
54926,0.560,-1.116,1.253,36.977,-60.947,25.214,0.0,176.0
54985,1.212,-1.352,0.883,77.710,-110.084,-62.313,0.0,187.0
55037,0.647,-0.974,0.155,89.534,64.580,-76.557,61.0,0.0
55097,-0.730,-1.246,0.315,27.038,135.359,-137.046,0.0,0.0
55155,-1.196,-0.746,0.524,-23.855,42.527,-225.901,159.0,0.0
55202,-1.033,-0.362,0.553,-38.000,31.481,-202.046,153.0,0.0
55260,-0.861,-0.517,0.696,-29.298,29.832,-151.481,157.0,0.0
55304,-0.225,-0.390,0.739,-29.634,24.237,-97.649,160.0,0.0
55361,-0.162,-0.349,0.874,-30.924,36.847,-52.748,159.0,187.0
55419,-0.003,-0.852,0.726,-12.420,-30.580,-49.580,163.0,0.0
55477,0.175,-0.683,0.634,-20.641,33.290,-30.427,164.0,0.0
55535,-0.133,-0.663,0.839,-19.840,24.443,-35.718,166.0,0.0
55596,-0.042,-0.648,0.747,-12.969,3.771,-17.809,0.0,0.0
55657,0.006,-0.658,0.730,-8.855,34.351,-14.718,188.0,174.0
55714,-0.047,-0.751,0.751,-4.710,24.191,-5.397,189.0,171.0
55772,-0.031,-0.752,0.798,-12.947,-12.443,0.450,168.0,172.0
55828,0.126,-0.687,0.697,-2.763,6.611,-3.740,167.0,170.0
55885,0.062,-0.736,0.656,3.260,25.115,-2.832,169.0,170.0
55944,-0.042,-0.783,0.760,-5.305,3.374,-2.252,0.0,171.0
56001,0.077,-0.656,0.715,0.664,-3.053,-1.015,171.0,174.0
56057,0.062,-0.702,0.686,-0.962,5.374,5.000,170.0,170.0
56115,-0.012,-0.739,0.683,-2.405,3.878,6.168,169.0,171.0
56174,-0.005,-0.771,0.707,-4.534,-7.405,6.198,169.0,172.0
56231,0.076,-0.742,0.773,-5.473,-13.206,10.359,169.0,172.0
56288,0.259,-0.759,0.669,5.840,-0.351,-8.603,169.0,173.0
56346,0.003,-0.751,0.718,5.519,24.939,-4.061,183.0,173.0
56404,-0.084,-0.702,0.711,1.313,-9.191,-1.962,191.0,174.0
56462,0.006,-0.672,0.635,-1.496,-8.435,3.206,170.0,174.0
56518,0.014,-0.713,0.641,0.160,-0.847,12.031,168.0,172.0
56576,-0.020,-0.731,0.722,-4.336,1.977,17.580,168.0,173.0
56633,0.034,-0.725,0.737,-0.496,-9.290,15.061,167.0,175.0
56692,0.083,-0.753,0.698,5.672,-7.237,17.076,165.0,176.0
56750,0.044,-0.728,0.700,-0.328,2.252,9.443,164.0,174.0
56806,0.044,-0.732,0.684,4.008,-7.328,10.313,164.0,176.0
56863,0.011,-0.722,0.672,1.176,-7.443,13.878,164.0,175.0
56920,-0.047,-0.673,0.644,-0.130,0.954,21.427,163.0,176.0
56977,-0.218,-0.664,0.612,-3.046,4.702,32.374,163.0,175.0
57030,-0.591,-0.654,0.359,3.916,12.618,105.481,163.0,111.0
57129,-1.808,-0.563,0.189,-46.244,79.145,250.130,0.0,121.0
57191,-1.748,-0.735,0.304,-95.107,114.763,250.130,0.0,166.0
57237,-1.596,-1.032,0.904,-147.878,64.565,250.130,53.0,103.0
57283,-1.046,-1.108,0.811,-90.229,-69.550,250.130,35.0,103.0
57330,-0.406,-1.212,0.664,-67.435,-76.450,225.374,33.0,143.0
57376,-0.176,-0.682,0.684,-60.427,-50.893,127.176,31.0,108.0
57422,-0.306,-0.343,0.593,-42.267,-29.000,43.550,30.0,113.0
57467,-0.545,0.166,0.584,-24.137,-0.847,-12.038,31.0,111.0
57517,-0.817,0.324,0.588,-7.725,18.458,-6.275,32.0,168.0
57565,-0.958,0.252,0.668,-7.725,-1.656,5.901,32.0,158.0
57614,-0.637,0.233,0.538,-5.771,-34.527,-3.237,31.0,108.0
57659,-0.582,0.181,0.486,-2.427,-1.634,-12.557,32.0,107.0
57705,-0.635,0.160,0.480,-2.580,20.977,-21.412,31.0,109.0
57750,-0.736,0.241,0.500,-0.824,28.824,-30.412,32.0,108.0
57796,-0.793,0.278,0.577,-0.969,22.374,-27.031,32.0,107.0
57841,-0.738,0.252,0.625,2.214,11.221,-27.450,33.0,105.0
57886,-0.761,0.216,0.615,9.412,17.611,-29.672,33.0,105.0
57932,-0.794,0.192,0.610,12.290,8.863,-28.870,33.0,107.0
57977,-0.784,0.192,0.543,17.733,2.015,-31.840,34.0,108.0
58029,-0.738,0.219,0.435,18.702,17.832,-29.282,33.0,142.0
58075,-0.821,0.246,0.452,15.023,33.496,-24.756,36.0,110.0
58121,-0.936,0.198,0.495,12.267,12.198,-21.603,38.0,112.0
58169,-0.814,0.216,0.432,6.092,1.924,-18.885,36.0,143.0
58215,-0.822,0.214,0.428,-1.038,16.855,-14.969,36.0,109.0
58261,-0.886,0.182,0.483,-7.832,10.595,-12.618,36.0,109.0
58306,-0.848,0.164,0.471,-11.076,2.031,-14.206,35.0,109.0
58352,-0.835,0.133,0.478,-10.641,5.336,-10.466,38.0,109.0
58401,-0.843,0.114,0.481,-9.427,3.847,-8.374,36.0,110.0
58447,-0.777,0.107,0.442,-9.015,9.405,-9.351,34.0,110.0
58493,-0.836,0.081,0.451,-10.008,18.863,-9.466,36.0,109.0
58540,-0.909,0.056,0.473,-7.565,6.748,-11.908,36.0,109.0
58586,-0.882,0.040,0.433,-6.221,-0.198,-12.282,34.0,107.0
58631,-0.842,0.030,0.411,-6.046,7.206,-11.160,34.0,108.0
58677,-0.867,0.032,0.437,-6.015,11.641,-11.962,33.0,107.0
58723,-0.888,0.016,0.465,-5.473,3.382,-14.718,34.0,106.0
58768,-0.839,0.010,0.435,-6.237,1.122,-15.626,34.0,108.0
58817,-0.854,-0.010,0.437,-2.450,8.817,-16.489,34.0,106.0
58863,-0.885,-0.014,0.441,-2.641,4.542,-17.878,33.0,108.0
58909,-0.873,-0.010,0.410,-2.557,4.733,-17.710,33.0,108.0
58954,-0.882,-0.015,0.395,-3.748,8.176,-14.031,33.0,106.0
59000,-0.868,0.052,0.405,-4.511,9.443,-9.153,32.0,106.0
59046,-0.868,0.088,0.427,-12.603,10.511,1.664,34.0,105.0
59098,-1.064,-0.012,0.421,-13.397,5.756,13.939,140.0,106.0
59145,-1.203,0.043,0.330,-8.733,13.389,47.656,39.0,106.0
59191,-1.347,0.358,0.250,-6.130,35.176,85.252,44.0,107.0
59240,-1.699,0.808,0.227,-27.855,51.924,168.565,34.0,110.0
59287,-1.641,1.076,0.090,-65.305,38.481,240.786,41.0,115.0
59332,-1.539,0.424,0.131,-140.893,-39.443,250.130,129.0,11.0
59382,-0.738,-0.336,0.007,-167.763,-95.947,213.664,0.0,10.0
59444,-0.125,-0.844,0.184,-129.908,-82.092,113.901,0.0,138.0
59544,-0.278,0.519,0.443,34.229,-2.595,4.885,0.0,133.0
59600,-0.765,0.410,0.605,-14.649,-13.122,3.031,0.0,138.0
59658,-0.463,0.621,0.780,-14.695,-43.061,-8.824,0.0,138.0
59719,-0.568,0.579,0.733,0.206,-35.557,15.550,0.0,140.0
59777,-0.283,0.507,0.573,-0.122,-38.740,19.450,0.0,138.0
59834,-0.250,0.457,0.688,-8.382,1.115,6.366,0.0,138.0
59891,-0.302,0.507,0.678,0.878,30.824,-8.107,0.0,138.0
59949,-0.530,0.504,0.725,6.969,35.573,-9.588,0.0,136.0
60005,-0.479,0.540,0.707,8.214,16.664,-8.939,0.0,136.0
60062,-0.467,0.526,0.635,10.656,16.870,-7.885,0.0,136.0
60120,-0.474,0.477,0.621,8.427,24.466,-10.855,0.0,136.0
60177,-0.552,0.522,0.647,9.847,28.046,-16.550,0.0,136.0
60234,-0.512,0.518,0.599,14.435,21.718,-17.924,0.0,136.0
60295,-0.551,0.547,0.560,11.267,27.191,-17.015,0.0,135.0
60352,-0.559,0.546,0.541,10.160,26.282,-17.618,0.0,135.0
60409,-0.662,0.530,0.532,9.985,26.695,-14.977,0.0,135.0
60467,-0.645,0.511,0.523,2.489,16.023,-16.061,0.0,132.0
60524,-0.596,0.514,0.492,4.718,23.954,-17.000,0.0,132.0
60580,-0.736,0.518,0.520,4.298,33.817,-17.084,0.0,129.0
60638,-0.734,0.473,0.491,4.290,14.603,-14.260,0.0,132.0
60695,-0.706,0.471,0.460,7.115,16.099,-11.214,0.0,131.0
60755,-0.739,0.457,0.425,7.771,12.176,-10.565,0.0,128.0
60812,-0.675,0.473,0.371,6.015,15.824,-13.260,0.0,128.0
60869,-0.678,0.443,0.354,3.962,27.649,-20.779,0.0,126.0
60925,-0.740,0.444,0.354,-0.557,45.336,-26.183,0.0,125.0
60985,-0.871,0.419,0.388,-0.779,42.084,-26.519,0.0,159.0
61041,-0.824,0.383,0.353,6.840,25.473,-23.321,0.0,124.0
61093,-0.796,0.402,0.260,7.214,31.275,-21.672,125.0,123.0
61146,-0.839,0.380,0.230,3.206,32.901,-21.565,124.0,121.0
61198,-0.930,0.329,0.223,3.427,35.725,-18.863,125.0,119.0
61254,-0.938,0.327,0.195,2.840,25.000,-15.939,126.0,118.0
61306,-0.942,0.298,0.159,1.916,24.786,-13.527,126.0,117.0
61359,-0.970,0.302,0.181,4.267,15.626,-12.450,126.0,118.0
61411,-0.968,0.335,0.162,6.069,12.237,-9.542,127.0,116.0
61463,-1.013,0.305,0.185,7.466,1.977,-2.183,127.0,117.0
61515,-1.171,0.253,0.323,15.389,-13.198,-0.489,127.0,117.0
61568,-1.590,-0.134,0.355,20.137,-16.603,-6.939,126.0,118.0
61622,-1.866,-0.287,0.389,48.122,-121.534,-45.290,124.0,162.0
61674,-1.230,-0.221,0.012,91.160,-171.458,-71.153,120.0,18.0
61745,-0.969,0.495,-0.320,148.450,-181.550,-75.038,0.0,178.0
61803,-0.673,0.597,-0.199,128.634,-186.344,-25.260,0.0,134.0
61861,-0.209,0.263,-0.210,129.305,-163.183,-23.565,0.0,125.0
61921,0.146,0.634,0.350,143.618,-79.695,-23.710,0.0,134.0
61982,0.004,0.958,0.465,119.687,-6.244,-38.107,0.0,181.0
62044,-0.913,0.744,0.711,57.885,21.481,-18.779,0.0,177.0
62102,-0.710,0.641,0.677,21.626,-8.107,-10.481,0.0,125.0
62159,-0.469,0.602,0.591,9.359,-6.939,-26.695,0.0,124.0
62221,-0.440,0.640,0.493,10.328,7.298,-27.115,0.0,123.0
62279,-0.546,0.571,0.531,-4.786,15.046,-23.336,0.0,122.0
62340,-0.569,0.520,0.473,-20.725,29.878,-21.221,0.0,173.0
62444,-0.600,0.360,0.499,-30.496,38.084,-28.588,0.0,168.0
62504,-0.645,0.355,0.476,-28.695,48.351,-39.992,0.0,165.0
62565,-0.776,0.277,0.475,-31.351,60.458,-39.038,0.0,164.0
62623,-0.893,0.238,0.477,-18.145,46.588,-31.672,0.0,129.0
62678,-0.959,0.252,0.423,-11.038,33.847,-17.649,119.0,129.0
62732,-0.919,0.270,0.364,-8.527,26.359,-11.687,119.0,127.0
62788,-0.927,0.198,0.337,-5.008,19.763,-9.672,119.0,126.0
62842,-0.871,0.232,0.305,3.763,14.427,-9.412,120.0,124.0
62896,-0.822,0.269,0.246,3.618,26.206,-10.038,120.0,123.0
62950,-0.909,0.232,0.267,-6.656,27.870,-11.588,121.0,123.0
63003,-0.901,0.226,0.211,-10.992,23.863,-14.496,121.0,121.0
63057,-0.915,0.212,0.223,-11.328,34.038,-11.992,122.0,120.0
63111,-0.936,0.211,0.217,-13.756,30.145,-11.351,123.0,119.0
63165,-0.919,0.197,0.185,-14.038,25.847,-5.412,124.0,118.0
63218,-0.949,0.183,0.170,-12.458,27.290,-0.450,125.0,117.0
63276,-0.951,0.149,0.141,-11.137,19.634,0.130,125.0,117.0
63329,-0.928,0.174,0.102,-10.214,21.061,-1.718,126.0,115.0
63383,-0.958,0.179,0.094,-11.015,29.992,-1.336,127.0,115.0
63436,-1.019,0.197,0.063,-15.046,25.244,2.221,128.0,114.0
63491,-1.050,0.135,0.140,-19.084,16.290,5.863,128.0,113.0
63544,-1.350,-0.135,0.628,-22.786,-7.061,-2.374,128.0,113.0
63598,-2.000,-0.658,0.917,25.366,-106.382,-3.443,127.0,116.0
63652,-1.749,-0.744,0.487,135.099,-169.824,-0.344,124.0,121.0
63709,-1.209,-0.219,-0.146,215.573,-195.023,4.389,120.0,127.0
63771,-0.983,0.034,-0.505,230.947,-244.588,-16.336,0.0,185.0
63824,-0.207,0.693,-1.053,250.130,-190.519,5.702,35.0,0.0
63878,-0.013,0.784,-0.638,199.191,-58.122,104.588,31.0,0.0
63918,-0.401,0.917,0.128,119.244,40.718,91.198,30.0,0.0
63970,-0.543,1.052,0.527,60.496,27.038,55.794,30.0,181.0
64022,-0.713,1.114,0.770,10.458,-29.015,28.176,28.0,191.0
64075,-0.383,0.913,0.415,14.458,-46.290,43.832,26.0,0.0
64114,-0.168,0.888,0.238,27.855,-12.580,49.443,27.0,0.0
64168,-0.158,0.853,0.242,18.145,-1.695,39.038,29.0,175.0
64221,-0.192,0.887,0.308,5.618,-13.031,13.519,26.0,193.0
64273,-0.199,0.906,0.263,-6.427,0.702,-1.244,28.0,184.0
64326,-0.320,0.938,0.371,-24.588,6.779,-9.435,26.0,0.0
64375,-0.301,0.913,0.379,-29.305,-14.641,-5.977,0.0,0.0
64438,-0.207,0.874,0.373,-28.679,-6.366,-4.550,0.0,191.0
64491,-0.260,0.822,0.430,-28.794,-12.374,-12.840,30.0,0.0
64543,-0.187,0.838,0.339,-30.916,-5.221,-18.626,25.0,0.0
64583,-0.277,0.858,0.416,-41.809,-0.015,-21.260,28.0,0.0
64637,-0.278,0.836,0.469,-46.779,-2.038,-19.916,27.0,181.0
64691,-0.328,0.745,0.540,-45.985,-0.893,-13.595,26.0,0.0
64754,-0.353,0.682,0.632,-36.344,-5.290,-7.382,0.0,0.0
64817,-0.307,0.649,0.578,-27.313,-5.489,-9.084,0.0,0.0
64870,-0.321,0.698,0.576,-31.618,1.351,-18.359,30.0,0.0
64923,-0.330,0.691,0.593,-37.779,-1.863,-19.626,31.0,0.0
64975,-0.320,0.632,0.602,-42.794,1.137,-21.351,30.0,179.0
65037,-0.344,0.591,0.634,-41.206,1.031,-22.443,0.0,172.0
65098,-0.329,0.536,0.633,-36.084,11.786,-18.649,0.0,170.0
