Timestamp(ms),AccelX(g),AccelY(g),AccelZ(g),GyroX(deg/s),GyroY(deg/s),GyroZ(deg/s),DistanceLeft(cm),DistanceRight(cm)
28230,-0.003,0.029,1.05,-0.244,-4.969,-3.092,51,21
28274,0.041,0.059,1.023,-1.321,-0.229,-2.756,41,21
28318,0,0.015,1.077,-1.229,-0.74,-3.771,41,21
28362,0.02,0.024,1.022,-0.191,-1.672,-3.763,42,21
28406,0.035,0.022,1.063,-0.893,2.473,-5.695,45,21
28449,0.04,0.03,1.07,0.298,1.802,-9.626,43,21
28494,0.006,0.016,1.071,1.435,6.374,-11.115,51,22
28538,0,0.041,1.048,0.527,1.847,-13.985,51,21
28584,0.004,0.045,1.024,-0.336,8.389,-14.947,43,21
28628,-0.038,0.043,1.04,-1.573,10.947,-13.153,46,20
28673,-0.077,0.03,1.06,-0.008,10.092,-13.038,41,20
28717,-0.073,0.023,1.052,0.321,5.893,-13.405,42,20
28760,-0.062,0.043,1.047,-0.626,6.71,-13.107,43,19
28804,-0.114,0.03,1.115,-0.756,7.588,-6.527,44,20
28848,-0.096,0.056,1.059,-0.45,2.786,-3.71,45,20
28892,-0.102,0.044,1.072,-3.351,-7.198,-4.023,44,20
28936,-0.066,0.03,1.031,-4.046,-8.954,-3.153,45,19
28982,-0.051,-0.008,1.048,-2.649,-5.107,-2.954,42,20
29026,-0.036,0.012,1.024,-0.779,1.237,-0.802,43,21
29070,-0.055,-0.01,1.051,-0.794,-1.847,0.084,41,20
29114,-0.034,-0.002,1.057,0.092,-6.099,-0.489,40,21
29157,-0.04,0.018,1.055,-1.695,-3.244,1.985,41,21
29201,-0.055,-0.009,1.078,-2.389,-8.519,3.176,40,21
29245,0.014,-0.006,1.02,0.534,-7.924,0.458,40,21
29289,-0.017,-0.004,1.048,-0.305,-5.092,-1.435,40,22
29333,0,-0.01,1.073,0.718,-9.832,-3.817,41,22
29379,0.022,0.005,1.048,1.221,-2.74,-2.588,41,21
29423,-0.004,0.015,1.078,-0.282,-6.183,-1.847,40,21
29467,0.051,0.018,1.049,-0.74,-5.099,-5.29,39,22
29511,0.03,0.014,1.052,-1.817,1.389,-8.275,40,21
29554,0.022,0.011,1.066,-0.42,-0.198,-11.336,41,21
29598,0.043,0.016,1.042,-1.206,2.328,-15.695,41,22
29642,0.012,0,1.054,-2.191,5.863,-16.481,41,21
29686,-0.025,-0.001,1.069,-1.374,3.58,-14.847,40,21
29730,-0.03,-0.011,1.065,-1.359,-2.702,-12.977,40,20
29777,-0.005,0.009,1.04,0.626,-3.046,-11.832,40,21
29820,-0.028,0.012,1.066,0.58,1.695,-7.221,41,20
29864,-0.05,0.036,1.11,-0.298,-3.031,-3.122,40,20
29908,-0.065,-0.068,1.136,4.305,-10.191,-1.702,41,20
29954,-0.083,-0.037,1.092,24.641,0.099,8.336,58,20
29998,-0.236,0.021,1.163,53.557,-6.557,24.237,40,21
30042,-0.225,0.223,0.938,57.611,30.046,49.687,43,23
30086,-0.372,0.422,0.897,22.71,55.534,97.748,38,24
30130,-0.379,0.281,0.991,-18.992,23.206,131.397,40,26
30178,-0.192,0.108,1.071,-33.931,-39.13,119.427,49,30
30223,0.179,0.041,0.98,-31.656,-73.908,85.282,44,34
30268,0.408,-0.035,0.967,-26.58,-43.603,55.779,41,37
30313,0.377,-0.135,0.955,-19.153,9.847,32.115,39,41
30358,0.214,-0.124,1.033,-12.198,32.901,19.885,36,38
30402,0.097,-0.091,1.089,-9.466,24.534,11.137,41,34
30489,0.135,-0.03,1.028,-1.664,-11.664,-1.267,31,36
30534,0.099,-0.023,1.042,-5.817,3.924,2.221,35,36
30579,0.043,-0.023,1.06,-8.13,3.71,1.779,35,36
30626,0.017,-0.014,1.133,-7.901,-8.672,-2,30,37
30670,0.068,-0.023,1.113,-0.359,-21.725,-6.145,31,36
30715,0.113,0.034,1.007,-2.176,2.221,-4.374,34,36
30759,0.061,0.003,0.978,-8.397,7.969,-5.16,34,37
30804,-0.001,-0.094,1.121,1.534,-13.229,-12.115,35,36
30849,0.114,0.01,0.999,2.122,-7.046,-11.527,35,36
30894,0.082,0.049,0.978,-6.634,11.885,-6.832,34,36
30938,-0.024,-0.092,1.198,-3.702,0.405,-6.427,34,36
30983,0.053,-0.007,1.056,2.924,-8.557,-9.634,33,36
31030,0.06,0.047,1.01,-3.817,4.641,-7.58,33,36
31074,0.034,-0.006,1.091,-1.916,-4.344,-6.565,34,36
31119,0.091,0.009,1.003,-1.084,0.542,-6.55,35,36
31163,0.036,-0.039,1.058,-2.588,8.634,-2.664,35,34
31208,0.033,-0.082,1.11,4.351,-10.725,-6.931,35,34
31253,0.131,-0.023,1.003,2.664,-4.45,-9.695,36,37
31297,0.123,-0.112,0.965,0.672,12.305,-6.733,36,36
31342,0.056,-0.078,1.106,4.214,2.611,-11.557,36,37
31387,0.079,-0.008,1.034,3.908,0.115,-13.603,36,36
31434,0.055,0.024,1.034,0.71,2.573,-9.397,36,36
31479,-0.001,0.009,1.094,5.809,-1.427,-7.412,37,36
31524,0.031,0.054,1.051,7.947,7.481,-7.145,35,36
31568,0.015,-0.025,1.029,2.412,8.16,-1.511,34,35
31612,0.026,0.009,1.056,2.496,3.473,-0.641,34,35
31657,0.032,0.004,1.033,1.42,1.084,3.412,34,37
31703,0.055,-0.003,1.048,-2.344,-1.954,4.908,33,38
31747,0.077,-0.048,1.11,4.84,-19.824,-1.435,34,36
31792,0.156,0.006,0.983,2.824,-6.962,-6.84,33,38
31839,0.074,0.008,1.064,-0.763,15.321,-6.038,34,36
31884,0.02,-0.069,1.092,4.779,-0.252,-13.076,34,36
31929,0.08,0.026,1,5.901,-5.015,-16.229,34,36
31973,0.094,0.033,1.023,0.588,7.641,-11.42,33,35
32018,-0.021,0.017,1.106,6.985,8.229,-8.023,34,35
32062,0.013,0.073,1.062,7.672,1.55,-8.298,34,35
32107,0.057,0.093,1.042,11.786,3.924,-3.107,35,35
32152,0.024,0.025,0.985,15.641,10.298,-5.252,35,35
32196,0.003,0.046,1.022,20.924,5.55,-1.076,36,34
32244,0.003,0.078,1.019,28.023,-3.366,-0.565,36,34
32289,0.034,0.099,1.054,24.305,3.924,-3.802,36,36
32333,0.028,0.12,1.074,19.511,-0.847,-3.527,37,35
32378,0.055,0.164,1.045,7.55,5.802,-3.359,35,33
32422,0.008,0.131,1.107,2.863,11.336,-2.214,35,33
32467,-0.007,0.122,1.095,3.397,-1.382,-5.916,35,33
32513,-0.004,0.17,1.049,-0.664,4.473,-3.008,35,33
32557,-0.02,0.076,1.147,1.237,-3.183,-0.527,35,34
32602,0.029,0.15,1.019,0.351,1.756,-3.985,34,34
32646,0.003,0.14,1.034,-3.962,7.527,-6.573,34,33
32694,-0.01,0.115,1.066,-2.321,10.137,-6.267,33,34
32781,-0.033,0.161,1.054,-6.061,-13.122,-2.611,33,33
32826,-0.015,0.13,1.113,-5.603,-20.092,-1.939,33,34
32871,0.032,0.17,1.055,-3.58,-14.71,-2.847,35,35
32916,0.025,0.187,1.006,-9.893,4.74,4.557,36,35
32961,-0.004,0.096,1.066,-12.985,4.954,9.511,35,35
33005,0.057,0.034,1.062,-9.802,-13.344,-0.26,36,34
33050,0.105,-0.003,0.985,-7.107,-11.817,-7.855,36,34
33095,0.096,-0.039,1.057,-3.771,-2.176,-8.061,36,34
33143,0.073,0.023,1.053,2.374,-0.397,-12.031,35,34
33188,0.086,0.051,1.031,2.565,1.466,-19.069,35,34
33232,0.055,0.071,1.059,2.595,6.603,-21.382,36,35
33277,-0.019,0.085,1.059,6.588,2.557,-20.153,37,35
33323,-0.037,0.151,0.989,5.954,6.145,-14.168,33,33
33368,-0.059,0.176,1.042,0.557,11.023,-0.74,37,34
33413,-0.028,0.102,1.109,-2.298,-6.015,0.794,36,34
33457,0.12,0.017,1.094,1.137,-30.458,-8.809,34,34
33508,0.368,-0.009,0.999,2.076,-6.344,-11.885,140,35
33556,0.391,-0.125,1.114,16.214,12.969,-40.221,39,34
33602,0.368,-0.081,1.075,26.771,8.725,-77.481,40,37
33647,0.254,0.014,1.044,24.939,16.603,-106.084,42,34
33692,-0.03,0.121,1.038,21.16,22.008,-119.191,48,31
33738,-0.246,0.21,0.944,14.473,20.443,-117.099,51,24
33782,-0.422,0.261,0.968,1.427,8.611,-85.344,38,24
33827,-0.392,0.227,0.886,-11.786,4.115,-54.435,38,22
33871,-0.346,0.164,0.964,-16.969,2.725,-27.878,40,21
33922,-0.242,0.137,1.031,-12.992,3.954,-9.221,37,21
33969,-0.214,0.054,1.257,0,-13.29,-12.397,37,21
34012,-0.054,0.052,1.194,14.733,-14.435,-19.748,37,21
34056,0.096,0.154,1.119,22.71,-13.634,-36.092,39,21
34099,0.08,0.247,0.858,2.374,23.198,-31.603,44,20
34144,-0.185,0.115,1.054,-15.855,50.412,-11.534,58,20
34188,-0.308,0.031,1.19,-3.725,-2.634,-10.115,51,19
34233,-0.082,0.174,0.999,4.802,-16.863,-8.947,58,19
34278,-0.162,0.14,1.039,-5.725,0.328,-2.053,68,19
34325,-0.12,0.103,1.081,-5.595,-21.649,-1.191,57,19
34369,0.008,0.133,0.979,-4.321,-13.84,-2.214,50,20
34413,-0.085,0.108,1.037,-7.321,5.977,-0.397,47,20
34457,-0.146,0.126,1.099,-6.954,-11.641,2.779,46,20
34501,-0.042,0.144,1.017,-8.847,-18.29,3.145,47,19
34545,-0.044,0.099,1.062,-6.336,-7.595,-0.71,46,19
34589,-0.006,0.103,1.038,-4.664,-6.458,-4.038,45,20
34633,-0.013,0.097,1.013,-4.145,8.802,-4.588,45,20
34677,-0.059,0.072,1.053,-5.725,9.481,-6.534,44,20
34721,-0.068,0.092,1.079,-7.977,6.595,-6.29,46,20
34762,-0.094,0.07,1.091,-9.328,1.122,-6.092,46,19
34806,-0.088,0.056,1.064,-8.511,-6.71,-9.756,46,20
34850,-0.038,0.056,1.046,-4.809,-7.794,-14.153,46,20
34894,0.004,0.067,0.999,-2.023,0.298,-20.954,48,19
34939,-0.012,0.071,1.008,-2.092,15.389,-23.397,48,20
34983,-0.122,0.067,1.107,-3.634,17.809,-16.122,47,19
35070,-0.094,0.038,1.06,-1.191,-3.183,-9.718,45,19
35115,-0.079,0.059,1.059,-3.084,-5.435,-6.443,46,19
35162,-0.049,0.04,1.032,-3.916,-2.221,-5.366,47,20
35206,-0.042,0.024,1.015,-2.55,3.191,-5.176,47,20
35250,-0.092,0.04,1.066,-1.473,4.718,-3.725,51,20
35294,-0.084,0.028,1.044,-0.137,1.458,-6.702,51,19
35339,-0.108,0.022,1.072,1.641,-2.244,-10.176,50,20
35383,-0.054,0.076,1.036,0.794,6.725,-6.832,50,20
35427,-0.088,0.058,1.058,0.115,1.947,-3.26,50,19
35471,-0.082,0.012,1.064,-0.458,-6.145,-0.069,51,20
35516,-0.102,0.035,1.085,-3.038,-3.527,6.191,51,20
35560,-0.084,0.027,1.05,-3.145,-8.504,7.206,51,20
35607,-0.063,0.047,1.025,-1.336,-2.511,7.206,49,19
35660,-0.123,0.044,1.076,-2.053,-6.237,3.405,48,20
35704,-0.066,0.03,1.032,-0.45,-13.176,1.336,48,20
35748,-0.078,0.028,1.045,-1.099,-5.389,7.847,47,21
35792,-0.054,0.029,1.061,2.45,-17.557,-0.092,45,20
35836,0.102,0.048,0.993,2.359,-8.947,-10.16,47,21
35880,-0.033,0.023,1.062,-0.901,15.191,-7.397,46,21
35924,-0.103,0.037,1.103,-1.992,-0.046,-7.45,46,21
35969,-0.017,0.044,1.039,-3.023,-6.695,-7.305,46,21
36015,-0.046,-0.001,1.02,-1.832,-2.313,-6.176,47,21
36059,-0.029,-0.005,1.068,2.534,-9.015,-7.443,48,21
36103,0.014,0.04,1.031,2.031,3.931,-7.924,46,21
36147,-0.042,0.018,1.069,1.702,7.374,-9.305,47,21
36191,-0.067,0.045,1.073,0.656,3.031,-8.519,47,21
36235,-0.034,0.031,1.046,0.939,-1.527,-8.756,47,21
36279,-0.028,0.027,1.057,1.55,2.076,-8.504,47,21
36323,-0.047,0.026,1.062,0.58,2.603,-7.458,47,21
36367,-0.042,0.033,1.045,1.389,3.328,-7.511,47,21
36414,-0.062,0.042,1.053,1.336,5.855,-7.092,47,21
36458,-0.073,0.044,1.069,1.069,-0.969,-7,47,21
36502,-0.041,0.045,1.043,1.298,0.16,-5.916,47,22
36546,-0.085,0.056,1.069,0.244,2.26,-3.939,47,21
36590,-0.054,0.041,1.041,0.481,-4.122,-5.168,47,21
36634,-0.05,0.044,1.042,0.481,-1.16,-5.664,47,21
36678,-0.037,0.049,1.03,0.29,5.557,-6.405,47,21
36722,-0.072,0.04,1.051,0.443,1.153,-5.802,47,21
36766,-0.049,0.029,1.049,0.389,0.771,-4.588,46,21
36813,-0.07,0.051,1.047,0.366,2.748,-4.588,46,21
36857,-0.076,0.044,1.047,0.649,-1.198,-4.748,46,21
36901,-0.052,0.039,1.046,0.191,-2.023,-5.137,46,21
36945,-0.044,0.03,1.053,0.389,-0.962,-5.489,47,21
36989,-0.076,0.037,1.064,-0.771,1.588,-4.885,46,21
37033,-0.076,0.03,1.062,-0.305,-2.962,-4.985,46,21
37078,-0.037,0.023,1.049,0.489,0.55,-6.244,47,21
37122,-0.058,0.042,1.046,-0.115,3.756,-6.756,46,21
37166,-0.062,0.051,1.061,-0.618,1.84,-7.847,46,21
37213,-0.004,0.033,1.023,-1.267,11.221,-10.947,48,20
37258,-0.062,0.023,1.066,-3.046,14.084,-12.931,49,20
37345,-0.082,0.017,1.053,-1.977,-2.901,-12.893,51,20
37390,-0.087,0.037,1.052,-3.374,-2.924,-10.359,50,19
37434,-0.116,0.014,1.063,-2.985,-3.153,-11.122,51,20
37478,-0.076,0.039,1.018,-3.313,-4.71,-11.298,49,20
37523,-0.101,0.019,1.047,-3.374,-0.954,-7.527,50,19
37567,-0.085,0.03,1.023,-1.229,6.458,-6.885,50,19
37611,-0.105,0.036,1.051,-2.252,7.641,-7.878,51,19
37659,-0.105,-0.001,1.068,-1.313,4.321,-7.397,51,19
37703,-0.092,0.02,1.051,-0.435,0.992,-7.58,51,19
37747,-0.097,0.023,1.073,-2.176,0.038,-6.595,51,20
37792,-0.083,-0.007,1.077,-1.947,-0.214,-6.687,52,20
37836,-0.077,0.01,1.047,-2.389,3.634,-5.275,51,20
37881,-0.129,0.028,1.047,-4.321,-1.092,-5.481,51,20
37925,-0.11,-0.028,1.051,-2.908,-8.206,-4.679,47,20
37969,-0.081,-0.014,1.032,-2.542,-8.679,-4.366,47,19
38013,-0.047,-0.03,1.02,-2.802,-5.069,-5.962,47,19
38062,-0.064,-0.055,1.022,-0.565,1.29,-5.565,47,19
38106,-0.085,0.016,1.072,-0.122,1.244,-4.481,47,19
38150,-0.086,0.018,1.079,-0.588,-1.397,-5.336,47,19
38194,-0.086,0.042,1.057,-2.565,1.786,-7.26,47,19
38238,-0.111,-0.018,1.066,-2.206,0.397,-8.634,47,19
38283,-0.075,-0.05,1.024,-0.443,-0.962,-7.305,47,19
38327,-0.081,-0.035,1.045,-1.855,-3.985,-5.16,48,20
38371,-0.038,-0.076,1.02,-0.504,-7.87,-7.046,46,20
38416,-0.049,-0.032,1.029,0.786,2.84,-6.221,46,20
38463,-0.09,-0.06,1.085,1.786,0.115,-6.275,46,20
38507,-0.074,-0.025,1.052,4.092,-0.13,-4.298,46,20
38551,-0.096,0.017,1.056,0.664,-5.771,-3.443,47,20
38595,-0.065,-0.011,1.088,-0.046,-10.107,-5.977,46,20
38640,-0.123,-0.06,1.123,4.901,-5.489,-2.221,47,19
38684,-0.228,-0.078,1.113,15.374,-19.527,12.267,44,20
38728,-0.198,-0.016,1.163,32.122,-53.198,21.794,45,20
38773,-0.01,0.126,0.994,32.664,-37.977,34.031,48,21
38817,-0.091,0.157,1.026,20.924,-18.878,50.473,44,23
38865,-0.03,0.121,1.047,17.893,-42.634,52.473,44,23
38909,0.071,0.153,0.985,16.832,-27.42,54.069,38,27
38953,0.052,0.144,1.038,11.573,-13.74,59.679,38,24
38998,0.028,0.109,1.054,8.748,-14.183,61.344,35,29
39043,0.105,0.085,1.014,9.168,-12.008,64.008,30,32
39087,0.162,0.082,0.971,5.924,-1.748,65.687,30,31
39132,0.196,0.06,1.004,-0.618,-2.855,60.687,58,37
39177,0.3,0.009,0.984,-7.145,-7.809,44.221,39,37
39222,0.338,-0.057,0.995,-8.115,0.893,24.55,37,39
39270,0.302,-0.03,0.992,-5.939,15.168,12.824,37,38
39314,0.247,-0.011,1.044,-5.206,12.038,3.71,30,37
39359,0.206,0.021,1.055,-5.84,13.298,-0.733,31,40
39403,0.152,0.031,1.039,-6.809,8.71,-1.504,30,36
39454,0.123,0.028,1.051,-7.336,6.603,-0.573,139,38
39499,0.069,-0.015,1.144,-3.969,-4.351,-2.443,35,36
39543,0.152,0.021,1.096,1.992,-5.595,-5.901,36,36
39631,0.078,0.034,1.061,-1.794,5.427,-4.176,34,36
39676,0.117,0.027,1.059,0.756,-1.58,-3.794,33,37
39725,0.123,0.027,1.029,0.359,4.435,-1.557,33,37
39769,0.086,0.033,1.046,-2.511,2.511,-2.229,34,37
39814,0.094,-0.004,1.109,-2.405,-3.252,-2.634,35,37
39859,0.127,0.025,1.082,3.45,-9.084,-6.664,36,37
39904,0.139,0.052,1.01,1.328,6.634,-3.832,36,38
39949,0.078,0.018,1.014,-3.137,8.947,-0.45,35,40
39993,0.076,-0.014,1.059,1.069,-5.565,-4.702,35,39
40038,0.137,0.047,1.013,0.267,-1.847,-1.901,34,36
40083,0.08,0.036,1.038,-3.282,3.893,1.176,35,35
40127,0.101,-0.01,1.12,1.603,-11.038,-4.038,34,35
40175,0.171,0.032,1.038,2.16,-4.26,-4.656,35,35
40220,0.152,0.023,1.016,0.908,11.168,-4.427,34,35
40264,0.087,-0.038,1.049,-0.969,3.015,-5.092,34,35
40309,0.127,-0.017,1.031,1.863,-7.916,-8.145,34,35
40354,0.162,-0.014,0.988,-0.42,4.214,-5.771,33,35
40398,0.088,0.028,1.041,-2.031,9,-5.763,34,36
40443,0.088,0.057,1.077,0.519,-3.435,-9.267,34,36
40488,0.084,0.116,1.076,1.458,6.015,-4.053,37,35
40532,0.032,0.101,1.101,2.008,6.771,-2.275,32,35
40581,0.077,0.128,0.982,-4.832,7.992,-0.328,33,35
40625,0.051,-0.034,1.088,0.756,-2.214,-4.382,33,35
40670,0.109,0.008,1.037,-0.321,-0.878,-0.237,34,35
40715,0.084,-0.026,1.075,-3.71,4.038,3.366,33,35
40760,0.122,-0.095,1.093,3.771,-21.145,-6.87,33,34
40804,0.222,0.002,0.969,2.84,-2.137,-9.916,34,34
40849,0.116,0.015,1,-4.099,21.137,-10.504,33,35
40894,0.036,0.02,1.165,0.534,-1.855,-15.954,34,35
40938,0.122,0.041,1.023,2.023,-9.42,-18.786,35,34
40986,0.081,0.042,1.021,-2.153,8.229,-14.626,34,39
41031,0.008,0.004,1.118,0.092,2.611,-11.725,35,36
41076,0.02,0.064,1.084,5.137,1.328,-8.015,35,36
41121,0.057,0.082,1.036,3.534,5.336,-4.405,34,36
41166,0.027,0.08,1.059,-0.298,1.366,-0.389,34,37
41211,0.084,0.018,1.021,3.008,-10.733,-2.389,34,37
41255,0.122,0.061,1.01,2.099,6.183,2.435,34,35
41300,0.028,0.014,1.063,-1.053,7.305,4.115,33,34
41346,0.058,-0.037,1.163,5.038,-11.595,0.031,33,34
41393,0.152,0.049,1.017,4.191,-0.389,-0.366,32,35
41444,0.058,0.056,1.027,-2.695,14.252,2.405,33,34
41488,0.05,-0.002,1.097,0.588,-6.015,-2.893,32,35
41532,0.159,0.028,1.028,1.107,-6.847,-5.015,33,35
41576,0.095,0.007,1.034,-5.015,8.244,-0.076,33,35
41620,0.048,-0.099,1.184,2.084,-12.771,-4.344,33,35
41664,0.164,0.024,0.992,2.26,-3.298,-8.328,33,35
41708,0.105,-0.016,1.051,-0.298,3.389,-10.481,34,35
41752,0.115,0.073,1.102,0.405,-1.969,-12.656,34,35
41796,0.1,0.021,1.053,0.901,7.618,-11.702,34,35
41842,0.038,0.019,1.094,0.618,-2.122,-11.664,33,35
41929,0.068,0.058,1.028,-1.206,8.176,-10.817,33,34
41974,0.007,0.031,1.124,-0.511,-2.351,-9.099,34,35
42018,0.094,0.088,1.047,-1.023,-1.702,-6.924,33,35
42062,0.021,0.065,1.085,-1.26,9.076,-1.45,34,35
42106,0.029,0.02,1.148,3.267,-16.794,-5.366,34,36
42150,0.134,0.061,1.005,4.275,-2.069,-1.618,34,35
42194,0.084,0.065,0.978,2.344,23.084,1.695,33,35
42238,-0.041,0.013,1.097,0.359,9.733,5.947,33,34
42285,0.102,0.049,1.022,5.023,-9.466,0.023,33,35
42329,0.102,0.042,0.96,-3.87,5.198,4.908,33,36
42374,0.027,-0.032,1.135,-4.267,-2.137,4.504,34,36
42418,0.15,-0.042,1.081,5.679,-19.939,-5.855,34,37
42462,0.195,0.054,0.955,-0.855,16.603,-2.947,34,37
42506,0.033,-0.049,1.123,0.405,13.794,-5.504,35,37
42551,0.069,0.015,1.069,0.344,-11.26,-11.374,36,37
42595,0.144,0.063,0.99,-5.519,5.756,-8.229,34,38
42639,0.019,-0.015,1.186,2.527,1.817,-9.244,33,38
42686,0.178,-0.081,1.107,12.725,-6.237,-14.969,33,34
42730,0.378,-0.266,1.036,34.397,22.237,-24.679,35,36
42775,0.254,-0.262,1.167,80.374,68.252,-41.656,35,34
42819,0.016,-0.067,1.139,110.244,96.641,-27.84,38,37
42864,-0.264,0.335,1.064,128.534,108.74,-4.16,38,37
42909,-0.385,0.35,1.062,142.252,88.656,7.916,45,36
42952,-0.491,0.357,1.114,171.794,53.786,24.962,27,30
42996,-0.223,0.597,0.555,167.031,33.527,30.893,28,25
43039,-0.052,1.026,0.341,89.45,44.489,22.893,24,24
43085,-0.48,0.687,0.629,24.809,46.473,-4.443,24,25
43129,-0.532,0.705,0.769,29.16,-8.763,11.702,24,36
43172,-0.028,0.946,0.489,7.015,-41.496,-13.489,24,28
43215,-0.153,0.826,0.651,-11.008,-0.885,-12.489,24,24
43259,-0.541,0.55,0.837,6.756,-8.87,-2.901,27,27
43302,-0.16,0.743,0.562,11.298,-10.786,-7.725,24,24
43345,-0.303,0.747,0.744,-3.863,-0.153,-5.969,26,24
43388,-0.319,0.755,0.797,-13.443,-18.107,-2.656,26,24
43432,-0.169,0.747,0.71,-20.748,-22.076,-5.878,24,38
43480,-0.205,0.619,0.73,-11.702,15.176,-4.87,26,34
43523,-0.318,0.693,0.811,-3.015,-18.366,-17.076,24,29
43567,-0.165,0.649,0.603,-7.061,-1.466,-14.435,26,26
43610,-0.418,0.677,0.835,-1.061,-1.863,-2.679,26,26
43654,-0.083,0.718,0.625,-8.519,-8.611,-14.618,28,25
43697,-0.374,0.694,0.854,-2.527,5.176,1.046,29,25
43741,-0.161,0.724,0.703,-6.603,-6.901,-9.015,27,24
43784,-0.209,0.632,0.76,-7.168,4.053,-8.45,26,26
43827,-0.338,0.637,0.924,0.305,-1.809,-7.16,26,24
43874,-0.152,0.724,0.676,-5.763,13.679,-9.863,27,26
43917,-0.439,0.603,0.939,-0.13,-6.366,-1.29,27,26
43960,-0.105,0.725,0.692,0.496,-1.656,-10.412,25,25
44004,-0.358,0.674,0.828,0.84,3.405,-2.26,25,26
44047,-0.16,0.69,0.716,-2.244,-8.115,-6.847,25,24
44090,-0.277,0.616,0.804,-5.405,-5.305,-10.489,25,24
44177,-0.224,0.678,0.778,-3.412,-4.389,-9.962,24,26
44220,-0.195,0.669,0.748,-1.397,-2.58,-5.901,24,25
44264,-0.327,0.641,0.885,-0.71,-1.382,-5.153,24,26
44310,-0.144,0.702,0.761,-0.679,-9.061,-7.672,24,24
44353,-0.317,0.632,0.862,-3.076,4.519,-4.221,24,25
44397,-0.106,0.709,0.674,0.153,-10.802,-8.061,24,25
44440,-0.328,0.626,0.895,1.221,0.176,-2.824,24,24
44483,-0.133,0.677,0.735,-1.229,1.366,-9.618,24,25
44527,-0.301,0.647,0.79,-2.275,-7.366,-5.031,28,28
44571,-0.199,0.644,0.801,-2.87,-13.672,-7.969,28,26
44614,-0.293,0.623,0.843,-1.573,4.481,0.221,26,26
44658,-0.107,0.642,0.738,-0.679,1.931,-7.656,24,25
44704,-0.233,0.663,0.816,1.366,-6.496,-9.275,24,29
44748,-0.272,0.653,0.817,0.252,2.275,-4.13,24,27
44791,-0.214,0.61,0.809,1.802,1.832,-3.733,24,29
44835,-0.171,0.667,0.689,-8.015,6.389,-11.893,27,27
44878,-0.305,0.639,0.848,0.634,-9.473,-4.298,25,27
44922,-0.093,0.672,0.71,-6.824,12.687,-10.435,25,29
44966,-0.408,0.602,0.925,2.618,0.916,-0.344,25,28
45009,-0.043,0.699,0.673,-3.183,-2.29,-13.191,25,28
45053,-0.399,0.581,0.874,-0.55,2.969,-5.908,25,26
45100,-0.152,0.696,0.755,-1.756,-6.008,-4.191,25,26
45144,-0.195,0.655,0.813,-6.366,-3.473,-6.87,27,26
45188,-0.336,0.529,0.839,3.489,8.252,-1.809,25,27
45231,-0.118,0.719,0.777,2.992,-8.885,-10.595,26,26
45275,-0.313,0.499,0.827,-6.427,11.878,-9.908,26,26
45318,-0.229,0.697,0.834,2.031,-15.412,-2.313,25,27
45362,-0.176,0.62,0.748,-5.588,10.145,-12.16,26,26
45406,-0.351,0.638,0.911,3.71,-8.053,3.939,25,26
45449,0.004,0.689,0.654,-7.344,5.45,-14.626,25,25
45496,-0.477,0.539,0.97,2.458,-2.664,1.443,25,26
45539,0.001,0.722,0.707,0.443,-6.351,-10.817,25,25
45583,-0.423,0.516,0.857,-1.603,22.176,-4.282,25,25
45627,-0.077,0.743,0.739,5.725,-39.389,-4.298,25,29
45670,-0.314,0.516,0.843,-13.748,33.275,-6.992,25,25
45714,-0.213,0.689,0.804,5.916,-33.481,-2.214,27,25
45758,-0.236,0.616,0.887,-1.382,23.252,-4.458,25,25
45801,-0.279,0.598,0.843,3.382,-5.405,-1.443,26,26
45845,-0.199,0.594,0.787,-1.588,3.786,-6.534,25,26
45892,-0.271,0.674,0.784,2.511,-3.771,-3.412,25,26
45935,-0.205,0.62,0.768,-5.977,-1.718,-4.053,26,29
45979,-0.251,0.596,0.848,-2.153,-4.405,-8.13,25,28
46023,-0.217,0.599,0.809,0.74,-0.916,-6.924,25,26
46067,-0.201,0.616,0.808,-6.412,-11.71,-9.779,28,25
46110,-0.266,0.611,0.889,-3.206,-2.023,-6.031,25,25
46154,-0.026,0.62,0.615,-7.29,0.305,-18.954,28,26
46198,-0.541,0.59,1.01,-5.878,12.122,-4.939,26,26
46242,-0.026,0.657,0.634,-8.435,0.084,-9.023,28,26
46289,-0.376,0.6,0.969,-0.252,6.069,-4.115,25,27
46333,-0.148,0.671,0.766,0.076,-13.733,-8.099,26,30
46419,-0.122,0.606,0.728,-3.061,-6.443,-6.298,26,26
46464,-0.332,0.542,0.974,0.71,-5.481,-7.359,26,26
46508,-0.321,0.568,0.867,5.733,8.588,0.466,26,25
46552,-0.049,0.71,0.658,-3.832,-9.969,-12.275,26,25
46596,-0.516,0.423,0.993,-3.496,10.58,2.137,25,30
46640,-0.068,0.711,0.724,3.824,-3.099,-2.939,28,26
46684,-0.276,0.591,0.917,-6.901,26.687,-3.664,26,28
46731,-0.213,0.647,0.838,5.267,-22.145,-3.595,26,29
46775,-0.258,0.586,0.854,-3.817,10.359,-1.397,28,30
46819,-0.18,0.594,0.761,-0.344,-6.321,-3.992,26,27
46863,-0.219,0.594,0.831,-2.45,-8.267,-6.794,26,27
46907,-0.328,0.556,0.913,-3.595,1.336,-3.695,26,27
46951,-0.071,0.64,0.712,-3.847,-4.634,-7.176,26,29
46995,-0.33,0.511,0.935,-0.55,2.015,-9.221,26,29
47039,-0.331,0.638,0.951,-5.786,-0.466,2.641,26,29
47083,-0.02,0.566,0.711,1.954,-8.092,-13.565,26,27
47130,-0.45,0.528,0.959,8.267,0.374,-0.687,26,27
47179,-0.049,0.65,0.722,-7.344,1.954,-5.786,26,26
47222,-0.404,0.517,0.997,0.55,-5.221,-1.985,27,26
47265,-0.02,0.66,0.709,0.122,0.115,-6.214,26,26
47309,-0.359,0.563,0.959,2.374,0.145,-8.076,27,26
47352,-0.207,0.61,0.794,-0.359,-2.992,-2.031,25,27
47395,-0.157,0.618,0.807,-4.489,-5.664,-4.794,26,29
47438,-0.216,0.525,0.888,-3.802,-6.397,-2.939,25,28
47481,-0.203,0.596,0.824,4.405,4.84,-5.992,26,28
47527,-0.221,0.589,0.855,-1.038,-7.672,-6.603,29,27
47570,-0.278,0.568,0.92,-0.58,-0.519,-1.672,27,26
47614,-0.126,0.602,0.807,-1.282,0.16,-7.153,26,26
47657,-0.288,0.544,0.856,-0.985,-4.931,-3.237,28,28
47700,-0.137,0.608,0.802,1.122,1.55,-4.023,25,24
47744,-0.239,0.526,0.905,1.252,-0.809,-7.824,26,27
47787,-0.203,0.609,0.823,2.794,0.321,-5.282,26,27
47830,-0.263,0.593,0.924,2.351,-7.718,-3.344,27,24
47874,-0.112,0.574,0.788,-3.901,3.206,-6.466,26,28
47920,-0.275,0.559,0.887,3.305,-3.702,-5.916,28,24
47963,-0.135,0.639,0.84,2.71,-0.626,-6.42,25,26
48006,-0.234,0.589,0.891,-0.412,-2.855,-6.733,25,23
48049,-0.243,0.579,0.87,1.038,-0.84,-1.58,25,23
48092,-0.106,0.579,0.815,1.252,-6.71,-10.191,25,26
48135,-0.327,0.553,0.953,3.58,2.832,-0.634,25,24
48178,-0.14,0.624,0.817,4.756,-15.496,-1.504,26,27
48221,-0.073,0.624,0.801,-3.954,9.336,-9.756,28,27
48265,-0.316,0.53,0.918,5.626,0.954,-4.389,26,27
48308,-0.109,0.648,0.782,-0.115,-10.061,-9.84,25,26
48354,-0.32,0.507,0.896,-2.679,13.565,-5.061,25,28
48397,-0.133,0.615,0.834,4.733,-8.817,-1.344,27,26
48440,-0.144,0.613,0.871,-5.817,-3.267,-9.542,26,27
48484,-0.252,0.569,0.872,-0.397,7.527,-1.992,25,26
48527,-0.177,0.639,0.859,2.244,-15.718,-6.435,25,28
48570,-0.169,0.575,0.847,-5.198,6.656,-5.252,25,26
48656,-0.096,0.6,0.817,-0.878,-2.389,-4.221,25,26
48700,-0.206,0.559,0.837,-1.679,-3.527,-7.656,26,28
48743,-0.217,0.58,0.899,0.473,0.87,-2.496,25,28
48790,-0.138,0.583,0.838,-1.779,-4.725,-7.168,25,28
48833,-0.223,0.539,0.929,3.74,0.679,-3.237,26,30
48876,-0.14,0.621,0.857,5.374,-4.076,-4.809,25,28
48920,-0.155,0.596,0.826,-0.55,1.496,-7.672,25,29
48963,-0.227,0.595,0.908,2.641,-1.855,-0.397,26,27
49006,-0.045,0.648,0.793,-3.71,-8.427,-11.061,26,27
49050,-0.302,0.522,0.934,-3.481,0.389,-2.733,27,25
49093,-0.101,0.615,0.808,2.069,-2.023,-3.672,25,24
49136,-0.157,0.585,0.901,1.893,-7.328,-9.015,25,24
49182,-0.21,0.59,0.859,-0.145,3.397,-3.244,25,24
49225,-0.131,0.594,0.838,-1.26,-11.405,-6.832,25,24
49269,-0.137,0.582,0.833,-3.252,5.603,-6.176,25,27
49312,-0.196,0.581,0.875,2.878,0.374,-6.733,25,25
49355,-0.175,0.61,0.844,1.603,0.061,-5.603,29,24
49399,-0.118,0.613,0.82,-3.351,0.145,-6.702,30,27
49442,-0.221,0.551,0.925,-0.183,5.29,-3.107,30,23
49486,-0.141,0.611,0.845,2.229,-5.282,-5.008,30,27
49530,-0.169,0.577,0.907,0.237,2.13,-3.366,38,26
49577,-0.17,0.57,0.884,1.695,-5.115,-4.74,35,25
49620,-0.139,0.574,0.84,1.802,1,-5.794,33,25
49665,-0.213,0.567,0.904,3.733,-3.588,-4.779,32,24
49709,-0.126,0.603,0.871,0.511,4.87,-4.534,32,23
49752,-0.169,0.586,0.882,0.298,-10.26,-7.802,31,23
49796,-0.161,0.571,0.857,0.504,3.901,-5.046,30,23
49839,-0.166,0.593,0.852,3.26,-4.359,-6.748,30,23
49883,-0.186,0.599,0.867,2.153,2.084,-6.863,30,24
49926,-0.152,0.605,0.862,2.206,2.099,-4.244,31,28
49973,-0.107,0.615,0.84,-2.42,-4.511,-11.137,29,28
50017,-0.233,0.564,0.924,-1.229,6.313,-2.832,30,28
50061,-0.129,0.63,0.869,3.779,-12.321,-6.084,30,28
50105,-0.12,0.592,0.834,-3.71,-2.099,-7.779,30,28
50148,-0.219,0.517,0.9,-1.908,0.107,-4.534,29,25
50192,-0.111,0.593,0.811,0.107,0.122,-7.031,29,29
50236,-0.19,0.571,0.882,-1.366,-1.947,-8.176,31,24
50279,-0.151,0.617,0.885,1.71,4.336,-4.641,30,24
50323,-0.177,0.61,0.887,0.992,-2.481,-7.504,30,28
50370,-0.152,0.585,0.835,-2.053,4.275,-3.153,30,23
50413,-0.174,0.575,0.921,1.252,-4,-7.023,30,23
50457,-0.116,0.575,0.818,0.023,1.176,-7.725,30,28
50501,-0.201,0.572,0.902,0.893,5.221,-6.076,29,24
50544,-0.161,0.61,0.84,-0.092,-6.405,-7.153,30,24
50588,-0.146,0.582,0.88,-1.885,5.168,-4.443,30,24
50632,-0.177,0.572,0.895,-1.573,-8.519,-7.763,30,23
50675,-0.15,0.59,0.844,-1.229,3.832,-5.885,30,23
50719,-0.208,0.555,0.909,-1.496,-5.542,-5.809,30,23
50766,-0.127,0.564,0.861,-0.992,6.26,-6.076,30,24
50809,-0.225,0.555,0.917,1.908,-5.466,-6.664,30,27
50896,-0.167,0.563,0.886,0.687,2.878,-6.885,31,23
50940,-0.202,0.561,0.869,0.573,-4.008,-6.779,37,23
50987,-0.18,0.58,0.885,-3.084,3.634,-3.817,58,23
51030,-0.148,0.573,0.862,-3.45,-9.069,-8.45,28,23
51074,-0.18,0.563,0.903,-0.588,3.038,-6.122,29,23
51118,-0.13,0.579,0.828,-1.214,-3.649,-8.382,30,26
51161,-0.179,0.567,0.885,-3.252,0.824,-9.321,27,22
51208,-0.173,0.61,0.894,-2.206,3.435,-4.244,28,23
51252,-0.18,0.56,0.891,-0.969,-6.588,-7.466,28,23
51297,-0.145,0.582,0.855,-1.427,5.29,-5.206,58,23
51341,-0.213,0.563,0.914,0.573,-2.893,-3.038,37,23
51386,-0.135,0.59,0.868,-1.084,0.718,-4.191,51,26
51430,-0.125,0.545,0.828,-3.137,0.13,-8.87,30,30
51474,-0.216,0.535,0.926,-2.74,1.878,-3.405,27,29
51518,-0.142,0.571,0.883,1.389,-5.389,-7.924,30,29
51562,-0.189,0.553,0.883,0.725,6.214,-6.725,37,25
51606,-0.197,0.573,0.886,-0.321,-9.786,-5.405,27,25
51653,-0.145,0.556,0.858,-2.763,6.328,-6.969,30,25
51697,-0.27,0.547,0.965,0.695,6.382,-2.366,29,25
51741,-0.108,0.606,0.844,0.382,-7.595,-6.359,26,30
51784,-0.149,0.569,0.875,-2.847,0.359,-6.527,27,26
51828,-0.197,0.538,0.877,2.252,-1.733,-3.992,27,26
51872,-0.166,0.557,0.873,0.061,-0.588,-4.725,26,30
51916,-0.131,0.568,0.842,-3.817,-5.183,-8.969,27,25
51960,-0.235,0.549,0.907,-2.786,0.58,-3.947,28,25
52004,-0.115,0.574,0.854,-0.115,-4.863,-4.855,27,27
52051,-0.196,0.522,0.922,-1.092,3.664,-5.672,27,27
52096,-0.144,0.538,0.896,-0.099,-5.962,-7.046,28,27
52139,-0.194,0.533,0.928,0.679,8.664,-3.656,26,27
52183,-0.212,0.551,0.917,1.702,0.412,-3.603,29,26
52227,-0.125,0.577,0.862,1.954,0.443,-4.313,27,30
52271,-0.2,0.538,0.942,1.702,2.779,-5.198,27,26
52315,-0.166,0.563,0.844,2.626,-7.473,-9.153,29,25
52359,-0.224,0.556,0.888,-0.13,9.611,-0.168,29,25
52403,-0.097,0.58,0.814,1.649,-11.779,-7.74,28,24
52450,-0.183,0.534,0.897,-3.328,7.626,-8.519,30,25
52494,-0.197,0.57,0.887,1.076,2.458,-4.305,29,29
52539,-0.161,0.57,0.869,-1.252,-5.618,-7.366,33,28
52583,-0.131,0.547,0.874,-0.954,2.702,-8.267,37,25
52627,-0.241,0.566,0.922,-0.168,-2.069,-3.802,37,25
52672,-0.119,0.535,0.886,-0.74,-0.069,-4.817,37,25
52718,-0.181,0.571,0.873,-0.023,-1.71,-8.573,58,25
52765,-0.215,0.546,0.904,-0.069,-2.084,-4.275,86,25
52812,-0.109,0.55,0.849,-0.084,-1.725,-9.031,88,28
52866,-0.194,0.56,0.895,-1.634,-0.298,-5.763,33,25
52909,-0.205,0.522,0.902,-3.366,-6.145,-5.893,33,24
52953,-0.122,0.555,0.865,-1.626,1.275,-7.229,32,24
52996,-0.225,0.552,0.906,-1.443,-4.794,-6.344,30,24
53039,-0.172,0.562,0.863,-3.817,1.565,-3.237,30,24
53082,-0.178,0.532,0.927,-2.641,-10.13,-5.832,32,24
53169,-0.135,0.558,0.897,1.931,-8.885,-8.115,30,27
53212,-0.163,0.538,0.889,-2.26,6.626,-5.763,30,25
53256,-0.196,0.528,0.908,0.832,-6.374,-6.084,30,26
53302,-0.17,0.546,0.897,-3.634,-0.733,-5.252,30,27
53345,-0.176,0.531,0.881,-4.015,-3.87,-0.26,33,27
53389,-0.144,0.518,0.925,1.672,-6.046,-5.634,31,28
53432,-0.099,0.542,0.856,1.389,1.87,-4.481,32,29
53476,-0.186,0.527,0.914,-0.366,-0.733,-4.557,32,29
53520,-0.113,0.521,0.878,0.397,-2.221,-9.267,31,29
53563,-0.212,0.545,0.933,-0.435,8.298,-4.565,31,27
53607,-0.124,0.561,0.894,0.954,-5.603,-5.412,31,26
53650,-0.174,0.519,0.927,-0.618,1.282,-5.969,31,29
53697,-0.119,0.527,0.848,-0.489,-3.344,-5.374,31,27
53740,-0.19,0.512,0.939,0.061,6.313,-5.046,31,29
53784,-0.099,0.557,0.854,-1.191,-5.55,-8.122,31,27
53827,-0.215,0.498,0.966,-1.817,5.13,-5.237,32,27
53871,-0.112,0.566,0.867,4.359,-6.924,-8.908,32,28
53915,-0.239,0.557,0.925,-0.71,11.718,-1.099,32,27
53958,-0.076,0.538,0.848,-1.046,-14.496,-9.496,31,28
54002,-0.184,0.518,0.92,-2.191,10.748,-7.061,33,27
54046,-0.193,0.548,0.905,1.695,-7.595,-5.42,33,26
54092,-0.146,0.569,0.915,-1.359,-2.618,-6.076,32,26
54136,-0.135,0.53,0.907,0.733,-1.511,-4.969,32,26
54179,-0.203,0.53,0.917,-0.374,3.16,-5.42,32,26
54223,-0.058,0.535,0.856,0.473,-3.298,-6.565,32,25
54266,-0.241,0.529,0.946,0.809,6.534,-4.313,32,25
54310,-0.065,0.583,0.796,-1.534,-6.748,-8.664,32,25
54353,-0.24,0.501,0.96,-1.725,4.771,-4.061,32,28
54397,-0.115,0.539,0.893,2.397,-7.374,-5.084,32,25
54440,-0.144,0.552,0.906,-0.969,5.099,-6.771,32,25
54512,-0.138,0.523,0.911,2.092,-4.824,-3.84,33,25
54558,-0.143,0.54,0.869,0.435,5.42,-5.832,33,25
54605,-0.146,0.52,0.849,0.733,-2.641,-6.496,35,26
54651,-0.155,0.525,0.897,0.458,-7.763,-6.031,35,28
54697,-0.166,0.509,0.949,1.931,1.672,-5.473,35,28
54744,-0.168,0.522,0.887,-0.855,0.794,-4.824,36,28
54790,-0.12,0.536,0.896,0.374,-0.977,-6.725,34,28
54837,-0.204,0.527,0.959,0.023,-2.977,-8.527,35,25
54884,-0.115,0.525,0.869,-0.366,6.534,-6.389,51,24
54933,-0.216,0.54,0.955,4.427,-11.244,-4.443,50,25
54980,-0.057,0.527,0.839,-1.397,7.191,-6.618,37,26
55026,-0.252,0.497,0.975,4.489,-3.16,-5.618,36,24
55072,-0.066,0.582,0.806,-0.794,2.267,-7.565,36,24
55118,-0.231,0.495,0.933,-2.626,-1.771,-3.809,36,24
55164,-0.096,0.569,0.884,1.664,1.947,-7.504,36,24
55212,-0.186,0.53,0.897,-0.626,-0.977,-5.137,37,24
55257,-0.178,0.527,0.906,-0.557,-6.252,-2.687,30,24
55303,-0.089,0.509,0.841,-0.191,-3.45,-6.771,29,24
55352,-0.212,0.522,0.888,2.802,-0.313,-4.74,29,24
55398,-0.127,0.559,0.893,-1.206,-6.611,-6.412,29,24