Timestamp(ms),AccelX(g),AccelY(g),AccelZ(g),GyroX(deg/s),GyroY(deg/s),GyroZ(deg/s),DistanceLeft(cm),DistanceRight(cm)
253030,-0.148,-0.045,1.279,34.046,-8.359,-40.611,168.0,0.0
253114,-0.190,0.011,1.359,42.931,31.015,-12.107,36.0,0.0
253198,-0.139,-0.194,0.976,14.344,34.878,-9.359,38.0,0.0
253290,-0.201,-0.106,0.684,9.908,23.176,-52.496,185.0,0.0
253380,-0.341,-0.107,0.828,-10.115,-11.618,-98.473,138.0,0.0
253464,-0.943,-0.011,1.156,91.115,42.374,-164.092,36.0,0.0
253555,-0.508,0.336,0.730,250.130,14.756,-100.771,154.0,0.0
253645,-0.052,0.360,0.137,250.130,11.145,-71.313,90.0,0.0
253729,0.420,0.474,0.011,242.420,91.328,46.252,136.0,101.0
253807,-0.124,1.625,-0.073,22.901,135.595,-56.893,49.0,93.0
253891,-1.500,1.931,-0.027,-10.481,37.542,31.588,149.0,91.0
253976,-0.738,0.435,0.146,214.282,-181.099,86.344,142.0,96.0
254056,0.509,1.232,-0.459,-70.000,0.244,19.901,57.0,100.0
254135,-0.839,0.184,0.387,-171.023,81.985,44.969,39.0,102.0
254214,-0.642,1.036,0.100,138.099,-206.344,112.412,36.0,103.0
254296,0.252,2.000,-0.994,89.603,-132.450,83.863,131.0,74.0
254379,-0.288,-0.095,0.871,-250.137,-48.244,-95.557,35.0,111.0
254460,0.259,0.642,-0.611,250.130,-250.137,172.908,124.0,80.0
254543,0.150,-0.302,-0.180,-250.137,137.473,-3.061,124.0,81.0
254622,0.224,1.633,-0.001,45.649,60.977,62.267,37.0,110.0
254705,-0.178,0.927,0.173,103.718,-64.069,-137.626,128.0,76.0
254788,-0.125,1.443,0.029,-2.504,15.443,32.718,125.0,79.0
254870,0.206,-0.018,0.021,72.908,-143.847,55.313,122.0,83.0
254955,-0.565,0.112,0.272,-219.321,72.977,-58.878,123.0,112.0
255041,-0.127,1.382,-0.415,185.305,-250.137,38.702,126.0,80.0
255125,-0.245,1.040,0.287,-64.260,50.435,-92.046,126.0,109.0
255210,0.231,1.069,0.171,80.870,-164.756,26.809,124.0,113.0
255290,0.608,0.330,-0.260,-153.023,34.489,-58.107,46.0,115.0
255371,-0.267,2.000,-0.108,103.366,-37.435,105.595,50.0,114.0
255456,0.587,0.836,-0.356,-8.473,-118.214,77.656,40.0,0.0
255540,-0.904,2.000,0.249,46.336,113.878,-96.290,38.0,0.0
255629,-0.206,0.615,-0.233,34.198,-250.137,85.252,122.0,0.0
255717,-0.672,-0.578,0.212,-41.466,138.427,-184.534,37.0,0.0
255807,-0.241,1.085,-0.382,-8.588,-250.137,112.244,124.0,0.0
255896,-0.339,1.372,0.272,25.336,134.687,-128.641,125.0,0.0
255986,-0.234,0.924,0.103,23.275,-250.137,132.565,122.0,0.0
256075,-0.086,-0.104,0.125,-13.168,131.664,-103.931,121.0,0.0
256160,0.177,1.128,-0.206,22.954,-212.061,128.099,123.0,122.0
256245,-0.537,1.784,0.102,-33.756,236.588,-76.267,37.0,0.0
256329,-0.463,1.207,0.015,34.641,-236.221,120.817,38.0,0.0
256422,-0.242,-0.480,-0.161,-90.206,138.557,-144.260,118.0,0.0
256512,-0.398,1.489,-0.583,-139.634,-196.565,145.588,117.0,0.0
256596,-0.207,0.978,0.556,123.122,4.191,-145.099,40.0,0.0
256681,-0.205,0.390,0.819,-140.611,-118.176,-25.802,37.0,0.0
256766,-0.037,1.965,-0.170,144.053,-77.069,-25.099,43.0,0.0
256850,0.360,-1.227,0.230,-103.855,-116.092,48.099,36.0,0.0
256936,0.190,1.655,0.205,91.824,54.565,-59.893,44.0,0.0
257020,0.011,1.748,0.285,-81.176,-164.267,142.794,40.0,0.0
257105,0.328,1.209,0.432,148.893,129.649,-26.992,37.0,0.0
257193,-0.325,-0.500,0.879,23.504,-181.282,-31.466,37.0,0.0
257278,0.191,0.669,-0.451,-50.427,51.344,-137.840,37.0,0.0
257362,-0.403,0.854,0.539,-64.473,-83.924,87.802,36.0,0.0
257447,0.479,0.392,0.527,123.748,-170.802,-15.947,39.0,0.0
257528,-0.217,2.000,-0.347,-141.107,16.847,-150.321,43.0,116.0
257613,-0.094,-0.222,0.554,-3.702,-250.137,76.756,39.0,0.0
257702,1.114,1.454,-1.041,-19.198,212.664,-23.763,122.0,0.0
257788,-0.295,1.819,0.546,65.618,-132.634,84.305,45.0,0.0
257873,0.677,1.196,-0.533,-51.779,150.107,-77.779,45.0,151.0
257954,-0.882,0.667,0.761,-19.198,-126.794,-23.237,42.0,126.0
258040,1.046,1.660,-0.911,-98.893,-30.298,20.260,120.0,128.0
258125,-0.605,1.698,0.635,87.672,-34.565,-23.084,45.0,0.0
258215,1.197,1.078,-0.388,-45.061,-39.374,-4.618,121.0,0.0
258296,-0.331,1.385,0.549,128.595,-123.015,3.198,46.0,118.0
258385,1.447,-0.525,-0.776,-24.695,20.718,51.733,120.0,0.0
258470,-0.550,2.000,0.844,71.786,-55.275,40.740,126.0,112.0
258555,0.877,1.282,-0.709,-88.794,44.641,0.809,126.0,117.0
258639,-0.573,1.281,0.479,-45.771,-81.954,-3.275,45.0,119.0
258720,0.970,0.748,-1.255,-27.870,57.237,-33.176,45.0,119.0
258806,-0.756,1.020,0.588,19.534,-145.832,31.878,123.0,118.0
258891,1.153,1.735,-0.793,10.496,-123.122,10.115,128.0,116.0
258976,-0.337,1.898,1.002,4.817,-97.855,-32.511,128.0,110.0
259061,1.248,0.999,-1.190,-16.695,8.221,27.702,122.0,114.0
259144,-0.333,0.584,0.802,-33.641,-101.733,63.618,121.0,83.0
259229,1.470,1.405,-0.993,0.649,8.221,43.191,125.0,111.0
259315,-0.448,2.000,0.831,-37.947,-50.389,5.779,127.0,79.0
259400,1.032,1.784,-1.257,-28.443,50.290,-45.710,125.0,112.0
259481,-0.517,0.837,0.610,-16.718,-147.710,-3.725,43.0,113.0
259561,0.763,0.705,-0.954,-88.733,-55.260,5.313,41.0,113.0
259641,-0.405,2.000,0.836,18.229,-126.405,-16.107,40.0,109.0
259726,1.083,0.930,-0.285,-51.565,-127.466,38.046,124.0,113.0
259811,-0.296,0.711,0.641,-11.908,-55.092,-31.588,121.0,115.0
259896,1.000,-0.090,-0.763,-24.710,-172.756,91.389,120.0,116.0
259984,-0.045,0.929,0.701,108.473,100.931,-9.260,127.0,108.0
260070,0.621,2.000,-0.060,-7.221,-181.794,103.947,130.0,107.0
260155,0.028,0.975,0.031,5.183,142.748,-85.618,127.0,111.0
260238,-0.348,0.063,-0.055,59.099,-250.137,8.771,123.0,82.0
260321,-0.039,-0.191,-0.250,-103.580,84.092,-94.649,124.0,82.0
260407,-0.271,1.970,0.245,27.733,-238.847,34.733,129.0,107.0
260490,1.019,1.367,-0.384,-159.023,-42.573,-27.313,127.0,78.0
260573,0.009,1.010,0.638,-4.038,-33.298,-68.702,123.0,82.0
260657,0.667,-0.317,-0.389,79.573,-204.763,79.947,121.0,83.0
260743,0.076,0.045,0.186,21.427,228.603,-54.344,126.0,78.0
260827,-0.178,2.000,0.210,-9.008,-136.466,94.107,132.0,73.0
260907,0.842,1.501,-0.801,-17.237,53.756,8.794,38.0,107.0
260986,-0.798,1.084,0.429,-20.244,89.878,-83.466,37.0,109.0
261071,-0.235,0.324,-0.501,32.977,-250.137,42.977,36.0,112.0
261150,0.375,0.363,-0.354,-104.771,111.771,-109.588,37.0,109.0
261229,-0.975,2.000,0.444,40.466,-139.939,-45.595,39.0,106.0
261308,0.538,1.558,-0.455,6.359,-241.519,52.794,37.0,108.0
261390,0.615,0.311,-0.129,-3.008,98.336,-82.359,38.0,111.0
261469,-0.021,0.295,0.747,-76.061,-79.664,84.206,35.0,112.0
261549,0.984,0.349,-0.442,193.595,-118.458,154.886,38.0,108.0
261627,-0.510,1.831,-0.079,-149.573,250.130,-101.870,35.0,103.0
261706,-0.452,1.058,0.632,105.244,-186.298,62.947,33.0,106.0
261785,0.831,1.805,-0.868,-154.901,98.771,-90.748,38.0,111.0
261865,-0.934,0.407,0.476,-19.725,-26.336,-29.084,33.0,115.0
261949,0.322,0.435,-0.560,22.634,-249.237,83.183,35.0,0.0
262036,-0.708,1.165,0.366,-100.817,91.435,-79.893,34.0,0.0
262120,-0.041,1.519,-0.317,204.229,-250.137,79.550,33.0,0.0
262205,-0.145,0.268,0.384,-29.382,55.031,-125.771,34.0,0.0
262294,-0.120,0.127,0.230,127.000,-250.137,37.321,124.0,0.0
262374,0.938,0.036,-0.243,-81.840,114.794,-72.198,39.0,111.0
262458,-0.691,1.516,0.484,23.511,-58.450,-36.664,39.0,0.0
262543,0.294,2.000,-1.082,68.214,-94.626,-31.092,138.0,106.0
262633,-1.295,1.221,0.307,-121.542,74.420,-77.084,138.0,0.0
262718,0.551,1.658,-0.676,165.809,-146.656,110.588,134.0,112.0
262806,-0.956,-0.206,0.874,-112.901,-30.863,27.710,46.0,0.0
262895,0.149,1.794,-0.998,182.618,-250.137,144.931,130.0,0.0
262980,-0.663,-0.070,0.605,-83.733,118.397,-100.443,39.0,0.0
263069,0.168,0.900,-0.363,250.130,-250.137,84.443,128.0,0.0
263154,0.025,-0.478,0.281,-100.511,173.374,-71.153,43.0,0.0
263234,0.048,1.065,-0.116,206.710,-206.947,98.832,44.0,101.0
263313,-0.967,2.000,-0.491,-103.015,111.321,-23.145,42.0,102.0
263393,-0.525,1.292,0.306,148.313,-194.771,28.168,42.0,106.0
263486,0.140,0.940,-0.678,-250.137,137.947,-138.458,138.0,0.0
263571,-0.789,0.235,0.449,97.710,-196.206,33.214,43.0,0.0
263656,-0.195,2.000,-1.066,-202.305,39.084,-89.870,138.0,106.0
263741,-1.256,0.786,0.544,102.748,-119.244,28.427,38.0,0.0
263826,0.570,1.888,-0.842,-119.886,-38.351,-13.000,50.0,0.0
263911,-0.286,0.004,0.550,94.779,22.107,25.771,40.0,0.0
263991,0.407,0.353,-0.085,160.893,-214.962,144.053,46.0,108.0
264070,0.321,1.032,-0.041,-158.290,188.794,-54.214,40.0,104.0
264152,-1.011,2.000,0.098,123.046,-96.985,88.710,37.0,98.0
264237,0.292,1.628,-0.683,-180.542,-20.191,-33.863,37.0,0.0
264321,-0.913,0.265,0.327,87.847,87.534,-34.962,36.0,0.0
264406,-0.121,0.275,-0.420,88.641,-229.939,41.992,45.0,0.0
264491,-1.086,1.314,-0.001,-29.863,70.122,-102.076,37.0,0.0
264576,-0.506,0.887,0.125,206.008,-250.137,105.023,39.0,0.0
264660,0.538,0.895,-0.456,-250.137,67.969,-96.336,39.0,0.0
264739,0.003,-0.257,0.717,239.550,-107.840,57.855,37.0,114.0
264819,0.904,1.593,-0.753,-133.634,-6.107,11.252,42.0,105.0
264907,-1.201,2.000,-0.137,73.603,103.939,47.595,38.0,0.0
264987,-0.648,1.400,-0.485,154.565,-250.137,153.618,38.0,113.0
265072,0.044,0.374,-0.436,-234.183,184.985,-109.603,40.0,0.0
265157,-0.797,-0.040,0.589,46.679,-97.237,-9.229,37.0,0.0
265242,0.495,1.591,-1.063,43.847,-110.824,-35.687,46.0,0.0
265327,-1.168,1.253,0.519,-31.336,-66.145,17.679,38.0,0.0
265407,0.522,1.565,-0.632,50.061,-176.458,46.221,44.0,110.0
265491,0.066,-0.458,0.555,-27.412,51.679,-45.641,37.0,0.0
265574,0.643,0.097,-0.279,138.672,-171.252,79.687,43.0,103.0
265654,-1.084,2.000,-0.602,-116.626,197.427,-51.053,51.0,94.0
265733,-1.136,1.308,0.407,110.992,-141.183,92.321,43.0,94.0
265812,0.155,1.935,-0.623,18.305,-118.481,10.450,51.0,99.0
265892,-0.518,-0.161,0.313,-122.107,67.069,-75.466,41.0,105.0
265972,-0.406,-0.163,-0.126,123.244,-250.137,78.840,43.0,106.0
266052,-0.190,0.862,-0.387,-42.183,24.794,-62.901,41.0,102.0
266135,-0.829,1.328,0.127,120.183,-210.992,51.389,135.0,71.0
266215,0.509,0.981,-0.174,-24.496,-118.527,-13.374,42.0,104.0
266298,-0.123,0.908,0.314,22.137,-47.595,-52.817,42.0,106.0
266378,0.288,0.375,-0.235,68.603,-208.954,103.626,41.0,106.0
266457,0.369,0.631,-0.312,-2.931,162.588,-67.244,40.0,101.0
266535,-1.131,1.569,0.419,-2.809,-83.328,48.527,38.0,96.0
266615,0.346,2.000,-1.071,41.832,-72.214,33.344,51.0,96.0
266694,-0.672,0.864,0.384,-64.336,114.351,-83.344,37.0,100.0
266779,-0.554,0.033,-0.050,181.679,-250.137,82.412,133.0,104.0
266860,-0.017,0.000,-0.408,-203.969,90.489,-99.008,51.0,102.0
266948,-1.364,2.000,-0.048,110.947,-159.626,11.908,138.0,99.0
267028,0.282,1.044,-0.438,2.366,-128.863,48.382,50.0,104.0
267108,-0.080,0.440,0.075,86.695,53.519,-103.878,38.0,107.0
267188,0.123,0.014,0.587,13.038,-162.092,81.206,40.0,107.0
267273,0.815,1.161,-0.549,-41.198,103.168,6.809,133.0,102.0
267352,-1.492,2.000,-0.169,-98.656,72.542,18.328,38.0,99.0
267431,-0.313,1.567,-0.849,154.053,-160.687,109.198,43.0,102.0
267511,-0.406,-0.094,-0.015,-117.466,187.573,-145.931,48.0,106.0
267595,-0.675,-0.089,0.391,60.939,-250.137,65.115,40.0,108.0
267675,0.394,0.950,-0.970,-177.122,91.046,-76.710,40.0,106.0
267754,-1.257,2.000,0.159,123.763,-60.466,3.870,39.0,103.0
267834,-0.034,1.296,-0.261,124.504,-218.168,115.802,45.0,106.0
267914,0.074,0.207,0.191,-109.756,53.550,-104.443,37.0,110.0
267995,-0.098,0.340,0.419,37.939,-150.168,64.580,37.0,111.0
268075,0.847,0.663,-0.503,-30.840,9.947,46.382,46.0,107.0
268160,-1.101,2.000,-0.102,3.427,135.099,-22.359,134.0,101.0
268239,-0.518,1.359,-0.040,113.611,-190.611,105.985,42.0,105.0
268327,0.166,0.628,-0.415,-121.962,110.718,-100.412,127.0,110.0
268407,-0.489,0.641,0.129,27.687,-37.611,28.397,37.0,113.0
268493,0.063,0.212,-0.206,73.878,-148.985,65.679,128.0,115.0
268579,-0.949,2.000,-0.128,20.435,-32.969,-11.420,47.0,0.0
268664,-0.124,1.013,0.073,31.290,-243.160,91.679,43.0,0.0
268749,0.524,0.368,-0.363,-62.389,24.580,-112.481,37.0,0.0
268834,-0.169,0.674,0.502,4.191,-77.977,7.115,38.0,0.0
268920,0.847,1.339,-0.702,94.092,-108.954,57.252,47.0,0.0
269003,-1.209,2.000,-0.131,-87.802,180.687,7.153,37.0,110.0
269088,-0.519,0.860,-0.033,139.985,-228.527,85.542,39.0,0.0
269174,-0.116,0.466,-0.437,-49.977,152.298,-95.107,42.0,0.0
269259,-0.544,-0.124,0.166,-29.206,-219.336,36.573,39.0,0.0
269344,-0.643,2.000,-0.752,29.031,5.076,-79.962,35.0,0.0
269434,-0.366,0.979,0.478,-92.023,-169.496,107.092,128.0,0.0
269519,0.270,1.053,0.023,24.389,-152.015,-131.458,36.0,0.0
269605,0.227,0.138,0.106,-0.328,-95.015,61.412,38.0,0.0
269693,-0.027,-0.442,0.263,-91.779,189.641,-112.015,34.0,0.0
269778,-0.318,2.000,-0.269,106.023,-174.107,136.038,43.0,0.0
269859,0.014,1.664,-0.720,-117.534,160.206,-70.305,44.0,108.0
269940,-0.815,1.466,0.333,46.664,-79.656,79.244,42.0,108.0
270025,0.107,-0.480,-0.044,-53.084,-121.969,46.153,36.0,0.0
270105,-0.934,0.389,0.308,48.748,-28.779,-96.580,34.0,115.0
270191,-0.594,1.848,-0.479,-15.573,-250.137,107.763,37.0,0.0
270276,0.101,1.124,-0.249,-40.130,104.137,-161.527,34.0,0.0
270362,-0.621,1.439,0.356,65.756,-206.183,50.969,43.0,0.0
270450,1.296,0.211,-0.552,-18.000,-0.092,10.763,37.0,0.0
270535,-0.647,1.062,0.752,24.038,66.489,20.618,38.0,0.0
270626,-0.106,1.950,-0.850,108.397,-161.015,145.664,131.0,0.0
270706,-0.831,1.066,-0.017,-28.405,189.275,-121.191,34.0,111.0
270787,-0.719,0.302,0.386,97.916,-250.137,39.183,40.0,120.0
270873,0.260,0.353,-0.624,-139.886,106.382,-36.198,46.0,0.0
270959,-0.853,0.860,0.742,-7.718,-58.756,-29.069,34.0,0.0
271049,-0.022,2.000,-0.722,57.145,-208.191,118.290,128.0,0.0
271138,0.057,0.244,0.340,4.863,70.038,-83.687,34.0,0.0
271223,0.027,0.200,0.573,114.687,-176.954,68.389,35.0,0.0
271313,0.797,1.476,-0.387,24.626,85.618,69.191,128.0,0.0
271393,-1.204,1.840,0.189,-12.771,65.328,-19.023,34.0,104.0
271479,-0.120,1.431,-0.974,195.618,-214.863,75.382,132.0,107.0
271559,-0.548,0.204,-0.204,-87.481,199.550,-161.198,40.0,113.0
271650,-0.367,-0.130,0.515,-3.450,-230.252,78.817,36.0,0.0
271740,0.245,1.219,-0.415,-40.893,-41.275,6.992,129.0,0.0
271824,-0.626,1.453,0.013,-68.664,-8.534,44.634,44.0,0.0
271906,0.296,-0.388,0.459,75.260,-150.756,-73.359,35.0,113.0
271986,0.066,1.306,0.002,-3.382,23.977,-0.374,38.0,112.0
272065,0.108,-0.620,0.671,-34.313,-176.901,33.000,37.0,110.0
272147,-0.059,2.000,-1.591,199.115,96.748,-65.916,136.0,68.0
272226,-1.133,1.001,0.455,-146.641,80.160,11.939,34.0,101.0
272305,-0.410,0.019,-0.034,250.130,-250.137,25.725,39.0,104.0
272385,-0.205,1.004,-0.759,-250.137,159.435,-109.870,40.0,107.0
272463,-0.932,-0.824,0.684,192.298,-250.137,33.534,36.0,109.0
272549,0.515,1.832,-1.147,-163.038,-47.809,-88.939,131.0,73.0
272628,-0.882,1.451,0.533,22.473,-151.824,5.191,35.0,103.0
272707,0.814,2.000,-0.773,85.649,-11.031,-5.649,44.0,104.0
272787,-0.582,0.386,0.851,36.336,-56.397,2.443,37.0,107.0
272866,0.762,0.106,-0.419,147.313,-198.855,115.977,41.0,107.0
272943,-0.321,-0.222,0.483,-180.237,150.634,-74.458,37.0,67.0
273019,-0.648,2.000,-0.252,250.130,-250.137,145.786,37.0,63.0
273098,-0.081,1.272,-0.405,-183.107,150.969,-70.099,36.0,99.0
273180,-1.047,0.854,0.760,79.954,-138.931,-45.344,40.0,103.0
273265,0.439,0.665,-1.434,250.130,-210.046,187.542,131.0,106.0
273344,-0.136,-0.991,0.164,-250.137,116.641,-87.786,36.0,107.0
273423,-0.507,1.964,-0.205,250.130,-250.137,69.107,35.0,102.0
273502,0.257,1.518,-0.466,-250.137,-29.763,-23.061,35.0,105.0
273582,-0.329,0.003,0.738,95.542,-4.496,-26.374,33.0,109.0
273661,0.422,0.539,-0.381,250.130,-235.176,120.534,41.0,111.0
273740,0.561,-0.278,-0.065,-250.137,135.550,-66.649,39.0,109.0
273819,-0.618,2.000,0.076,172.748,-20.496,44.237,37.0,103.0
273902,0.075,2.000,-0.961,-32.771,-48.015,59.634,39.0,102.0
273981,-0.717,0.638,0.074,-42.947,159.626,-109.534,36.0,105.0
274061,-0.609,0.437,0.002,250.130,-250.137,90.847,47.0,108.0
274141,0.267,0.078,-0.349,-250.137,87.840,-93.321,46.0,110.0
274224,-0.888,0.982,0.247,65.977,-93.702,-41.351,128.0,77.0
274304,0.278,2.000,-0.922,-97.153,-107.046,74.962,47.0,107.0
274383,-0.333,0.419,0.326,25.702,84.206,-85.802,37.0,110.0
274463,-0.103,0.333,0.270,171.886,-233.702,82.420,51.0,111.0
274549,0.636,0.061,-0.199,-171.069,59.046,-9.328,125.0,80.0
274629,-0.578,1.282,0.386,102.962,82.847,-38.336,38.0,102.0
274708,-0.303,2.000,-0.412,-13.450,-85.191,130.000,38.0,100.0
274787,-0.528,0.960,-0.147,-175.908,200.603,-98.962,35.0,104.0
274867,-1.083,0.483,0.461,67.969,-166.305,-5.550,43.0,109.0
274947,0.417,0.952,-1.025,-72.275,-112.206,11.718,38.0,112.0
275026,-0.426,-0.348,0.326,21.779,71.374,-110.924,37.0,110.0
275105,-1.106,2.000,0.069,250.130,-236.931,71.992,41.0,104.0
275188,0.346,1.139,-0.195,13.237,-118.679,64.710,44.0,109.0
275273,0.024,0.110,0.389,-148.282,111.626,-107.931,36.0,0.0
275354,-0.019,0.082,0.596,112.992,-166.786,83.603,37.0,129.0
275439,1.020,1.158,-0.929,-37.313,46.160,-3.176,38.0,0.0
275523,-1.425,2.000,0.361,-24.473,176.786,8.023,36.0,0.0
275603,-0.375,1.151,-0.352,227.160,-250.137,140.679,37.0,111.0
275683,-0.009,0.303,-0.094,-126.886,126.634,-93.947,39.0,117.0
275764,-0.786,0.028,0.460,38.427,-193.344,7.153,51.0,117.0
275849,0.156,2.000,-1.063,7.832,-152.496,-20.588,42.0,0.0
275937,-0.667,1.615,0.360,-37.588,-20.985,33.832,38.0,0.0
276022,0.281,-0.382,0.356,248.679,-205.137,22.061,37.0,0.0
276107,-0.044,1.090,-0.183,-250.137,47.397,-35.840,40.0,0.0
276191,0.066,-0.200,0.290,193.603,-191.191,102.481,36.0,0.0
276277,-0.187,2.000,-0.705,-119.550,204.969,-87.992,137.0,106.0
276361,-0.901,1.331,0.400,63.038,-107.794,74.427,33.0,0.0
276446,0.131,0.946,-0.309,25.702,-129.985,19.840,40.0,0.0
276531,-0.399,-0.619,0.091,-230.359,14.771,-171.229,36.0,0.0
276619,-0.914,2.000,-0.475,70.214,-250.137,20.588,37.0,0.0
276704,0.547,1.447,-0.266,167.817,-79.557,-11.328,37.0,0.0
276789,-0.653,0.487,0.792,-17.939,2.412,-97.069,37.0,0.0
276869,0.538,0.310,-0.164,182.809,-203.977,90.626,45.0,114.0
276959,0.718,0.046,-0.087,-68.534,52.443,-55.092,130.0,0.0
277045,-0.841,2.000,-0.521,-68.107,101.840,66.939,44.0,0.0
277130,-0.746,0.710,0.502,114.756,-175.321,121.282,34.0,0.0
277210,0.259,1.178,-0.387,-170.977,109.962,-151.817,42.0,107.0
277298,-0.815,0.448,0.424,19.550,-9.061,-49.328,38.0,0.0
277388,0.006,0.150,-0.510,160.931,-218.481,87.321,131.0,0.0
277473,-1.309,2.000,-0.421,52.634,-6.206,51.069,39.0,0.0
277558,-0.173,0.421,0.647,23.015,-142.878,59.534,37.0,0.0
277638,0.218,0.584,0.116,-85.481,97.214,-143.206,36.0,114.0
277724,-0.111,0.493,0.422,32.954,-143.794,65.511,51.0,0.0
277814,0.853,1.157,-0.660,0.191,8.069,51.809,131.0,0.0
277899,-1.278,2.000,-0.265,-92.191,150.267,3.153,38.0,0.0
277979,-0.192,1.125,-0.205,151.756,-142.656,124.954,41.0,109.0
278067,0.061,-0.073,-0.051,-169.931,109.687,-114.786,37.0,0.0
278153,-0.960,0.423,0.248,108.527,-44.885,-36.542,38.0,0.0
278238,0.126,1.868,-1.005,157.565,-173.115,26.420,49.0,0.0
278324,-1.131,1.323,0.254,-120.893,44.153,-43.443,38.0,0.0
278409,-0.387,0.911,0.097,243.817,-250.137,76.649,40.0,0.0
278494,1.038,0.611,-0.430,-165.969,-1.046,-21.718,46.0,0.0
278580,-0.082,-0.060,0.552,-87.603,95.718,-9.130,39.0,0.0
278660,-0.774,2.000,-0.340,165.992,-194.420,91.947,43.0,104.0
278743,-0.946,1.210,-0.238,-158.618,137.321,-52.229,38.0,103.0
278822,-0.930,0.377,0.526,116.733,-189.420,-24.931,39.0,107.0
278903,0.490,1.032,-1.147,-108.176,-37.893,-46.809,45.0,109.0
278983,-0.850,-0.052,0.324,88.344,-35.198,-86.504,41.0,106.0
279063,-0.956,2.000,-0.174,250.130,-250.137,73.725,43.0,102.0
279143,0.021,1.423,-0.237,-171.718,-12.779,-67.855,41.0,105.0
279223,-0.555,0.129,0.535,110.344,-33.061,-9.840,39.0,109.0
279304,0.170,0.375,0.044,125.160,-200.321,115.611,42.0,110.0
279384,0.702,0.583,-0.358,-59.947,8.122,44.931,40.0,106.0
279465,-1.415,2.000,0.174,140.198,113.557,-24.397,40.0,97.0
279545,-0.833,1.700,0.267,14.092,-133.382,101.634,38.0,97.0
279625,0.206,1.116,-0.616,1.672,-51.130,5.718,40.0,101.0
279704,-0.470,-0.071,0.077,-45.321,127.527,-102.321,39.0,103.0
279784,-0.551,-0.104,0.250,112.618,-233.229,46.092,39.0,102.0
279865,-0.190,2.000,-1.243,-76.282,-32.252,-50.519,51.0,98.0
279944,-1.579,1.192,0.825,-48.267,-29.588,13.542,36.0,100.0
280025,-0.001,0.721,-0.353,222.229,-250.137,104.672,37.0,105.0
280108,0.538,0.115,-0.202,-192.137,145.038,-151.618,39.0,108.0
280187,-0.428,-0.386,0.964,47.962,-164.221,11.069,38.0,106.0
280267,0.606,2.000,-0.895,54.466,-65.069,46.588,44.0,99.0
280347,-1.718,1.778,-0.133,-128.649,224.519,-32.130,38.0,96.0
280427,-0.945,0.721,-0.037,244.351,-250.137,83.084,40.0,100.0
280507,0.445,0.827,-0.801,-142.221,159.809,-76.695,43.0,104.0
280587,-0.905,-0.238,0.778,41.725,-80.160,-1.985,40.0,103.0
280668,-0.317,1.764,-0.741,210.038,-250.137,99.374,51.0,99.0
280751,-0.971,1.158,0.005,-69.679,110.290,-35.557,41.0,99.0
280830,-0.470,0.661,0.123,170.000,-250.137,65.229,41.0,103.0
280913,1.101,0.576,-0.401,-92.115,4.695,-38.855,131.0,75.0
280994,-0.306,0.698,0.479,-8.969,70.122,-6.870,43.0,103.0
281079,-0.125,1.249,-0.226,246.527,-193.061,127.924,139.0,97.0
281159,-0.978,1.491,-0.627,-250.137,244.382,-39.061,42.0,98.0
281239,-0.952,0.536,0.508,19.290,-121.214,2.855,37.0,103.0
281324,1.096,1.040,-0.776,-13.969,38.817,-3.550,129.0,106.0
281404,-1.075,-0.168,0.727,9.626,19.214,-55.046,39.0,104.0
281488,-0.626,2.000,-1.013,250.130,-250.137,106.382,43.0,99.0
281568,-0.607,0.299,0.254,-126.267,111.092,-131.794,42.0,103.0
281649,-0.589,0.933,0.324,177.855,-173.214,22.008,43.0,107.0
281730,1.310,0.821,-0.492,-1.191,-12.901,48.359,51.0,109.0
281810,-0.294,0.140,0.583,-19.885,71.588,46.260,45.0,121.0
281896,-1.007,1.722,-0.259,119.756,-216.534,148.305,140.0,114.0
281984,-1.070,1.791,-0.412,-221.511,187.603,-84.779,50.0,0.0
282075,-0.912,0.819,0.377,214.550,-208.672,1.519,42.0,0.0
282162,0.252,0.293,-0.711,-170.992,131.626,-92.061,45.0,0.0
282247,-0.618,-0.153,0.730,1.321,-147.687,-13.115,42.0,0.0
282327,-0.147,2.000,-1.414,75.824,-113.992,48.313,57.0,105.0
282411,-1.171,0.579,0.853,-32.527,-2.198,-31.260,39.0,0.0
282496,-0.106,0.696,-0.234,250.130,-250.137,103.107,45.0,0.0
282585,0.750,-0.186,-0.179,-152.504,89.626,-71.099,128.0,0.0
282670,-0.258,0.412,0.590,94.817,-112.901,51.603,40.0,0.0
282748,-0.490,2.000,-1.282,-164.336,170.076,-64.420,42.0,98.0
282836,-1.452,1.126,0.730,53.374,-112.725,24.061,41.0,0.0
282916,0.198,1.313,-0.747,45.466,-211.023,47.794,40.0,119.0
283000,-0.294,-0.359,-0.121,-159.038,176.710,-117.137,39.0,0.0
283085,-0.833,0.125,0.506,79.817,-250.137,-3.779,38.0,0.0
283175,-0.009,2.000,-0.813,-9.542,-125.489,-34.092,135.0,0.0
283259,-0.719,0.812,0.663,19.695,-42.145,-46.641,39.0,0.0
283350,0.982,0.383,-0.516,250.130,-220.748,70.649,130.0,0.0
283435,-0.191,-0.185,0.367,-73.534,158.679,-41.168,41.0,0.0
283518,-0.607,0.673,0.518,158.618,-226.435,101.252,44.0,0.0
283607,-0.284,2.000,-1.153,-250.137,153.458,-50.450,42.0,0.0
283692,-1.193,1.118,0.329,-7.313,-28.321,2.069,36.0,0.0
283777,0.256,0.445,-0.697,129.496,-217.282,96.458,128.0,118.0
283860,-0.417,-0.538,0.134,-160.695,182.786,-119.550,39.0,0.0
283945,-1.037,1.278,-0.080,245.740,-250.137,78.336,41.0,0.0
284030,0.097,1.691,-0.532,-250.137,69.000,-66.618,40.0,0.0
284114,-0.617,0.742,0.452,141.214,-69.649,-56.183,38.0,0.0
284205,1.019,0.747,-0.510,92.809,-142.061,55.427,125.0,0.0
284292,-0.053,0.120,0.582,-67.198,147.542,12.137,42.0,0.0
284382,-0.248,2.000,-0.522,190.130,-79.847,108.427,135.0,0.0
284467,-1.094,0.563,0.402,-110.756,123.924,27.313,35.0,0.0
284552,-0.310,0.446,0.017,162.466,-204.458,6.878,44.0,0.0
284637,-0.119,0.354,-0.263,-209.901,136.893,-127.221,43.0,0.0
284721,-1.083,0.217,0.283,84.122,-190.412,-14.885,39.0,0.0
284811,-0.132,2.000,-1.085,6.511,-36.771,-24.985,128.0,0.0
284896,-0.897,1.023,0.694,116.221,-60.382,-9.573,40.0,0.0
284985,0.736,0.932,-0.462,139.115,-201.962,67.863,124.0,0.0
285073,-0.079,-0.258,0.607,-49.466,99.710,-11.481,41.0,0.0
285158,0.170,0.810,-0.161,192.153,-150.221,105.435,132.0,106.0
285237,-1.358,1.943,-0.397,-206.252,215.595,16.397,43.0,99.0
285315,-1.032,0.998,0.191,150.924,-90.313,65.763,39.0,67.0
285399,-0.154,0.781,-0.595,58.031,-197.473,50.832,129.0,108.0
285478,0.133,-0.629,-0.038,-105.435,71.779,-116.779,41.0,108.0
285558,-0.844,1.083,0.217,87.084,-238.450,29.649,45.0,103.0
285638,-0.524,2.000,-0.801,80.458,-250.137,66.015,47.0,100.0
285720,-0.353,0.584,0.279,26.672,28.870,-107.588,42.0,102.0
285805,0.015,0.556,-0.132,172.221,-246.046,24.221,133.0,105.0
285890,1.066,0.488,-0.368,-51.420,8.603,-7.229,133.0,104.0
285974,-0.853,1.265,0.399,-88.702,127.977,18.870,138.0,98.0
286059,-0.683,1.741,-0.578,250.130,-177.038,145.359,141.0,96.0
286144,-0.363,0.921,-0.510,-216.534,113.107,-93.786,137.0,100.0
286224,-0.590,0.024,0.471,17.321,-88.237,-14.840,44.0,103.0
286308,-0.164,0.781,-0.319,-30.321,-205.374,83.466,133.0,103.0
286391,-0.860,1.610,-0.111,-108.351,27.221,-75.214,43.0,102.0
286471,-0.731,0.883,0.297,182.756,-219.786,52.511,45.0,104.0
286556,0.617,1.598,-0.591,-35.198,-19.504,-79.695,129.0,108.0
286636,-0.264,0.081,0.745,-24.672,16.153,-25.496,37.0,110.0
286715,0.286,-0.135,0.385,173.824,-196.481,94.786,43.0,108.0
286795,-0.206,2.000,-1.179,-88.435,120.748,-98.534,49.0,99.0
286873,-1.143,0.860,0.246,37.695,31.000,90.229,48.0,57.0
286956,-0.187,0.716,-0.418,250.130,-171.496,50.260,133.0,73.0
287039,-0.731,0.081,0.120,-250.137,138.725,-95.221,48.0,107.0
287119,-0.556,-0.593,0.347,162.389,-250.137,43.603,44.0,106.0
287204,-0.399,2.000,-1.382,-69.977,52.809,-100.145,134.0,102.0
287284,-1.079,0.489,0.930,-17.931,-105.802,21.931,40.0,105.0
287369,0.698,1.785,-0.818,220.756,-121.008,35.389,128.0,108.0
287449,-0.357,-0.145,0.710,-126.275,117.489,-35.748,45.0,110.0
287528,0.123,-0.663,0.225,246.061,-250.137,127.886,45.0,108.0
287613,0.006,1.858,-0.999,-200.832,250.130,-144.595,134.0,101.0
287694,-1.290,1.341,0.445,134.656,-116.519,86.588,47.0,58.0
287779,0.024,1.588,-0.817,-54.924,-77.924,30.275,131.0,105.0
287864,-0.747,-0.071,0.297,-17.947,125.496,-78.534,128.0,110.0
287949,-0.420,-0.047,0.030,95.817,-248.527,110.298,128.0,110.0
288035,-0.854,1.421,-0.637,-131.305,92.412,-185.328,51.0,0.0
288120,-0.982,0.772,0.534,145.458,-219.863,69.992,43.0,0.0
288210,0.765,1.205,-0.465,-50.901,-82.214,-37.145,127.0,0.0
288295,-0.179,0.393,0.503,-11.885,-2.389,4.771,44.0,0.0
288380,0.316,0.105,-0.219,199.191,-218.008,126.351,132.0,108.0
288470,-1.294,2.000,-0.644,-157.275,250.130,-83.481,47.0,0.0
288556,-1.388,0.764,0.755,124.328,-151.687,60.405,41.0,0.0
288641,0.324,1.235,-0.506,-190.160,-96.908,-28.443,44.0,0.0
288726,-0.521,-0.228,0.111,-55.458,86.092,-34.832,39.0,0.0
288811,-0.706,-0.248,-0.103,250.130,-250.137,36.496,42.0,0.0
288897,-0.700,2.000,-0.791,-193.168,113.176,-154.672,43.0,0.0
288982,-0.837,0.028,0.971,144.504,-100.710,-2.176,40.0,0.0
289068,0.413,0.575,-0.525,250.130,-242.305,82.969,47.0,0.0
289156,0.092,0.001,0.061,-188.168,117.092,-58.359,46.0,0.0
289242,-0.722,0.244,0.164,250.130,-250.137,102.519,44.0,0.0
289327,-0.796,2.000,-1.271,-250.137,241.351,-84.244,145.0,100.0
289418,-1.174,0.580,0.598,155.038,-122.305,27.183,139.0,0.0
289509,0.647,1.139,-0.653,-137.824,54.481,-10.588,134.0,0.0
289594,-0.864,-0.078,0.166,-60.679,-35.496,5.344,41.0,0.0
289679,-0.052,1.502,-1.035,250.130,-250.137,78.198,139.0,101.0
289765,-1.323,0.631,0.533,-250.137,91.382,-63.779,41.0,0.0
289855,-0.310,0.342,-0.279,250.130,-250.137,73.450,133.0,189.0
289944,0.174,-0.324,-0.206,-250.137,207.359,-128.626,51.0,198.0
290034,-0.298,0.130,0.496,250.130,-174.611,92.649,136.0,0.0
290126,-0.891,2.000,-1.269,-250.137,159.634,-19.740,141.0,0.0
290212,-1.123,0.663,0.332,146.763,-172.397,45.244,50.0,0.0
290298,0.623,0.681,-0.695,-141.748,-6.168,-56.244,50.0,0.0
290383,-0.826,0.086,0.268,4.031,4.954,-47.458,45.0,0.0
290475,-0.427,1.577,-0.486,250.130,-229.809,97.733,135.0,0.0
290560,-1.046,0.207,0.623,-187.221,44.756,-53.336,39.0,0.0
290649,0.202,0.481,-0.446,250.130,-250.137,74.107,49.0,0.0
290735,0.259,-0.175,-0.210,-250.137,245.542,-85.336,42.0,0.0
290820,-0.420,0.366,0.592,246.252,-189.107,62.405,42.0,0.0
290906,-0.932,2.000,-0.917,-213.435,229.084,-24.229,42.0,0.0
290991,-0.981,0.980,0.279,117.771,-119.496,82.130,38.0,0.0
291077,0.448,0.134,-0.255,-111.008,4.840,-59.771,47.0,0.0
291162,-0.744,0.403,0.266,19.985,18.359,-45.366,40.0,0.0
291248,-0.577,0.845,-0.517,230.573,-250.137,81.473,43.0,0.0
291337,-1.137,1.344,-0.236,-181.305,129.336,-72.870,43.0,0.0
291422,-0.603,0.851,0.023,250.130,-197.237,41.122,43.0,0.0
291513,0.910,0.662,-0.312,25.656,-128.450,52.878,129.0,0.0
291598,0.281,-0.266,0.368,-128.031,99.908,-35.527,43.0,0.0
291678,-1.041,2.000,0.024,120.290,-135.000,72.916,43.0,96.0
291758,-1.005,2.000,-1.029,-222.481,127.282,30.832,49.0,95.0
291837,-1.125,0.122,0.557,17.389,-19.305,-23.924,39.0,101.0
291918,0.085,0.613,-0.550,181.595,-174.962,63.931,51.0,106.0
291998,-0.207,-0.180,-0.161,-226.580,108.099,-89.046,42.0,107.0
292082,-1.187,0.091,0.410,129.992,-218.237,-58.496,42.0,102.0
292167,-0.733,2.000,-1.112,250.130,-172.084,72.069,139.0,98.0
292248,-0.422,0.521,0.308,-185.817,-1.786,-72.427,49.0,105.0
292329,-0.184,0.367,0.176,231.794,-204.634,16.435,39.0,109.0
292409,0.729,0.410,-0.321,9.313,-68.748,32.282,40.0,110.0
292490,0.152,-0.067,0.234,-59.473,53.550,-44.420,39.0,104.0
292569,-1.086,2.000,-0.075,187.962,-38.092,35.000,43.0,94.0
292655,-1.035,2.000,-0.068,-71.893,-48.336,95.092,143.0,95.0
292738,-0.576,0.525,0.360,-65.947,-91.702,11.740,36.0,102.0
292823,0.420,0.435,-0.693,136.298,-36.023,-25.947,37.0,106.0
292901,-0.546,-0.321,0.225,-250.137,111.901,-135.008,36.0,105.0
292985,-1.319,0.304,-0.717,250.130,-250.137,50.847,140.0,98.0
293065,-0.338,1.394,-0.723,-250.137,179.901,-157.489,43.0,100.0
293144,-0.611,0.397,0.820,184.641,-93.359,19.832,41.0,103.0
293223,0.994,0.989,-0.456,210.023,-154.824,110.076,46.0,103.0
293302,-0.115,-0.054,0.276,-146.634,165.595,11.344,41.0,100.0
293384,-1.371,1.793,-0.126,193.748,-135.397,93.382,43.0,94.0
293463,-0.684,2.000,-0.963,-250.137,137.061,-6.504,41.0,97.0
293548,-1.052,-0.030,0.635,-44.519,39.366,-27.679,134.0,104.0
293626,0.122,0.292,-0.273,199.786,-204.573,28.588,40.0,105.0
293705,-0.368,0.425,-0.059,-250.137,55.878,-107.511,42.0,104.0
293785,-1.459,1.719,0.312,213.679,-95.947,2.359,43.0,102.0
293864,-0.515,1.246,-0.014,159.786,-155.870,109.092,40.0,105.0
293944,0.273,0.568,-0.096,-48.489,-104.076,9.275,41.0,111.0
294026,0.505,-0.136,-0.085,-36.656,-19.939,-41.214,37.0,112.0
294106,0.063,0.043,0.474,196.840,72.763,-20.321,38.0,104.0
294190,-1.217,2.000,-0.597,15.672,-15.137,7.466,145.0,97.0
294268,-1.051,0.608,0.547,-99.130,-61.069,31.405,39.0,102.0
294348,-0.331,0.452,-0.258,235.389,-116.565,60.496,38.0,107.0
294427,-0.003,0.073,-0.418,-164.969,-24.870,-69.267,37.0,110.0
294507,-0.162,-0.491,0.156,-12.382,-1.183,-111.802,38.0,106.0
294591,-1.598,2.000,-0.106,250.130,-179.122,-21.267,142.0,97.0
294676,-0.604,1.842,0.045,-52.649,-86.130,127.511,138.0,101.0
294759,0.040,0.492,0.076,5.931,-16.122,-84.359,44.0,109.0
294844,-0.430,0.084,0.484,-8.076,-27.763,-22.466,38.0,0.0
294926,0.507,-0.056,-0.520,195.290,-208.198,113.763,43.0,164.0
295009,-0.608,1.125,-0.307,-57.244,166.466,-110.321,41.0,163.0
295093,-0.982,1.969,0.092,172.321,-96.382,144.397,49.0,167.0
295178,-0.138,0.949,-0.031,12.160,-117.870,84.092,40.0,0.0
295262,0.086,0.143,-0.377,-159.931,114.832,-145.878,41.0,0.0
295347,-1.071,0.866,0.217,-17.802,-87.939,39.771,41.0,0.0
295435,-0.146,1.545,-1.006,192.588,-250.137,195.725,137.0,103.0
295526,-0.837,1.756,-0.348,-99.672,144.718,-127.985,138.0,0.0
295616,-0.425,0.301,0.269,150.634,-250.137,76.107,133.0,0.0
295706,0.392,0.068,-0.401,-167.359,206.855,-136.939,131.0,0.0
295791,-0.330,0.118,0.524,137.511,-184.374,74.260,47.0,0.0
295876,0.110,2.000,-1.206,-116.298,142.634,-61.496,142.0,103.0
295956,-1.597,1.478,0.156,-52.412,-0.603,0.183,51.0,104.0
296046,0.240,1.300,-0.800,58.382,-134.031,82.252,136.0,0.0
296139,-0.441,0.280,0.048,-47.305,68.550,-29.504,131.0,0.0
296224,-0.295,0.126,-0.240,115.229,-233.252,73.282,51.0,0.0
296309,-1.293,1.842,-0.077,-88.153,53.084,-62.450,46.0,0.0
296394,-0.238,1.011,-0.258,173.298,-250.137,135.298,130.0,111.0
296475,0.472,-0.009,-0.094,-95.282,76.076,-112.634,48.0,114.0
296560,-0.176,0.180,0.605,32.595,-99.244,11.489,41.0,0.0
296650,0.782,2.000,-1.285,-122.435,102.511,-105.519,138.0,0.0
296735,-1.813,1.776,0.358,-140.618,27.641,84.389,39.0,0.0
296820,-0.452,0.397,-0.180,250.130,-185.595,114.282,38.0,0.0
296913,0.362,1.610,-0.551,-250.137,62.969,-157.420,132.0,0.0
297005,-1.110,-0.916,1.080,-17.198,-81.351,-15.695,135.0,0.0
297095,0.301,2.000,-2.000,250.130,-74.252,61.008,138.0,0.0
297187,-1.312,-2.000,1.986,-21.985,6.191,-48.840,173.0,0.0
297278,1.003,2.000,-0.933,124.916,-199.061,82.611,141.0,0.0
297363,-0.243,-0.271,0.843,14.099,70.672,60.374,41.0,0.0
297449,-0.580,1.456,-1.497,250.130,-51.901,107.122,58.0,0.0
297534,-1.783,-0.753,0.313,-250.137,135.008,-58.771,43.0,0.0
297636,0.417,2.000,-1.178,109.099,-186.901,78.771,133.0,0.0
297724,-0.497,-1.119,0.628,32.229,1.153,12.168,44.0,0.0
297811,-0.253,0.914,-0.385,118.924,-76.969,-71.656,44.0,0.0
297905,-0.896,2.000,-0.972,5.260,-130.275,61.427,139.0,0.0
297988,-0.066,0.228,-0.025,108.198,-123.580,47.107,45.0,107.0
298071,0.832,0.889,-0.233,-163.359,-66.870,-46.779,50.0,107.0
298158,-0.174,0.109,0.585,-32.695,81.802,-0.771,137.0,102.0
298245,-1.350,1.639,-0.216,250.130,-94.618,39.855,144.0,94.0
298330,-0.828,1.194,-0.614,-250.137,72.672,-44.718,41.0,97.0
298413,-0.865,0.045,0.251,250.130,-205.641,36.763,51.0,102.0
298494,0.863,0.938,-0.508,-1.466,-141.756,45.145,43.0,104.0
298576,-1.172,0.704,0.491,-75.664,-16.313,22.908,36.0,102.0
298661,-0.940,1.204,-0.539,250.130,-250.137,121.168,136.0,69.0
298744,-0.368,0.280,-0.238,-250.137,207.260,-178.046,44.0,103.0
298826,-0.804,0.382,0.343,250.130,-250.137,56.336,44.0,104.0
298908,1.174,0.483,-0.730,-231.664,77.489,-5.618,41.0,104.0
298990,-1.014,0.915,0.953,18.282,-27.893,-23.366,39.0,99.0
299080,0.321,2.000,-1.038,-11.160,-27.634,15.412,140.0,87.0
299162,-1.155,0.503,0.673,-84.435,76.763,-87.763,38.0,101.0
299249,-0.454,-0.873,-0.260,250.130,-250.137,-11.489,145.0,102.0
299339,0.079,0.349,-1.824,-250.137,164.489,-175.855,166.0,104.0
299428,-2.000,-0.145,-0.537,250.130,-250.137,55.672,167.0,99.0
299510,-0.382,0.510,-0.585,-250.137,116.244,-81.656,45.0,104.0
299593,-0.601,0.719,-0.377,250.130,-250.137,56.679,46.0,105.0
299681,0.173,0.177,-0.350,250.130,-38.099,52.870,134.0,103.0
299766,0.108,0.240,0.163,-250.137,121.420,-58.947,45.0,102.0
299848,-1.325,0.748,0.211,250.130,-151.435,71.824,46.0,98.0
299934,0.020,2.000,-1.507,-250.137,69.588,-37.458,137.0,69.0
300022,-0.898,-0.948,0.663,250.130,-3.832,41.115,133.0,105.0
300109,0.344,1.467,-0.764,-250.137,-12.687,-36.198,131.0,106.0
300192,-0.901,0.045,0.615,140.702,1.229,27.221,51.0,103.0
300279,-0.604,2.000,-1.397,250.130,-250.137,125.626,139.0,98.0
300369,-0.681,-0.087,0.405,-250.137,124.473,-105.061,165.0,105.0
300455,-0.087,0.459,-0.280,250.130,-190.802,64.504,51.0,105.0
300538,0.679,-0.232,-0.084,-250.137,38.282,-69.282,52.0,105.0
300621,-0.540,0.331,0.220,250.130,-19.832,60.481,58.0,96.0
300709,-0.984,2.000,-1.607,-250.137,39.473,57.443,143.0,94.0
300791,-0.856,0.054,0.467,-34.832,32.427,5.275,40.0,106.0
300874,-0.270,-0.100,-0.369,250.130,-164.893,44.458,51.0,109.0
300963,0.001,0.208,-0.481,-250.137,29.137,-117.794,52.0,0.0
301050,-1.293,-0.558,0.553,250.130,-222.191,-21.359,43.0,0.0
301146,-0.044,2.000,-1.646,-229.855,-8.168,-49.389,141.0,169.0
301234,-0.762,-0.635,1.145,250.130,-98.084,6.290,43.0,0.0
301326,1.289,1.765,-0.605,106.962,-110.756,68.939,135.0,180.0
301414,-0.726,-0.303,0.873,-77.969,77.947,68.115,48.0,0.0
301502,-0.888,1.966,-0.829,250.130,-250.137,210.420,145.0,103.0
301585,-1.109,0.158,0.062,-250.137,250.130,-104.756,44.0,102.0
301673,-0.657,0.541,0.080,250.130,-218.191,58.542,45.0,0.0
301766,0.544,0.352,-0.469,-250.137,56.000,-83.008,133.0,0.0
301854,-1.417,0.502,0.427,143.992,-41.008,-12.191,45.0,0.0
301952,-0.513,2.000,-0.806,183.595,-236.626,143.977,139.0,0.0
302040,-0.080,-0.117,0.229,-241.527,95.122,-133.282,41.0,0.0
302128,-0.167,0.344,0.154,250.130,-182.664,13.107,51.0,0.0
302217,0.913,1.219,-0.928,-250.137,171.282,-108.504,53.0,0.0
302305,-1.647,1.246,0.359,235.878,-150.237,62.863,46.0,0.0
302393,-0.521,2.000,-1.179,-250.137,103.443,-17.557,45.0,0.0
302482,-1.490,0.733,0.299,90.695,-62.634,-7.962,48.0,0.0
302575,0.418,0.850,-0.686,56.870,-203.733,78.015,134.0,0.0
302666,-0.256,-0.551,0.232,-41.344,10.191,-84.084,44.0,0.0
302754,-1.702,2.000,-0.014,250.130,-250.137,89.656,51.0,0.0
302842,-0.254,1.159,-0.284,-207.443,-55.076,22.168,44.0,0.0
302930,0.273,-0.389,0.362,-15.244,46.588,-90.427,39.0,0.0
303019,0.134,0.017,-0.107,250.130,-207.908,43.626,44.0,0.0
303108,-0.053,1.646,-0.920,-250.137,202.634,-203.886,46.0,0.0
303201,-1.700,1.430,0.384,143.832,-153.802,136.359,143.0,0.0
303289,0.176,1.168,-0.412,15.718,-122.809,24.580,43.0,0.0
303381,-0.376,-0.433,0.048,-138.366,156.817,-45.107,44.0,0.0
303469,-0.574,-0.632,0.541,238.427,-228.962,6.824,46.0,0.0
