Timestamp(ms),AccelX(g),AccelY(g),AccelZ(g),GyroX(deg/s),GyroY(deg/s),GyroZ(deg/s),DistanceLeft(cm),DistanceRight(cm)
80720,-0.392,0.152,-1.662,250.130,-250.137,150.634,122.0,149.0
80808,-2.000,-1.330,-0.080,-250.137,71.328,-130.046,117.0,0.0
80894,0.071,2.000,-1.604,250.130,-105.046,110.168,118.0,155.0
80984,-1.588,-2.000,1.451,-250.137,60.053,-68.595,113.0,0.0
81071,1.428,2.000,-1.269,250.130,-2.817,56.107,117.0,186.0
81159,-1.966,-2.000,1.582,71.878,-108.084,-20.221,107.0,0.0
81252,0.616,2.000,-2.000,250.130,-50.649,61.389,0.0,0.0
81343,-1.955,-2.000,1.339,154.359,-28.107,23.473,103.0,0.0
81436,0.917,2.000,-0.906,154.962,-35.634,22.023,0.0,0.0
81523,-1.191,-2.000,1.443,-120.939,-29.435,-16.931,99.0,0.0
81616,0.324,2.000,-1.603,250.130,-145.031,119.099,0.0,0.0
81701,-2.000,-2.000,1.445,-244.931,62.924,-50.466,60.0,0.0
81796,0.242,2.000,-1.430,250.130,-112.008,123.595,0.0,0.0
81883,-1.153,-1.863,0.784,-250.137,170.840,-85.267,99.0,0.0
81977,0.345,0.763,-1.872,250.130,-235.733,181.489,0.0,0.0
82070,-2.000,-2.000,0.292,-250.137,156.916,-122.748,0.0,0.0
82161,-1.275,1.413,-1.700,250.130,-186.176,139.718,0.0,0.0
82255,-1.228,-1.118,-0.686,-250.137,218.840,-131.198,0.0,0.0
82349,-0.124,0.258,-0.811,250.130,-244.351,124.863,0.0,0.0
82443,-1.755,0.014,-0.284,-250.137,76.992,-94.985,0.0,0.0
82536,-1.203,0.368,-0.430,250.130,-156.977,119.450,0.0,0.0
82629,-1.633,-1.240,-0.328,-250.137,177.031,-134.412,0.0,0.0
82723,0.709,0.743,-1.342,250.130,-194.481,155.756,0.0,0.0
82817,-1.003,-2.000,1.015,-250.137,76.191,-75.809,0.0,0.0
82914,0.239,2.000,-1.718,250.130,-73.473,38.939,0.0,0.0
83007,-2.000,-2.000,1.893,-140.412,53.733,-0.092,0.0,0.0
83101,1.126,2.000,-1.220,250.130,-75.267,54.969,0.0,0.0
83194,-1.163,-2.000,1.227,-119.756,-0.473,-19.450,0.0,0.0
83289,0.219,2.000,-1.401,20.000,33.130,-26.298,0.0,0.0
83379,-2.000,-2.000,1.191,250.130,-124.679,17.870,140.0,0.0
83469,-0.253,2.000,-1.810,-250.137,165.886,-105.702,143.0,0.0
83558,-0.633,-1.802,0.741,250.130,-150.496,44.069,119.0,0.0
83652,0.605,2.000,-1.470,-225.687,108.908,-29.954,0.0,0.0
83749,-2.000,-1.420,0.658,250.130,-143.298,-8.870,0.0,0.0
83843,-0.514,2.000,-1.569,-187.664,97.366,-49.351,0.0,193.0
83936,-1.487,-2.000,1.255,183.275,2.794,29.130,0.0,0.0
84029,0.902,2.000,-1.200,250.130,-131.748,104.565,0.0,181.0
84122,-1.742,-2.000,0.958,-250.137,17.817,-75.206,0.0,0.0
84216,0.371,2.000,-2.000,250.130,-152.397,155.008,0.0,0.0
84310,-1.801,-2.000,1.817,-122.305,53.130,-19.603,195.0,192.0
84403,1.249,2.000,-1.229,132.908,3.870,21.626,0.0,0.0
84500,-1.330,-2.000,1.266,250.130,-178.695,30.847,0.0,197.0
84594,-1.684,2.000,-2.000,-250.137,206.786,-142.634,0.0,0.0
84687,-1.680,-0.521,-0.167,250.130,-158.458,98.145,0.0,0.0
84782,-0.532,0.672,-0.756,-250.137,160.962,-120.015,0.0,0.0
84876,-0.812,-1.415,-0.256,250.130,-250.137,61.061,0.0,0.0
84969,-1.275,0.582,-1.557,-250.137,160.298,-158.847,0.0,0.0
85063,-1.378,0.101,-0.850,250.130,-199.069,104.008,0.0,0.0
85157,-1.134,-0.339,-0.265,-250.137,147.282,-99.794,0.0,0.0
85252,-0.179,0.174,-0.465,250.130,-162.565,73.153,0.0,0.0
85349,-1.335,-1.158,-0.085,-250.137,153.267,-95.183,0.0,0.0
85442,-1.278,1.720,-2.000,250.130,-211.534,183.641,0.0,0.0
85536,-1.638,-2.000,1.160,-250.137,154.969,-27.733,0.0,0.0
85630,0.267,0.568,-0.713,250.130,-147.748,89.695,0.0,0.0
85725,-0.570,-0.136,-0.655,-250.137,81.672,-99.771,0.0,0.0
85819,-1.911,-0.054,-0.183,250.130,-173.786,53.237,0.0,0.0
85912,-1.217,-0.712,-0.058,-250.137,130.695,-68.084,0.0,0.0
86006,-0.084,0.045,-1.005,250.130,-172.802,101.557,0.0,0.0
86104,-0.936,-1.248,-0.251,-250.137,212.313,-104.496,0.0,0.0
86198,-1.456,0.562,-1.680,250.130,-227.687,151.031,0.0,0.0
86292,-2.000,-2.000,0.080,-250.137,136.229,-78.031,0.0,0.0
86385,-0.216,1.178,-1.241,250.130,-172.863,150.069,190.0,0.0
86478,-0.748,-1.185,0.133,-250.137,67.855,-42.489,180.0,0.0
86573,-1.311,-1.630,-2.000,250.130,-214.939,250.130,0.0,0.0
86663,-1.168,0.071,-0.876,-250.137,211.176,109.542,139.0,0.0
86749,-1.439,-1.231,1.661,250.130,-29.122,-46.389,45.0,0.0
86839,0.167,2.000,-0.523,37.725,15.985,182.992,132.0,0.0
86922,0.264,-0.744,1.069,-209.092,148.122,36.573,30.0,108.0
87001,-0.450,0.856,0.329,231.260,-199.863,238.145,32.0,109.0
87086,0.708,1.088,-0.769,-144.809,203.359,-208.214,125.0,111.0
87165,-0.246,1.836,-0.214,159.618,-63.374,124.603,29.0,114.0
87249,0.280,-0.615,0.239,-174.534,-90.458,27.802,117.0,119.0
87329,-1.923,2.000,-0.810,15.366,-95.321,31.550,30.0,114.0
87412,0.375,0.493,-0.191,-18.168,-120.542,82.557,120.0,86.0
87492,-0.866,2.000,-0.398,141.366,-110.145,-122.687,34.0,112.0
87580,0.217,0.228,-0.043,-110.863,-158.206,248.137,118.0,120.0
87660,0.071,-0.165,0.657,46.221,83.641,-230.206,22.0,116.0
87739,0.331,0.738,0.203,-128.626,29.206,125.481,24.0,113.0
87818,-0.004,0.698,0.555,155.084,-39.069,-235.511,33.0,106.0
87903,0.302,1.603,-0.677,-171.992,68.466,127.634,130.0,98.0
87982,0.193,-0.533,0.974,15.473,20.771,-250.137,20.0,113.0
88061,0.161,1.499,-0.493,-98.412,-18.351,135.557,25.0,115.0
88140,0.048,-1.633,1.192,-91.290,-83.412,-250.137,29.0,112.0
88223,0.620,2.000,-0.868,-57.069,-81.962,104.336,36.0,107.0
88309,-0.308,-0.305,1.385,86.824,-77.023,-250.137,28.0,107.0
88388,0.547,1.737,-0.378,-127.107,14.053,168.275,26.0,112.0
88466,0.499,-2.000,0.874,-114.847,10.901,-175.588,25.0,113.0
88544,0.356,2.000,-1.165,217.412,-11.756,183.672,32.0,107.0
88622,0.613,0.323,0.339,-172.191,-19.168,-193.000,24.0,104.0
88699,0.431,2.000,-0.679,141.779,90.756,112.267,30.0,106.0
88776,0.309,-0.693,0.602,-245.344,17.626,-234.954,24.0,80.0
88855,0.115,1.552,-0.712,199.305,-89.634,222.595,30.0,111.0
88935,0.301,-1.253,0.594,-223.733,-83.466,-250.137,26.0,108.0
89014,0.291,2.000,-0.958,150.313,-86.160,124.595,29.0,105.0
89092,0.939,-1.115,1.129,-206.718,17.244,-250.137,24.0,106.0
89169,0.696,2.000,-1.560,250.130,3.504,250.130,29.0,110.0
89248,0.524,-2.000,0.110,-250.137,3.221,-35.000,28.0,117.0
89326,-2.000,1.407,-0.085,250.130,-36.214,-133.229,36.0,102.0
89404,-0.153,0.666,-0.587,-250.137,93.542,96.618,30.0,103.0
89482,-0.171,0.548,0.886,232.481,39.191,-250.137,27.0,100.0
89563,-0.086,1.307,-0.589,-250.137,71.122,168.649,24.0,108.0
89641,-0.155,-1.902,0.500,8.275,-38.244,-250.137,29.0,112.0
89726,0.038,2.000,-1.232,144.969,-137.061,163.466,127.0,109.0
89809,0.406,-0.948,0.507,-176.160,-68.267,-234.137,22.0,0.0
89893,0.213,2.000,-0.670,158.603,-42.511,121.046,26.0,0.0
89982,0.518,-1.266,1.043,-133.145,-84.137,-197.382,124.0,0.0
90066,0.563,1.218,-0.913,-250.137,39.053,149.634,27.0,0.0
90149,-0.077,-0.801,1.185,250.130,62.145,-214.840,17.0,0.0
90240,0.017,1.882,-0.592,-250.137,55.710,67.099,132.0,0.0
90320,-2.000,1.052,0.016,250.130,-60.672,-32.763,30.0,108.0
90404,0.107,0.469,-0.476,-250.137,0.366,56.344,29.0,0.0
90488,-1.062,-0.315,0.587,215.817,-67.779,-162.985,33.0,0.0
90567,-0.266,1.697,-0.624,-187.321,-104.901,91.038,38.0,111.0
90647,-0.439,-0.109,1.330,172.748,-43.061,-250.137,36.0,109.0
90731,0.716,2.000,-0.462,-18.527,5.244,239.573,38.0,0.0
90815,0.181,-2.000,0.498,-199.198,-16.672,-101.878,22.0,0.0
90899,-0.445,2.000,-0.538,250.130,-86.916,114.573,30.0,0.0
90981,0.490,0.034,-0.840,-177.886,-82.244,34.366,27.0,114.0
91064,-0.226,2.000,-1.370,250.130,77.420,69.481,28.0,0.0
91148,-0.002,-0.013,0.450,-164.389,-72.595,98.893,27.0,0.0
91232,-0.684,0.456,0.214,57.092,-56.634,-250.137,30.0,0.0
91321,0.166,-0.513,-0.531,-250.137,-129.901,45.763,124.0,0.0
91405,-2.000,2.000,-0.603,250.130,-199.977,-166.084,30.0,0.0
91490,-0.166,1.122,0.199,-170.237,-44.458,-15.229,31.0,0.0
91569,-0.061,-0.224,0.636,5.863,-128.420,-175.687,31.0,113.0
91653,0.415,2.000,-0.891,250.130,-108.061,0.649,39.0,0.0
91735,-0.369,-1.271,0.448,-250.137,91.840,-11.511,35.0,0.0
91820,-1.953,1.045,-1.303,250.130,-241.099,204.847,43.0,0.0
91904,-0.485,0.022,-1.007,-250.137,167.153,-106.817,31.0,0.0
91988,-1.176,-1.856,0.447,250.130,13.153,-140.374,38.0,0.0
92082,0.149,2.000,-1.094,70.069,-153.038,-106.748,187.0,0.0
92176,-2.000,-1.566,1.140,250.130,-250.137,-57.023,0.0,0.0
92269,-0.590,2.000,-1.568,-250.137,200.344,-146.886,0.0,0.0
92363,-1.175,-0.309,-0.344,250.130,-214.679,67.718,0.0,0.0
92461,-0.110,0.823,-0.854,-250.137,223.534,-159.237,0.0,0.0
92554,-0.221,-0.309,-0.133,250.130,-207.511,85.931,0.0,0.0
92648,-1.671,0.716,-1.868,-250.137,250.130,-233.160,0.0,0.0
92742,-1.386,0.246,-1.698,250.130,-203.840,187.069,0.0,0.0
92835,-0.878,-0.869,-0.560,-250.137,178.366,-145.992,0.0,0.0
92930,-0.141,-0.108,-1.616,250.130,-250.137,232.672,0.0,0.0
93024,-1.705,-0.184,-0.993,-250.137,222.718,-163.832,0.0,0.0
93118,-0.701,0.624,-1.849,250.130,-184.855,249.550,0.0,0.0
93214,-1.624,-2.000,0.839,-250.137,93.718,-121.137,0.0,0.0
93308,1.430,2.000,-1.149,250.130,-68.588,96.305,0.0,0.0
93402,-2.000,-1.936,1.075,-40.076,-42.405,-34.931,196.0,0.0
93496,-0.791,2.000,-1.910,-218.992,118.886,-105.901,0.0,0.0
93589,-1.800,-2.000,1.018,250.130,-101.519,94.977,183.0,0.0
93683,0.044,1.776,-0.920,-250.137,78.672,-86.580,0.0,0.0
93776,-0.791,-1.492,0.070,250.130,-235.107,45.344,0.0,0.0
93871,-1.665,2.000,-1.518,-250.137,107.191,-120.458,0.0,0.0
93965,-1.498,-0.691,-0.324,250.130,-157.954,134.916,0.0,0.0
94062,0.031,0.611,-0.690,-250.137,65.313,-145.397,0.0,0.0
94153,-0.591,-0.920,-0.608,250.130,-202.237,69.710,151.0,0.0
94241,-1.004,1.752,-1.410,-250.137,122.969,-114.550,147.0,152.0
94328,-2.000,-0.529,-0.047,250.130,-122.779,50.298,143.0,130.0
94415,-0.200,2.000,-1.273,-250.137,104.160,-94.458,146.0,132.0
94507,-0.976,-2.000,1.420,250.130,-126.916,-18.580,140.0,0.0
94597,0.260,2.000,-1.270,-155.450,-51.313,-12.305,0.0,136.0
94684,-2.000,-1.549,0.286,250.130,-131.504,37.878,143.0,137.0
94781,0.124,2.000,-1.507,-40.718,45.321,-65.382,0.0,193.0
94871,-1.157,-1.494,1.041,188.573,-23.191,-2.939,0.0,138.0
94962,0.659,2.000,-1.348,-23.221,44.649,-1.992,0.0,132.0
95055,-2.000,-1.726,0.588,214.260,-26.092,-19.328,0.0,186.0
95147,-1.248,0.689,-1.115,250.130,-139.679,176.802,0.0,157.0
95237,-0.686,-0.122,-1.574,-250.137,129.565,-154.832,0.0,127.0
95327,-0.907,-1.079,-0.468,250.130,-250.137,51.290,0.0,119.0
95417,-0.654,1.886,-1.031,240.137,-115.840,192.000,0.0,128.0
95503,-0.442,0.636,-0.055,67.969,-44.489,140.191,162.0,99.0
95592,0.114,0.818,0.081,75.634,-18.885,53.611,157.0,99.0
95672,0.185,0.524,0.279,67.947,-9.939,-8.664,51.0,98.0
95758,-0.091,1.522,-0.302,4.122,95.069,-13.099,159.0,94.0
95843,-1.154,1.667,-0.663,-44.557,104.412,53.695,147.0,94.0
95928,-0.165,0.640,-0.524,165.656,98.328,118.107,140.0,100.0
96013,-0.149,0.466,-0.153,-87.382,32.603,6.710,135.0,104.0
96093,-0.361,0.209,-0.095,-226.733,-10.397,-28.000,50.0,101.0
96173,-0.785,1.785,-0.464,98.191,-55.634,13.183,51.0,99.0
96259,-0.096,1.495,-0.593,-113.840,-21.496,-3.595,133.0,74.0
96338,0.196,0.336,0.134,-9.183,-15.397,-25.130,39.0,108.0
96419,0.583,0.195,0.183,111.382,54.595,4.908,58.0,110.0
96504,0.671,0.502,-0.021,-25.221,132.527,-36.595,131.0,105.0
96584,0.033,2.000,-1.651,-167.893,199.504,-39.183,52.0,99.0
96663,-0.396,1.829,-0.937,-250.137,190.053,111.763,47.0,83.0
96741,-0.246,0.440,-0.156,-250.137,72.924,70.580,30.0,78.0
96818,-0.150,0.183,0.077,-190.611,60.786,14.725,17.0,83.0
96902,-0.451,0.311,0.436,-180.931,37.160,-40.397,17.0,0.0
96989,-0.283,0.468,0.955,-26.427,25.382,-30.504,17.0,0.0
97073,-0.428,0.297,1.072,-2.176,25.008,-12.664,20.0,0.0
97158,-0.275,0.258,0.917,-4.137,20.962,8.366,33.0,0.0
97242,-0.108,0.230,0.824,-22.656,13.489,22.809,32.0,196.0
97326,-0.163,0.121,0.847,2.122,3.313,35.366,33.0,190.0
97410,-0.181,0.286,0.929,-8.023,15.931,49.099,36.0,184.0
97501,-0.208,0.344,1.023,-13.229,30.344,82.366,0.0,136.0
97582,-0.413,0.391,1.035,-50.122,43.130,79.473,31.0,132.0
97666,-0.540,0.360,0.950,-10.527,13.237,60.824,30.0,127.0
97745,-0.320,0.266,0.863,-41.489,5.374,35.603,30.0,132.0
97826,-0.327,0.243,0.824,-56.595,-0.137,17.046,30.0,124.0
97918,-0.339,0.106,0.801,-45.023,-19.282,-21.252,0.0,163.0
98011,-0.359,0.113,0.954,14.626,7.321,-25.695,0.0,158.0
98100,-0.350,-0.007,0.940,-11.832,-2.641,-4.168,0.0,117.0
98190,-0.408,-0.012,0.906,24.588,5.687,-11.580,0.0,112.0
98269,-0.385,0.106,0.775,40.908,5.809,28.069,31.0,107.0
98358,-0.453,-0.240,0.756,104.969,-1.107,56.389,0.0,103.0
98449,-0.293,0.534,0.433,250.130,-3.023,67.053,0.0,75.0
98531,-0.307,1.265,0.412,206.740,70.634,31.664,133.0,67.0
98610,-0.396,1.632,0.063,162.832,54.840,29.504,37.0,76.0
98686,0.256,0.521,0.292,0.962,-15.267,26.924,42.0,60.0
98764,-0.697,2.000,-0.244,24.450,-8.031,-53.954,44.0,58.0
98842,-0.064,0.670,-0.091,-82.641,-3.878,60.901,37.0,60.0
98919,-0.178,1.391,-0.184,-151.855,33.580,-26.710,37.0,63.0
98997,-0.609,-0.471,1.205,178.351,-89.244,14.504,46.0,60.0
99075,0.414,2.000,-0.658,-186.695,22.328,-19.229,41.0,60.0
99161,-0.326,0.034,0.828,250.130,-44.336,85.886,41.0,62.0
99236,0.817,1.403,-0.404,-155.397,64.115,30.779,40.0,62.0
99313,-0.089,0.124,0.676,114.122,116.626,88.679,36.0,62.0
99389,0.515,2.000,-0.686,-99.313,76.863,-11.641,38.0,61.0
99466,-0.376,1.147,0.092,54.672,106.840,53.679,38.0,63.0
99542,-0.162,0.700,0.100,7.794,-58.359,7.084,39.0,67.0
99618,0.084,1.454,-0.638,-147.573,143.382,-84.992,40.0,67.0
99695,-0.579,0.099,0.857,167.740,-68.710,78.565,37.0,67.0
99776,0.746,2.000,-0.940,-99.763,-4.206,-11.855,125.0,68.0
99856,-0.397,0.902,0.897,75.336,66.641,18.542,37.0,72.0
99936,0.651,0.811,-0.080,20.687,-51.260,45.397,46.0,112.0
100016,0.231,-0.180,0.293,-18.130,216.672,8.115,44.0,119.0
100100,0.592,0.578,0.057,250.130,56.313,44.534,115.0,127.0
100179,-0.334,1.818,-1.090,-250.137,250.130,-90.069,44.0,120.0
100260,-0.257,1.538,-0.452,187.985,-4.847,52.122,42.0,121.0
100340,-0.006,0.025,-0.224,-250.137,144.206,-66.405,41.0,116.0
100419,-0.170,1.275,-0.080,113.252,-43.015,87.710,39.0,113.0
100502,-0.441,0.997,0.170,-15.695,86.542,-64.893,45.0,111.0
100582,-0.046,1.585,-0.010,-197.382,52.557,45.870,41.0,114.0
100661,0.066,-0.034,0.496,35.397,1.191,-31.504,41.0,116.0
100741,0.650,1.351,-0.471,-131.466,138.840,-64.832,36.0,117.0
100820,0.077,0.417,0.661,111.992,90.779,70.977,40.0,116.0
100899,0.420,1.839,-0.706,15.420,39.542,-0.099,45.0,111.0
100979,-0.366,1.573,-0.200,-12.634,188.634,55.305,38.0,114.0
101059,-0.196,0.038,0.417,46.710,-23.031,-4.794,41.0,117.0
101139,-0.280,0.515,-0.087,-195.794,111.763,-104.924,46.0,113.0
101221,-0.182,1.671,0.031,125.084,-83.901,91.168,37.0,108.0
101304,0.516,1.425,-0.330,-37.550,15.878,-0.870,128.0,78.0
101383,-0.571,1.350,0.687,108.458,4.260,19.115,36.0,110.0
101466,0.717,0.418,-0.155,23.305,-94.382,53.802,121.0,84.0
101544,-0.132,0.415,0.369,57.695,159.252,19.252,35.0,115.0
101627,0.727,0.160,0.188,-42.588,117.603,102.473,122.0,83.0
101709,-0.298,2.000,-0.947,154.687,122.916,2.122,127.0,78.0
101792,-0.263,0.300,-0.039,-115.313,103.695,13.817,122.0,83.0
101877,-0.358,0.942,-0.116,14.962,45.092,-96.618,121.0,83.0
101960,-0.346,0.477,0.308,-113.389,21.901,42.237,121.0,83.0
102040,0.755,1.915,-0.843,149.992,-61.122,-12.931,43.0,112.0
102119,-1.084,1.006,1.463,-2.573,68.931,-1.191,31.0,113.0
102202,0.607,0.460,-0.417,51.611,-170.496,46.939,118.0,88.0
102281,-0.448,0.058,0.763,67.076,150.397,-39.969,36.0,117.0
102362,0.592,-0.092,-0.001,-46.244,-82.809,102.420,46.0,116.0
102438,-0.482,1.721,-0.087,44.885,250.130,-70.939,36.0,72.0
102524,-0.242,2.000,-0.105,-2.763,-81.679,73.076,126.0,79.0
102604,-0.191,0.207,-0.075,-63.466,182.763,-89.740,44.0,115.0
102684,-0.171,0.496,0.097,3.053,-132.557,29.710,45.0,115.0
102764,0.438,0.281,-0.476,-67.198,175.519,-59.313,37.0,113.0
102847,-0.740,2.000,0.369,59.168,-84.160,52.611,128.0,86.0
102930,0.698,1.150,-0.391,-54.412,36.702,8.282,124.0,90.0
103010,-0.187,0.847,1.005,-11.534,48.885,-4.458,37.0,117.0
103090,1.032,-0.052,-0.302,-17.198,-13.542,54.939,36.0,119.0
103170,0.141,0.448,0.123,29.885,250.130,-17.237,36.0,113.0
103251,-0.280,2.000,-0.020,30.153,-89.206,109.359,37.0,110.0
103331,0.176,0.880,-0.758,-58.198,250.130,-67.550,37.0,113.0
103411,-0.746,0.844,0.929,38.351,-58.107,-19.481,37.0,114.0
103491,0.769,0.440,-0.838,-119.725,22.290,2.824,37.0,115.0
103575,-0.546,1.519,0.359,110.260,104.443,-9.298,126.0,111.0
103658,0.073,1.510,0.009,2.412,-157.573,74.687,123.0,83.0
103743,0.051,0.318,0.419,-40.405,213.176,-51.145,121.0,118.0
103828,0.230,0.217,0.655,40.137,-73.321,77.031,119.0,117.0
103915,0.916,0.036,-0.555,-102.015,250.130,-29.481,122.0,113.0
103998,-0.152,2.000,-0.750,14.748,150.237,102.557,127.0,81.0
104083,-0.018,0.783,-0.340,31.290,57.198,63.786,122.0,114.0
104162,-0.479,-0.253,0.086,54.679,158.916,-116.611,36.0,114.0
104242,-0.473,0.990,0.442,-127.405,-119.565,10.000,37.0,112.0
104327,0.837,0.958,-0.626,90.389,-83.076,-12.458,124.0,110.0
104410,-0.686,2.000,0.250,16.603,182.603,-23.885,127.0,89.0
104493,-0.117,0.597,0.583,9.321,-197.718,66.794,120.0,85.0
104574,0.692,-0.312,-0.177,-105.328,247.351,-108.008,47.0,91.0
104653,0.052,0.929,0.854,25.244,53.458,59.137,49.0,76.0
104737,0.969,1.678,-0.607,71.168,10.336,67.672,124.0,111.0
104822,-0.538,1.802,-0.535,-69.427,250.130,65.901,123.0,118.0
104907,-0.622,0.635,0.336,-0.481,-75.840,67.565,117.0,120.0
104996,0.018,-0.334,-0.417,-105.450,133.710,0.786,113.0,0.0
105085,-0.185,0.299,0.569,121.366,40.282,-99.076,122.0,0.0
105170,0.491,2.000,-0.813,-150.282,-5.969,116.214,126.0,114.0
105261,0.229,-0.183,0.337,62.985,52.901,17.176,117.0,0.0
105353,0.221,0.691,0.670,22.679,-10.023,-39.954,113.0,0.0
105442,0.936,-1.072,-0.095,-77.153,107.015,21.412,112.0,0.0
105527,0.404,2.000,-0.175,250.130,167.305,20.786,46.0,0.0
105612,-0.239,0.677,-0.072,-168.374,116.588,143.947,121.0,118.0
105701,-0.386,0.355,-0.172,3.916,89.328,-136.313,116.0,0.0
105784,0.216,1.290,-0.455,-13.069,43.802,-9.893,117.0,77.0
105862,0.010,-0.493,0.144,31.786,-126.786,51.092,41.0,74.0
105944,-0.325,2.000,-0.292,127.649,89.580,-73.344,127.0,66.0
106037,0.137,2.000,0.388,-117.084,-80.321,117.458,123.0,0.0
106125,0.703,-0.243,-0.324,-89.473,16.122,12.817,112.0,181.0
106208,-0.304,-0.636,0.752,177.870,135.153,-66.809,114.0,81.0
106290,1.045,0.882,-0.228,-79.130,-34.145,68.466,119.0,77.0
106377,-0.159,2.000,-0.938,172.374,250.130,-0.580,126.0,143.0
106463,-0.082,1.287,-0.053,-78.176,14.221,87.908,121.0,140.0
106550,-0.379,-0.253,-0.340,-5.321,173.397,-95.504,118.0,138.0
106635,-0.293,0.536,0.186,-71.748,-106.427,24.237,120.0,131.0
106719,-0.221,1.356,-0.320,94.977,89.977,-198.076,50.0,110.0
106805,-0.281,2.000,-0.185,-226.725,35.366,115.962,129.0,112.0
106890,0.362,0.644,0.034,16.901,9.702,35.794,120.0,120.0
106975,0.158,-0.600,0.528,40.740,111.000,-37.855,118.0,119.0
107060,1.053,-0.212,-0.376,250.130,25.282,46.053,123.0,112.0
107141,-0.467,2.000,-0.672,-143.863,250.130,17.901,57.0,105.0
107222,-0.326,1.643,-0.398,-9.183,66.664,137.046,50.0,111.0
107307,-0.317,0.333,-0.471,-121.023,201.664,-99.313,123.0,115.0
107389,-0.519,-0.135,0.244,112.534,-142.076,18.191,121.0,84.0
107473,0.453,0.206,-0.594,-126.244,161.031,-108.267,50.0,110.0
107556,-0.555,2.000,0.121,171.351,-20.992,30.237,132.0,72.0
107639,0.290,1.743,-0.664,-108.290,-38.771,124.305,127.0,78.0
107723,0.238,-0.551,0.398,-66.267,125.069,-109.992,121.0,92.0
107807,0.399,0.742,0.359,80.023,-42.985,83.046,120.0,87.0
107890,1.110,-0.333,-0.495,-157.122,222.466,-19.466,121.0,84.0
107973,-0.098,2.000,-1.119,177.832,217.115,22.122,129.0,78.0
108057,-0.084,0.344,-0.124,-15.092,-60.992,147.168,123.0,84.0
108143,-0.531,-0.389,-0.613,-142.595,200.466,-210.649,119.0,86.0
108227,-0.409,1.798,0.061,132.267,-162.137,46.115,122.0,82.0
108310,0.926,0.140,-0.354,-36.130,-10.160,-65.221,126.0,79.0
108394,-0.344,2.000,-0.483,-10.084,40.328,4.000,131.0,78.0
108477,0.548,0.816,-0.192,-6.985,-94.855,101.886,124.0,82.0
108560,0.237,-0.599,0.392,54.550,132.969,-54.053,121.0,85.0
108644,0.428,0.452,0.084,-7.786,-36.725,100.229,122.0,83.0
108727,0.876,1.053,-0.848,29.718,250.130,-98.458,127.0,78.0
108814,-0.354,2.000,-0.909,-105.290,213.931,56.573,128.0,78.0
108898,0.378,-0.090,-0.670,-9.382,33.740,49.229,120.0,86.0
108978,-1.042,-0.039,0.373,108.069,140.939,-106.809,37.0,115.0
109062,-0.059,0.278,-0.210,-120.351,-203.038,56.244,123.0,83.0
109146,-0.313,1.735,-0.675,240.908,141.435,-132.687,130.0,84.0
109230,-0.358,1.847,0.448,-105.153,-79.779,108.359,130.0,90.0
109315,0.837,0.359,-0.420,-119.893,64.565,-4.458,122.0,115.0
109400,-0.066,0.997,0.381,168.695,130.603,31.298,120.0,102.0
109488,0.873,-0.763,-0.028,-13.489,27.092,104.366,120.0,117.0
109572,0.256,1.750,-0.736,207.748,250.130,-78.603,128.0,76.0
109663,-0.142,1.240,-0.099,-186.115,106.099,116.252,124.0,112.0
109747,0.295,0.201,-0.661,-4.000,67.191,-63.107,118.0,117.0
109831,-0.740,1.244,0.043,170.542,75.076,-100.160,122.0,112.0
109915,0.139,0.162,0.122,-98.420,-164.672,61.252,124.0,109.0
109998,-0.258,2.000,-0.766,56.160,155.718,-116.252,128.0,80.0
110080,-0.003,1.350,0.295,2.206,-48.206,108.389,124.0,82.0
110162,0.676,0.486,-0.158,-86.725,28.527,-28.992,119.0,88.0
110247,0.064,-0.282,0.892,57.649,129.733,-39.878,121.0,83.0
110329,0.904,0.805,-0.307,78.191,64.985,72.130,127.0,77.0
110407,-0.365,2.000,-0.904,-250.137,230.916,70.809,50.0,80.0
110491,-0.098,0.962,-0.283,118.198,94.817,87.267,122.0,113.0
110573,-0.209,-0.301,-0.135,-82.344,105.450,-177.985,120.0,73.0
110657,-0.118,2.000,0.063,81.183,-104.435,83.534,123.0,113.0
110742,0.822,-0.370,-0.380,123.420,12.420,-15.672,124.0,112.0
110826,-0.399,2.000,-0.169,66.817,58.740,79.221,127.0,114.0
110913,0.566,0.113,0.081,-28.206,-88.679,55.183,119.0,124.0
110993,0.023,-0.132,0.602,22.061,88.656,-85.565,43.0,116.0
111077,0.534,0.050,0.020,-47.885,25.573,66.931,120.0,114.0
111161,0.379,1.107,-0.456,87.290,186.931,-120.840,128.0,105.0
111246,-0.333,2.000,-0.536,-213.397,75.664,105.847,128.0,114.0
111326,0.429,0.264,-0.387,-17.489,187.389,-108.832,45.0,114.0
111411,-1.008,0.942,0.654,-1.519,40.649,-9.137,41.0,0.0
111500,1.056,0.331,-0.848,111.618,-163.672,65.824,123.0,0.0
111580,-0.904,2.000,0.728,-44.908,114.710,25.939,37.0,83.0
111665,0.399,0.228,-0.008,200.321,-250.137,113.298,122.0,118.0
111742,-0.360,0.110,0.205,-140.359,250.130,-73.641,46.0,71.0
111819,0.259,-0.027,0.463,91.435,-133.573,99.481,43.0,69.0
111901,0.305,1.440,-0.842,-50.252,250.130,-94.756,127.0,65.0
111986,-0.322,1.801,0.034,20.511,-129.855,133.908,49.0,0.0
112070,-0.343,1.161,-0.996,-156.687,250.130,-159.580,42.0,0.0
112149,-0.637,-0.262,0.739,150.168,-182.832,20.664,47.0,74.0
112236,0.947,1.244,-1.229,-172.595,143.855,-84.305,125.0,159.0
112319,-0.707,1.640,0.713,112.290,-66.664,42.771,51.0,113.0
112404,0.896,2.000,-1.031,-22.679,-4.489,24.511,130.0,111.0
112485,-0.753,0.214,1.103,19.832,99.611,-49.519,38.0,140.0
112565,0.867,0.585,-0.431,83.336,-184.435,105.084,50.0,122.0
112646,0.582,-0.378,-0.367,-114.458,250.130,-48.992,50.0,121.0
112731,-0.283,2.000,-0.109,102.489,44.794,120.000,129.0,117.0
112816,0.875,1.594,-1.331,-131.611,132.626,32.191,126.0,112.0
112894,-0.986,-0.097,0.892,-21.481,241.893,-11.031,39.0,106.0
112982,-0.075,0.573,-0.243,75.824,-225.023,89.916,122.0,114.0
113061,-0.217,0.100,-0.132,-71.412,250.130,-91.489,37.0,103.0
113140,-0.718,2.000,0.850,68.557,-91.221,34.214,48.0,105.0
113220,0.929,1.627,-0.765,-23.634,-34.527,43.191,48.0,109.0
113301,-0.228,0.015,0.532,-60.137,236.290,-62.595,47.0,114.0
113381,0.318,-0.199,0.664,64.084,-82.244,37.542,39.0,115.0
113461,1.363,0.384,-0.862,-9.359,182.985,-18.565,49.0,110.0
113541,-0.444,2.000,-1.048,-8.916,250.130,38.931,51.0,103.0
113626,-0.636,1.478,-0.054,-3.282,11.550,187.038,126.0,79.0
113711,0.294,-0.022,-0.458,-52.405,126.969,8.794,119.0,117.0
113790,-0.666,-0.416,0.370,-10.412,211.443,-74.473,42.0,116.0
113873,-0.163,1.045,0.215,124.405,-202.115,74.443,107.0,97.0
113953,0.675,1.915,-0.912,-101.626,170.977,-102.840,50.0,102.0
114033,-0.521,1.668,0.892,-8.443,74.000,33.969,47.0,104.0
114116,0.302,0.520,0.109,10.069,-141.886,61.435,121.0,86.0
114195,0.875,-0.736,-0.286,-87.519,204.748,-56.977,46.0,107.0
114277,0.400,1.275,0.384,173.328,154.779,59.191,37.0,98.0
114360,0.960,2.000,-1.295,-75.565,86.870,108.374,133.0,72.0
114442,-0.786,0.633,-0.172,-82.168,250.130,39.244,76.0,103.0
114525,-0.508,0.208,0.208,64.137,-147.221,-19.382,122.0,85.0
114604,-0.031,0.404,-0.594,-24.580,80.443,-87.191,38.0,107.0
114682,-0.278,0.668,0.353,52.893,26.832,-35.092,36.0,101.0
114762,-0.139,2.000,-0.064,52.725,-160.137,86.725,51.0,97.0
114842,0.311,1.045,-0.026,-56.824,-155.756,85.786,51.0,103.0
114925,0.412,0.409,-0.289,-198.786,139.153,-87.870,119.0,90.0
115008,0.014,-0.184,0.831,97.634,24.038,19.115,37.0,112.0
115089,0.660,0.183,-0.212,133.504,-118.237,114.099,50.0,114.0
115169,0.361,1.875,-0.796,-3.489,250.130,-58.763,51.0,105.0
115252,-0.712,2.000,0.362,26.527,3.107,67.084,129.0,77.0
115335,0.879,0.752,-0.813,-88.435,31.389,-4.046,123.0,84.0
115416,-0.794,-0.363,0.314,-25.832,191.275,-89.496,47.0,115.0
115495,-0.242,0.145,0.320,172.137,-220.481,5.916,51.0,110.0
115580,0.249,2.000,-1.124,-99.649,115.389,-88.160,132.0,104.0
115664,-0.529,1.580,0.632,28.092,55.405,47.145,50.0,108.0
115747,0.284,1.053,-0.236,-14.031,-140.344,132.733,121.0,103.0
115828,0.421,-1.500,0.015,-133.099,250.130,-82.099,47.0,119.0
115913,0.305,1.580,0.729,92.588,52.321,33.099,124.0,112.0
115998,0.916,1.920,-1.408,-1.244,163.153,5.847,127.0,108.0
116082,-0.539,1.426,-0.390,-41.405,240.664,63.672,124.0,112.0
116165,-0.076,-0.101,0.186,58.260,-46.550,-31.374,119.0,85.0
116248,-0.109,1.055,-0.159,-12.328,119.473,22.550,121.0,84.0
116336,-0.032,-0.740,0.172,18.122,-34.458,-24.611,124.0,111.0
116416,-1.628,2.000,-0.286,-0.489,57.550,-141.275,40.0,103.0
116500,0.093,1.674,0.017,-80.771,-187.084,114.588,125.0,107.0
116583,1.097,0.570,-0.863,85.962,75.466,-7.962,115.0,95.0
116668,0.132,-1.087,0.726,-148.183,239.344,-6.901,118.0,119.0
116751,0.901,-0.052,-0.026,250.130,0.450,83.298,126.0,77.0
116830,-1.067,2.000,-1.110,-250.137,250.130,86.427,50.0,71.0
116912,-0.987,0.988,0.232,-38.137,-3.015,133.802,125.0,67.0
116989,0.601,-0.042,-0.705,-12.496,69.534,-67.229,45.0,70.0
117070,-1.119,0.365,0.840,-6.542,131.160,-59.412,36.0,66.0
117148,-0.177,0.419,-0.215,243.405,-250.137,97.634,51.0,62.0
117226,-0.212,1.973,-0.896,-147.489,250.130,-120.382,50.0,62.0
117308,-0.673,1.531,1.014,32.481,-103.786,80.321,125.0,69.0
117393,1.491,0.395,-0.686,-52.977,-5.290,33.817,117.0,120.0
117473,-0.661,-0.050,1.235,76.298,190.191,-17.641,36.0,118.0
117558,1.120,-0.091,-0.543,5.542,-114.634,122.176,122.0,111.0
117643,-0.697,2.000,-1.537,106.168,250.130,2.244,131.0,106.0
117736,-0.124,0.317,-0.177,54.588,-138.191,188.542,123.0,0.0
117826,-1.052,-0.040,0.126,-81.244,250.130,-157.618,120.0,0.0
117916,-0.347,-0.343,-0.037,84.527,-250.137,104.427,120.0,0.0
117999,-0.304,1.079,-0.639,-72.397,250.130,-172.802,127.0,71.0
118089,-0.698,2.000,0.398,-10.313,-142.008,144.511,128.0,0.0
118174,1.216,0.664,-0.440,-28.427,24.450,-27.527,121.0,113.0
118257,-0.219,-0.387,1.049,17.527,127.702,-85.863,119.0,75.0
118342,0.599,0.726,0.130,100.000,-54.290,139.878,122.0,115.0
118435,1.365,1.381,-1.125,-164.366,164.351,-102.427,127.0,0.0
118520,-0.187,2.000,-1.538,-74.244,250.130,63.924,129.0,110.0
118607,-0.332,-0.053,0.048,-6.260,-101.527,97.443,119.0,152.0
118690,-0.440,-0.569,-0.418,-226.595,250.130,-162.794,37.0,148.0
118775,-0.559,0.958,0.457,125.824,-77.886,44.916,120.0,117.0
118861,0.538,1.657,-0.571,203.427,-201.092,-36.435,127.0,126.0
118947,-0.302,1.940,-0.159,-131.672,175.962,-36.817,129.0,122.0
119033,0.185,0.854,0.274,128.855,-126.542,40.916,122.0,126.0
119121,0.990,-0.274,0.292,-74.229,-7.977,7.183,118.0,121.0
119205,0.732,-0.340,-0.017,-10.481,198.206,-60.160,123.0,82.0
119288,-0.127,2.000,-1.246,168.458,192.641,-24.412,136.0,69.0
119372,-0.604,1.750,-0.722,-135.672,39.695,157.710,130.0,76.0
119455,0.049,0.848,-1.042,-243.870,222.985,-81.008,121.0,84.0
119536,-0.640,-0.543,0.311,15.687,132.313,-14.351,37.0,117.0
119619,0.204,0.263,-0.299,142.969,-111.107,23.130,124.0,84.0
119699,-1.060,2.000,-0.019,-31.412,192.840,-72.397,44.0,103.0
119786,-0.184,2.000,0.358,53.786,-70.237,167.069,129.0,77.0
119870,0.634,-0.325,0.140,-127.702,-8.321,33.351,119.0,97.0
119951,0.248,-0.915,0.246,-14.382,168.267,-137.756,37.0,117.0
120035,0.531,0.675,-0.055,202.420,88.527,-16.168,130.0,80.0
120115,0.388,2.000,-1.896,-238.382,209.527,36.588,58.0,94.0
120201,-0.707,0.965,0.062,-38.679,102.069,165.374,46.0,97.0
120282,-0.134,1.053,-0.768,161.260,0.397,99.092,80.0,104.0
120363,-0.464,-0.994,-0.019,-250.137,159.534,-59.267,79.0,107.0
120441,-0.560,1.132,0.149,250.130,-99.450,77.252,44.0,101.0
120526,0.470,1.515,-0.311,-250.137,84.229,-96.931,130.0,75.0
120609,0.145,1.654,0.146,80.229,16.481,-6.679,129.0,77.0
120691,0.629,0.620,-0.085,113.656,-150.756,72.023,124.0,81.0
120774,0.658,-0.590,0.083,-99.847,143.298,-19.763,122.0,82.0
120852,0.129,0.756,0.490,147.557,153.832,21.817,45.0,98.0
120935,1.103,2.000,-1.304,79.298,-4.321,60.580,134.0,72.0
121017,-0.372,0.634,-0.601,-143.336,250.130,-30.557,129.0,78.0
121098,-0.594,0.175,0.515,46.992,-68.267,-4.191,59.0,106.0
121183,0.759,0.605,-0.825,-99.305,21.893,-9.603,120.0,85.0
121265,-0.333,-0.215,0.435,77.473,160.962,-77.275,126.0,82.0
121348,-0.473,2.000,-0.043,218.008,-192.962,87.779,133.0,76.0
121431,0.429,1.127,-0.493,-248.763,8.000,21.206,127.0,79.0
121513,0.545,-0.060,0.341,76.122,103.023,-50.405,122.0,90.0
121595,0.212,0.124,0.365,26.542,-56.916,61.519,121.0,85.0
121678,0.853,0.035,-0.551,-37.672,141.504,-9.473,125.0,81.0
121760,0.076,2.000,-1.140,90.802,250.130,-5.313,133.0,72.0
121843,-0.288,1.319,0.104,10.603,-85.626,171.237,127.0,80.0
121928,0.707,-0.220,-0.932,-78.443,250.130,-111.626,119.0,88.0
122012,-0.968,0.682,0.797,23.565,103.313,-57.855,121.0,107.0
122095,0.955,0.575,-0.523,54.305,-172.916,29.939,125.0,83.0
122179,-0.799,2.000,0.045,-25.985,179.427,-37.634,129.0,106.0
122263,0.135,1.192,-0.039,99.565,-185.947,85.947,125.0,111.0
122347,0.148,-0.188,0.229,-73.924,210.069,-73.282,120.0,109.0
122430,0.291,-0.190,0.529,24.023,-59.992,44.489,120.0,86.0
122510,1.031,0.820,-0.966,-6.267,250.130,-85.893,50.0,108.0
122595,-0.894,2.000,0.005,-185.298,109.870,99.282,130.0,75.0
122678,1.221,0.935,-1.296,68.908,63.305,16.695,123.0,84.0
122758,-1.073,0.606,0.370,72.000,211.481,-45.817,51.0,112.0
122841,-0.184,-0.286,0.101,58.351,-250.137,100.275,123.0,82.0
122924,0.212,1.703,-0.733,-57.939,250.130,-123.908,128.0,79.0
123006,-0.965,2.000,0.661,-98.916,-9.008,54.985,127.0,81.0
123088,0.386,1.016,-0.500,-22.977,-133.748,83.931,119.0,76.0
123170,0.598,-0.394,-0.104,-43.702,127.969,-55.122,115.0,91.0
123251,0.272,-0.061,0.702,-64.122,140.893,-16.947,37.0,70.0
123328,0.039,2.000,-0.085,250.130,-1.527,-1.527,40.0,61.0
123417,0.051,2.000,-1.163,-250.137,250.130,104.802,131.0,0.0
123502,-0.882,0.427,0.582,86.046,-29.382,71.198,121.0,116.0
123591,0.814,0.352,-1.095,-91.969,83.832,-21.802,115.0,0.0
123680,-0.583,0.105,0.598,64.977,106.252,-39.427,118.0,0.0
123764,0.507,2.000,-0.654,149.687,-212.397,114.450,124.0,114.0
123854,-0.435,0.661,0.336,-105.573,233.282,-46.008,122.0,0.0
123938,-0.134,0.698,0.375,120.817,-242.229,96.725,118.0,115.0
124030,0.873,-0.454,-0.617,-116.183,215.832,-69.321,117.0,0.0
124112,0.161,1.301,0.542,129.565,161.282,-23.740,125.0,72.0
124203,0.823,2.000,-1.319,-21.802,-23.847,119.779,129.0,0.0
124292,-0.396,0.828,-0.659,37.649,250.130,-20.969,122.0,0.0
124380,-0.654,-0.130,0.458,136.344,-240.145,104.527,118.0,184.0
124468,0.302,-0.617,-0.561,-96.687,244.527,-155.618,119.0,171.0
124552,-0.490,2.000,0.148,110.038,59.153,-83.046,129.0,107.0
124639,0.093,1.556,-0.389,-148.382,-81.840,105.748,125.0,153.0
124727,-0.004,0.698,0.122,-14.290,108.962,-66.366,120.0,123.0
124813,0.484,-0.092,0.103,65.588,-120.611,52.260,117.0,144.0
124898,0.620,-0.490,-0.090,-21.458,250.130,-83.405,122.0,113.0
124983,0.774,2.000,-1.380,-79.221,240.313,141.183,128.0,121.0
125068,0.124,0.288,-0.477,57.595,109.878,45.366,122.0,116.0
125153,-0.805,0.891,0.219,151.847,74.962,-70.092,122.0,115.0
125236,0.380,-0.674,-0.424,-205.489,-140.863,111.931,119.0,86.0
125320,-0.702,1.145,-0.011,62.824,222.466,-139.412,124.0,110.0
125408,0.050,2.000,-0.232,-44.847,-128.099,115.504,126.0,110.0
125491,0.067,0.826,-0.387,53.893,134.679,-93.504,122.0,83.0
125576,0.406,0.331,0.595,-97.595,-46.084,23.046,117.0,119.0
125660,1.348,-0.322,-0.229,-13.473,178.504,-80.924,119.0,115.0
125743,0.441,2.000,-0.926,222.145,178.237,-68.336,133.0,71.0
125827,-0.412,1.988,-0.855,-250.137,33.473,186.718,131.0,86.0
125910,0.146,1.175,-1.209,98.427,178.855,-24.008,124.0,91.0
125992,-0.801,0.726,0.419,-28.786,40.679,-36.168,120.0,85.0
126088,0.710,-0.047,-0.486,-43.298,-83.710,53.908,119.0,91.0
126174,-0.555,0.619,0.137,205.015,186.092,-166.786,128.0,81.0
126260,-0.327,2.000,0.009,-101.435,-80.305,114.115,131.0,78.0
126345,0.440,1.119,-0.533,-77.679,-114.473,124.718,121.0,84.0
126430,0.524,-0.617,-0.064,-114.695,208.542,-164.290,116.0,89.0
126516,0.044,0.282,0.747,107.252,54.496,12.695,120.0,84.0
126601,1.219,1.093,-0.763,12.656,61.221,-8.756,129.0,79.0
126687,-0.378,2.000,-1.680,-81.901,250.130,40.282,134.0,72.0
126775,-0.718,0.608,0.228,-45.939,-27.580,147.031,123.0,86.0
126861,0.064,-0.209,-0.601,0.908,32.244,-25.145,116.0,93.0
126947,-0.519,-0.227,-0.007,53.580,121.969,-151.122,121.0,88.0
127032,-0.228,2.000,-0.132,219.939,-114.611,-37.847,131.0,77.0
127118,-0.066,1.971,-0.300,-67.641,-114.969,117.450,130.0,77.0
127204,0.423,0.625,-0.475,-51.160,-55.679,50.634,121.0,86.0
127289,0.786,-0.289,0.012,-74.580,130.061,-106.595,117.0,89.0
127375,0.356,-0.378,0.438,-39.023,168.840,-48.298,122.0,85.0
127460,0.053,2.000,-1.067,203.939,54.550,54.641,133.0,73.0
127558,-0.449,1.166,-0.806,-153.603,-4.885,150.992,126.0,89.0
127643,-0.280,0.317,-0.459,-64.305,246.550,-156.099,120.0,86.0
127728,-0.517,0.178,0.631,42.160,28.099,-27.389,120.0,99.0
127813,0.424,0.248,-0.631,193.481,-109.351,70.405,126.0,80.0
127898,-0.868,1.890,-0.456,14.901,169.336,-165.557,133.0,72.0
127985,-0.342,1.944,0.030,-2.252,-87.733,112.740,131.0,107.0
128070,0.337,0.370,-0.191,-117.435,-82.878,126.267,121.0,88.0
128156,0.971,-0.421,-0.398,-72.908,243.290,-103.679,117.0,116.0
128245,0.031,1.266,0.667,162.237,106.519,21.435,127.0,108.0
128332,1.157,1.743,-2.000,-182.122,250.130,-32.863,130.0,106.0
128413,-0.958,1.747,0.347,37.992,196.489,-17.878,37.0,108.0
128498,-0.111,0.675,-0.438,-55.710,-113.519,85.962,120.0,86.0
128585,0.092,-0.822,-0.532,-82.008,206.191,-108.641,118.0,116.0
128669,-0.535,2.000,0.154,191.550,41.603,-57.786,129.0,75.0
128754,-0.148,2.000,-0.737,-66.084,-109.771,149.557,131.0,74.0
128841,0.166,0.480,-0.510,-79.672,136.641,-6.511,122.0,113.0
128930,-0.119,0.875,0.636,29.885,37.740,-87.214,119.0,118.0
129015,0.702,0.040,-0.025,-27.542,-103.229,77.313,117.0,87.0
129100,1.076,0.034,-0.588,40.153,210.260,-40.870,123.0,80.0
129184,-0.575,2.000,-1.281,66.038,236.229,-13.634,134.0,69.0
129269,-0.339,1.233,-0.264,-55.870,-34.084,174.832,127.0,78.0
129356,0.119,-0.389,-0.678,-16.137,118.305,-22.939,118.0,117.0
129442,-0.684,-0.478,0.208,62.969,180.954,-178.504,120.0,116.0
129529,0.009,2.000,-0.368,87.198,-250.137,155.137,127.0,113.0
129619,-0.420,1.182,-0.787,-42.878,250.130,-127.000,128.0,113.0
129707,-0.505,1.685,0.577,65.878,-132.260,68.840,125.0,120.0
129798,1.094,-0.056,-0.640,-104.435,-22.519,68.328,117.0,0.0
129885,0.012,-0.771,0.226,101.840,250.130,-91.008,120.0,116.0
129972,0.269,2.000,-0.043,83.985,28.809,53.939,130.0,106.0
130063,0.312,2.000,-1.752,-250.137,55.740,114.275,128.0,0.0
130155,-0.992,1.144,-0.150,-37.023,245.038,-55.695,121.0,0.0
130246,0.657,0.530,-0.978,85.878,-198.840,141.824,117.0,0.0
130340,-0.907,0.389,0.943,-6.603,138.985,-24.664,120.0,0.0
130427,1.395,2.000,-1.396,-12.634,-80.405,24.687,124.0,113.0
130509,-0.605,1.597,0.518,91.748,75.489,-23.137,45.0,114.0
130596,0.485,1.146,-0.120,24.008,-148.313,65.420,122.0,111.0
130675,-0.014,-0.089,0.367,-200.740,151.015,-36.115,31.0,76.0
130755,0.426,0.864,0.292,9.519,11.282,51.115,33.0,77.0
130834,0.174,1.150,0.092,-105.191,-0.580,17.374,27.0,76.0
130920,0.098,1.280,0.197,-12.191,9.053,69.924,25.0,188.0
131004,-0.068,1.014,0.342,23.740,58.817,28.313,24.0,182.0
131093,-0.116,1.162,0.346,-52.466,67.977,27.069,38.0,178.0
131176,0.080,0.749,0.523,-96.107,46.992,32.809,37.0,127.0
131260,-0.063,0.517,0.715,-47.473,40.252,11.809,31.0,174.0
131355,-0.009,0.498,0.778,-23.626,40.611,-23.664,0.0,170.0
131446,-0.094,0.814,0.801,-1.122,38.427,-38.710,156.0,166.0
131531,-0.192,0.804,0.709,-9.992,33.183,-5.191,38.0,163.0
131615,-0.329,0.536,0.880,-25.832,22.298,-28.282,29.0,161.0
131699,-0.291,0.480,0.814,-30.779,15.878,-19.221,30.0,159.0
