Timestamp(ms),AccelX(g),AccelY(g),AccelZ(g),GyroX(deg/s),GyroY(deg/s),GyroZ(deg/s),DistanceLeft(cm),DistanceRight(cm)
40437,-0.183,-0.975,0.218,-1.321,2.519,7.954,0.0,99.0
40483,-0.139,-0.964,0.215,-1.321,-6.130,16.229,59.0,98.0
40534,-0.152,-0.991,0.219,-3.198,-12.321,18.595,128.0,99.0
40588,-0.121,-0.983,0.213,-1.725,-16.863,17.450,0.0,100.0
40643,-0.125,-0.978,0.216,-0.901,-16.832,13.206,0.0,100.0
40696,-0.114,-0.969,0.218,0.290,-15.115,8.901,0.0,76.0
40749,-0.115,-0.985,0.214,1.130,-14.298,6.664,0.0,73.0
40805,-0.107,-0.995,0.187,1.473,-12.924,3.901,0.0,74.0
40857,-0.094,-0.973,0.187,1.000,-5.603,1.237,0.0,74.0
40910,-0.128,-0.967,0.217,-1.328,-3.885,-1.618,0.0,75.0
40964,-0.116,-0.954,0.211,-1.550,-8.076,-5.183,0.0,75.0
41017,-0.096,-0.958,0.192,-1.481,1.443,-5.863,0.0,74.0
41069,-0.132,-0.975,0.204,-2.344,6.031,-5.580,0.0,74.0
41122,-0.125,-0.992,0.201,-1.076,7.756,-4.641,0.0,74.0
41176,-0.146,-0.986,0.210,-1.122,6.305,-2.565,0.0,74.0
41229,-0.125,-0.983,0.201,-0.893,3.718,-4.397,0.0,75.0
41284,-0.146,-0.972,0.219,-3.595,1.397,-7.939,0.0,74.0
41337,-0.126,-0.990,0.204,-2.122,-0.695,-10.206,0.0,75.0
41391,-0.143,-0.975,0.232,-2.275,1.450,-7.618,0.0,74.0
41444,-0.138,-0.983,0.212,-0.298,-6.153,-4.405,0.0,75.0
41497,-0.143,-0.993,0.224,0.885,-6.382,-2.779,0.0,74.0
41545,-0.117,-0.995,0.184,4.603,-10.328,-1.458,128.0,75.0
41594,-0.082,-0.927,0.172,5.885,2.748,8.901,126.0,76.0
41644,-0.120,-0.948,0.181,4.244,7.779,15.695,125.0,75.0
41692,-0.141,-0.978,0.168,1.794,0.969,9.229,126.0,74.0
41743,-0.167,-0.971,0.207,-6.473,-12.023,-4.336,125.0,73.0
41792,-0.141,-0.973,0.204,-9.145,-23.473,-8.916,126.0,73.0
41841,-0.133,-0.972,0.206,-7.939,-23.947,-4.863,125.0,75.0
41889,-0.119,-1.004,0.206,-5.298,-22.679,0.099,125.0,75.0
41947,-0.093,-1.005,0.213,-0.626,-14.099,4.863,0.0,135.0
41995,-0.103,-1.006,0.219,5.229,-3.641,10.511,123.0,78.0
42044,-0.107,-0.964,0.214,7.366,-1.130,14.779,125.0,77.0
42093,-0.100,-0.966,0.197,7.634,-0.321,13.656,126.0,76.0
42146,-0.105,-0.981,0.184,6.084,2.275,8.832,0.0,75.0
42203,-0.109,-0.969,0.179,3.664,1.977,1.527,0.0,76.0
42256,-0.104,-0.968,0.193,1.527,4.580,-3.107,0.0,77.0
42309,-0.123,-0.978,0.211,-0.229,4.931,-6.885,0.0,75.0
42362,-0.122,-0.974,0.219,-1.275,3.779,-9.573,0.0,76.0
42416,-0.118,-0.972,0.215,-0.962,4.748,-10.214,0.0,75.0
42469,-0.132,-0.971,0.223,-1.038,4.641,-11.435,0.0,75.0
42522,-0.136,-0.979,0.228,-0.939,3.374,-13.458,0.0,76.0
42575,-0.131,-0.973,0.216,-0.397,3.145,-14.992,0.0,75.0
42629,-0.147,-0.974,0.235,-0.023,1.450,-14.641,0.0,75.0
42685,-0.147,-0.975,0.230,1.351,-0.878,-12.214,0.0,75.0
42738,-0.146,-0.962,0.217,2.359,-2.908,-6.947,0.0,75.0
42787,-0.147,-0.959,0.222,3.649,-2.908,0.252,123.0,76.0
42835,-0.160,-0.967,0.228,4.374,-7.511,5.885,123.0,74.0
42885,-0.133,-0.965,0.215,4.550,-9.908,10.160,121.0,75.0
42934,-0.133,-0.966,0.218,4.641,-7.450,14.260,122.0,78.0
42987,-0.135,-0.969,0.220,4.931,-7.595,17.130,0.0,76.0
43077,-0.110,-0.964,0.231,5.015,-7.840,18.489,106.0,75.0
43126,-0.117,-0.969,0.233,5.244,-6.969,17.580,106.0,78.0
43179,-0.114,-0.968,0.246,5.412,-5.725,14.405,104.0,105.0
43228,-0.115,-0.969,0.240,5.092,-2.336,9.763,117.0,80.0
43276,-0.113,-0.959,0.243,5.641,1.267,6.626,104.0,80.0
43324,-0.111,-0.962,0.243,5.420,5.015,3.908,118.0,72.0
43377,-0.129,-0.971,0.248,4.267,7.710,-0.221,0.0,71.0
43430,-0.134,-0.954,0.250,3.771,8.298,-3.695,0.0,73.0
43479,-0.142,-0.955,0.254,2.588,7.214,-6.901,119.0,71.0
43527,-0.136,-0.961,0.232,2.771,7.580,-10.130,117.0,72.0
43576,-0.134,-0.954,0.239,1.237,11.351,-12.763,119.0,78.0
43628,-0.152,-0.952,0.235,0.160,12.084,-14.405,119.0,77.0
43677,-0.172,-0.955,0.250,-0.817,8.557,-15.221,120.0,79.0
43726,-0.154,-0.963,0.252,-0.786,6.664,-15.382,121.0,77.0
43779,-0.137,-0.967,0.242,1.053,11.756,-12.771,123.0,139.0
43831,-0.154,-0.971,0.260,2.550,16.580,-8.405,124.0,136.0
43884,-0.164,-0.966,0.273,4.107,14.557,-4.908,125.0,135.0
43929,-0.164,-0.962,0.272,4.832,12.061,-3.374,51.0,74.0
43978,-0.157,-0.967,0.270,6.305,9.580,-3.412,127.0,72.0
44032,-0.140,-0.950,0.253,8.443,13.107,-1.290,0.0,72.0
44088,-0.172,-0.935,0.262,8.733,16.473,0.183,0.0,71.0
44149,-0.165,-0.956,0.251,7.473,8.298,-0.756,0.0,72.0
44193,-0.152,-0.988,0.248,5.489,8.855,-2.534,57.0,72.0
44239,-0.134,-0.975,0.236,4.565,17.786,-3.489,57.0,101.0
44285,-0.192,-0.958,0.286,1.618,16.260,-2.557,57.0,99.0
44339,-0.149,-0.965,0.260,4.115,11.076,-0.092,0.0,69.0
44391,-0.170,-0.917,0.298,4.107,17.046,3.885,0.0,74.0
44437,-0.188,-0.947,0.306,6.672,4.885,5.344,57.0,96.0
44483,-0.138,-0.930,0.260,8.786,3.824,6.565,58.0,96.0
44530,-0.160,-0.920,0.272,9.053,13.855,8.817,57.0,68.0
44574,-0.180,-0.928,0.273,10.863,9.725,10.542,58.0,68.0
44620,-0.141,-0.919,0.237,10.809,10.763,11.924,61.0,96.0
44664,-0.167,-0.897,0.252,8.527,17.550,14.237,60.0,67.0
44719,-0.158,-0.911,0.226,6.924,15.092,16.550,0.0,93.0
44773,-0.153,-0.853,0.239,0.756,16.313,19.275,0.0,92.0
44826,-0.120,-0.824,0.215,-5.031,17.901,23.389,0.0,89.0
44880,-0.179,-1.171,0.105,-19.008,14.649,8.855,0.0,89.0
44935,-0.071,-1.071,-0.094,-31.649,8.122,3.641,0.0,99.0
44992,0.217,-1.241,-0.538,-19.053,96.344,24.214,0.0,111.0
45040,-0.207,-0.914,0.582,-88.908,150.481,-42.954,71.0,110.0
45092,-0.692,-1.104,0.866,-18.061,61.588,-152.802,74.0,186.0
45145,-0.077,-1.062,0.019,80.786,88.298,-76.779,80.0,179.0
45197,-0.284,-1.140,-0.117,48.374,196.534,-36.099,85.0,174.0
45245,-0.705,-1.019,0.244,36.580,112.542,-24.901,91.0,90.0
45293,-0.387,-1.141,0.169,2.206,-53.260,-24.611,96.0,85.0
45345,0.113,-0.884,0.227,6.168,-108.924,-8.359,99.0,162.0
45398,0.049,-1.126,0.285,-14.122,-60.168,-46.817,104.0,157.0
45453,0.283,-1.463,-0.146,22.656,2.191,-18.824,110.0,150.0
45505,-0.156,-0.766,0.119,-26.756,80.992,-94.924,118.0,147.0
45559,-0.292,-1.063,-0.115,-13.710,135.771,-50.802,124.0,159.0
45656,-0.465,-0.820,0.231,-24.519,-69.076,-95.748,132.0,146.0
45710,-0.013,-0.949,0.164,-16.832,-40.023,-50.916,135.0,145.0
45764,0.175,-0.662,-0.028,21.641,-38.939,-38.756,137.0,158.0
45818,0.430,-0.852,-0.325,-0.084,-36.885,0.771,139.0,148.0
45874,0.487,-1.425,-0.458,-33.939,-52.901,-26.382,141.0,186.0
45933,0.476,-0.976,-0.183,-77.145,25.305,-15.878,145.0,183.0
45987,0.080,-1.108,0.129,-31.252,60.137,3.008,147.0,140.0
46044,0.024,-0.863,0.147,-14.298,-31.351,-4.779,149.0,179.0
46098,0.287,-1.042,-0.331,-0.435,0.282,-3.641,150.0,137.0
46152,0.260,-0.980,-0.245,-12.908,-18.176,9.695,151.0,137.0
46209,0.223,-0.946,-0.121,-19.458,6.183,-3.733,152.0,176.0
46265,0.203,-0.975,-0.077,-0.779,9.427,1.802,152.0,175.0
46319,0.303,-1.090,-0.152,0.038,-11.076,-3.611,153.0,137.0
46373,0.288,-0.987,-0.082,4.611,-10.458,2.893,153.0,137.0
46427,0.249,-0.975,-0.050,9.450,-11.885,-7.534,153.0,174.0
46483,0.337,-1.016,-0.216,18.382,-10.443,0.305,153.0,174.0
46538,0.268,-0.948,-0.166,6.855,-13.076,-3.634,154.0,137.0
46595,0.266,-0.973,-0.137,14.191,-19.466,-3.779,154.0,173.0
46649,0.220,-0.984,-0.050,13.809,-17.481,6.069,160.0,141.0
46706,0.265,-0.982,-0.102,21.702,-21.504,9.115,167.0,175.0
46764,0.364,-0.967,-0.203,13.870,-24.718,9.695,167.0,176.0
46821,0.355,-1.034,-0.134,11.160,-20.748,4.252,167.0,176.0
46880,0.318,-0.929,-0.089,4.885,8.679,-0.855,167.0,152.0
46936,0.251,-1.014,-0.034,10.947,9.954,0.122,167.0,148.0
46992,0.302,-0.983,-0.106,10.641,-2.527,0.351,167.0,154.0
47049,0.331,-1.007,-0.121,9.702,-12.107,-2.160,167.0,176.0
47107,0.241,-0.940,-0.020,2.611,9.786,-7.450,168.0,175.0
47164,0.192,-0.991,0.015,9.511,-7.878,-3.206,168.0,176.0
47219,0.258,-0.972,-0.081,7.878,-11.916,-3.359,167.0,137.0
47275,0.207,-0.993,-0.014,6.008,-0.710,1.817,167.0,137.0
47332,0.165,-0.969,-0.013,9.687,-3.344,5.443,167.0,178.0
47392,0.175,-1.026,-0.027,4.092,-5.557,9.053,168.0,178.0
47450,0.167,-0.957,-0.032,7.458,-3.122,15.786,165.0,179.0
47506,0.026,-0.994,0.022,6.893,-1.916,22.595,164.0,168.0
47562,-0.230,-1.084,0.034,17.405,18.855,42.473,154.0,171.0
47621,-0.782,-0.944,0.239,14.779,-34.939,57.626,0.0,153.0
47680,-0.553,-1.251,0.019,24.641,-179.214,113.687,0.0,177.0
47740,0.309,-1.434,-0.578,45.626,-154.145,128.710,196.0,0.0
47801,0.189,-1.272,-0.392,5.634,-50.221,79.725,0.0,0.0
47865,0.155,-1.121,-0.089,-22.481,-90.023,83.824,0.0,0.0
47921,0.384,-0.801,-0.069,-23.931,-42.824,55.489,0.0,121.0
47977,0.135,-1.035,0.177,-22.565,-44.847,8.290,0.0,122.0
48033,-0.092,-0.919,0.129,-0.092,0.832,7.084,0.0,113.0
48094,-0.223,-0.941,0.102,-8.771,35.863,-10.718,0.0,0.0
48149,-0.481,-1.043,0.205,4.588,29.168,1.351,0.0,111.0
48205,-0.417,-1.024,0.167,-2.893,-24.649,2.687,0.0,111.0
48261,-0.338,-0.975,0.116,6.542,-16.542,10.115,0.0,110.0
48316,-0.368,-0.938,0.114,7.901,0.122,12.786,0.0,111.0
48375,-0.364,-0.915,0.127,11.916,-15.015,12.702,0.0,113.0
48431,-0.379,-0.899,0.141,5.450,-25.282,10.573,0.0,111.0
48530,-0.379,-0.924,0.158,10.053,-15.550,12.794,0.0,112.0
48585,-0.361,-0.917,0.166,9.695,-12.237,14.069,0.0,114.0
48642,-0.309,-0.844,0.146,10.244,-1.244,11.756,0.0,112.0
48697,-0.427,-0.919,0.222,7.969,16.649,10.420,0.0,113.0
48753,-0.450,-0.979,0.191,9.733,-17.786,1.565,0.0,112.0
48808,-0.445,-0.891,0.184,8.473,-12.168,8.435,0.0,114.0
48865,-0.416,-0.926,0.239,11.282,2.412,14.000,0.0,114.0
48923,-0.562,-0.987,0.354,23.489,46.321,55.092,0.0,113.0
48978,-1.263,-1.067,0.748,62.160,70.267,132.458,0.0,96.0
49034,-1.171,-1.046,0.680,91.802,-14.901,170.748,0.0,98.0
49089,-0.888,-0.907,0.282,115.740,-40.557,188.313,0.0,102.0
49144,-0.554,-0.666,0.061,102.550,-47.290,172.183,0.0,105.0
49193,-0.332,-0.352,-0.005,71.924,-47.405,137.550,129.0,65.0
49247,-0.387,-0.137,0.168,28.382,-26.481,84.611,0.0,67.0
49296,-0.713,0.104,0.436,10.328,-20.382,59.298,123.0,69.0
49349,-0.709,-0.008,0.468,12.573,-57.725,44.053,0.0,71.0
49406,-0.606,0.114,0.556,27.252,-12.595,41.084,0.0,73.0
49460,-0.746,0.082,0.609,24.534,-23.389,24.710,0.0,76.0
49514,-0.584,0.214,0.426,17.672,-15.870,20.885,0.0,75.0
49567,-0.637,0.218,0.421,8.221,1.756,12.031,0.0,76.0
49622,-0.676,0.239,0.540,-0.305,-7.229,2.908,0.0,78.0
49676,-0.746,0.246,0.597,-6.107,20.359,-0.481,0.0,93.0
49730,-0.845,0.250,0.614,-6.534,13.420,-1.931,0.0,76.0
49783,-0.859,0.247,0.589,-19.053,0.237,0.275,0.0,78.0
49838,-0.722,0.159,0.553,-12.534,5.099,9.863,0.0,76.0
49895,-0.719,0.149,0.576,-15.802,2.794,4.595,0.0,78.0
49948,-0.732,0.174,0.608,-16.435,-10.427,2.244,0.0,79.0
50002,-0.698,0.051,0.581,-11.855,-6.099,0.817,0.0,80.0
50057,-0.730,0.089,0.645,-0.008,15.046,0.382,0.0,86.0
50111,-0.808,0.073,0.637,0.733,9.718,4.992,0.0,85.0
50165,-0.713,0.162,0.555,-3.221,5.038,0.702,0.0,86.0
50221,-0.767,0.151,0.622,-1.313,21.695,2.137,0.0,87.0
50275,-0.768,0.092,0.696,11.855,-1.763,5.687,0.0,86.0
50329,-0.663,0.110,0.649,28.115,-1.206,-3.267,0.0,91.0
50387,-0.717,0.156,0.605,43.763,5.542,-7.664,0.0,86.0
50442,-0.718,0.243,0.512,45.740,-1.466,-12.313,0.0,85.0
50496,-0.775,0.140,0.604,38.053,-10.557,-15.221,0.0,86.0
50550,-0.722,0.220,0.540,44.473,-1.710,-24.183,0.0,86.0
50606,-0.589,0.198,0.302,46.603,13.122,-25.489,0.0,86.0
50660,-0.790,0.487,0.381,41.939,46.397,-30.649,0.0,85.0
50714,-0.875,0.311,0.373,26.840,-8.992,-26.550,0.0,85.0
50763,-0.756,0.223,0.422,17.389,-13.122,-22.817,116.0,77.0
50813,-0.767,0.132,0.547,37.267,20.046,-17.748,117.0,84.0
50866,-0.852,0.131,0.511,65.000,28.992,-23.519,117.0,84.0
50915,-1.094,-0.087,0.716,62.366,5.687,-22.198,117.0,74.0
50964,-1.026,-0.505,0.446,127.137,-29.252,-13.382,120.0,76.0
51014,-0.878,-0.061,0.050,170.916,-9.580,-29.763,119.0,73.0
51063,-0.988,0.123,-0.167,201.893,-17.573,-25.336,120.0,73.0
51123,-0.968,0.375,-0.348,218.695,-77.786,-30.733,0.0,73.0
51179,-0.921,1.007,-0.547,203.947,-150.588,-88.267,0.0,76.0
51273,-1.724,1.666,0.062,-40.924,-17.115,-39.267,123.0,115.0
51324,-1.245,0.524,0.329,-116.718,-69.160,-11.489,122.0,117.0
51384,-0.564,-0.432,0.016,-9.901,-52.962,28.321,0.0,145.0
51440,-0.535,0.131,0.373,6.626,8.458,-29.008,0.0,123.0
51495,-0.531,-0.426,0.389,-15.405,-9.656,16.527,0.0,121.0
51552,-0.487,0.121,0.776,-46.580,-71.229,9.412,0.0,127.0
51608,-0.392,-0.182,0.532,7.473,-33.710,70.237,0.0,130.0
51664,-0.758,0.941,1.391,-86.802,-80.351,-25.718,0.0,133.0
51721,-0.601,0.260,1.146,-48.794,-65.305,-31.305,0.0,139.0
51778,-0.471,0.253,0.949,-7.443,-28.260,-1.435,0.0,140.0
51837,-0.182,-0.073,0.657,-10.725,-16.214,27.008,0.0,141.0
51895,0.004,-0.021,0.510,-7.290,7.267,29.878,0.0,142.0
51951,-0.066,0.127,0.578,-3.542,48.374,36.550,0.0,143.0
52006,-0.482,0.195,0.810,10.802,62.550,20.618,0.0,113.0
52063,-0.890,0.033,1.035,-20.565,19.473,-59.809,0.0,140.0
52120,-0.954,0.109,0.960,15.008,36.092,-22.847,0.0,138.0
52176,-0.764,0.189,0.605,63.038,6.053,9.275,0.0,137.0
52233,-0.591,0.168,0.286,29.992,19.427,3.229,0.0,127.0
52289,-0.586,0.310,0.327,-15.069,43.885,-11.939,0.0,138.0
52348,-0.840,0.126,0.677,-28.092,26.947,-14.298,0.0,137.0
52405,-0.810,0.063,0.718,-4.260,8.954,-13.626,0.0,125.0
52461,-0.794,0.077,0.589,11.153,19.939,-13.298,0.0,136.0
52517,-0.811,0.149,0.504,6.221,27.481,-11.168,0.0,132.0
52570,-0.838,0.167,0.477,1.031,18.824,-8.412,118.0,139.0
52621,-0.851,0.137,0.497,-1.870,19.977,-5.076,118.0,123.0
52672,-0.821,0.095,0.478,0.366,17.656,-3.725,118.0,120.0
52723,-0.818,0.110,0.484,5.786,25.000,-4.397,119.0,116.0
52773,-0.849,0.126,0.450,14.634,24.061,-3.763,118.0,115.0
52828,-0.829,0.149,0.380,12.573,20.992,-6.924,119.0,118.0
52879,-0.859,0.136,0.373,11.450,19.939,-13.481,119.0,118.0
52930,-0.886,0.145,0.315,12.405,24.908,-10.542,120.0,115.0
52981,-0.913,0.166,0.323,8.916,20.718,-11.053,121.0,113.0
53031,-0.952,0.156,0.317,3.366,9.618,-11.046,122.0,112.0
53083,-0.900,0.141,0.269,-5.198,17.008,-7.244,122.0,113.0
53134,-0.958,0.124,0.309,-4.695,23.023,-9.427,123.0,110.0
53185,-0.955,0.125,0.321,-1.901,18.061,-3.176,123.0,110.0
53235,-0.955,0.124,0.306,0.878,13.099,-1.656,124.0,109.0
53289,-0.883,0.070,0.251,-0.809,9.725,-1.802,124.0,110.0
53341,-0.838,0.087,0.235,3.267,11.565,-13.916,125.0,108.0
53391,-0.870,0.148,0.189,7.603,21.107,-20.718,126.0,107.0
53442,-0.894,0.108,0.216,-1.962,16.305,-23.832,127.0,106.0
53493,-0.870,-0.006,0.177,-1.756,8.420,-49.008,128.0,104.0
53543,-1.001,-0.030,0.165,-7.473,7.031,-60.336,130.0,102.0
53595,-1.056,-0.061,0.210,-10.496,4.611,-47.893,131.0,101.0
53646,-1.068,-0.084,0.243,-17.580,-2.519,-40.481,132.0,100.0
53700,-1.030,-0.129,0.244,-18.634,-10.137,-26.397,133.0,99.0
53751,-0.976,-0.104,0.232,-12.336,-2.664,-13.550,134.0,99.0
53803,-0.993,-0.195,0.226,-10.931,8.290,-6.344,134.0,99.0
53853,-1.003,-0.144,0.250,-10.328,2.779,3.855,135.0,98.0
53904,-0.939,-0.160,0.193,-10.038,-3.603,2.534,135.0,98.0
53998,-0.911,-0.158,0.186,-10.168,9.595,-1.130,135.0,97.0
54049,-0.924,-0.165,0.190,-11.580,4.076,-5.099,135.0,96.0
54100,-0.924,-0.165,0.177,-14.397,5.534,-7.015,136.0,97.0
54151,-0.960,-0.197,0.178,-15.374,3.496,-8.069,136.0,96.0
54205,-0.940,-0.180,0.197,-15.191,5.504,-2.489,137.0,95.0
54256,-0.928,-0.194,0.217,-11.695,2.405,-4.840,137.0,95.0
54307,-0.925,-0.200,0.186,-9.458,1.580,-6.321,137.0,95.0
54359,-0.924,-0.218,0.193,-7.198,4.458,-6.221,138.0,94.0
54410,-0.908,-0.188,0.166,-6.954,4.267,-6.473,138.0,95.0
54460,-0.921,-0.234,0.140,-8.328,2.718,-7.626,139.0,93.0
54511,-0.898,-0.220,0.123,-11.466,-1.282,-10.221,139.0,94.0
54562,-0.901,-0.239,0.119,-14.771,12.573,-9.870,140.0,92.0
54614,-0.968,-0.204,0.147,-15.794,17.015,-7.183,141.0,91.0
54668,-0.956,-0.226,0.126,-19.817,7.473,-3.916,141.0,91.0
54719,-0.937,-0.252,0.129,-21.832,12.198,1.992,142.0,90.0
54770,-0.925,-0.284,0.162,-21.137,11.794,3.550,143.0,89.0
54821,-0.881,-0.286,0.158,-21.496,6.916,1.267,143.0,89.0
54873,-0.859,-0.300,0.137,-22.382,6.290,-9.802,144.0,88.0
54924,-0.838,-0.282,0.107,-21.870,10.389,-12.985,145.0,88.0
54975,-0.810,-0.371,0.042,-18.863,11.924,-28.771,146.0,86.0
55026,-0.889,-0.464,0.034,-13.397,17.855,-38.794,148.0,85.0
55080,-0.921,-0.577,0.055,-2.115,16.947,-47.702,150.0,83.0
55132,-1.036,-0.824,0.126,-11.374,24.611,-60.366,151.0,83.0
55183,-0.706,-0.952,0.256,-18.626,1.466,-51.412,153.0,82.0
55234,-0.179,-1.001,-0.117,-1.252,10.740,-78.817,154.0,81.0
55288,-0.311,-0.605,0.040,-10.168,44.366,-117.168,0.0,80.0
55343,-1.002,-0.922,0.290,25.756,13.595,-144.481,0.0,88.0
55397,-1.411,-1.222,0.287,25.969,-86.038,-162.786,0.0,89.0
55451,-1.259,-1.272,0.251,4.740,-128.481,-193.115,0.0,78.0
55504,-0.703,-0.366,0.011,92.977,-60.412,-134.504,0.0,63.0
55561,-0.237,-1.135,-0.538,107.908,28.733,-52.939,0.0,66.0
55609,-0.209,-0.341,-0.179,66.779,151.069,-24.656,101.0,67.0
55661,-0.575,-0.664,0.144,15.863,133.565,-35.847,0.0,57.0
55717,-0.567,-0.859,0.103,48.656,30.931,-68.519,0.0,55.0
55763,-0.346,-0.778,0.082,34.870,4.832,-96.298,90.0,58.0
55818,-0.387,-0.545,0.315,1.786,-10.374,-70.153,90.0,196.0
55872,-0.190,-1.105,0.127,-18.687,-32.840,-0.878,92.0,198.0
55919,0.140,-1.334,-0.220,-35.038,-2.183,34.137,91.0,68.0
55969,-0.243,-1.335,-0.135,-60.382,43.160,36.206,92.0,67.0
56016,-0.444,-1.026,-0.013,-76.267,20.473,58.901,94.0,65.0
56064,-0.406,-0.856,0.036,-80.473,-17.542,63.183,93.0,68.0
56111,-0.355,-0.698,0.078,-74.000,-27.443,56.641,106.0,57.0
56159,-0.301,-1.139,-0.141,-54.389,-21.267,62.794,95.0,74.0
56209,-0.370,-1.049,-0.042,-58.015,-37.794,50.863,105.0,110.0
56265,-0.354,-1.090,-0.070,-54.672,-30.382,44.481,108.0,0.0
56307,-0.458,-1.030,0.002,-30.870,-24.740,34.641,108.0,0.0
56353,-0.489,-0.865,0.017,-19.382,-32.275,22.244,109.0,49.0
56414,-0.565,-0.887,-0.061,-9.023,-40.107,13.366,0.0,123.0
56468,-0.633,-0.883,-0.128,-3.725,-42.931,18.702,0.0,92.0
56524,-0.637,-0.823,-0.208,1.924,-39.260,24.611,0.0,116.0
56624,-0.775,-0.701,-0.202,-26.397,-30.840,54.863,0.0,118.0
56680,-0.834,-0.705,-0.229,-43.672,-55.267,72.573,0.0,113.0
56736,-0.905,-0.802,-0.294,-50.969,-38.626,108.176,0.0,115.0
56791,-1.293,-0.968,0.013,-56.198,16.641,194.565,0.0,81.0
56842,-1.412,-1.086,0.202,-29.611,-17.901,244.947,147.0,85.0
56897,-1.010,-0.747,-0.029,-14.908,-49.298,243.886,137.0,91.0
56948,-0.647,-0.784,-0.363,38.802,-40.588,232.359,130.0,98.0
56999,-0.400,0.010,-0.263,72.252,-4.366,176.855,126.0,103.0
57051,-0.514,0.513,0.025,-3.977,-22.985,124.031,127.0,106.0
57096,-0.513,0.111,-0.163,-18.534,-34.687,78.305,44.0,66.0
57145,-0.500,0.359,-0.077,10.160,-3.695,40.214,123.0,67.0
57194,-0.804,0.381,0.223,0.321,21.321,30.031,123.0,69.0
57243,-0.917,0.269,0.215,18.603,-26.061,1.603,123.0,71.0
57293,-0.847,0.378,0.076,33.893,-32.779,-2.924,124.0,103.0
57349,-0.824,0.396,0.073,35.221,-36.511,-20.855,123.0,105.0
57399,-0.842,0.502,0.044,48.000,-32.015,-16.817,123.0,97.0
57450,-0.992,0.560,0.225,56.878,-37.344,-9.435,124.0,98.0
57502,-1.044,0.486,0.167,71.321,-54.130,11.519,123.0,114.0
57554,-1.190,0.374,0.363,87.443,-87.382,24.389,123.0,118.0
57603,-1.071,0.390,0.186,121.443,-147.824,21.916,40.0,131.0
57652,-0.981,0.479,-0.084,139.977,-167.947,30.458,40.0,150.0
57710,-0.770,0.611,-0.221,139.359,-149.672,42.954,0.0,157.0
57773,-0.462,0.686,-0.233,105.321,-117.725,41.336,0.0,162.0
57824,-0.369,0.598,-0.119,66.786,-74.886,14.756,36.0,198.0
57876,-0.502,0.633,0.091,49.099,-39.794,-10.969,35.0,200.0
57933,-0.652,0.667,0.284,45.718,-39.023,-15.870,36.0,0.0
57985,-0.516,0.715,0.170,44.962,-53.038,-31.427,36.0,0.0
58042,-0.218,0.661,0.039,30.847,-35.328,-65.511,0.0,150.0
58089,-0.268,0.452,0.136,22.160,-16.573,-139.466,36.0,147.0
58137,-0.348,0.381,0.171,45.771,-2.290,-181.878,39.0,142.0
58187,-0.560,0.149,0.088,57.748,23.672,-224.824,123.0,111.0
58241,-1.013,-0.229,-0.042,60.893,22.718,-247.832,126.0,105.0
58290,-1.207,-0.217,0.007,46.328,-11.008,-243.763,133.0,56.0
58337,-1.037,-0.652,0.004,32.924,-29.695,-245.191,138.0,49.0
58388,-1.408,-0.515,0.084,40.573,-9.947,-250.137,144.0,92.0
58439,-1.333,-0.545,0.335,20.435,-47.580,-212.702,0.0,35.0
58491,-1.238,-1.106,0.176,61.427,-75.489,-250.137,0.0,58.0
58543,-0.784,-0.970,0.048,51.198,-16.053,-175.359,0.0,54.0
58589,-0.907,-0.608,0.453,19.779,-22.939,-92.656,101.0,54.0
58638,-0.556,-0.850,0.285,18.198,-65.603,-46.802,100.0,53.0
58684,-0.283,-0.897,0.329,5.046,-99.092,-49.015,98.0,57.0
58730,-0.128,-0.770,0.304,6.366,-75.221,-46.855,96.0,58.0
58776,-0.205,-0.747,0.381,2.618,-44.168,-8.458,91.0,58.0
58822,-0.253,-0.670,0.557,-14.443,-43.061,23.023,87.0,60.0
58867,-0.124,-0.942,0.537,-10.420,-64.153,34.061,85.0,65.0
58913,-0.049,-0.800,0.508,-1.901,-42.565,36.489,83.0,65.0
58959,-0.034,-1.001,0.439,-1.183,-37.855,22.145,77.0,67.0
59004,0.019,-0.879,0.501,-2.511,-27.122,17.107,75.0,67.0
59053,-0.098,-0.811,0.484,3.336,-14.122,8.290,75.0,67.0
59099,-0.126,-0.882,0.515,3.214,-18.901,10.351,74.0,77.0
59188,-0.069,-0.895,0.460,0.061,-0.870,2.382,74.0,78.0
59233,-0.118,-0.873,0.519,0.855,4.855,-4.130,74.0,66.0
59278,-0.128,-0.864,0.495,4.443,-0.565,-7.000,74.0,66.0
59324,-0.163,-0.902,0.512,4.397,5.298,-8.649,74.0,67.0
59376,-0.138,-0.872,0.515,10.794,7.656,-7.939,74.0,0.0
59421,-0.145,-0.873,0.498,12.908,4.053,-8.130,75.0,56.0
59466,-0.137,-0.880,0.438,12.702,10.802,-11.176,75.0,54.0
59513,-0.142,-0.853,0.432,10.580,9.687,-8.031,75.0,55.0
59558,-0.166,-0.834,0.415,8.771,9.847,-8.969,76.0,55.0
59603,-0.205,-0.894,0.491,2.298,5.893,-5.450,76.0,53.0
59648,-0.137,-0.841,0.459,4.626,2.985,-8.870,76.0,51.0
59693,-0.216,-0.900,0.517,5.237,12.565,-2.489,77.0,51.0
59737,-0.180,-0.877,0.511,8.687,-0.634,-5.427,77.0,51.0
59783,-0.175,-0.891,0.506,9.397,5.885,0.298,77.0,64.0
59828,-0.166,-0.884,0.504,13.107,-0.519,-1.397,77.0,63.0
59873,-0.179,-0.860,0.533,13.214,-4.954,2.008,77.0,62.0
59922,-0.125,-0.870,0.466,16.130,-8.344,-3.664,77.0,63.0
59967,-0.182,-0.808,0.493,13.282,2.244,6.466,77.0,71.0
60013,-0.164,-0.862,0.503,14.298,-4.328,3.389,77.0,70.0
60059,-0.071,-0.846,0.504,16.427,-8.878,3.794,78.0,64.0
60104,-0.139,-0.889,0.521,15.763,17.641,-1.969,78.0,62.0
60149,-0.229,-0.904,0.596,24.038,10.565,4.450,78.0,62.0
60195,-0.252,-0.929,0.615,21.939,-4.916,2.550,79.0,72.0
60241,-0.218,-1.006,0.633,26.534,-5.420,11.321,79.0,63.0
60286,-0.289,-0.929,0.782,31.237,-7.122,23.260,80.0,63.0
60336,-0.145,-1.089,0.710,65.038,-35.527,46.206,81.0,64.0
60382,-0.020,-1.262,0.458,86.191,-42.695,37.695,82.0,66.0
60428,-0.223,-0.743,0.357,89.855,-33.916,-8.153,84.0,69.0
60474,-0.585,0.054,0.465,100.832,-8.916,-7.359,74.0,70.0
60520,-0.421,0.764,0.286,111.305,-36.542,77.214,83.0,74.0
60566,-0.289,-0.216,0.892,-12.573,-100.473,151.870,78.0,74.0
60613,0.086,-0.698,0.795,-48.908,-171.412,54.389,74.0,78.0
60659,0.319,-0.479,0.890,3.198,-124.641,68.092,74.0,83.0
60708,-0.619,-0.198,1.061,-30.840,-152.130,11.206,71.0,84.0
60763,-0.115,-0.154,0.253,-74.168,-250.137,108.908,76.0,0.0
60804,0.101,-0.385,0.073,-123.595,-250.137,134.824,91.0,0.0
60859,0.238,-0.579,-0.328,-112.527,-228.550,137.420,110.0,0.0
60914,0.316,-0.642,-0.235,-114.153,-131.099,161.290,103.0,0.0
60968,0.178,-1.462,-0.082,-99.573,-96.305,134.618,92.0,0.0
61023,0.365,-1.452,0.228,-67.076,-97.763,133.435,86.0,0.0
61077,0.696,-1.793,-0.029,-36.198,-112.771,120.954,80.0,0.0
61130,0.661,-1.593,0.006,-25.397,-80.145,93.763,76.0,0.0
61173,0.553,-1.277,-0.009,-26.122,-50.145,46.733,75.0,0.0
61221,0.352,-1.248,0.103,-27.130,-44.344,22.466,74.0,113.0
61270,0.265,-1.120,0.097,-10.550,-43.221,-1.450,73.0,115.0
61319,0.124,-1.052,0.063,3.489,-37.901,-15.924,73.0,114.0
61369,0.051,-0.960,0.076,-3.893,-21.962,-10.237,100.0,130.0
61419,0.003,-1.022,0.044,-1.496,-18.924,-6.458,100.0,116.0
61470,0.034,-1.084,-0.056,18.443,-15.916,-6.649,99.0,129.0
61521,-0.037,-0.935,0.015,3.649,-13.847,-7.008,98.0,128.0
61619,-0.028,-0.998,0.020,-0.939,-32.244,5.481,97.0,128.0
61669,0.053,-0.948,-0.041,4.672,-30.229,9.710,97.0,131.0
61718,0.053,-0.990,-0.068,-8.595,-16.672,11.702,96.0,92.0
61767,0.017,-1.015,-0.010,-11.267,-12.626,12.985,96.0,116.0
61818,0.024,-1.011,-0.014,-8.985,-20.198,13.466,95.0,128.0
61870,0.028,-0.983,0.007,-10.244,-24.183,15.817,95.0,129.0
61919,0.037,-1.049,-0.040,-8.435,-18.863,15.756,96.0,98.0
61968,0.022,-0.987,-0.059,-10.176,-10.298,15.458,96.0,118.0
62018,-0.031,-1.002,-0.048,-9.145,-6.229,18.252,96.0,117.0
62072,-0.062,-1.027,-0.090,-6.786,-6.733,19.977,97.0,127.0
62123,-0.077,-1.041,-0.094,-8.939,-4.038,21.511,97.0,115.0
62171,-0.089,-1.000,-0.110,-5.527,1.969,26.061,97.0,88.0
62220,-0.115,-0.961,-0.115,-6.985,4.664,25.321,98.0,86.0
62268,-0.154,-0.989,-0.101,-8.504,2.954,23.137,99.0,86.0
62322,-0.185,-0.967,-0.118,-8.489,-1.908,21.962,0.0,84.0
62376,-0.188,-0.917,-0.132,-14.710,-4.855,22.863,0.0,85.0
62431,-0.244,-1.003,-0.116,-13.733,-3.748,30.206,0.0,83.0
62484,-0.293,-0.999,-0.126,-9.634,-3.908,29.992,0.0,81.0
62541,-0.362,-0.962,-0.092,-13.634,-5.023,35.939,0.0,81.0
62596,-0.445,-0.916,-0.111,-6.649,-15.145,54.481,0.0,81.0
62649,-0.611,-0.994,-0.181,-15.710,-27.687,70.267,0.0,61.0
62702,-0.826,-1.010,-0.226,-37.168,-42.855,105.473,0.0,65.0
62756,-0.884,-0.970,-0.244,-40.901,-51.672,164.504,0.0,85.0
62810,-1.038,-0.862,-0.300,-48.939,-44.008,187.527,0.0,65.0
62863,-1.195,-0.664,-0.295,-67.733,-38.695,236.000,0.0,66.0
62917,-1.105,-0.507,-0.486,-53.649,-15.618,250.130,0.0,71.0
62964,-0.830,-0.287,-0.251,-28.405,16.450,250.130,23.0,77.0
63008,-0.598,-0.293,-0.101,-18.336,35.733,196.046,23.0,83.0
63059,-0.640,-0.042,-0.221,21.969,73.588,81.389,149.0,84.0
63111,-0.974,0.693,0.394,-46.885,112.718,40.092,147.0,87.0
63163,-1.241,0.417,0.246,-66.595,29.863,59.924,144.0,91.0
63208,-1.236,0.136,-0.121,-77.534,-123.511,57.710,29.0,94.0
63253,-0.834,0.212,-0.773,-34.420,-114.718,53.008,22.0,99.0
63298,-0.480,0.540,-0.658,-19.336,-41.618,71.855,23.0,103.0
63347,-0.457,0.554,-0.231,-62.916,-6.969,55.824,29.0,169.0
63411,-0.458,0.563,0.033,-83.099,-35.229,-10.244,0.0,170.0
63460,-0.534,0.599,0.113,-47.649,-19.511,-27.053,22.0,170.0
63508,-0.712,0.491,0.151,-22.817,-1.359,-8.290,24.0,157.0
63567,-0.707,0.441,0.052,-1.221,-21.840,0.893,0.0,174.0
63620,-0.564,0.536,-0.098,6.366,-4.038,-17.832,129.0,112.0
63671,-0.786,0.642,0.004,-6.214,21.496,-34.084,128.0,111.0
63718,-0.887,0.694,0.081,-8.336,5.802,-16.290,30.0,110.0
63764,-0.852,0.558,0.053,-13.901,-1.160,-8.382,30.0,110.0
63813,-0.794,0.505,0.088,-11.771,-0.420,4.145,30.0,110.0
63859,-0.782,0.519,0.071,-9.618,-4.641,-3.565,27.0,110.0
63905,-0.761,0.454,0.040,-8.053,2.115,-8.656,30.0,110.0
63951,-0.799,0.455,0.078,-8.786,8.275,-18.580,29.0,111.0
63997,-0.885,0.443,0.120,-5.099,3.847,-26.053,30.0,109.0
64044,-0.826,0.455,0.097,-0.092,-2.137,-25.015,30.0,109.0
64090,-0.806,0.415,0.091,3.863,12.496,-25.908,29.0,108.0
64178,-0.865,0.318,0.099,17.954,-6.595,-47.427,31.0,106.0
64225,-0.831,0.309,0.050,23.344,0.916,-46.885,29.0,107.0
64278,-0.993,0.271,0.063,29.260,-1.359,-52.878,29.0,105.0
64323,-0.892,0.300,0.007,29.328,0.221,-42.168,33.0,104.0
64368,-0.906,0.227,0.002,30.832,28.267,-41.771,36.0,104.0
64412,-1.012,0.177,0.065,35.344,10.985,-49.237,33.0,103.0
64457,-0.829,0.170,0.028,38.550,8.015,-47.733,32.0,102.0
64502,-0.851,0.044,0.020,47.947,14.802,-66.542,37.0,100.0
64547,-0.818,-0.015,-0.008,55.092,30.008,-78.595,38.0,99.0
64598,-0.987,-0.074,0.088,66.924,-13.908,-93.046,133.0,97.0
64649,-0.732,-0.179,-0.192,63.878,2.122,-112.908,135.0,95.0
64702,-1.021,-0.303,-0.003,67.809,12.802,-117.939,138.0,92.0
64752,-0.757,-0.303,-0.206,57.641,21.015,-130.939,141.0,90.0
64803,-0.672,-0.411,-0.028,55.137,83.427,-124.641,145.0,88.0
64855,-0.749,-0.735,-0.087,70.099,49.817,-167.641,151.0,84.0
64909,-1.030,-1.088,-0.015,77.252,21.664,-196.718,0.0,97.0
64962,-0.767,-1.029,-0.140,68.802,-34.748,-181.344,0.0,85.0
65015,-0.551,-1.068,-0.188,61.649,22.603,-143.886,0.0,82.0
65070,-0.480,-0.896,-0.125,43.595,66.031,-123.756,0.0,84.0
65124,-0.530,-0.972,0.025,33.427,46.893,-122.389,0.0,53.0
65176,-0.498,-0.977,0.125,31.229,-18.290,-114.824,0.0,50.0
65235,-0.335,-0.956,0.119,14.160,-64.748,-88.618,193.0,190.0
65289,-0.082,-0.986,0.008,2.885,-62.466,-47.779,193.0,92.0
65340,0.009,-1.028,-0.011,1.412,-8.557,-32.962,185.0,49.0
65394,-0.033,-1.019,0.092,-1.687,24.023,-31.130,194.0,90.0
65447,-0.076,-1.021,0.189,-0.328,10.679,-27.168,195.0,92.0
65502,-0.009,-1.010,0.136,2.954,-13.176,-25.794,195.0,91.0
65555,0.052,-1.036,0.118,4.504,-18.328,-21.656,195.0,90.0
65617,0.109,-0.991,0.097,4.382,-4.023,-15.496,194.0,184.0
65675,0.098,-1.007,0.099,6.786,4.076,-14.977,175.0,185.0
65734,0.125,-0.998,0.109,7.550,4.580,-17.962,195.0,186.0
65789,0.147,-0.974,0.114,6.489,6.427,-17.321,0.0,108.0
65849,0.183,-0.996,0.095,5.939,5.725,-18.198,194.0,187.0
65908,0.227,-0.993,0.076,-0.214,5.458,-28.794,193.0,188.0
65968,0.268,-0.944,0.065,-7.908,13.824,-35.099,191.0,190.0
66027,0.323,-0.994,-0.003,-12.176,33.237,-38.641,191.0,192.0
66084,0.389,-0.991,-0.131,-12.137,85.611,-42.931,191.0,107.0
66145,0.317,-0.936,-0.150,-13.641,147.473,-55.290,190.0,0.0
66184,0.161,-0.942,-0.010,-0.191,176.389,-73.321,77.0,0.0
66238,0.003,-0.837,0.115,16.496,159.924,-88.878,78.0,0.0
66277,-0.105,-0.626,0.275,26.725,124.611,-99.924,79.0,0.0
66331,-0.412,-1.096,0.598,1.756,37.420,-115.893,79.0,0.0
66370,-0.129,-1.162,0.460,5.061,-147.374,-24.160,79.0,0.0
66423,0.529,-0.781,0.214,-22.328,-220.832,93.130,76.0,0.0
66478,0.902,-1.057,-0.157,-60.328,-149.886,118.695,75.0,0.0
66520,1.195,-1.272,-0.359,-33.618,8.893,49.382,72.0,0.0
66573,0.739,-0.935,-0.024,-2.275,77.099,-17.153,71.0,0.0
66612,0.366,-0.743,0.177,-1.160,36.664,-12.183,71.0,0.0
66665,0.340,-0.908,0.120,14.176,22.252,-0.969,70.0,0.0
66718,0.120,-0.688,0.482,-2.366,12.763,13.031,70.0,0.0
66813,0.351,-0.993,0.403,-11.779,-79.336,53.550,68.0,0.0
66853,0.458,-1.074,0.312,17.206,-31.397,43.076,67.0,0.0
66906,0.415,-1.012,0.173,29.947,-20.771,45.672,66.0,0.0
66945,0.400,-0.889,0.087,32.893,-35.649,40.275,63.0,0.0
67000,0.509,-0.875,-0.080,17.275,-14.435,40.786,61.0,0.0
67055,0.390,-0.925,0.005,0.687,4.611,44.588,102.0,0.0
67094,0.346,-0.967,0.152,-11.252,3.527,33.870,59.0,0.0
67144,0.298,-1.103,0.112,0.794,-1.061,24.160,60.0,164.0
67194,0.251,-1.030,0.113,11.061,5.725,26.908,59.0,155.0
67247,0.172,-0.924,0.155,2.344,19.763,27.328,59.0,0.0
67296,0.094,-1.022,0.137,5.573,32.771,25.389,59.0,152.0
67351,0.022,-0.996,0.186,11.107,33.695,29.130,101.0,0.0
67392,0.008,-0.974,0.132,13.305,23.076,30.191,94.0,0.0
67446,-0.006,-1.037,0.114,12.397,12.664,27.565,93.0,153.0
67502,-0.025,-0.946,0.076,16.237,32.237,19.260,94.0,0.0
67553,-0.294,-0.957,0.162,10.847,39.710,39.511,93.0,153.0
67605,-0.570,-1.027,-0.036,3.832,37.588,56.771,92.0,154.0
67656,-0.971,-0.930,-0.135,-18.351,-14.420,79.756,90.0,156.0
67709,-0.761,-0.883,0.168,-72.344,-84.221,150.931,91.0,160.0
67767,-0.062,-1.654,0.375,-53.802,-138.802,174.580,0.0,145.0
67824,0.286,-0.944,0.400,36.115,-149.137,75.992,0.0,142.0
67880,0.080,-0.863,-0.115,40.695,-31.130,29.412,0.0,125.0
67941,-0.527,-0.668,-0.038,22.435,60.069,8.099,0.0,144.0
67999,-0.909,-0.789,0.375,-21.527,2.298,38.603,0.0,144.0
68056,-0.621,-0.702,0.445,-4.588,-59.198,29.389,0.0,126.0
68113,-0.406,-0.769,0.223,20.313,-26.435,19.397,0.0,147.0
68169,-0.591,-0.757,0.175,19.435,12.344,27.084,0.0,129.0
68227,-0.716,-0.643,0.283,-3.954,-17.656,20.969,0.0,127.0
68283,-0.643,-0.628,0.286,-8.122,-23.863,31.023,0.0,129.0
68340,-1.055,-0.587,0.370,-3.168,-13.237,42.389,0.0,130.0
68400,-1.616,-0.265,0.224,-8.947,-33.076,116.725,0.0,132.0
68457,-1.532,-0.824,0.508,-21.939,-135.038,193.702,0.0,137.0
68513,-0.377,-0.959,0.249,14.237,-146.374,195.229,0.0,125.0
68571,0.031,-0.677,0.317,11.443,-83.664,136.550,0.0,131.0
68628,0.139,-0.386,0.174,11.244,-41.336,45.374,0.0,135.0
68683,-0.638,-0.133,0.609,-17.420,57.977,14.519,0.0,114.0
68741,-1.157,-0.065,0.983,-9.313,2.817,24.504,0.0,131.0
68797,-0.698,0.032,0.603,6.290,-42.702,31.939,0.0,117.0
68850,-0.648,-0.104,0.581,-9.206,-37.634,33.840,0.0,75.0
68907,-0.456,-0.084,0.556,-16.740,1.252,19.374,0.0,59.0
68963,-0.706,-0.042,0.670,-17.260,17.962,8.824,0.0,56.0
69012,-0.770,-0.026,0.653,-9.580,8.924,14.366,152.0,55.0
69062,-0.649,-0.157,0.769,-16.275,10.855,21.611,150.0,55.0
69111,-0.578,-0.815,1.254,54.504,56.672,38.405,149.0,55.0
69161,-0.619,-0.593,1.029,171.771,120.069,60.550,148.0,55.0
69210,-1.116,0.142,0.331,247.908,165.046,75.244,124.0,55.0
69258,-1.403,0.744,0.092,202.702,19.359,87.985,121.0,56.0
69301,-0.661,1.184,-0.575,89.443,-112.916,73.656,32.0,60.0
69353,-0.175,1.045,-0.826,8.855,-4.031,81.939,140.0,62.0
69402,-0.664,0.594,-0.004,-68.954,55.229,62.374,133.0,63.0
69495,-0.663,0.396,0.469,-41.977,14.656,48.481,137.0,64.0
69544,-0.615,0.451,0.558,-16.069,24.336,34.817,137.0,65.0
69594,-0.617,0.679,0.301,11.107,30.802,27.534,137.0,65.0
69638,-0.741,0.621,0.334,2.527,6.740,21.779,29.0,65.0
69687,-0.628,0.674,0.161,-2.656,-2.168,17.656,136.0,66.0
69736,-0.648,0.851,-0.031,-19.038,24.458,26.588,137.0,66.0
69798,-0.742,1.196,-0.080,-51.740,41.626,51.656,138.0,68.0
69846,-0.593,0.841,0.090,-119.435,39.847,61.008,20.0,89.0
69892,-0.584,0.613,0.284,-112.305,52.122,56.832,20.0,88.0
69939,-0.580,0.211,0.492,-91.893,59.115,46.611,18.0,91.0
69981,-0.663,0.272,0.808,-84.168,58.435,21.931,21.0,7.0
70023,-0.455,0.219,0.598,-31.130,5.718,-10.084,18.0,7.0
70075,-0.400,0.329,0.657,-13.305,35.672,-24.031,0.0,6.0
70130,-0.487,0.752,0.391,31.221,38.969,-32.756,0.0,8.0
70183,-0.492,0.578,0.160,31.473,18.855,-49.290,0.0,7.0
70228,-0.578,0.349,0.278,28.275,60.115,-66.954,17.0,9.0
70270,-0.592,0.499,0.233,51.427,67.702,-78.031,17.0,8.0
70311,-0.656,0.556,0.044,51.344,77.672,-91.313,16.0,8.0
70367,-0.783,0.438,0.034,38.435,86.886,-91.275,119.0,138.0
70416,-0.970,0.368,0.045,43.321,88.511,-94.748,17.0,130.0
70465,-0.970,0.383,-0.037,43.885,65.282,-92.679,17.0,124.0
70512,-0.884,0.406,-0.253,24.550,75.191,-80.710,17.0,107.0
70559,-0.919,0.360,-0.242,9.443,78.359,-61.511,16.0,104.0
70606,-1.063,0.025,-0.188,7.916,63.550,-52.649,17.0,101.0
70658,-1.123,0.115,-0.281,29.496,50.191,-41.916,16.0,99.0
70705,-1.062,0.166,-0.340,33.122,29.366,-35.405,17.0,97.0
70747,-1.042,0.077,-0.377,17.870,23.496,-39.893,17.0,12.0
70795,-1.196,0.048,-0.174,23.870,16.076,-37.496,17.0,10.0
70836,-1.137,-0.008,-0.252,38.290,-43.244,-37.702,20.0,11.0
70877,-0.891,0.073,-0.492,44.405,-19.221,-27.885,16.0,10.0
70923,-1.045,0.077,-0.424,33.313,4.634,-12.595,16.0,94.0
70969,-1.076,-0.090,-0.403,5.359,-32.008,-17.496,16.0,93.0
71014,-0.874,-0.078,-0.448,-4.031,-15.099,-13.542,16.0,93.0
71063,-0.916,-0.158,-0.176,-12.695,-13.595,-22.145,16.0,93.0
71109,-0.947,-0.116,-0.143,12.084,-14.519,-23.740,17.0,92.0
71155,-1.164,-0.148,0.023,23.473,-35.656,-19.061,16.0,93.0
71196,-1.020,-0.314,0.117,37.290,-107.733,-38.267,16.0,8.0
71237,-0.852,-0.685,0.160,59.687,-128.725,-78.221,16.0,9.0
71282,-0.671,-0.632,0.233,86.191,-185.557,-141.817,16.0,95.0
71340,-0.589,-0.666,-0.240,62.832,-143.221,-212.679,0.0,95.0
71399,-0.639,-0.720,-0.091,3.710,-72.649,-222.588,0.0,138.0
71461,-0.681,-0.733,0.295,-30.458,-65.893,-211.962,0.0,155.0
71514,-0.571,-0.977,0.181,-56.550,-62.321,-207.290,95.0,121.0
71566,-0.592,-0.999,0.264,-60.076,-41.939,-163.397,91.0,118.0
71617,-0.501,-0.710,0.430,-20.351,29.725,-39.992,93.0,116.0
71675,-0.474,-0.917,0.497,-15.191,-32.466,-12.885,0.0,116.0
71727,0.024,-0.917,0.230,-5.672,-65.634,7.962,92.0,117.0
71779,0.139,-0.891,0.016,-7.076,15.718,-1.519,91.0,115.0
71837,-0.073,-1.083,0.186,-17.580,14.298,-5.183,0.0,119.0
71898,-0.063,-1.021,0.218,-17.321,-0.771,-3.130,0.0,118.0
