Timestamp(ms),AccelX(g),AccelY(g),AccelZ(g),GyroX(deg/s),GyroY(deg/s),GyroZ(deg/s),DistanceLeft(cm),DistanceRight(cm)
122516,-0.349,0.277,0.906,9.374,2.573,-20.634,0.0,135.0
122605,-0.417,0.187,0.975,13.130,7.031,-17.809,0.0,136.0
122694,-0.397,0.148,0.874,-4.481,7.336,-11.687,0.0,137.0
122783,-0.451,0.158,0.842,-5.282,5.099,-11.443,0.0,140.0
122872,-0.550,0.160,0.840,4.290,1.397,-7.267,0.0,141.0
122961,-0.500,0.063,0.829,0.542,5.008,-6.466,0.0,142.0
123051,-0.520,-0.025,0.744,18.260,14.824,-22.076,0.0,143.0
123143,-0.483,-0.108,0.549,183.000,52.939,-55.580,0.0,142.0
123232,-0.620,0.085,0.476,226.450,84.221,-79.947,0.0,139.0
123324,-0.942,0.505,0.077,250.130,56.679,-82.122,0.0,0.0
123416,-0.886,1.161,-0.235,32.260,45.008,-122.733,0.0,0.0
123509,-1.103,-0.413,0.643,-143.565,-0.588,-113.748,0.0,0.0
123602,-0.819,1.505,-0.788,250.130,8.214,66.962,0.0,0.0
123695,-1.203,-1.094,0.611,-236.275,-7.336,-21.847,0.0,0.0
123788,-0.502,2.000,-0.865,137.214,61.534,56.122,0.0,0.0
123880,-1.041,-1.119,0.702,66.053,-41.015,-2.519,0.0,0.0
123976,-1.241,0.521,-0.226,-81.664,-3.588,-16.206,0.0,0.0
124068,-0.659,0.781,-0.347,102.969,6.122,6.916,0.0,0.0
124162,-1.105,-0.591,0.398,117.542,-68.328,7.511,0.0,0.0
124254,-1.025,1.120,-0.800,-250.137,88.405,-61.237,0.0,0.0
124347,-0.426,0.153,-0.407,250.130,-50.916,87.878,0.0,0.0
124440,-1.467,-0.615,0.189,-250.137,-62.924,-52.176,0.0,0.0
124533,-0.778,2.000,-0.852,58.679,53.519,29.649,0.0,0.0
124625,-0.812,-0.756,0.584,66.214,-74.656,17.519,0.0,0.0
124719,-1.092,0.724,-0.160,-73.763,52.489,8.756,0.0,0.0
124814,-0.273,0.713,-0.054,212.076,-7.420,7.397,0.0,0.0
124907,-1.493,-0.128,-0.106,-250.137,-20.176,-64.145,0.0,0.0
125000,-0.020,0.921,-0.902,250.130,4.733,100.321,0.0,0.0
125093,-1.124,-0.459,-0.420,-250.137,38.351,-92.573,0.0,0.0
125187,-0.678,0.184,-0.539,250.130,-38.084,32.618,0.0,0.0
125279,-1.081,0.129,-1.096,-250.137,97.985,-126.786,0.0,0.0
125372,-0.929,-0.451,-0.227,250.130,-24.130,69.298,0.0,0.0
125465,-0.966,0.728,-0.703,-250.137,77.450,-8.802,0.0,0.0
125561,-0.749,-0.338,-0.016,250.130,-43.298,91.252,0.0,0.0
125655,-1.040,0.418,-0.523,-250.137,52.305,10.855,0.0,0.0
125747,-0.552,-0.147,0.025,250.130,-37.603,56.916,0.0,0.0
125840,-1.125,0.322,-0.175,-250.137,-5.733,-70.710,0.0,0.0
125931,-0.473,0.767,-0.713,250.130,-23.672,74.794,167.0,0.0
126024,-1.287,-0.424,-0.209,-250.137,-1.168,-64.824,0.0,0.0
126114,-0.243,0.971,-0.565,250.130,24.679,56.214,156.0,0.0
126208,-1.281,-0.726,0.135,-250.137,-44.794,-65.229,0.0,0.0
126298,-0.346,1.531,-0.545,188.672,77.191,17.603,146.0,0.0
126394,-0.950,-0.997,0.780,49.634,-91.000,-51.962,0.0,0.0
126483,-1.134,1.741,-0.576,-176.924,82.687,-27.290,137.0,0.0
126573,-0.607,-0.205,0.410,250.130,-42.244,46.153,131.0,0.0
126666,-1.112,0.401,-0.185,-250.137,39.527,-2.527,0.0,0.0
126754,-0.182,1.183,-0.505,250.130,47.450,76.756,116.0,0.0
126848,-1.273,-0.553,0.235,-250.137,-30.351,-32.611,0.0,0.0
126941,-0.818,1.768,-0.625,-19.282,127.954,25.290,0.0,0.0
127034,-0.298,-0.350,0.583,73.496,-16.603,29.191,0.0,0.0
127130,-1.455,0.041,0.023,-145.595,-65.466,-0.626,0.0,0.0
127223,-1.178,1.672,-0.556,-157.000,80.229,34.168,0.0,0.0
127316,-0.007,0.689,0.187,150.397,49.382,75.977,0.0,0.0
127409,-1.191,-0.073,0.318,13.298,-103.015,55.458,0.0,0.0
127495,-1.135,1.505,-0.444,-61.405,29.252,65.649,162.0,101.0
127585,0.257,0.659,0.365,37.962,76.992,22.573,158.0,0.0
127673,-0.811,0.524,0.186,-69.168,-62.420,55.000,0.0,105.0
127761,-0.500,1.302,0.042,-154.076,203.084,7.710,197.0,106.0
127849,0.051,0.095,0.710,117.641,-35.611,22.748,0.0,106.0
127940,-1.362,1.129,-0.286,-135.855,31.908,-1.084,195.0,115.0
128024,0.950,1.530,0.014,66.664,109.802,13.672,143.0,100.0
128109,-1.145,0.230,0.326,-241.710,1.656,-60.252,58.0,0.0
128202,0.235,1.130,0.107,141.740,96.595,-16.420,0.0,0.0
128295,-0.963,0.117,0.382,-107.214,-26.718,-64.000,0.0,0.0
128389,-0.325,2.000,-0.801,-115.351,168.481,-100.878,0.0,0.0
128482,-1.307,-1.370,1.033,27.115,-71.260,-64.473,0.0,0.0
128575,-0.668,2.000,-1.329,-189.756,124.397,-30.679,0.0,0.0
128661,-0.954,-1.723,1.248,141.679,-75.229,-0.679,0.0,63.0
128757,-0.503,2.000,-1.052,-122.191,78.015,-12.053,0.0,0.0
128843,-1.023,-1.360,1.107,51.115,-59.092,-21.092,0.0,68.0
128936,-0.428,2.000,-0.861,15.160,42.809,11.527,0.0,0.0
129021,-1.214,-1.660,1.177,69.756,-74.359,-51.748,0.0,54.0
129115,-0.549,2.000,-0.910,212.412,-17.618,0.298,0.0,0.0
129202,-1.267,-1.599,0.875,31.489,-53.275,-84.916,0.0,85.0
129295,-0.301,2.000,-0.977,88.840,19.931,-22.244,0.0,0.0
129388,-1.101,-1.561,1.075,78.420,-64.115,-35.534,0.0,0.0
129484,-0.826,1.911,-0.601,-225.702,62.832,-64.198,0.0,0.0
129577,-0.522,-0.183,0.367,250.130,-29.977,9.176,0.0,0.0
129671,-1.027,0.304,0.130,-202.229,1.489,-42.824,0.0,0.0
129764,-0.962,0.929,-0.161,35.779,54.565,0.954,0.0,0.0
129857,-1.124,-0.094,0.246,134.046,-49.595,6.198,0.0,0.0
129951,-1.173,0.658,-0.320,-250.137,67.748,27.023,0.0,0.0
130044,-0.831,-0.151,-0.076,250.130,-80.336,105.168,0.0,0.0
130131,-1.030,0.654,-0.388,-250.137,61.557,-5.878,0.0,93.0
130220,-0.787,-0.307,-0.067,250.130,-98.496,46.550,0.0,97.0
130316,-1.086,0.591,-0.675,-250.137,72.939,-44.221,0.0,0.0
130409,-0.870,-0.207,-0.383,250.130,-91.122,82.221,0.0,0.0
130503,-0.886,0.348,-0.268,-250.137,40.817,-59.626,0.0,0.0
130596,-0.768,0.289,-0.368,250.130,-72.931,15.603,0.0,0.0
130690,-1.035,-0.085,-0.016,-250.137,3.008,-85.313,0.0,0.0
130784,-0.274,1.374,-0.533,250.130,13.160,9.725,0.0,0.0
130877,-1.106,-1.038,0.866,-31.023,-86.290,-57.977,0.0,0.0
130970,-0.869,1.966,-0.521,-84.817,49.634,-18.588,0.0,0.0
131063,-0.648,-0.369,0.435,250.130,-68.931,22.328,0.0,0.0
131161,-1.209,0.463,-0.113,-250.137,20.511,-49.336,0.0,0.0
131254,-0.344,1.315,-0.399,250.130,45.443,-1.771,0.0,0.0
131343,-1.541,-1.193,0.679,-150.947,-53.069,-28.977,0.0,118.0
131436,-0.670,2.000,-1.065,17.527,77.466,49.824,0.0,0.0
131530,-0.803,-1.251,0.839,195.031,-101.092,70.214,0.0,0.0
131623,-1.030,1.254,-0.528,-250.137,33.191,-24.557,0.0,0.0
131717,-0.330,0.607,-0.149,250.130,-37.221,43.809,0.0,0.0
131805,-1.575,-0.560,0.381,-191.244,-79.137,-42.290,0.0,89.0
131897,-0.824,1.980,-0.634,-141.672,89.634,-6.122,0.0,111.0
131985,-0.598,-1.012,0.731,250.130,-126.634,31.779,0.0,98.0
132073,-1.098,1.078,-0.345,-250.137,42.947,-46.733,0.0,101.0
132163,-0.132,0.274,0.197,250.130,21.481,3.183,0.0,121.0
132251,-0.984,0.006,0.527,-103.221,-62.725,-72.397,0.0,104.0
132341,-0.763,1.650,-0.320,-1.679,66.855,-6.458,0.0,124.0
132430,-0.562,-0.094,0.550,180.153,-44.527,9.916,0.0,127.0
132520,-1.182,0.882,-0.099,-250.137,45.198,-22.924,0.0,133.0
132615,0.101,0.665,0.047,250.130,24.321,66.397,0.0,0.0
132709,-1.409,-0.277,0.042,-250.137,-58.977,-69.786,0.0,148.0
132801,-0.725,1.597,-0.611,69.252,160.557,71.992,0.0,168.0
132894,-0.812,-0.553,0.400,45.244,-83.359,46.214,0.0,178.0
132984,-1.448,0.989,-0.532,-250.137,27.137,-4.237,0.0,142.0
133079,0.177,1.283,-0.349,199.244,156.809,64.542,0.0,0.0
133173,-0.799,-1.033,0.690,4.962,-152.763,-20.710,0.0,0.0
133266,-1.535,1.622,-0.736,-250.137,56.847,-71.046,0.0,0.0
133360,0.753,0.801,0.023,250.130,88.931,40.977,0.0,0.0
133457,-1.235,-1.967,1.092,-118.267,-142.924,-83.313,0.0,0.0
133552,-1.594,2.000,-0.998,-250.137,101.206,-21.504,0.0,0.0
133651,0.521,0.531,0.150,250.130,59.794,68.672,0.0,0.0
133744,-0.953,-0.335,0.299,-250.137,-87.534,-99.183,0.0,0.0
133837,-0.677,1.438,-0.423,20.870,156.702,-0.641,0.0,0.0
133931,-0.661,-0.598,0.701,129.031,-104.954,-43.466,0.0,0.0
134023,-1.282,1.109,-0.204,-250.137,64.115,-20.267,0.0,0.0
134116,-0.062,0.518,0.100,250.130,56.962,27.618,0.0,0.0
134209,-1.280,-0.226,0.218,-224.031,-50.649,-58.000,0.0,0.0
134305,-1.274,2.000,-1.062,-216.863,144.420,-20.412,0.0,0.0
134398,-0.897,-1.280,0.575,250.130,-95.802,58.626,0.0,0.0
134491,-0.768,0.985,-0.344,-250.137,49.458,-28.794,0.0,0.0
134584,-0.330,0.154,-0.109,250.130,-23.496,40.473,0.0,0.0
134677,-1.248,-0.097,-0.306,-250.137,32.420,-120.145,0.0,0.0
134770,-0.215,1.260,-1.053,250.130,-2.389,82.763,0.0,0.0
134856,-1.123,-1.324,0.339,-250.137,-12.389,-109.863,0.0,76.0
134949,-0.155,1.474,-0.979,250.130,25.099,82.504,0.0,0.0
135046,-1.275,-1.870,0.969,-196.221,-68.626,-94.786,0.0,0.0
135139,-1.031,2.000,-0.838,-96.176,71.626,20.237,0.0,0.0
135232,-0.746,-1.124,0.847,220.374,-50.748,-4.191,0.0,0.0
135318,-1.164,0.660,-0.250,-250.137,26.649,-27.389,0.0,79.0
135411,-0.534,0.025,0.145,250.130,-29.489,62.573,0.0,0.0
135504,-0.787,0.393,0.206,-125.855,-36.817,-24.069,0.0,0.0
135598,-1.039,0.848,0.021,-204.817,127.183,-29.130,0.0,0.0
135690,-0.714,0.107,0.218,250.130,-11.344,-10.351,0.0,0.0
135777,-1.304,0.154,-0.060,-250.137,33.771,-9.206,0.0,86.0
135873,-0.730,0.194,-0.223,250.130,-36.344,121.053,0.0,0.0
135960,-0.849,0.527,-0.490,-250.137,125.656,-17.336,0.0,96.0
136053,-0.776,-0.528,0.118,250.130,-80.924,42.305,0.0,0.0
136141,-1.087,0.838,-1.084,-250.137,125.145,-69.962,0.0,104.0
136229,-1.016,-0.686,0.100,250.130,-70.695,40.649,0.0,112.0
136317,-1.164,0.682,-0.520,-250.137,62.435,-43.221,0.0,115.0
136411,-0.475,0.029,0.016,250.130,-20.366,48.214,0.0,0.0
136500,-1.052,-0.115,-0.012,-250.137,-10.573,-52.214,0.0,123.0
136596,-0.437,1.106,-0.348,234.794,77.718,19.053,0.0,0.0
136685,-0.952,-0.638,0.641,-60.458,-97.427,-47.344,0.0,129.0
136775,-1.153,1.920,-0.750,-250.137,113.840,-33.695,0.0,133.0
136864,-0.603,-0.909,0.676,250.130,-87.023,28.145,0.0,137.0
136954,-1.215,1.182,-0.311,-250.137,31.794,-1.885,0.0,143.0
137048,-0.054,0.440,0.273,250.130,30.481,28.275,0.0,0.0
137139,-1.315,-0.284,0.323,-225.969,-56.664,-24.763,0.0,156.0
137232,-0.615,1.844,-0.664,26.237,109.221,51.313,0.0,0.0
137324,-0.733,-0.574,0.561,120.015,-27.664,12.008,0.0,176.0
137419,-1.500,0.871,-0.520,-250.137,57.947,-12.015,0.0,185.0
137512,-0.016,0.963,-0.200,197.145,89.916,42.412,0.0,0.0
137606,-1.215,-1.397,0.792,-228.962,-98.107,-58.710,0.0,0.0
137699,-0.929,2.000,-0.912,-5.687,76.840,-1.588,0.0,0.0
137792,-0.808,-0.899,0.727,233.145,-92.168,-37.863,0.0,0.0
137886,-1.473,0.698,-0.612,-250.137,88.053,-59.466,0.0,0.0
137979,-0.018,0.029,-0.182,250.130,-35.969,85.443,0.0,0.0
138073,-1.441,-0.329,-0.245,-250.137,-29.527,-55.763,0.0,0.0
138169,-0.167,1.530,-0.536,244.107,103.679,35.053,0.0,0.0
138262,-0.793,-1.246,0.851,-67.321,-98.107,-68.328,0.0,0.0
138355,-1.378,1.250,-0.200,-247.405,83.427,0.221,0.0,0.0
138448,0.094,0.446,0.351,250.130,33.198,29.687,0.0,0.0
138543,-1.232,-0.391,0.663,-138.977,-108.893,-51.267,0.0,0.0
138636,-1.182,1.801,-0.633,-78.237,137.565,14.153,0.0,0.0
138729,-0.888,-0.731,0.564,250.130,-105.038,-6.847,0.0,0.0
138822,-1.750,1.266,-0.473,-249.374,36.267,10.481,0.0,0.0
138915,-0.040,0.504,0.039,250.130,5.840,33.275,0.0,0.0
139012,-1.422,0.109,-0.360,-250.137,-10.031,-37.389,0.0,0.0
139106,0.216,1.251,-0.560,250.130,105.115,49.466,0.0,0.0
139199,-1.349,-0.814,0.272,-250.137,-128.763,-81.992,0.0,0.0
139292,-0.019,2.000,-0.986,167.679,167.061,19.771,0.0,0.0
139386,-1.337,-1.881,1.170,-93.160,-159.397,-94.275,0.0,0.0
139480,-0.581,2.000,-0.695,-43.435,210.435,-17.053,0.0,0.0
139573,-0.842,-1.721,1.122,47.435,-170.824,-45.015,0.0,0.0
139667,-1.315,1.794,-0.568,-116.344,148.511,33.832,0.0,0.0
139760,-0.356,-0.643,0.745,187.458,-107.092,2.359,0.0,0.0
139849,-1.560,1.033,-0.519,-250.137,35.137,-15.702,0.0,68.0
139942,-0.026,0.300,0.283,250.130,5.611,31.985,0.0,0.0
140028,-1.283,0.247,-0.208,-250.137,-41.145,-47.092,0.0,70.0
140123,-0.200,0.882,-0.172,250.130,80.908,67.939,0.0,0.0
140211,-0.937,-0.163,0.279,-186.763,-33.267,-42.664,0.0,108.0
140305,-0.799,1.516,-0.424,-3.031,97.397,52.756,0.0,0.0
140393,-0.752,-0.408,0.343,250.130,-104.221,48.954,0.0,115.0
140487,-1.078,1.293,-0.688,-250.137,105.710,-42.450,0.0,0.0
140580,-0.270,0.011,0.250,250.130,-91.031,42.290,0.0,139.0
140665,-0.946,0.686,-0.423,-250.137,42.519,-70.863,0.0,57.0
140751,-0.890,-0.025,-0.165,250.130,-75.191,41.985,0.0,61.0
140837,-1.235,0.570,-0.516,-250.137,72.939,-46.779,0.0,70.0
140924,-0.954,-0.596,-0.218,250.130,-140.038,66.046,0.0,74.0
141010,-0.643,1.250,-0.505,-250.137,82.702,-67.672,0.0,76.0
141097,-0.820,-0.653,0.476,250.130,-83.412,-15.603,0.0,79.0
141185,-0.491,1.873,-0.786,-250.137,76.809,-116.634,0.0,80.0
141279,-1.048,-0.985,0.898,43.115,-33.069,-61.053,0.0,0.0
141363,-0.352,2.000,-0.695,26.733,31.427,-27.931,0.0,78.0
141450,-1.252,-0.710,0.563,-245.473,17.687,-51.344,0.0,85.0
141538,-0.745,1.584,-0.883,250.130,-7.061,43.740,0.0,96.0
141632,-1.229,-0.394,-0.307,-250.137,71.740,-14.069,0.0,0.0
141725,-0.289,1.036,-0.999,250.130,29.908,110.679,0.0,0.0
141819,-1.208,-0.720,-0.294,-250.137,50.450,-19.046,0.0,0.0
141914,-0.165,1.418,-0.814,250.130,58.573,49.221,0.0,0.0
142007,-1.284,-0.933,0.247,-250.137,-11.023,-51.763,189.0,0.0
142097,-0.663,2.000,-1.151,62.481,52.214,31.817,93.0,0.0
142189,-1.435,-1.214,0.385,-233.160,2.290,-7.366,176.0,0.0
142277,0.060,2.000,-1.310,25.840,119.886,50.107,97.0,0.0
142371,-1.399,-1.220,0.291,-250.137,90.313,-11.137,0.0,0.0
142465,-0.309,2.000,-0.691,6.282,99.969,48.481,0.0,0.0
142559,-1.080,-1.149,0.643,-105.557,15.908,18.534,0.0,0.0
142646,-0.950,1.408,-0.634,-250.137,115.275,23.328,0.0,80.0
142732,-0.826,-0.164,0.404,250.130,-49.061,35.160,0.0,71.0
142819,-0.879,0.323,0.217,-250.137,57.725,-33.725,0.0,84.0
142909,-0.468,1.921,-0.821,250.130,13.794,51.168,0.0,75.0
142995,-0.808,-1.155,0.649,-250.137,31.122,-35.328,0.0,58.0
143082,-0.592,1.021,-0.959,250.130,-82.198,70.702,0.0,75.0
143166,-0.662,0.249,-0.174,-250.137,75.359,-74.901,0.0,38.0
143255,-0.695,-0.009,-0.243,250.130,-78.954,53.969,0.0,99.0
143339,-0.575,0.789,-0.776,-250.137,99.786,-87.115,0.0,32.0
143423,-1.140,-0.537,-0.066,250.130,-114.328,28.870,0.0,36.0
143511,-1.069,1.351,-0.684,-250.137,23.580,-79.649,0.0,83.0
143598,-1.120,-0.606,0.090,250.130,-112.771,-19.397,0.0,26.0
143682,-0.778,1.555,-0.690,-250.137,53.557,-105.107,0.0,24.0
143767,-0.963,-0.888,0.428,250.130,-102.756,-4.962,0.0,36.0
143851,-0.832,1.801,-0.729,-250.137,61.847,-31.275,0.0,28.0
143936,-0.765,-0.798,0.823,250.130,-90.382,34.076,0.0,42.0
144022,-0.311,2.000,-0.728,-143.099,93.260,-15.985,0.0,52.0
144106,-1.056,-1.441,1.250,52.183,-71.992,-31.832,0.0,34.0
144200,-0.442,2.000,-0.914,141.710,34.992,35.565,0.0,0.0
144286,-1.265,-0.677,0.550,-197.229,9.779,-2.084,0.0,58.0
144378,-0.240,1.435,-0.962,250.130,-3.672,96.328,0.0,116.0
144468,-1.337,-0.571,-0.472,-250.137,70.137,-43.603,0.0,129.0
144559,0.436,1.017,-0.818,250.130,-12.153,121.298,0.0,128.0
144644,-1.027,-0.754,0.135,-250.137,-28.145,-101.382,0.0,38.0
144735,0.018,0.978,-0.986,250.130,-30.252,87.893,0.0,141.0
144819,-1.325,-0.913,-0.352,-250.137,-8.771,-137.580,0.0,38.0
144911,-0.151,0.685,-1.586,250.130,-51.000,102.191,0.0,150.0
144995,-1.114,-0.741,-0.361,-250.137,16.321,-128.168,0.0,38.0
145085,0.482,1.420,-0.969,250.130,56.107,53.313,0.0,59.0
145175,-1.379,-1.739,0.743,-250.137,-75.794,-157.916,0.0,43.0
145266,0.412,1.789,-1.173,250.130,39.374,88.481,0.0,169.0
145350,-1.049,-1.250,1.018,-250.137,-73.351,-107.130,0.0,44.0
145442,-0.046,1.851,-0.835,250.130,79.237,30.504,0.0,179.0
145528,-1.304,-1.274,1.022,-71.527,-87.649,-111.336,0.0,71.0
145613,-0.727,2.000,-1.024,52.191,106.756,20.641,0.0,57.0
145707,-0.933,-0.987,0.813,-7.260,-79.725,-7.023,0.0,0.0
145795,-1.004,2.000,-0.676,-239.244,129.160,-15.046,0.0,72.0
145888,-0.675,-0.957,0.642,250.130,-132.557,-3.008,0.0,0.0
145981,-1.113,0.937,-0.742,-250.137,78.908,-51.618,0.0,0.0
146074,-0.354,0.173,-0.324,250.130,-49.458,65.198,0.0,0.0
146167,-1.176,-0.239,0.260,-250.137,-55.908,-82.656,0.0,0.0
146260,-0.431,1.271,-0.407,240.031,74.160,55.580,0.0,0.0
146353,-0.781,-0.680,0.682,182.061,-140.160,4.824,190.0,0.0
146445,-1.095,1.771,-0.560,-250.137,137.275,-20.672,184.0,0.0
146539,-0.426,-0.698,0.623,250.130,-126.565,81.504,0.0,0.0
146634,-1.129,1.273,-0.352,-250.137,76.107,-40.115,0.0,0.0
146726,0.138,0.312,0.083,250.130,-52.695,66.137,173.0,0.0
146820,-1.111,0.612,-0.462,-250.137,3.427,-89.664,0.0,0.0
146913,-0.041,0.885,-0.165,250.130,76.634,21.084,0.0,0.0
147006,-1.162,-0.190,0.572,-4.168,-119.580,14.344,0.0,0.0
147099,0.234,2.000,-0.932,-148.817,176.878,-62.374,0.0,0.0
147187,-1.254,-1.471,0.967,-210.763,-103.130,-52.893,0.0,118.0
147275,0.442,2.000,-1.297,250.130,50.824,50.038,0.0,98.0
147369,-1.576,-1.329,1.081,-250.137,-71.389,-47.443,0.0,160.0
147457,0.875,2.000,-1.070,250.130,84.954,40.038,0.0,98.0
147547,-1.540,-1.191,0.654,-250.137,-18.885,-15.466,0.0,143.0
147631,0.329,1.634,-0.742,250.130,-16.130,167.092,141.0,103.0
147716,-0.567,0.358,0.129,-250.137,-14.733,43.069,139.0,107.0
147800,0.325,0.437,-0.242,250.130,-60.824,108.145,135.0,104.0
147884,-0.486,0.752,-0.135,-250.137,89.473,-15.802,136.0,109.0
147963,0.377,0.384,0.121,250.130,-77.092,112.023,51.0,108.0
148048,-0.136,1.317,-0.142,-250.137,69.046,-31.183,135.0,110.0
148139,0.126,0.464,0.377,250.130,-52.046,17.397,187.0,109.0
148218,-0.105,0.999,-0.029,-122.664,18.153,7.450,50.0,111.0
148298,-0.303,1.156,0.084,39.359,13.817,-13.924,50.0,111.0
148385,0.261,0.481,0.308,35.565,4.351,16.298,185.0,111.0
148473,0.043,1.101,-0.614,250.130,-6.489,14.214,0.0,107.0
148553,0.008,0.906,-0.534,-250.137,117.740,-93.634,52.0,109.0
148633,-0.396,-0.595,0.786,250.130,-75.824,28.634,46.0,109.0
148720,0.212,1.888,-0.505,-250.137,89.206,-93.336,190.0,110.0
148812,-0.704,-0.960,1.104,250.130,-90.412,-40.351,0.0,113.0
148899,-0.928,2.000,-1.602,197.847,33.618,-106.756,193.0,106.0
148992,-0.972,-1.034,0.315,-250.137,34.267,-98.962,0.0,167.0
149080,0.208,2.000,-1.281,250.130,-36.000,127.916,0.0,108.0
149172,-0.990,-0.553,0.770,-250.137,-55.038,-29.229,0.0,174.0
149260,1.085,1.662,-0.188,250.130,179.771,47.794,0.0,108.0
149352,-0.991,0.061,0.355,-250.137,-76.870,-47.145,0.0,182.0
149440,0.840,2.000,-0.655,250.130,160.580,58.374,194.0,106.0
149536,-1.157,-0.916,0.902,-250.137,-66.244,-69.718,0.0,0.0
149624,0.547,1.977,-0.714,250.130,224.748,23.779,193.0,107.0
149718,-1.168,-0.063,0.198,-250.137,-91.863,-49.847,0.0,0.0
149806,0.809,0.655,-0.922,250.130,38.977,128.489,192.0,106.0
149899,-0.560,0.609,-0.909,-250.137,109.107,-88.672,0.0,0.0
149987,0.415,0.476,-0.118,250.130,-45.145,109.198,195.0,107.0
150080,-0.894,0.948,-0.343,-250.137,47.786,-34.115,0.0,0.0
150169,0.784,0.984,0.168,250.130,63.038,70.435,0.0,108.0
150262,-0.525,0.314,0.481,-250.137,-25.038,-88.153,0.0,0.0
150353,-0.710,0.903,-0.330,250.130,106.275,42.221,194.0,107.0
150441,0.197,0.457,0.319,-44.237,-32.458,-18.695,0.0,108.0
150535,-1.195,1.106,-0.176,-250.137,85.695,-5.176,0.0,0.0
150629,0.608,1.179,0.180,211.679,80.344,39.779,0.0,0.0
150722,-0.912,0.072,0.521,-36.504,-39.664,-10.046,0.0,0.0
150810,0.218,2.000,-0.344,-118.588,204.908,7.794,197.0,105.0
150899,-1.086,-0.834,1.103,-128.618,-64.008,-23.641,0.0,124.0
150987,0.677,2.000,-0.544,146.557,174.252,34.076,197.0,102.0
151079,-1.148,-0.451,0.518,-250.137,-51.282,-99.389,0.0,120.0
151168,0.393,1.478,-1.296,250.130,7.038,119.656,199.0,101.0
151256,-1.195,0.434,-0.641,-250.137,178.969,-54.649,0.0,118.0
151345,-0.286,-0.132,-0.042,250.130,-124.466,71.870,0.0,103.0
151433,-0.836,1.607,-0.556,-250.137,174.397,-51.466,0.0,103.0
151521,-0.618,-0.758,0.489,250.130,-181.588,-0.466,0.0,102.0
151608,-0.180,2.000,-1.409,-250.137,196.481,-95.664,199.0,100.0
151697,-0.994,-1.898,1.618,154.489,-104.656,-46.344,0.0,115.0
151788,0.506,2.000,-1.221,29.809,46.824,-15.061,0.0,97.0
151876,-1.257,-1.071,1.048,-250.137,-32.008,-35.947,0.0,106.0
151961,0.327,2.000,-1.257,250.130,-63.725,43.038,148.0,98.0
152042,-0.757,-0.005,-0.061,-250.137,105.107,-59.656,58.0,107.0
152130,-0.406,-0.017,0.030,250.130,-143.939,58.870,198.0,103.0
152210,-0.529,1.410,-0.463,-250.137,127.305,-62.397,62.0,105.0
152299,-0.780,-0.737,1.237,180.206,-200.641,-25.389,0.0,110.0
152387,0.309,2.000,-0.831,-86.947,165.832,32.198,192.0,106.0
152473,-0.903,-0.804,0.801,-250.137,-37.702,-56.908,0.0,56.0
152551,0.617,0.930,-0.713,250.130,-74.481,106.229,59.0,108.0
152631,-0.358,1.149,-0.205,-250.137,153.153,-69.038,58.0,108.0
152712,-0.406,-0.601,0.877,250.130,-141.244,25.771,57.0,107.0
152796,0.146,2.000,-1.225,-175.122,119.557,-77.977,122.0,102.0
152885,-1.275,-0.739,0.808,-248.893,60.794,-21.901,0.0,114.0
152973,0.707,2.000,-0.532,246.664,95.145,26.733,196.0,103.0
153062,-0.975,-0.513,0.634,-250.137,20.763,-57.191,0.0,121.0
153143,1.115,1.690,-0.145,250.130,114.725,57.244,59.0,104.0
153233,-1.186,0.484,0.104,-250.137,16.557,-82.687,0.0,81.0
153321,0.002,0.487,-0.258,250.130,-113.641,90.252,0.0,106.0
153411,-0.583,1.007,-0.082,-250.137,101.443,-86.435,0.0,129.0
153499,-0.542,-0.549,0.270,250.130,-162.168,58.305,0.0,109.0
153588,-0.467,1.902,-0.952,-250.137,163.863,-91.328,0.0,112.0
153679,-0.800,-1.384,1.288,250.130,-115.542,16.168,0.0,138.0
153767,0.160,2.000,-0.793,-120.565,80.145,-38.107,191.0,110.0
153858,-0.799,-1.111,1.414,-44.565,-29.611,-24.076,0.0,142.0
153949,0.670,2.000,-0.435,250.130,-6.359,43.504,193.0,104.0
154038,-0.676,0.662,0.216,-250.137,66.000,-29.092,0.0,109.0
154126,0.296,0.604,-0.096,250.130,-42.267,99.084,195.0,103.0
154214,-0.458,1.221,-0.413,-250.137,202.824,-84.542,196.0,105.0
154303,-0.164,-0.044,0.373,250.130,-67.489,68.840,195.0,104.0
154391,-0.400,1.672,-0.735,-250.137,210.099,-63.824,195.0,105.0
154472,-0.415,-0.419,0.753,194.000,-80.412,20.206,59.0,108.0
154559,-0.156,2.000,-0.711,-158.328,175.695,-53.229,189.0,104.0
154649,-0.879,-0.632,0.960,106.519,-106.802,-28.878,61.0,0.0
154736,0.560,2.000,-1.492,145.786,75.198,-7.443,183.0,100.0
154830,-1.201,-0.962,0.208,-250.137,69.710,-128.061,0.0,0.0
154917,0.187,1.050,-1.021,250.130,-34.084,52.557,174.0,101.0
155010,-0.893,-0.005,-0.340,-250.137,88.023,-135.313,172.0,0.0
155102,-0.121,0.520,-0.276,250.130,13.756,15.947,170.0,0.0
155195,-1.136,-0.177,-0.247,-250.137,16.992,-113.794,0.0,179.0
155288,-0.037,1.682,-0.700,250.130,91.237,17.840,0.0,191.0
155384,-0.904,-1.292,0.912,-56.580,-43.237,-52.031,0.0,185.0
155479,-1.374,1.530,-0.301,-250.137,98.802,-31.618,0.0,0.0
155573,-0.097,0.652,0.322,197.962,76.427,40.702,0.0,199.0
155661,-1.161,-0.825,0.823,-73.756,-68.763,-60.481,0.0,89.0
155755,-0.902,1.903,-0.698,-29.336,85.931,42.298,0.0,0.0
155848,-0.901,-0.791,0.419,165.886,-98.473,21.153,0.0,0.0
155942,-1.098,0.914,-0.256,-25.542,22.763,37.206,0.0,0.0
156037,0.184,1.574,-0.288,82.580,86.924,-14.458,0.0,0.0
156131,-1.531,-1.269,0.695,-250.137,-98.053,-96.641,0.0,0.0
156228,-0.778,2.000,-1.042,-38.420,82.435,2.145,0.0,0.0
156322,-1.240,-1.539,0.900,164.221,-115.863,-42.328,0.0,0.0
156417,-1.011,2.000,-0.629,-200.053,111.893,20.023,0.0,0.0
156516,-0.587,-0.535,0.507,250.130,-73.695,48.832,0.0,0.0
156609,-0.936,1.188,-0.063,-230.481,12.954,-30.588,0.0,0.0
156702,-0.225,0.200,0.150,250.130,-24.702,16.824,0.0,0.0
156789,-1.081,0.407,-0.385,-250.137,56.855,-87.756,0.0,102.0
156882,-0.891,-0.466,-0.314,250.130,-93.718,56.817,0.0,0.0
156976,-1.011,1.006,-0.691,-250.137,120.786,-47.061,0.0,0.0
157072,-0.835,-0.710,0.117,250.130,-77.840,43.176,0.0,0.0
157164,-1.022,1.720,-1.198,-250.137,139.847,-67.832,0.0,0.0
157257,-0.883,-1.213,0.596,250.130,-118.595,36.634,0.0,0.0
157350,-0.982,1.995,-0.990,-250.137,106.443,-23.908,0.0,0.0
157438,-0.825,-1.141,0.677,250.130,-144.977,5.725,0.0,97.0
157526,-0.995,2.000,-1.090,-250.137,78.718,-58.267,0.0,95.0
157613,-1.469,-2.000,1.240,233.725,-119.275,-59.214,0.0,93.0
157706,-0.329,2.000,-1.412,72.985,63.237,-3.145,0.0,0.0
157794,-1.398,-2.000,1.516,-30.450,-71.977,-99.137,0.0,57.0
157887,-0.345,2.000,-1.663,250.130,3.794,65.763,0.0,0.0
157971,-1.137,-1.533,0.873,-179.115,-3.725,-110.244,0.0,57.0
158065,-0.293,1.665,-0.739,250.130,37.328,5.603,0.0,0.0
158149,-0.856,-0.919,0.953,-39.878,-29.740,-76.985,0.0,57.0
158242,-1.192,2.000,-0.642,-89.916,92.679,-48.603,0.0,0.0
158330,-1.084,-0.748,0.740,189.214,-40.489,-4.061,0.0,96.0
158424,-0.874,1.313,-0.307,138.183,-15.519,49.344,0.0,0.0
158509,-1.156,0.657,-0.031,-250.137,45.160,74.412,0.0,59.0
158598,-1.026,-0.540,0.739,132.420,-117.046,102.771,0.0,70.0
158683,-0.316,2.000,-0.879,-250.137,-23.725,108.237,0.0,66.0
158775,-0.901,-1.934,1.024,-250.137,-102.153,-53.969,0.0,166.0
158866,-0.466,1.541,0.325,-71.886,-184.382,84.718,0.0,160.0
158956,-0.212,-0.433,1.052,-38.603,-133.252,48.725,0.0,158.0
159047,-0.246,-0.155,0.701,-99.046,-51.290,30.046,0.0,146.0
159137,-0.103,-0.135,0.743,-33.473,-33.748,3.305,0.0,143.0
159218,0.056,-0.181,0.770,4.084,-1.183,-5.664,54.0,140.0
159302,0.007,-0.279,0.871,1.664,8.664,-3.611,51.0,136.0
159383,0.061,-0.275,0.887,2.458,-1.198,-2.443,48.0,132.0
159464,0.114,-0.280,0.926,-7.122,-3.176,4.802,47.0,128.0
159544,0.088,-0.248,1.001,-0.557,-12.046,10.473,45.0,123.0
159624,0.135,-0.265,1.106,5.221,-13.626,13.351,47.0,118.0
159704,0.038,-0.180,1.062,18.046,-4.733,7.237,49.0,113.0
159782,0.104,-0.108,0.936,5.305,-2.573,12.710,50.0,107.0
159860,0.063,-0.005,0.943,4.588,11.504,5.000,51.0,70.0
159939,0.003,-0.198,0.916,67.939,7.015,-1.763,54.0,99.0
160029,-0.063,-0.150,0.580,185.046,8.450,-53.863,0.0,93.0
160120,-0.059,-0.069,0.128,250.130,64.305,-75.588,0.0,157.0
160207,-0.681,2.000,-0.517,60.809,200.641,-208.427,194.0,106.0
160301,-1.057,-0.613,1.554,194.099,-81.611,-204.908,0.0,0.0
160395,-0.452,2.000,-1.299,52.084,-26.443,-136.053,0.0,0.0
160487,-1.343,-1.271,1.002,-103.313,18.115,-174.473,0.0,178.0
160580,-0.060,2.000,-1.650,250.130,-39.817,36.786,0.0,0.0
160669,-1.139,-0.847,0.005,-250.137,55.466,-91.695,0.0,131.0
160766,-0.616,0.450,-0.672,250.130,-38.252,103.557,0.0,0.0
160856,-0.932,-0.095,-0.180,-250.137,67.206,-50.145,0.0,139.0
160948,-0.596,0.186,-0.066,250.130,-40.985,40.802,0.0,158.0
161038,-0.783,0.509,-0.051,-250.137,32.473,-72.069,0.0,149.0
161131,-1.006,-0.303,0.137,250.130,-45.000,12.198,0.0,0.0
161224,-0.975,0.750,-0.878,-250.137,103.588,-42.450,0.0,182.0
161315,-0.987,-0.473,0.260,250.130,-33.802,77.076,0.0,164.0
161408,-0.855,1.389,-0.844,-250.137,114.130,1.382,0.0,178.0
161501,-1.165,-1.122,0.678,128.824,-91.214,37.542,0.0,0.0
161598,-0.326,2.000,-0.964,-149.405,102.893,-2.115,0.0,0.0
161691,-1.181,-1.427,0.723,-197.130,-51.389,-85.351,0.0,0.0
161784,0.042,2.000,-1.172,218.534,90.969,49.870,0.0,0.0
161869,-1.437,-1.514,0.337,-250.137,-19.687,-105.740,0.0,44.0
161963,-0.675,0.007,-0.696,250.130,-74.496,90.481,0.0,0.0
162049,-0.679,0.371,-0.432,-250.137,82.489,-102.405,0.0,60.0
162135,-0.826,-1.085,0.476,250.130,-92.565,39.389,0.0,66.0
162228,-1.058,2.000,-0.842,-250.137,81.817,-24.878,0.0,0.0
162324,-0.569,-1.074,0.569,250.130,-66.244,57.374,0.0,0.0
162418,-0.782,1.248,-0.409,-250.137,89.359,-74.733,0.0,0.0
162511,-0.504,-0.229,0.342,250.130,-9.618,31.573,0.0,0.0
162606,-0.881,0.419,-0.037,-250.137,33.557,-86.221,0.0,0.0
162699,-0.549,0.958,0.019,192.908,31.115,13.053,0.0,0.0
162784,-1.245,-0.245,0.372,-112.183,-0.046,-37.641,0.0,57.0
162878,-0.435,1.121,-0.307,211.122,52.160,87.420,0.0,0.0
162964,-1.469,-0.628,0.157,-250.137,32.695,4.687,0.0,65.0
163057,-0.271,0.412,-0.458,250.130,-23.718,133.168,0.0,0.0
163147,-0.927,0.041,-0.362,-250.137,96.183,-56.153,0.0,77.0
163236,-0.627,-0.352,-0.173,250.130,-111.504,68.550,0.0,124.0
163323,-1.048,1.031,-1.255,-250.137,115.794,-115.947,0.0,86.0
163411,-1.171,-1.068,0.571,250.130,-104.244,34.137,0.0,91.0
163500,-0.744,2.000,-1.157,-250.137,105.969,-51.489,0.0,99.0
163588,-1.048,-1.775,1.180,91.870,-51.931,18.221,0.0,105.0
163678,-0.497,2.000,-0.890,-58.954,87.305,0.275,0.0,146.0
163767,-1.230,-1.518,0.875,-219.260,-3.763,-32.969,0.0,120.0
163860,-0.313,2.000,-0.758,133.886,75.611,43.015,0.0,127.0
163954,-1.013,-0.783,0.232,-250.137,51.137,-62.115,0.0,0.0
164044,-0.434,1.467,-0.631,244.458,81.115,55.008,0.0,145.0
164137,-1.149,-0.480,-0.382,-250.137,108.656,-32.031,180.0,0.0
164230,-0.658,0.414,-0.447,250.130,-4.260,93.550,177.0,0.0
164322,-1.256,0.234,-0.879,-250.137,109.435,-30.939,167.0,0.0
164413,-0.920,-0.340,-0.348,250.130,-38.870,93.863,161.0,0.0
164504,-1.079,0.814,-0.880,-250.137,154.038,-29.641,156.0,0.0
164598,-0.851,-0.637,0.466,250.130,-68.115,40.664,0.0,0.0
164692,-0.969,1.525,-1.051,-250.137,123.061,-71.886,145.0,0.0
164787,-1.116,-1.122,0.896,250.130,-103.282,2.901,0.0,0.0
164880,-1.085,2.000,-1.248,-250.137,79.458,-18.214,0.0,0.0
164974,-1.272,-1.885,1.018,250.130,-126.901,18.069,0.0,0.0
165067,-0.821,2.000,-1.053,-250.137,105.886,-37.290,0.0,0.0
165161,-0.868,-1.608,1.134,249.290,-81.435,-14.595,0.0,0.0
165256,-0.808,2.000,-0.786,-235.008,74.542,-37.153,0.0,0.0
165349,-0.829,-1.051,0.918,180.389,-40.122,-3.351,0.0,0.0
165446,-0.837,1.713,-0.429,-245.939,66.939,-38.603,0.0,0.0
165540,-0.955,-0.449,0.472,250.130,-37.435,56.206,0.0,0.0
165634,-0.888,1.386,-0.467,-250.137,143.282,-36.939,0.0,0.0
165728,-1.009,-0.810,0.566,250.130,-99.687,26.366,0.0,0.0
165822,-0.840,1.629,-0.827,-250.137,90.198,-57.069,0.0,0.0
165913,-1.107,-0.838,0.508,250.130,-81.443,55.000,0.0,149.0
166006,-0.836,1.979,-0.963,-250.137,110.603,-39.534,0.0,0.0
166100,-0.949,-1.182,0.713,250.130,-112.160,39.878,0.0,0.0
166195,-0.774,1.706,-0.721,-250.137,73.702,-33.885,0.0,0.0
166292,-0.956,-0.605,0.437,250.130,-111.115,34.313,0.0,0.0
166378,-0.866,1.091,-0.731,-250.137,82.405,-67.489,0.0,63.0
166472,-1.225,-1.094,0.529,250.130,-142.298,34.771,0.0,0.0
166566,-0.422,2.000,-0.987,-250.137,86.534,-103.031,0.0,0.0
166660,-1.067,-1.343,0.876,250.130,-103.137,-19.061,0.0,0.0
166754,-0.820,2.000,-0.935,-250.137,116.550,-116.443,0.0,0.0
166848,-0.839,-1.045,0.543,250.130,-92.855,-12.611,0.0,0.0
166936,-0.807,1.229,-0.265,-250.137,40.298,-57.405,0.0,97.0
167033,-0.582,0.163,0.201,250.130,-19.298,26.000,0.0,0.0
167128,-1.228,0.225,0.121,-162.366,-8.221,-9.313,0.0,0.0
167222,-1.042,0.651,-0.270,250.130,-57.389,61.313,0.0,0.0
167316,-0.358,1.666,-0.382,-72.122,73.886,11.450,0.0,0.0
167401,-1.132,-1.059,0.652,-238.832,-27.076,-22.817,0.0,57.0
167495,-0.157,1.517,-1.303,250.130,-64.985,98.092,0.0,0.0
167581,-1.190,-0.919,-0.568,-250.137,75.008,-94.649,0.0,63.0
167675,-0.924,0.078,-1.054,250.130,-135.924,96.687,0.0,0.0
167762,-1.347,-0.332,-0.492,-250.137,38.550,-81.183,0.0,72.0
167860,-0.639,-0.183,-0.977,250.130,-139.679,119.832,0.0,0.0
167948,-0.853,0.470,-0.759,-250.137,132.359,-110.870,0.0,79.0
168047,-0.725,-0.795,-0.507,250.130,-156.000,50.366,0.0,0.0
168132,-0.545,0.558,-0.923,-250.137,124.298,-150.420,0.0,68.0
168225,-0.875,-0.788,0.274,250.130,-112.794,21.939,0.0,0.0
168318,-0.648,1.467,-0.664,-250.137,87.115,-88.443,0.0,0.0
168412,-1.017,-0.754,0.550,250.130,-92.649,19.229,0.0,0.0
168505,-0.860,1.739,-0.975,-250.137,116.351,-87.351,0.0,0.0
168596,-0.958,-0.638,0.406,250.130,-73.084,53.206,0.0,120.0
168686,-0.834,1.595,-0.910,-250.137,115.092,-28.198,0.0,145.0
168777,-0.821,-1.119,0.832,250.130,-98.504,44.794,0.0,154.0
168868,-0.671,2.000,-1.126,-250.137,111.122,-45.374,0.0,158.0
168960,-1.408,-1.683,1.083,75.756,-98.603,-28.107,0.0,170.0
169051,-0.385,2.000,-1.155,-33.214,78.634,-0.649,0.0,176.0
169144,-1.408,-2.000,1.252,-41.725,-72.954,-62.550,0.0,196.0
169237,-0.260,2.000,-0.983,2.359,62.786,10.023,0.0,0.0
169333,-1.038,-2.000,1.229,108.221,-91.008,-16.084,0.0,0.0
169422,-0.812,2.000,-0.951,-250.137,108.458,-59.305,0.0,136.0
169516,-0.608,-1.168,0.927,229.076,-62.466,-13.901,0.0,0.0
169607,-1.010,1.192,-0.224,-250.137,63.954,-51.695,0.0,159.0
169698,-0.625,-0.178,0.039,250.130,-59.664,57.092,0.0,162.0
169791,-1.076,0.563,-0.322,-250.137,100.527,-64.656,0.0,0.0
169884,-0.813,-0.065,-0.286,250.130,-47.573,74.099,0.0,0.0
169977,-1.271,0.302,-0.731,-250.137,117.886,-41.511,0.0,0.0
170071,-0.440,-0.173,-0.279,250.130,-68.969,111.557,0.0,0.0
170164,-0.946,0.212,-0.480,-250.137,86.206,-72.382,0.0,145.0
170257,-0.511,-0.135,-0.461,250.130,-103.817,89.435,0.0,0.0
170347,-1.216,0.115,-0.643,-250.137,53.595,-106.527,0.0,141.0
170440,-0.705,-0.125,-0.633,250.130,-71.809,78.962,0.0,0.0
170531,-0.887,-0.219,-0.533,-250.137,116.206,-118.977,0.0,154.0
170625,-0.625,-0.503,-0.960,250.130,-133.863,133.916,0.0,0.0
170713,-0.769,0.303,-0.578,-250.137,112.893,-104.298,0.0,101.0
170800,-0.731,-0.679,-0.165,250.130,-106.893,66.489,0.0,102.0
170891,-0.783,0.892,-1.011,-250.137,153.886,-163.000,0.0,103.0
170984,-0.994,-1.327,0.267,250.130,-152.916,6.412,0.0,0.0
171078,-0.740,1.472,-0.990,-250.137,90.244,-138.779,0.0,0.0
171171,-1.020,-0.835,0.111,250.130,-97.183,27.733,0.0,0.0
171265,-0.938,1.160,-1.114,-250.137,117.740,-133.840,0.0,0.0
171358,-0.931,-0.819,-0.022,250.130,-73.794,130.878,0.0,0.0
171445,-0.791,0.874,-0.628,-250.137,85.267,3.664,0.0,91.0
171533,-0.714,-0.823,0.481,250.130,-106.847,90.260,0.0,97.0
171637,-0.578,2.000,-0.726,-250.137,55.374,-19.847,0.0,0.0
171734,-0.978,-0.916,0.907,250.130,-96.183,34.908,0.0,0.0
171829,-0.786,2.000,-0.832,-250.137,59.779,-73.557,0.0,0.0
171920,-1.272,-1.501,0.969,139.290,-84.130,-29.534,0.0,120.0
172016,-0.396,2.000,-0.642,83.366,3.214,14.481,0.0,0.0
172111,-1.194,-1.250,0.786,-78.008,-71.969,-68.168,0.0,0.0
172208,0.016,2.000,-0.894,55.221,7.542,-50.130,0.0,0.0
172297,-1.195,-1.852,1.310,41.031,-63.809,-30.550,198.0,86.0
172393,-0.252,2.000,-0.830,-140.336,82.061,-45.321,0.0,0.0
172490,-0.810,-0.600,0.776,193.122,-49.237,-14.763,189.0,0.0
172585,-1.226,1.120,-0.148,-250.137,15.130,-23.511,181.0,0.0
172682,-1.175,0.047,0.708,-22.962,-91.359,64.015,0.0,0.0
172776,-0.899,0.454,0.529,-62.763,-146.733,81.786,167.0,0.0
172871,-0.463,0.439,0.466,-48.412,-155.458,85.107,0.0,0.0
172967,-0.170,0.219,0.655,-98.725,-82.557,50.603,0.0,0.0
173063,-0.134,0.102,0.896,-71.176,-31.282,31.847,0.0,0.0
173159,-0.115,0.030,0.962,-55.595,-16.305,12.603,0.0,0.0
173255,-0.081,0.016,0.967,-7.611,-6.473,-14.053,0.0,0.0
173353,-0.104,-0.019,0.898,-28.351,-1.137,-4.008,0.0,0.0
173448,-0.155,-0.003,0.948,-4.756,2.382,-13.519,166.0,0.0
173535,-0.141,-0.074,0.976,-9.824,14.275,-10.916,52.0,0.0
173623,-0.115,-0.097,0.989,-6.519,5.366,-13.473,51.0,0.0
173710,-0.082,-0.079,0.946,0.366,-4.695,-12.771,51.0,0.0
173797,-0.041,-0.109,0.922,0.901,-6.290,-4.794,49.0,0.0
173885,0.041,-0.110,0.920,5.901,-8.427,-1.351,58.0,0.0
173979,0.013,-0.053,0.999,7.870,-4.771,5.962,180.0,0.0
174069,-0.073,0.062,1.116,39.725,-12.527,6.023,43.0,0.0
174156,-0.135,0.139,0.986,34.618,-3.008,9.214,40.0,0.0
174242,-0.136,0.177,1.034,15.160,9.756,-4.298,37.0,0.0
174329,-0.195,0.219,0.981,21.176,0.252,-37.870,36.0,0.0
174415,-0.018,0.206,0.983,0.702,-2.550,-37.840,36.0,0.0
174502,-0.151,0.181,1.013,-17.679,-7.527,-103.504,37.0,0.0
174589,-0.091,0.169,0.985,-34.168,-14.397,-132.328,37.0,0.0
174681,-0.127,0.173,1.027,17.275,7.969,-107.252,128.0,0.0
174773,-0.126,0.168,1.035,-41.832,-0.641,-109.687,129.0,0.0
174868,-0.168,0.099,0.998,-7.931,13.000,-90.260,125.0,0.0
174960,-0.183,0.018,0.919,-7.267,4.695,-71.519,133.0,0.0
175051,-0.206,-0.071,0.966,-0.626,4.427,-65.061,125.0,0.0
175138,-0.330,-0.284,0.908,12.466,4.489,-67.687,38.0,0.0
175232,-0.073,0.114,0.958,-22.198,7.794,-53.771,144.0,0.0
175328,-0.181,-0.043,0.961,4.260,9.198,-31.588,0.0,0.0
175423,-0.191,-0.073,1.002,-0.733,7.870,-18.336,0.0,0.0
175519,-0.164,-0.069,0.994,8.092,2.420,-12.817,0.0,0.0
175616,-0.168,-0.043,0.972,4.832,-1.084,-7.344,0.0,0.0
175715,-0.178,-0.042,0.977,4.321,-2.687,-6.382,0.0,0.0
175810,-0.166,-0.062,0.994,3.634,-2.450,-5.664,0.0,0.0
175906,-0.167,-0.036,0.992,2.779,-5.481,-6.198,0.0,0.0
176003,-0.149,-0.026,0.975,2.183,-4.099,-6.099,0.0,0.0
176099,-0.140,-0.031,0.983,3.237,-3.580,-5.840,0.0,0.0
176194,-0.146,-0.026,0.990,1.008,-3.504,-3.313,0.0,0.0
176290,-0.144,-0.038,0.981,2.420,-2.824,-3.160,0.0,0.0
176387,-0.141,-0.028,0.993,-1.198,-3.626,-1.626,0.0,0.0
176483,-0.125,-0.028,0.985,0.962,-3.672,-0.351,0.0,0.0
176582,-0.113,-0.027,0.985,-0.267,-4.038,1.656,0.0,0.0
176678,-0.120,-0.034,0.989,0.763,-2.023,1.870,0.0,0.0
176774,-0.121,-0.031,0.989,0.244,-1.870,1.076,0.0,0.0
176870,-0.125,-0.025,0.984,-0.290,-2.107,1.038,0.0,0.0
176966,-0.111,-0.025,0.996,1.656,0.099,0.466,0.0,0.0
177062,-0.115,-0.031,1.001,-0.015,-0.107,-0.427,0.0,0.0
177159,-0.119,-0.033,0.988,0.573,0.115,-0.901,0.0,0.0
