Timestamp(ms),AccelX(g),AccelY(g),AccelZ(g),GyroX(deg/s),GyroY(deg/s),GyroZ(deg/s),DistanceLeft(cm),DistanceRight(cm)
301701,-0.099,-0.004,0.962,8.229,8.359,17.435,114.0,0.0
301787,-0.151,0.015,0.990,9.954,8.893,20.550,86.0,0.0
301878,-0.157,0.007,1.016,23.763,9.985,24.817,168.0,0.0
301955,-0.231,0.086,0.851,65.847,25.053,9.901,38.0,90.0
302041,-0.282,0.279,0.716,139.183,55.099,-26.481,0.0,75.0
302126,-0.603,0.399,0.372,180.939,84.466,-61.656,0.0,66.0
302213,-0.605,0.379,0.233,250.130,101.008,-86.519,0.0,97.0
302308,-1.020,0.879,-0.296,250.130,17.939,-97.351,0.0,0.0
302401,-0.673,1.349,-0.465,63.313,-27.107,-125.824,0.0,0.0
302491,-1.037,0.438,-0.241,-250.137,76.427,-146.496,0.0,160.0
302582,-1.220,-0.427,0.031,250.130,-104.267,13.634,0.0,158.0
302673,0.042,2.000,-1.267,-180.229,69.427,-29.733,0.0,175.0
302767,-1.600,-2.000,1.288,-104.511,-43.718,11.901,0.0,0.0
302860,0.588,2.000,-1.395,181.298,25.824,93.237,0.0,0.0
302953,-1.707,-2.000,1.661,28.053,-64.244,-0.649,0.0,0.0
303046,0.016,2.000,-1.791,-250.137,129.908,-66.206,0.0,0.0
303142,-1.197,-2.000,0.087,250.130,-148.725,127.260,0.0,0.0
303236,-0.796,0.673,-1.441,-250.137,158.542,-146.947,0.0,0.0
303329,-0.495,0.903,-1.261,250.130,-129.802,129.779,0.0,0.0
303422,-1.392,-1.842,0.626,-250.137,56.107,-72.916,0.0,0.0
303515,-0.115,2.000,-0.576,178.427,19.763,30.000,0.0,0.0
303608,-1.094,-0.760,0.553,-74.290,42.916,-20.122,0.0,0.0
303702,-0.802,0.916,-0.232,137.412,24.420,-21.115,0.0,0.0
303795,-1.227,0.290,0.080,-113.137,-6.618,-67.450,0.0,0.0
303891,-0.842,0.371,-0.410,250.130,-63.198,39.214,0.0,0.0
303984,-1.218,0.573,-0.861,-250.137,102.458,-30.092,0.0,0.0
304077,-0.901,-0.834,0.226,250.130,-113.519,117.710,0.0,0.0
304171,-0.741,1.369,-0.661,-250.137,73.702,9.878,0.0,0.0
304264,-0.891,-0.702,0.521,250.130,-123.305,67.802,0.0,0.0
304358,-0.754,1.963,-0.777,-231.160,76.183,-26.870,0.0,0.0
304451,-1.367,-1.281,0.857,250.130,-165.008,25.664,0.0,0.0
304544,-0.754,2.000,-1.054,-245.870,93.504,-38.122,0.0,0.0
304631,-0.946,-1.468,1.267,218.504,-153.504,16.000,0.0,96.0
304722,-0.608,2.000,-0.859,-226.450,71.924,-38.092,0.0,98.0
304809,-1.050,-1.191,1.449,159.893,-170.267,17.649,0.0,100.0
304898,-0.352,2.000,-0.897,-250.137,144.824,-27.947,0.0,103.0
304987,-1.333,-1.420,2.000,85.023,-250.137,39.069,0.0,116.0
305074,-0.294,2.000,-1.053,-141.595,13.206,140.809,175.0,125.0
305168,-0.941,-0.139,0.802,-250.137,-44.466,114.115,0.0,0.0
305261,1.364,0.862,-0.155,250.130,-152.748,217.573,0.0,0.0
305345,0.403,0.287,0.540,-250.137,150.962,-16.870,39.0,0.0
305441,0.022,-0.888,1.127,109.015,-225.115,79.817,0.0,0.0
305534,1.197,0.903,-0.052,-229.580,178.618,-20.550,0.0,0.0
305620,-0.012,-1.922,1.793,-243.137,-197.237,-68.160,55.0,0.0
305714,2.000,2.000,-1.267,250.130,115.840,54.870,0.0,0.0
305799,-0.731,-2.000,1.556,-250.137,-86.679,-161.504,51.0,0.0
305892,2.000,2.000,-1.661,250.130,13.069,129.405,0.0,0.0
305977,-0.247,-1.923,-0.081,-250.137,63.305,-133.641,52.0,0.0
306071,2.000,0.383,-1.592,250.130,-85.328,116.626,0.0,0.0
306156,0.013,-1.147,0.262,-250.137,129.053,-94.282,54.0,0.0
306252,2.000,0.047,-0.800,250.130,-50.008,112.435,0.0,0.0
306337,-0.652,-1.719,-0.214,-250.137,149.886,-119.405,56.0,0.0
306421,0.663,-0.588,-1.269,250.130,-250.137,48.298,29.0,0.0
306505,0.919,0.208,-0.580,-250.137,250.130,-148.229,33.0,0.0
306591,-0.369,-2.000,1.296,250.130,-232.992,-66.099,53.0,0.0
306684,1.631,2.000,-1.081,-250.137,193.260,-95.901,0.0,0.0
306769,-0.107,-2.000,2.000,250.130,-196.298,-21.802,55.0,0.0
306864,1.433,2.000,-1.404,-138.137,188.420,8.557,0.0,0.0
306952,-0.358,-2.000,2.000,94.244,-115.649,-9.725,55.0,0.0
307045,2.000,2.000,-1.736,250.130,-52.061,101.328,0.0,0.0
307136,-1.447,-1.412,1.081,-250.137,225.389,-93.519,159.0,0.0
307228,0.407,-0.270,-0.461,250.130,-250.137,40.092,169.0,0.0
307313,0.621,0.623,-0.256,-250.137,250.130,-125.427,38.0,0.0
307405,-0.153,-1.385,0.549,250.130,-250.137,-22.099,173.0,0.0
307497,0.559,1.354,-0.198,-250.137,248.824,-97.313,176.0,0.0
307590,0.035,-1.280,0.145,250.130,-250.137,51.962,185.0,0.0
307686,-0.125,0.338,-0.197,-250.137,199.847,-101.366,178.0,0.0
307778,2.000,0.336,-0.310,250.130,-52.779,130.534,184.0,0.0
307871,-1.341,-2.000,1.365,-250.137,-45.931,-160.053,185.0,0.0
307964,0.891,2.000,-1.200,-18.916,219.366,-4.214,0.0,0.0
308058,0.093,-2.000,1.723,250.130,-229.580,-24.977,188.0,0.0
308151,-0.354,1.189,-0.235,-250.137,126.664,-78.069,191.0,0.0
308244,2.000,1.049,-0.158,250.130,76.290,112.931,195.0,0.0
308338,0.069,-2.000,1.658,50.763,-162.275,-37.092,0.0,0.0
308431,-0.431,1.584,0.120,-250.137,129.198,-68.656,0.0,0.0
308529,2.000,0.343,0.300,250.130,9.809,41.305,0.0,0.0
308613,-0.222,-0.905,1.487,-250.137,-65.183,-118.519,36.0,0.0
308707,0.697,1.455,0.258,119.260,102.565,-37.305,0.0,0.0
308798,0.291,-0.918,1.067,119.977,-102.779,-75.168,171.0,0.0
308892,-0.124,1.065,0.139,-250.137,131.527,-111.489,0.0,0.0
308986,0.176,-0.519,0.251,250.130,-129.282,-27.679,0.0,0.0
309080,-0.320,1.256,0.317,-250.137,239.389,-174.779,0.0,0.0
309171,0.503,-0.448,-0.451,250.130,-195.328,-12.786,150.0,0.0
309264,-0.466,-0.118,-0.054,-250.137,250.130,-235.969,132.0,0.0
309351,-0.157,-0.334,-0.397,250.130,-115.542,-23.244,164.0,119.0
309441,-0.454,0.622,-0.128,-250.137,250.130,-250.137,132.0,0.0
309532,-0.939,-1.104,-1.334,250.130,-113.023,8.855,140.0,0.0
309622,-0.569,-0.109,-1.265,-250.137,201.084,-239.038,133.0,0.0
309716,0.146,0.047,-1.361,250.130,-13.649,133.863,0.0,0.0
309806,-1.454,-2.000,0.102,-250.137,15.969,-143.756,135.0,0.0
309900,0.713,2.000,-2.000,250.130,12.786,154.740,0.0,0.0
309997,-1.985,-2.000,1.298,-225.252,-54.191,-95.718,0.0,0.0
310091,0.831,2.000,-1.562,176.389,66.267,24.809,0.0,0.0
310184,-1.804,-2.000,2.000,-59.511,-73.260,-70.763,191.0,0.0
310278,-0.219,2.000,-1.447,-130.641,50.588,-33.786,0.0,0.0
310372,-1.359,-2.000,1.186,250.130,-109.969,19.321,0.0,0.0
310466,-0.823,2.000,-1.403,-250.137,129.679,-73.695,0.0,0.0
310560,-1.209,-2.000,1.280,250.130,-159.344,-28.015,0.0,0.0
310653,-1.092,2.000,-1.449,-250.137,125.344,-89.466,0.0,0.0
310746,-1.465,-2.000,1.105,250.130,-154.282,-39.679,155.0,0.0
310843,-0.487,2.000,-1.187,-61.511,109.931,-120.427,0.0,0.0
310937,-1.032,-2.000,1.448,250.130,-116.107,-66.328,0.0,0.0
311031,-1.465,2.000,-0.941,-250.137,79.473,-79.748,0.0,0.0
311126,0.342,-0.508,0.332,250.130,-18.702,27.924,0.0,0.0
311220,-1.381,0.009,-0.588,-250.137,-13.802,-116.321,0.0,0.0
311314,0.522,0.910,-0.286,250.130,148.534,80.397,0.0,0.0
311408,-1.058,-1.386,1.049,-250.137,-134.450,-131.214,0.0,0.0
311502,-0.583,2.000,-1.223,159.031,152.626,18.916,0.0,0.0
311601,-0.754,-2.000,0.877,187.389,-163.931,55.634,0.0,0.0
311695,-2.000,2.000,-1.457,-250.137,157.511,-122.519,0.0,0.0
311789,0.658,-0.960,-0.427,250.130,-31.191,217.214,0.0,0.0
311883,-1.548,0.047,-1.327,-250.137,125.496,-38.282,0.0,0.0
311977,0.644,0.576,-1.335,250.130,20.817,109.931,0.0,0.0
312072,-1.242,-0.874,-1.269,-250.137,-45.954,-154.344,0.0,0.0
312166,-1.497,0.790,-1.204,250.130,146.611,-98.260,0.0,0.0
312260,-0.639,-0.899,0.836,-250.137,-80.427,243.366,0.0,0.0
312354,-1.676,1.916,-1.110,250.130,58.893,151.916,0.0,0.0
312446,0.631,0.004,1.079,96.374,4.954,-69.237,0.0,103.0
312527,-0.432,1.450,-0.162,-250.137,77.893,250.130,50.0,107.0
312607,1.516,-0.703,0.710,92.374,103.481,137.053,38.0,107.0
312688,-1.067,1.799,-1.168,-219.000,143.779,241.397,44.0,116.0
312782,2.000,-1.840,1.096,97.863,60.031,74.389,0.0,0.0
312875,-1.549,1.852,-1.338,-195.473,162.130,250.130,171.0,0.0
312970,1.134,0.229,0.709,-56.359,15.229,-176.931,0.0,0.0
313064,1.751,-1.096,0.657,-59.290,11.794,39.229,0.0,0.0
313161,1.169,-0.586,0.563,-121.061,-17.611,25.122,0.0,0.0
313263,0.665,1.684,-0.267,-128.397,-19.557,73.038,0.0,0.0
313350,-0.198,1.874,-0.522,181.893,-5.214,-72.504,174.0,127.0
313442,0.187,0.400,0.336,-15.962,47.458,45.611,171.0,0.0
313521,-0.350,2.000,-0.703,244.603,-13.328,-91.534,26.0,127.0
313613,0.297,-0.446,0.389,-113.031,56.519,78.649,170.0,0.0
313692,-0.457,2.000,-1.552,247.206,5.046,2.237,25.0,131.0
313784,0.216,-0.357,0.463,-112.672,23.916,85.321,168.0,0.0
313875,-0.291,2.000,-1.123,7.763,3.542,52.733,169.0,0.0
313971,0.916,-0.758,0.936,-40.214,46.496,-9.504,0.0,0.0
314063,0.118,1.655,-0.213,-118.504,40.977,182.931,172.0,0.0
314157,1.412,-0.820,1.039,-16.847,-56.214,-187.313,0.0,0.0
314250,0.094,1.865,-0.189,-140.710,-28.420,168.443,0.0,0.0
314344,2.000,-1.992,1.127,81.145,-126.397,-101.061,0.0,0.0
314433,-0.511,2.000,-2.000,-250.137,-96.947,-44.076,172.0,157.0
314521,2.000,-2.000,1.272,-32.344,-55.924,-86.595,0.0,101.0
314610,-1.828,2.000,-2.000,250.130,-198.969,25.649,175.0,158.0
314703,2.000,-2.000,1.038,-135.504,-133.473,-27.771,175.0,160.0
314793,-0.799,2.000,-0.506,227.679,-85.947,52.733,178.0,156.0
314875,1.784,1.359,-0.637,-162.450,-191.099,-90.870,179.0,19.0
314956,-0.641,-0.954,-0.260,-250.137,-98.267,-4.618,25.0,150.0
315045,0.811,-0.738,-0.812,250.130,-209.947,171.366,174.0,150.0
315133,0.659,2.000,-1.717,-250.137,13.740,-249.336,176.0,124.0
315213,0.702,-0.709,0.176,250.130,-197.710,99.908,38.0,127.0
315301,0.364,2.000,-0.884,-250.137,42.023,-73.450,174.0,127.0
315394,0.630,-0.783,0.909,250.130,-102.634,69.931,172.0,153.0
315484,0.622,2.000,-1.081,-250.137,62.748,-68.725,173.0,161.0
315574,0.349,-0.777,1.234,242.000,-5.427,-6.221,172.0,163.0
315664,0.434,0.850,-0.115,-250.137,63.992,52.473,171.0,167.0
315756,0.389,0.341,0.667,121.748,-130.168,-75.931,171.0,0.0
315840,0.628,0.674,0.028,-132.000,116.389,90.344,36.0,0.0
315933,0.358,0.414,0.918,-74.221,-113.786,-67.206,0.0,0.0
316025,0.512,0.490,-0.377,177.397,-54.321,109.748,0.0,179.0
316119,0.553,0.841,0.368,11.061,17.855,18.565,0.0,178.0
316215,0.558,2.000,-0.971,-250.137,-31.427,-164.099,0.0,0.0
316298,0.954,-0.914,0.380,250.130,-79.519,161.626,23.0,0.0
316392,0.840,2.000,-0.973,-246.878,7.397,-161.519,0.0,0.0
316485,-0.079,-1.625,1.520,-250.137,-49.733,-5.573,0.0,0.0
316579,1.047,0.404,-0.881,250.130,-103.878,76.947,0.0,0.0
316672,0.214,1.024,-1.067,-250.137,4.954,-98.290,173.0,0.0
316764,0.945,-1.006,0.360,250.130,-19.656,72.824,171.0,0.0
316847,0.346,0.907,-1.197,-250.137,35.397,-115.985,25.0,0.0
316942,1.130,-0.821,0.456,250.130,16.733,62.275,170.0,0.0
317022,-0.299,0.604,-0.390,-250.137,-17.794,-12.985,26.0,131.0
317112,1.199,-0.273,0.541,250.130,-31.580,31.588,0.0,131.0
317192,-0.583,1.479,-0.869,-250.137,49.145,-31.542,25.0,129.0
317284,0.665,-0.527,0.604,250.130,11.130,137.115,172.0,0.0
317363,0.373,2.000,-1.115,-250.137,12.000,-205.947,24.0,127.0
317457,0.306,-1.767,1.344,200.160,-27.466,168.916,0.0,0.0
317545,0.562,2.000,-1.566,-57.992,-66.099,-129.947,173.0,129.0
317639,0.285,-1.860,1.430,-174.290,4.427,51.382,0.0,0.0
317730,0.668,2.000,-1.162,250.130,-49.290,-81.939,172.0,127.0
317824,0.254,-0.607,0.344,-135.893,-49.725,127.275,0.0,0.0
317912,0.900,2.000,-0.176,95.290,-26.489,-249.153,170.0,131.0
318006,0.718,-0.657,0.825,-116.076,-28.794,79.824,0.0,0.0
318086,0.227,2.000,-0.668,250.130,-20.473,-170.084,37.0,128.0
318179,0.224,-0.439,0.781,-199.008,36.725,140.702,172.0,0.0
318259,0.125,2.000,-0.311,208.389,-95.809,-234.336,31.0,128.0
318342,0.258,-0.329,0.863,-106.603,-34.015,135.267,21.0,0.0
318433,0.801,0.707,0.167,250.130,-92.611,-109.840,171.0,127.0
318517,-0.674,-0.112,0.424,-250.137,-32.763,81.718,23.0,0.0
318611,0.594,-0.451,0.361,250.130,-87.290,56.786,0.0,0.0
318696,0.025,1.533,-0.640,-250.137,-1.328,-206.626,37.0,0.0
318788,0.759,-1.017,0.502,250.130,-37.962,120.527,171.0,0.0
318880,0.043,2.000,-1.115,-250.137,15.710,-175.481,172.0,0.0
318972,0.682,-1.624,0.874,227.389,-47.931,156.252,175.0,0.0
319066,-0.887,2.000,-1.146,52.595,-23.267,-147.382,175.0,0.0
319162,1.084,-0.996,0.720,86.145,16.282,62.275,0.0,0.0
319250,-0.515,2.000,-1.426,-27.191,28.603,-10.679,177.0,122.0
319344,0.782,-0.757,0.497,250.130,-17.107,101.122,0.0,0.0
319432,0.690,2.000,-2.000,-250.137,25.260,-183.275,176.0,124.0
319516,0.741,-1.968,1.545,250.130,39.542,81.206,23.0,0.0
319604,-0.087,2.000,-1.147,250.130,-42.550,8.885,174.0,122.0
319698,0.678,0.761,0.015,-250.137,-17.817,-18.817,0.0,0.0
319782,-0.469,-1.044,0.896,-250.137,-32.626,-85.160,23.0,0.0
319873,0.935,0.057,-0.173,250.130,-9.664,65.099,0.0,129.0
319960,-0.486,-0.479,0.445,-250.137,-57.977,-55.260,25.0,0.0
320054,0.694,0.530,0.091,250.130,-75.305,68.595,0.0,0.0
320138,0.015,0.285,0.662,-250.137,22.092,56.855,32.0,0.0
320228,0.416,-0.051,0.730,246.053,1.153,-29.198,0.0,130.0
320316,0.175,1.195,-0.146,-158.702,7.328,27.328,172.0,128.0
320401,0.343,0.693,0.311,-204.992,20.718,-80.664,30.0,0.0
320493,-0.107,0.260,0.677,249.649,-37.260,-9.290,173.0,0.0
320586,0.823,1.565,-0.493,210.893,-22.076,71.771,175.0,0.0
320670,-0.114,0.907,-0.851,-250.137,110.160,-116.008,31.0,0.0
320766,0.751,-0.390,0.455,250.130,23.481,141.809,178.0,0.0
320856,-0.185,1.666,-0.260,-144.198,19.771,22.107,175.0,126.0
320950,0.512,0.168,0.471,-18.046,33.046,92.443,0.0,0.0
321039,-0.252,1.831,0.000,183.924,-8.489,-104.427,0.0,129.0
321133,0.555,0.462,0.366,-154.886,60.687,120.847,0.0,0.0
321227,0.376,-0.119,1.274,156.328,16.198,-121.908,0.0,0.0
321321,0.500,1.053,0.364,74.718,9.023,145.992,0.0,0.0
321414,0.375,0.467,0.241,30.023,-31.824,-171.679,171.0,0.0
321501,-1.163,-0.170,0.422,-250.137,35.427,-96.855,29.0,186.0
321582,0.188,-0.718,0.078,250.130,9.176,-250.137,45.0,118.0
321674,-1.221,0.358,-0.634,-250.137,7.206,-250.137,0.0,167.0
321766,-0.528,-0.312,0.526,250.130,167.160,-146.099,0.0,157.0
321860,-1.667,0.272,-0.067,250.130,-181.992,-177.473,0.0,0.0
321951,-1.989,1.090,-2.000,-250.137,186.473,-58.954,0.0,151.0
322043,-0.966,-1.734,0.334,250.130,-104.809,77.702,0.0,155.0
322136,-1.013,2.000,-0.650,-250.137,82.290,37.733,0.0,160.0
322231,-0.840,-1.450,0.544,250.130,-99.000,51.214,0.0,167.0
322325,-1.446,1.722,-0.573,-250.137,75.420,16.176,0.0,197.0
322419,-0.035,-0.313,0.218,250.130,-30.031,46.855,0.0,0.0
322513,-1.471,0.188,-0.688,-250.137,23.794,-71.924,0.0,193.0
322608,0.512,0.735,-0.332,250.130,66.412,86.886,0.0,0.0
322697,-1.326,-1.085,0.308,-250.137,-76.931,-143.206,0.0,107.0
322791,-0.072,1.374,-0.892,250.130,15.290,91.244,0.0,0.0
322880,-1.494,-1.903,0.217,-250.137,-41.099,-139.099,0.0,113.0
322974,0.302,1.723,-1.121,250.130,67.985,103.389,0.0,0.0
323067,-1.492,-2.000,1.390,-193.473,-103.901,-103.435,0.0,123.0
323163,0.052,2.000,-1.840,209.084,104.634,77.176,0.0,0.0
323253,-1.370,-2.000,1.534,-180.557,-49.595,-64.939,0.0,134.0
323347,0.044,2.000,-1.758,250.130,123.557,50.450,0.0,0.0
323438,-1.389,-2.000,1.484,-146.985,-26.267,-43.771,0.0,146.0
323533,0.271,1.241,-0.902,250.130,83.496,36.802,0.0,0.0
323624,-0.976,0.368,-0.645,-250.137,65.275,-133.534,0.0,156.0
323719,-0.721,-0.417,-0.823,250.130,-96.679,73.901,0.0,0.0
323817,-1.315,0.145,-1.533,-250.137,203.824,-94.229,0.0,0.0
323911,-0.724,-0.699,-0.392,250.130,-117.641,187.939,0.0,0.0
324005,-1.402,0.449,-1.175,-250.137,142.649,-12.221,0.0,0.0
324101,0.022,-0.224,-0.623,250.130,-120.008,190.573,0.0,0.0
324195,-0.981,-0.129,-0.430,-250.137,62.870,-56.153,0.0,0.0
324283,0.187,0.706,-1.016,250.130,-112.580,154.695,0.0,98.0
324370,-1.066,-0.492,-0.319,-250.137,86.618,-103.260,0.0,53.0
324458,0.196,0.082,-1.581,250.130,-117.626,145.840,0.0,101.0
324545,-0.526,-0.409,-0.808,-250.137,181.084,-223.603,0.0,57.0
324637,-0.699,-0.343,-1.267,250.130,-142.534,79.435,0.0,102.0
324732,-0.854,-0.084,0.010,-250.137,83.855,-177.412,0.0,101.0
324826,-0.334,1.119,-0.344,250.130,-60.031,-47.176,0.0,0.0
324919,-1.056,0.241,0.013,-167.908,80.924,-90.679,0.0,0.0
325012,-0.625,0.511,0.372,250.130,-167.985,90.954,0.0,0.0
325106,0.360,2.000,-0.517,-14.565,92.466,-34.046,0.0,0.0
325190,-2.000,0.007,-1.153,-250.137,8.481,-43.260,0.0,45.0
325277,-0.760,-0.689,-1.166,250.130,-186.000,248.252,0.0,88.0
325368,-1.197,1.114,-1.633,-250.137,211.725,-40.710,0.0,99.0
325456,-0.891,-1.252,0.547,250.130,-225.206,88.450,0.0,109.0
325542,-1.359,2.000,-1.416,-250.137,101.557,-62.603,0.0,68.0
325628,-1.061,-1.533,0.765,250.130,-250.137,48.618,0.0,74.0
325715,-0.769,2.000,-1.561,-250.137,134.397,-151.000,0.0,76.0
325803,-0.980,-1.797,1.278,250.130,-188.954,-25.229,0.0,81.0
325889,-0.789,2.000,-1.580,-250.137,134.786,-155.397,0.0,81.0
325979,-1.077,-2.000,1.743,250.130,-196.786,-22.275,0.0,131.0
326068,-0.059,2.000,-1.492,-250.137,124.672,-103.382,187.0,82.0
326160,-1.207,-2.000,2.000,29.779,-145.916,-39.977,0.0,181.0
326254,0.342,2.000,-1.141,-53.053,98.305,-57.046,0.0,0.0
326347,-1.211,-2.000,1.982,174.954,-154.382,-28.000,0.0,0.0
326436,-0.786,2.000,-1.223,-250.137,143.046,-80.198,188.0,127.0
326530,-1.152,-1.320,1.552,171.794,-118.183,13.595,0.0,0.0
326618,-0.632,2.000,0.025,26.023,36.153,-5.771,181.0,122.0
326706,0.688,0.424,0.368,143.122,-54.832,112.344,177.0,125.0
326799,-0.548,0.781,0.013,-250.137,110.992,-15.145,0.0,0.0
326894,0.481,-0.708,0.279,250.130,-186.916,121.977,0.0,161.0
326980,-0.587,1.011,-0.294,-250.137,185.756,-95.496,0.0,74.0
327071,-0.380,-1.375,0.315,250.130,-250.137,51.580,0.0,164.0
327163,-0.116,2.000,-0.887,-250.137,239.954,-180.359,0.0,165.0
327249,-0.389,-2.000,1.987,250.130,-243.275,-30.832,0.0,66.0
327342,-0.189,2.000,-0.889,-98.389,157.962,-61.756,0.0,164.0
327427,-0.541,-2.000,1.899,44.870,-196.290,-54.130,0.0,62.0
327519,-0.223,2.000,-0.783,-28.832,204.656,-67.634,0.0,165.0
327607,-0.757,-2.000,2.000,56.809,-250.137,-13.908,0.0,58.0
327693,0.316,2.000,-0.739,-37.611,185.015,-23.855,0.0,58.0
327779,-0.735,-1.906,1.638,-245.588,-215.710,-72.321,0.0,56.0
327865,1.440,2.000,-1.066,250.130,194.229,38.000,0.0,68.0
327950,-1.423,-0.489,0.147,-250.137,-95.244,-74.122,0.0,54.0
328042,2.000,1.386,-0.414,250.130,158.260,94.893,0.0,161.0
328127,-1.241,-0.248,0.116,-250.137,-52.977,-38.168,0.0,57.0
328214,1.970,0.842,-0.181,250.130,93.779,98.802,0.0,72.0
328302,-0.884,0.328,0.202,-250.137,-17.817,-46.351,0.0,64.0
328394,1.646,-0.345,0.189,250.130,-39.641,100.511,0.0,162.0
328481,-0.499,1.560,0.114,-250.137,75.260,-128.641,0.0,77.0
328572,0.391,-0.805,0.599,250.130,-127.427,70.260,0.0,161.0
328659,-0.108,1.358,-0.344,-250.137,238.725,-166.344,0.0,78.0
328747,-0.787,-1.625,2.000,195.153,-217.183,20.595,0.0,75.0
328835,1.794,2.000,-0.372,178.664,133.588,-24.351,168.0,136.0
328922,-1.420,-0.469,0.591,-250.137,143.084,-97.603,0.0,76.0
329012,-0.031,-0.150,-0.271,250.130,-244.382,64.221,0.0,128.0
329096,-0.156,1.478,0.103,-250.137,250.130,-168.718,50.0,138.0
329183,-0.614,-1.473,1.849,250.130,-202.458,-30.313,0.0,71.0
329271,0.869,2.000,-0.772,161.908,140.626,-35.374,185.0,117.0
329358,-1.304,-0.538,-0.005,-250.137,92.008,-61.168,0.0,68.0
329446,0.198,-0.420,-2.000,250.130,-63.565,54.038,0.0,109.0
329533,-0.557,-0.349,-1.144,-250.137,248.137,-191.481,0.0,72.0
329623,-0.172,-0.896,-0.461,250.130,-64.924,108.290,0.0,127.0
329712,-0.428,1.176,-1.240,-250.137,170.756,-174.328,0.0,127.0
329805,-0.583,-1.008,0.320,250.130,-108.053,61.710,0.0,125.0
329892,-0.740,1.392,-0.960,-250.137,124.176,-143.947,0.0,78.0
329979,-0.808,-0.875,0.472,250.130,-115.786,53.618,0.0,79.0
330066,-0.918,1.882,-0.918,-250.137,127.183,-82.260,0.0,81.0
330153,-0.978,-1.829,1.244,250.130,-126.527,-32.725,0.0,79.0
330241,-1.091,2.000,-1.396,-250.137,177.076,-5.427,0.0,82.0
330328,-1.244,-2.000,1.555,71.412,-99.802,-64.000,0.0,83.0
330418,1.137,2.000,-1.500,250.130,109.092,99.840,0.0,135.0
330501,-1.335,-2.000,0.996,-250.137,3.992,-117.053,51.0,91.0
330588,0.280,0.710,-0.582,250.130,5.191,102.336,0.0,93.0
330676,-1.115,0.262,-0.481,-250.137,170.786,-51.466,0.0,101.0
330765,-0.474,-0.599,0.344,250.130,-33.229,101.618,0.0,105.0
330859,-1.241,2.000,-1.506,-250.137,236.092,-43.511,0.0,0.0
330953,-0.906,-1.477,1.118,250.130,-114.160,110.275,0.0,0.0
331039,-0.899,2.000,-2.000,-250.137,225.252,5.511,0.0,59.0
331127,-1.481,-2.000,1.446,-156.687,-96.450,-4.779,0.0,104.0
331217,0.501,2.000,-1.458,250.130,51.412,109.160,0.0,66.0
331311,-1.050,-0.363,0.297,-250.137,2.130,24.542,0.0,0.0
331400,-0.221,-0.082,-0.653,250.130,-23.947,68.405,0.0,102.0
331488,-0.249,0.381,-0.532,-250.137,122.084,42.664,196.0,106.0
331578,-0.779,0.097,0.580,250.130,93.458,-45.718,0.0,118.0
331666,-0.560,1.715,-0.576,-250.137,192.000,23.115,199.0,102.0
331760,-1.177,-1.371,1.483,-72.397,-74.786,-15.267,0.0,0.0
331848,0.938,2.000,-1.354,194.664,71.458,1.458,198.0,101.0
331938,-1.468,-0.695,0.288,-250.137,131.023,-107.725,132.0,0.0
332036,0.044,0.182,-0.824,250.130,-132.191,89.573,0.0,0.0
332124,-0.860,-0.317,-0.644,-250.137,198.046,-108.504,130.0,161.0
332218,-0.546,-1.005,-0.061,250.130,-185.740,69.687,0.0,0.0
332312,-0.659,1.437,-1.104,-250.137,228.405,-129.534,0.0,0.0
332402,-0.596,-1.084,0.891,250.130,-123.695,44.603,127.0,0.0
332492,-1.044,1.600,-0.329,-250.137,75.565,92.351,130.0,0.0
332578,-0.041,-0.763,1.005,180.008,-56.779,17.237,126.0,120.0
332664,-0.833,2.000,-0.281,-229.832,72.122,14.305,135.0,122.0
332752,-0.691,-0.943,1.285,55.053,-155.328,7.840,128.0,110.0
332834,1.146,2.000,-0.551,250.130,120.099,24.229,57.0,129.0
332918,-1.291,-0.227,0.052,-250.137,109.427,-87.298,130.0,85.0
333006,0.030,-0.782,-0.597,250.130,-207.931,76.992,179.0,125.0
333091,-0.795,1.562,-1.336,-250.137,187.733,-200.137,122.0,108.0
333173,0.390,-2.000,1.242,250.130,-148.427,4.595,116.0,71.0
333267,-1.304,2.000,-1.120,118.886,-82.870,-147.366,0.0,0.0
333351,-0.707,-2.000,1.391,-125.855,-50.580,33.626,119.0,100.0
333438,-1.238,2.000,-0.412,170.641,-44.519,-29.695,128.0,76.0
333520,-0.427,-0.467,0.695,-135.206,-59.260,90.496,122.0,73.0
333604,-0.024,1.566,-0.076,183.305,50.985,-132.496,128.0,74.0
333687,-1.028,-0.719,1.257,-250.137,-74.595,62.802,125.0,76.0
333770,1.010,0.159,0.234,250.130,-73.855,91.053,131.0,74.0
333853,-0.778,1.065,0.026,-250.137,177.947,-85.924,129.0,74.0
333936,-0.735,-1.358,1.207,250.130,-250.137,78.015,130.0,73.0
334025,1.888,2.000,-1.265,250.130,46.802,-4.214,179.0,117.0
334118,-1.788,-0.662,0.007,-250.137,163.290,-79.160,134.0,0.0
334202,-0.312,-0.406,-1.043,250.130,-250.137,92.916,143.0,69.0
334290,-0.213,1.481,-0.920,-250.137,242.359,-199.939,0.0,86.0
334374,-1.053,-2.000,1.748,250.130,-170.672,-25.557,141.0,86.0
334464,0.678,2.000,-1.118,89.458,107.412,-13.733,187.0,115.0
334555,-1.697,-1.995,1.066,-250.137,-28.481,-123.511,143.0,0.0
334644,0.667,0.618,-1.233,250.130,-106.420,130.634,185.0,114.0
334735,-0.718,0.097,-0.439,-250.137,211.015,-152.565,147.0,0.0
334828,-0.528,-0.761,-0.476,250.130,-216.664,114.397,0.0,118.0
334922,-0.139,1.684,-1.047,-250.137,189.527,-174.527,0.0,0.0
335014,-0.966,-1.690,1.007,250.130,-212.321,28.198,154.0,0.0
335109,0.037,2.000,-1.174,-250.137,155.718,-141.160,0.0,0.0
335201,-1.053,-2.000,1.828,250.130,-159.466,-4.023,159.0,0.0
335288,0.116,2.000,-1.167,41.664,51.931,2.420,189.0,80.0
335380,-1.167,-1.246,1.085,-250.137,-23.710,-84.328,170.0,0.0
335475,-0.011,2.000,-1.403,219.008,80.412,2.443,0.0,0.0
335569,-1.468,-2.000,1.993,-79.641,-106.099,-66.000,0.0,0.0
335661,-0.095,2.000,-0.949,-105.939,104.130,-31.489,0.0,86.0
335755,-1.545,-2.000,2.000,-106.893,-94.145,-79.786,197.0,0.0
335849,1.081,2.000,-1.014,-15.000,136.702,-27.641,0.0,0.0
335943,-1.032,-2.000,1.939,149.336,-146.802,-67.405,0.0,0.0
336045,-0.485,2.000,-0.649,-250.137,86.275,-23.153,0.0,0.0
336138,-0.815,-0.832,1.137,250.130,-158.748,11.053,0.0,0.0
336226,1.306,2.000,-1.473,250.130,-187.786,78.977,187.0,111.0
336319,-1.325,-1.154,-0.116,-250.137,229.107,-90.076,0.0,0.0
336411,0.792,0.667,-0.665,250.130,-90.725,108.840,0.0,118.0
336504,-0.774,-0.519,0.311,-250.137,92.802,-102.344,0.0,0.0
336593,0.283,0.052,-0.337,250.130,-77.557,81.664,0.0,118.0
336681,-0.289,1.535,-0.150,-250.137,104.794,-54.985,189.0,115.0
336770,-0.436,-0.661,0.959,250.130,-108.252,28.817,0.0,112.0
336858,0.397,2.000,-1.285,-250.137,159.733,-124.962,0.0,110.0
336952,-1.106,-1.865,1.762,250.130,-70.840,-16.802,0.0,0.0
337040,-0.031,2.000,-1.445,-250.137,209.153,-41.672,196.0,108.0
337136,-0.874,-2.000,1.596,83.771,-55.489,-32.458,0.0,0.0
337223,1.300,2.000,-1.257,250.130,81.038,33.931,187.0,107.0
337311,-0.674,-1.913,0.887,-250.137,77.244,-69.886,0.0,94.0
337399,-0.346,1.661,0.074,250.130,-141.015,122.840,0.0,105.0
337490,-0.274,0.112,0.809,-250.137,-28.031,64.107,0.0,151.0
337582,-0.200,0.301,0.885,-15.733,-47.840,93.588,0.0,161.0
337675,-0.008,-0.114,0.841,-29.099,-34.977,57.099,0.0,0.0
337760,-0.134,0.064,0.919,-18.878,2.641,20.023,46.0,0.0
337845,-0.078,0.031,0.964,-17.115,25.641,16.496,45.0,0.0
337932,-0.041,0.068,0.981,4.290,18.267,4.412,44.0,0.0
338017,-0.094,0.144,0.994,0.038,7.855,2.366,45.0,0.0
338101,-0.062,0.195,0.978,-1.092,2.679,8.634,44.0,0.0
338186,0.024,0.089,0.972,9.435,-2.679,16.099,44.0,0.0
338271,0.018,0.088,1.010,6.290,-5.824,13.412,45.0,0.0
338355,0.010,0.125,1.006,6.305,-6.015,9.191,45.0,0.0
338440,0.042,0.138,0.958,4.435,-10.763,20.290,43.0,0.0
338524,-0.112,0.008,0.962,76.107,8.328,12.626,45.0,0.0
338618,-0.144,-0.068,0.484,250.130,28.733,-4.588,0.0,0.0
338708,0.013,0.438,-0.233,250.130,247.664,-129.244,192.0,107.0
338802,-1.773,1.376,0.139,-58.168,45.954,-250.137,0.0,0.0
338895,-1.229,-0.137,-0.844,250.130,-235.962,20.076,0.0,0.0
338990,-0.216,2.000,-2.000,-250.137,227.511,-250.137,0.0,0.0
339080,-1.656,-2.000,1.744,250.130,-107.023,-46.847,0.0,141.0
339174,0.548,2.000,-1.763,28.908,0.481,-0.527,0.0,0.0
339264,-1.812,-2.000,1.551,3.290,7.924,-32.656,0.0,147.0
339358,0.132,2.000,-1.454,250.130,-65.183,78.679,0.0,0.0
339449,-1.667,-2.000,0.396,-250.137,72.817,-37.519,0.0,158.0
339546,-0.430,0.514,-1.202,250.130,-220.069,163.115,0.0,0.0
339638,-1.007,-0.510,-1.283,-250.137,202.198,-118.710,0.0,168.0
339732,-0.781,0.529,-0.748,250.130,-217.870,121.443,0.0,0.0
339825,-1.188,-0.658,-0.367,-250.137,185.458,-77.756,0.0,0.0
339919,-0.472,1.168,-0.711,250.130,-206.176,126.573,0.0,0.0
340007,-1.540,-1.385,0.775,-250.137,100.252,-22.237,0.0,92.0
340094,0.167,2.000,-0.739,250.130,-149.496,105.351,0.0,93.0
340189,-1.597,-0.540,0.532,-250.137,36.565,-35.023,0.0,0.0
340280,1.038,2.000,-1.241,217.924,-66.321,132.924,0.0,104.0
340374,-1.548,-2.000,2.000,-4.794,-112.038,33.122,0.0,0.0
340468,0.057,2.000,-2.000,-250.137,222.603,-78.611,0.0,0.0
340561,0.381,1.661,-0.391,250.130,-135.176,108.466,0.0,0.0
340653,-1.102,-2.000,1.728,148.977,-76.137,14.771,153.0,0.0
340744,-0.344,-0.030,-0.058,-250.137,149.145,-57.122,151.0,0.0
340836,0.385,1.396,0.186,111.107,-66.626,-13.908,154.0,0.0
340929,-0.815,-1.521,1.176,219.565,-66.435,8.107,0.0,0.0
341023,-0.642,-0.729,0.586,-250.137,126.305,-42.756,0.0,0.0
341117,0.849,1.155,0.023,151.412,-78.260,27.588,160.0,0.0
341203,-0.789,-2.000,1.210,-62.626,36.679,52.496,57.0,0.0
341289,0.333,0.942,0.146,-171.886,35.382,42.282,65.0,0.0
341376,-1.017,-2.000,0.916,-115.015,-43.206,74.809,51.0,0.0
341460,0.496,0.447,0.005,250.130,-197.076,-47.420,55.0,0.0
341545,-1.219,-2.000,0.823,-250.137,98.099,174.351,43.0,0.0
341632,-0.607,-0.808,0.357,250.130,-237.511,-199.290,49.0,0.0
341716,-1.376,-2.000,0.285,-250.137,185.641,125.221,43.0,0.0
341805,0.241,0.892,-0.248,250.130,-187.382,-95.168,50.0,0.0
341890,-1.265,-1.214,0.244,-250.137,196.718,55.366,38.0,0.0
341976,-1.477,-1.105,-0.509,250.130,-250.137,-216.069,63.0,0.0
342063,-1.120,0.456,-0.726,-250.137,250.130,-92.863,65.0,0.0
342156,-1.594,-1.651,-0.531,250.130,-86.702,-146.679,0.0,0.0
342250,-1.615,-1.199,-0.823,-250.137,250.130,-207.122,0.0,0.0
342341,0.253,2.000,-0.950,250.130,1.221,5.977,143.0,0.0
342427,-1.024,-2.000,1.494,250.130,-5.626,30.595,57.0,0.0
342520,-0.200,2.000,-0.935,-250.137,153.405,16.641,141.0,0.0
342611,-0.913,-0.289,-0.354,250.130,-89.863,124.069,141.0,0.0
342703,-1.213,-1.895,1.246,-250.137,34.267,-73.779,140.0,0.0
342793,-0.418,1.703,-0.095,148.534,-64.954,16.809,146.0,0.0
342886,-0.873,-0.244,0.780,246.901,-130.748,42.687,175.0,0.0
342978,-0.730,1.304,-0.731,-250.137,112.206,-65.809,159.0,0.0
343071,-0.732,0.130,-0.432,250.130,-132.626,91.542,196.0,0.0
343165,0.247,2.000,-0.862,-193.031,78.740,-48.756,0.0,0.0
343258,-1.003,-1.644,1.517,12.084,-38.046,-32.809,156.0,0.0
343355,-0.267,2.000,-1.216,-250.137,155.901,-71.969,0.0,0.0
343446,-1.250,-2.000,1.331,250.130,-146.702,30.901,155.0,0.0
343540,-0.577,2.000,-1.140,-250.137,51.603,-0.733,0.0,0.0
343634,-1.024,-0.958,0.733,250.130,-110.947,33.580,193.0,0.0
343729,-0.470,1.230,-0.072,-45.382,-52.786,18.710,0.0,0.0
343823,-0.717,0.677,0.359,-14.672,-20.756,4.947,0.0,0.0
343911,-0.273,0.926,0.214,112.137,-53.802,10.008,0.0,104.0
344005,-0.383,0.348,0.405,-250.137,73.771,-50.023,0.0,0.0
344102,-0.522,0.580,0.315,250.130,-47.221,-2.344,0.0,0.0
344197,-0.555,0.388,0.465,-146.847,76.542,-56.198,0.0,0.0
344291,-0.755,0.235,0.445,249.863,-41.802,-46.336,0.0,0.0
344385,-0.685,1.580,-0.667,250.130,-56.702,-46.122,0.0,0.0
344479,-0.845,0.127,-0.474,-250.137,123.710,-107.168,0.0,0.0
344573,-1.295,-1.221,0.890,250.130,-94.168,-68.099,0.0,0.0
344668,-0.219,2.000,-1.840,250.130,-75.649,108.756,0.0,0.0
344762,-0.694,-1.741,-0.494,-250.137,248.237,-225.481,0.0,0.0
344856,-2.000,-0.242,0.960,250.130,-208.053,-228.450,0.0,0.0
344953,-2.000,2.000,0.293,248.260,-250.137,183.954,0.0,0.0
345048,-1.816,0.439,-0.486,64.725,-250.137,250.130,0.0,0.0
345142,-0.514,0.658,-1.745,89.634,-22.229,250.130,0.0,0.0
345236,-0.818,0.248,-0.876,167.863,250.130,250.130,0.0,0.0
345321,-1.456,-0.441,0.401,-250.137,250.130,18.061,37.0,0.0
345414,-2.000,-1.779,0.552,250.130,121.405,-250.137,182.0,0.0
345507,-2.000,2.000,-2.000,-250.137,250.130,-213.649,181.0,0.0
345602,-2.000,-2.000,-2.000,250.130,113.748,-156.710,0.0,0.0
345700,0.037,2.000,-2.000,-250.137,140.023,-250.137,0.0,0.0
345784,-1.250,-1.282,1.095,250.130,4.954,-13.176,27.0,0.0
345878,-0.072,0.260,-0.915,250.130,-96.107,60.260,0.0,0.0
345973,-0.285,2.000,-1.616,-250.137,166.489,-78.344,0.0,0.0
346057,-2.000,-1.583,0.653,-250.137,-154.534,155.412,17.0,0.0
346151,-1.490,0.347,-0.664,250.130,-81.824,250.130,0.0,0.0
346246,-2.000,0.528,-2.000,-250.137,143.786,152.145,0.0,0.0
346331,-2.000,-1.731,0.579,-250.137,-200.977,-58.939,30.0,0.0
346425,-2.000,-0.885,-1.490,250.130,-250.137,64.504,191.0,0.0
346516,0.937,1.073,-2.000,-250.137,250.130,9.107,196.0,0.0
346602,-0.781,-1.655,0.569,-223.450,-41.237,-28.321,58.0,0.0
346687,0.924,0.827,-1.833,250.130,-250.137,122.702,32.0,0.0
346772,-0.100,-0.084,-0.468,-250.137,250.130,-13.046,31.0,0.0
346857,-0.988,-1.914,1.914,156.847,91.992,-53.542,30.0,0.0
346939,-1.179,-0.073,-1.213,250.130,-170.969,-168.939,58.0,117.0
347033,0.153,1.978,-1.134,-250.137,250.130,-250.137,0.0,0.0
347118,-2.000,-2.000,1.490,132.916,56.435,-176.954,26.0,0.0
347216,-0.325,0.000,-2.000,250.130,-221.519,222.489,0.0,0.0
347310,-2.000,-0.717,-1.343,-250.137,244.847,-246.603,178.0,0.0
347404,0.867,-0.192,-1.759,250.130,-204.282,190.718,0.0,0.0
347497,-1.587,-1.502,-0.017,-250.137,166.458,-78.779,177.0,0.0
347598,-0.423,0.613,-0.832,250.130,-152.092,132.473,0.0,0.0
347692,-1.038,0.385,-0.361,-250.137,109.542,-4.069,194.0,0.0
347785,-1.050,-0.491,0.333,250.130,-131.450,30.504,194.0,0.0
347878,-1.055,1.704,-0.582,-250.137,66.595,-5.901,0.0,0.0
347973,-0.941,-0.982,0.995,-63.885,-39.908,-25.809,176.0,0.0
348065,-0.975,1.026,0.282,43.786,-93.504,-10.038,177.0,0.0
348157,-0.721,0.528,0.630,-42.176,-92.763,5.718,175.0,0.0
348249,-0.506,0.309,0.776,-84.939,-81.634,-4.031,174.0,0.0
348334,-0.339,0.071,0.888,-25.840,-75.511,-43.679,51.0,0.0
348419,-0.259,0.088,0.780,-18.084,-58.321,-47.420,46.0,0.0
348504,-0.257,0.023,0.829,1.275,-23.275,-48.481,45.0,0.0
348588,-0.259,0.141,0.852,-0.420,-3.153,-39.405,44.0,0.0
348673,-0.309,-0.033,0.952,9.061,-1.427,-34.740,42.0,0.0
348760,-0.316,-0.079,0.954,1.252,0.244,-32.779,42.0,0.0
348844,-0.310,-0.048,0.937,10.542,-14.611,-31.580,41.0,0.0
348929,-0.297,-0.070,0.929,11.748,-11.542,-27.458,41.0,0.0
349012,-0.312,-0.032,0.917,9.847,-3.389,-21.962,42.0,0.0
349097,-0.312,-0.004,0.961,1.786,-4.252,-16.580,43.0,0.0
349182,-0.274,-0.023,0.955,5.779,-10.061,-13.481,44.0,0.0
349266,-0.221,0.029,0.936,7.611,-15.282,-18.809,47.0,0.0
349351,-0.230,0.051,0.938,29.496,-7.366,-21.099,46.0,0.0
349440,-0.303,0.128,0.796,93.260,-4.656,-40.626,46.0,0.0
349532,-0.340,0.061,0.655,171.672,26.427,-63.298,178.0,0.0
349625,-0.366,0.471,0.010,250.130,47.084,-121.893,0.0,0.0
349719,-0.741,1.625,-0.024,-9.939,23.557,-193.321,0.0,0.0
349812,-0.920,0.234,0.381,195.038,53.573,-117.389,0.0,0.0
349903,-1.104,0.577,-0.284,250.130,-27.244,-109.794,0.0,148.0
349993,-1.182,0.578,-0.295,189.260,-56.695,-109.504,0.0,135.0
350083,-1.111,0.478,-0.249,77.557,-29.916,-46.939,0.0,127.0
350172,-0.944,0.458,-0.185,54.695,-21.687,-4.489,0.0,123.0
350273,-0.896,0.447,-0.070,57.954,-21.305,4.305,0.0,122.0
350364,-0.851,0.511,-0.014,60.504,-13.511,36.870,0.0,125.0
350460,-0.868,0.568,0.050,36.611,1.450,27.802,0.0,0.0
350553,-0.863,0.407,0.119,-31.802,9.466,14.389,0.0,136.0
350646,-0.924,0.414,0.103,-48.931,12.802,1.580,0.0,142.0
350739,-0.969,0.128,0.045,-29.763,-5.504,9.756,0.0,148.0
350834,-0.945,0.181,-0.093,-5.672,-8.580,-6.725,0.0,0.0
350930,-0.953,0.022,-0.006,-3.817,6.779,-20.076,0.0,0.0
351027,-1.031,0.012,0.073,34.405,4.298,-19.824,0.0,0.0
351126,-0.948,0.160,0.077,50.374,-2.015,-17.931,0.0,0.0
351221,-0.894,0.376,0.071,64.672,-1.489,-14.550,0.0,0.0
351318,-0.857,0.275,0.165,50.702,0.748,-5.618,0.0,0.0
351414,-0.864,0.425,0.119,-7.687,10.076,-2.618,0.0,0.0
351510,-1.172,0.350,0.072,14.809,-9.176,25.046,0.0,0.0
351606,-1.067,0.438,-0.054,-1.366,-21.733,75.947,0.0,0.0
351702,-0.970,0.323,-0.073,-29.137,-18.863,89.977,0.0,0.0
351798,-0.879,0.275,-0.116,-30.076,-11.496,50.649,0.0,0.0
351894,-0.763,0.377,-0.074,-19.481,6.588,12.908,0.0,0.0
351993,-0.823,0.362,0.015,-69.176,24.450,-22.595,0.0,0.0
352090,-0.915,0.461,0.112,3.550,10.466,-23.145,0.0,0.0
352186,-0.948,0.566,0.166,-31.985,-5.435,-11.191,0.0,0.0
352280,-0.996,0.697,0.227,-100.084,-28.931,12.397,0.0,169.0
352375,-0.985,0.430,0.485,-105.931,-67.153,21.863,0.0,171.0
352470,-0.849,0.284,0.491,-46.595,-90.267,13.809,0.0,163.0
352564,-0.701,0.258,0.585,-74.046,-87.710,27.809,0.0,165.0
352659,-0.681,0.336,0.650,-47.626,-73.122,43.351,0.0,181.0
352748,-0.511,0.211,0.750,-65.863,-54.023,56.267,49.0,184.0
352835,-0.387,0.133,0.783,-55.809,-42.107,51.023,46.0,186.0
352922,-0.320,0.010,0.810,-52.626,-18.542,49.282,44.0,0.0
353010,-0.285,-0.021,0.827,-44.924,-4.947,44.588,44.0,0.0
353097,-0.290,-0.055,0.913,-31.511,-4.336,37.939,42.0,0.0
353184,-0.319,-0.023,0.976,-14.519,-12.878,30.893,42.0,0.0
353272,-0.216,-0.007,1.067,0.893,-18.893,30.550,44.0,0.0
353359,-0.285,0.151,1.023,-17.977,-7.519,18.229,44.0,0.0
353446,-0.227,0.173,0.891,-2.115,-10.420,15.023,44.0,0.0
353538,-0.186,0.138,0.917,-3.427,7.122,2.405,45.0,0.0
353625,-0.221,0.111,0.959,4.107,1.282,-2.282,46.0,0.0
353712,-0.206,0.114,0.943,8.840,0.061,-5.595,49.0,0.0
353808,-0.178,0.104,0.958,7.947,2.145,-8.756,0.0,0.0
353896,-0.182,0.108,0.983,7.405,1.817,-11.947,47.0,0.0
353992,-0.202,0.072,0.972,14.634,1.855,-14.099,0.0,0.0
354088,-0.236,0.026,0.990,8.847,6.756,-25.137,0.0,0.0
354185,-0.216,0.022,1.019,10.740,9.053,-42.656,0.0,0.0
354281,-0.380,0.077,0.974,31.359,4.710,-55.450,0.0,0.0
354378,-0.291,0.188,0.804,65.969,5.557,-71.908,0.0,170.0
354473,-0.478,0.253,0.876,38.740,8.214,-58.832,0.0,168.0
354568,-0.423,0.264,0.822,56.573,2.359,-46.366,0.0,164.0
354662,-0.369,0.250,0.794,62.382,14.458,-49.969,0.0,162.0
354747,-0.430,0.295,0.840,42.038,30.244,-53.695,47.0,160.0
354833,-0.400,0.347,0.871,29.679,25.344,-35.321,51.0,157.0
354926,-0.424,0.264,0.938,1.282,17.168,-15.069,0.0,154.0
355020,-0.430,0.354,0.907,4.000,-12.802,4.351,0.0,151.0
355113,-0.394,0.453,0.922,-9.656,-8.511,24.282,0.0,149.0
355211,-0.600,0.496,0.971,-44.359,-23.145,58.664,0.0,148.0
355304,-0.434,0.479,0.868,-76.962,-41.023,80.053,0.0,148.0
355398,-0.486,0.404,0.852,-81.191,-43.725,76.061,0.0,152.0
355491,-0.320,0.198,0.767,-43.450,-41.733,55.840,0.0,156.0
355579,-0.218,0.167,0.778,-19.382,-22.779,30.710,45.0,0.0
355667,-0.153,0.154,0.905,-10.405,-5.198,13.763,47.0,0.0
355752,-0.146,0.170,0.977,-6.672,1.962,3.603,46.0,163.0
355841,-0.129,0.138,1.016,-15.260,1.221,0.435,47.0,0.0
355927,-0.132,0.047,1.048,-3.305,-2.069,-6.290,45.0,163.0
356015,-0.173,0.106,0.951,1.695,4.947,-3.244,43.0,163.0
356101,-0.153,0.056,0.895,-7.786,11.275,0.656,44.0,171.0
