Timestamp(ms),AccelX(g),AccelY(g),AccelZ(g),GyroX(deg/s),GyroY(deg/s),GyroZ(deg/s),DistanceLeft(cm),DistanceRight(cm)
35198,-0.065,-0.146,0.971,5.496,-157.977,32.061,0.0,0.0
35245,0.533,-0.117,0.720,12.397,-144.863,15.664,0.0,0.0
35292,1.024,-0.039,0.606,2.588,-18.641,-22.916,0.0,0.0
35338,0.892,-0.050,0.594,-11.145,158.954,-29.168,0.0,0.0
35384,0.037,-0.134,1.019,-10.405,202.977,-28.534,0.0,0.0
35431,-0.341,-0.157,1.139,5.282,104.328,-29.641,0.0,0.0
35477,-0.503,-0.058,1.120,3.336,-14.183,-7.397,0.0,0.0
35526,-0.208,-0.187,0.993,8.649,-129.046,30.412,0.0,0.0
35572,0.472,-0.087,0.726,25.771,-108.374,21.076,0.0,0.0
35619,0.631,0.060,0.744,6.969,17.351,8.527,0.0,0.0
35665,0.309,-0.032,0.958,-14.053,78.267,-7.290,0.0,0.0
35712,0.023,-0.093,1.065,-12.740,56.740,-15.710,0.0,0.0
35759,-0.077,-0.089,1.092,-10.260,7.405,-9.313,0.0,0.0
35805,0.051,-0.118,1.044,-4.000,-28.366,-1.366,0.0,0.0
35851,0.298,-0.078,0.899,-0.832,7.901,-3.412,0.0,0.0
35897,0.087,-0.096,1.019,2.015,38.473,0.412,0.0,0.0
35944,-0.002,-0.079,1.039,3.763,19.824,-0.786,0.0,0.0
35993,0.052,-0.055,0.974,2.962,2.053,-2.351,0.0,0.0
36039,0.038,-0.077,0.997,-1.977,6.061,0.885,0.0,0.0
36085,0.054,-0.095,0.990,0.519,-1.435,0.313,0.0,0.0
36132,0.113,-0.052,0.953,-2.534,5.351,-0.618,0.0,0.0
36178,0.098,-0.081,0.962,-2.214,26.527,-4.298,0.0,0.0
36225,0.037,-0.071,0.990,-2.992,34.878,-6.527,0.0,0.0
36272,-0.033,-0.093,1.017,-2.450,24.916,-9.656,0.0,0.0
36318,-0.172,-0.078,1.036,-2.412,10.840,-2.985,0.0,0.0
36365,-0.302,-0.038,1.045,-10.931,-38.298,7.237,0.0,0.0
36431,-0.448,-0.207,1.205,-19.824,-162.931,42.290,0.0,0.0
36478,0.849,-0.099,0.682,19.336,-171.992,11.069,0.0,0.0
36525,1.174,-0.009,0.652,6.618,35.511,-20.511,0.0,0.0
36572,0.512,-0.080,0.938,-9.733,172.832,-40.542,0.0,0.0
36618,-0.062,-0.158,0.966,3.908,170.183,-49.481,0.0,0.0
36665,-0.569,-0.069,1.081,0.527,89.863,-19.939,0.0,0.0
36711,-0.770,-0.166,1.117,-10.267,-86.023,27.191,0.0,0.0
36758,-0.134,-0.285,0.816,6.244,-233.145,44.450,0.0,0.0
36805,0.979,-0.101,0.501,26.885,-156.870,13.534,0.0,0.0
36854,1.052,0.100,0.601,-16.191,112.198,-22.374,0.0,0.0
36901,0.178,-0.083,0.963,-31.466,206.397,-31.076,0.0,0.0
36947,-0.496,-0.182,1.164,-2.878,84.870,-17.664,0.0,0.0
36995,-0.650,-0.050,1.147,-11.641,-93.412,18.527,0.0,0.0
37042,-0.057,-0.285,0.872,-0.344,-224.412,45.786,0.0,0.0
37088,0.940,-0.125,0.563,19.260,-147.260,13.901,0.0,0.0
37135,1.152,0.052,0.618,-6.656,100.321,-7.099,0.0,0.0
37181,0.256,-0.153,1.026,-21.893,192.847,-22.344,0.0,0.0
37228,-0.159,-0.228,1.109,2.267,118.344,-28.634,0.0,0.0
37296,-0.369,-0.103,1.146,0.687,10.412,-11.603,0.0,0.0
37343,-0.032,-0.212,0.958,6.565,-94.947,26.664,0.0,0.0
37389,0.378,-0.088,0.848,11.771,-72.481,19.015,0.0,0.0
37436,0.612,-0.081,0.848,4.260,7.061,-0.534,0.0,0.0
37482,0.391,-0.079,0.948,-2.573,87.763,-23.779,0.0,0.0
37529,0.028,-0.135,1.057,-4.740,90.527,-23.794,0.0,0.0
37633,-0.199,-0.152,1.017,1.275,-14.786,-0.809,0.0,0.0
37680,0.059,-0.113,0.907,2.359,-43.221,12.252,0.0,0.0
37726,0.233,-0.088,0.913,0.832,-24.237,8.672,0.0,0.0
37776,0.265,-0.088,0.967,-3.748,19.015,-5.786,0.0,0.0
37823,0.134,-0.098,1.048,-3.725,36.221,-12.176,0.0,0.0
37870,0.089,-0.144,1.029,2.092,38.435,-16.603,0.0,0.0
37916,-0.061,-0.117,1.052,7.832,30.733,-11.092,0.0,0.0
37963,-0.029,-0.076,0.992,9.046,21.183,-7.168,0.0,0.0
38010,0.010,-0.077,0.952,5.282,33.000,-0.588,0.0,0.0
38057,-0.066,-0.103,0.987,8.397,50.473,-1.206,0.0,0.0
38104,-0.178,-0.070,1.003,7.687,38.916,-3.656,0.0,0.0
38151,-0.470,-0.127,1.028,12.824,-10.099,8.870,0.0,0.0
38218,-0.504,-0.033,0.997,-0.534,-130.947,36.641,0.0,0.0
38265,0.010,-0.140,0.887,11.649,-224.321,63.115,0.0,0.0
38312,0.752,-0.059,0.664,18.191,-199.893,34.328,0.0,0.0
38360,1.301,0.019,0.607,-3.939,-29.649,-10.580,0.0,0.0
38406,1.109,-0.061,0.587,-20.840,201.733,-48.641,0.0,0.0
38453,0.130,-0.081,0.616,-18.412,250.130,-53.366,0.0,0.0
38500,-1.006,-0.090,1.185,-7.374,228.534,-4.519,0.0,0.0
38547,-1.347,-0.198,1.411,-7.908,-99.214,24.305,0.0,0.0
38594,-0.566,-0.283,0.814,5.962,-250.137,41.198,0.0,0.0
38644,0.997,-0.181,0.243,40.153,-250.137,23.550,0.0,0.0
38691,1.540,0.205,0.361,4.298,73.886,-9.496,0.0,0.0
38738,0.413,0.012,0.711,-38.649,250.130,-30.504,0.0,0.0
38786,-0.593,-0.185,1.183,-22.053,191.786,-17.160,0.0,0.0
38833,-0.907,-0.186,1.366,-8.550,-68.886,2.550,0.0,0.0
38880,-0.203,-0.142,0.937,-3.916,-231.840,22.557,0.0,0.0
38927,0.906,-0.227,0.525,20.580,-151.046,3.939,0.0,0.0
38974,0.996,0.120,0.613,-6.466,108.069,-14.718,0.0,0.0
39021,0.108,-0.082,0.949,-33.947,203.855,-15.840,0.0,0.0
39089,-0.499,-0.265,1.280,-7.779,60.038,-15.198,0.0,0.0
39136,-0.054,-0.133,0.975,2.908,-101.183,3.969,0.0,0.0
39183,0.371,-0.171,0.819,4.443,-54.366,9.832,0.0,0.0
39230,0.327,-0.058,0.916,1.321,29.206,2.832,0.0,0.0
39277,0.096,-0.112,1.025,-4.916,30.947,-0.160,0.0,0.0
39324,0.144,-0.122,1.003,-2.336,6.786,-13.496,0.0,0.0
39371,0.099,-0.106,0.984,-5.588,21.565,-8.573,0.0,0.0
39418,-0.001,-0.187,1.033,-1.130,4.336,1.038,0.0,0.0
39465,0.078,-0.141,0.994,4.282,-7.351,-0.351,0.0,0.0
39513,0.146,-0.112,0.964,4.023,-1.511,2.977,0.0,0.0
39580,0.109,-0.091,0.975,2.649,18.641,-0.153,0.0,0.0
39627,0.065,-0.114,0.998,-0.489,14.947,-2.344,0.0,0.0
39674,0.083,-0.128,0.994,-1.412,11.962,-2.756,0.0,0.0
39721,0.114,-0.110,0.965,-1.076,25.885,-4.916,0.0,0.0
39769,0.040,-0.108,1.068,0.366,24.710,-8.237,0.0,0.0
39816,0.002,-0.120,1.108,6.008,14.641,-14.053,0.0,0.0
39863,-0.176,-0.148,1.110,13.733,5.573,-20.115,0.0,0.0
39910,-0.408,-0.044,1.063,12.985,-46.031,10.053,0.0,0.0
39957,-0.397,-0.183,0.968,12.405,-147.573,47.305,0.0,0.0
40008,0.304,-0.181,0.688,25.069,-228.214,45.053,0.0,0.0
40112,1.347,0.091,0.454,-13.725,139.344,-46.061,0.0,0.0
40160,0.010,-0.189,0.630,-32.771,250.130,-56.924,0.0,0.0
40207,-0.974,-0.086,1.157,-13.153,210.504,-17.374,0.0,0.0
40254,-1.272,-0.189,1.363,-22.023,-101.214,15.626,0.0,0.0
40301,-0.596,-0.246,0.870,-7.031,-250.137,43.191,0.0,0.0
40349,0.832,-0.400,0.296,32.275,-250.137,24.374,0.0,0.0
40396,1.847,0.290,0.309,11.664,41.450,-23.878,0.0,0.0
40443,0.557,-0.017,0.626,-48.557,250.130,-44.267,0.0,0.0
40511,-0.781,-0.327,1.172,-19.015,220.458,-21.145,0.0,0.0
40559,-0.884,-0.133,1.182,-3.756,-173.122,27.115,0.0,0.0
40606,-0.033,-0.323,0.772,6.679,-250.137,51.336,0.0,0.0
40653,1.337,-0.149,0.362,50.107,-132.580,7.122,0.0,0.0
40700,1.154,0.206,0.567,-7.359,163.115,-23.580,0.0,0.0
40749,0.108,-0.079,0.863,-41.267,250.130,-32.916,0.0,0.0
40796,-0.699,-0.271,1.234,-14.076,110.893,-15.405,0.0,0.0
40843,-0.674,-0.194,1.261,-8.565,-133.878,9.893,0.0,0.0
40890,0.274,-0.313,0.794,12.000,-204.069,11.702,0.0,0.0
40941,1.086,0.114,0.532,21.679,16.527,-16.321,0.0,0.0
40988,0.450,-0.018,0.755,-33.992,197.397,-12.237,0.0,0.0
41036,-0.477,-0.289,1.206,-18.473,141.031,-6.710,0.0,0.0
41083,-0.511,-0.206,1.221,7.618,-50.992,-10.389,0.0,0.0
41131,0.023,-0.121,0.923,1.863,-113.405,5.588,0.0,0.0
41179,0.462,-0.187,0.745,10.092,-41.954,1.992,0.0,0.0
41226,0.237,-0.034,0.939,-9.382,52.656,6.160,0.0,0.0
41273,0.015,-0.204,1.054,-9.359,37.748,0.298,0.0,0.0
41327,0.054,-0.146,0.985,0.763,0.885,-12.962,0.0,0.0
41376,0.060,-0.135,0.977,-4.954,12.885,-1.466,0.0,0.0
41422,0.010,-0.193,1.022,-1.061,6.481,3.382,0.0,0.0
41468,0.037,-0.161,1.014,4.206,-4.412,0.634,0.0,0.0
41515,0.136,-0.128,0.953,3.122,3.863,-1.550,0.0,0.0
41561,0.095,-0.146,0.988,-0.099,22.153,-3.344,0.0,0.0
41607,0.054,-0.132,0.994,0.870,31.824,-4.382,0.0,0.0
41654,0.097,-0.193,1.010,0.275,30.626,-8.229,0.0,0.0
41700,0.031,-0.182,1.028,13.221,50.313,-17.389,0.0,0.0
41746,-0.344,-0.086,1.046,10.595,44.176,-12.130,0.0,0.0
41795,-0.767,-0.049,1.137,-13.855,-94.489,28.427,0.0,0.0
41841,-0.571,-0.355,0.967,-8.718,-250.137,63.565,0.0,0.0
41888,0.771,-0.261,0.356,41.786,-250.137,14.214,0.0,0.0
41934,1.676,0.015,0.245,18.038,-2.221,-6.985,0.0,0.0
41980,0.862,0.021,0.615,-30.382,250.130,-31.779,0.0,0.0
42028,-0.187,-0.208,0.983,-26.290,250.130,-40.939,0.0,0.0
42074,-0.708,-0.183,1.160,-7.969,139.321,-25.099,0.0,0.0
42120,-1.054,-0.225,1.316,-15.282,-108.000,21.214,0.0,0.0
42167,-0.295,-0.405,0.838,10.183,-250.137,50.344,0.0,0.0
42233,0.956,-0.153,0.489,40.832,-205.023,23.634,0.0,0.0
42280,1.051,0.043,0.625,-1.809,153.244,-18.229,0.0,0.0
42327,0.274,-0.094,0.844,-20.901,246.267,-32.267,0.0,0.0
42373,-0.549,-0.238,1.153,-8.008,168.473,-26.870,0.0,0.0
42420,-0.804,-0.130,1.281,-5.061,-46.588,8.626,0.0,0.0
42466,-0.395,-0.285,1.003,2.511,-232.206,43.481,0.0,0.0
42569,1.255,0.107,0.482,21.832,15.740,-10.878,0.0,0.0
42616,0.189,-0.082,0.885,-33.031,224.351,-15.695,0.0,0.0
42662,-0.461,-0.281,1.217,-10.962,96.107,-7.893,0.0,0.0
42712,-0.353,-0.179,1.135,3.779,-81.565,-13.573,0.0,0.0
42759,0.230,-0.123,0.841,2.534,-94.985,1.947,0.0,0.0
42805,0.398,-0.131,0.823,1.122,-5.611,8.450,0.0,0.0
42852,0.190,-0.122,1.009,-4.626,34.458,7.779,0.0,0.0
42898,0.130,-0.136,1.029,-0.802,18.420,-5.550,0.0,0.0
42944,0.093,-0.138,1.000,-1.847,8.794,-6.542,0.0,0.0
42991,0.136,-0.174,0.960,0.924,1.336,-1.809,0.0,0.0
43037,0.063,-0.150,1.004,0.153,1.641,1.420,0.0,0.0
43083,0.139,-0.151,0.949,1.046,-4.107,2.611,0.0,0.0
43130,0.186,-0.147,0.977,1.023,14.084,-0.275,0.0,0.0
43180,0.447,-0.192,0.857,12.145,66.656,-15.221,0.0,0.0
43226,0.396,-0.077,0.693,11.588,200.527,-23.511,0.0,0.0
43273,-0.136,-0.048,0.543,-2.863,250.130,-18.229,0.0,0.0
43320,-0.927,-0.007,0.781,-23.252,250.130,19.427,0.0,0.0
43366,-1.461,-0.109,1.119,-38.504,37.282,58.008,0.0,0.0
43413,-1.665,-0.286,1.321,-41.466,-250.137,33.557,0.0,0.0
43459,-0.580,-0.368,0.485,-3.092,-250.137,-10.107,0.0,0.0
43506,1.001,-0.041,0.183,32.542,-250.137,-72.664,0.0,0.0
43553,1.497,0.079,0.355,-2.977,50.939,-28.160,0.0,0.0
43620,0.340,-0.175,0.498,-31.420,250.130,-45.618,0.0,0.0
43667,-1.113,-0.185,1.053,-9.290,210.977,15.260,0.0,0.0
43713,-1.467,-0.249,1.409,-22.443,-148.878,41.153,0.0,0.0
43760,-0.666,-0.386,0.693,5.214,-250.137,28.649,0.0,0.0
43807,0.875,-0.171,0.055,27.687,-250.137,-5.847,0.0,0.0
43853,1.741,0.080,0.279,-8.527,-8.252,2.130,0.0,0.0
43900,0.957,-0.125,0.506,-46.305,250.130,-45.763,0.0,0.0
43947,-0.148,-0.278,0.558,-38.053,250.130,-35.863,0.0,0.0
43994,-1.055,-0.167,1.157,-15.954,235.260,21.344,0.0,0.0
44044,-1.554,-0.337,1.511,-14.962,-153.496,49.511,0.0,0.0
44091,-0.772,-0.412,0.761,4.260,-250.137,33.916,0.0,0.0
44137,0.854,-0.356,0.000,38.542,-250.137,-12.672,0.0,0.0
44184,1.984,0.142,0.178,9.603,-1.802,-7.939,0.0,0.0
44231,0.995,-0.091,0.354,-44.115,250.130,-56.298,0.0,0.0
44277,-0.294,-0.278,0.418,-35.901,250.130,-39.519,0.0,0.0
44324,-1.465,-0.231,1.292,-8.275,226.069,52.130,0.0,0.0
44371,-1.840,-0.298,1.555,-9.031,-250.137,27.992,0.0,0.0
44419,-0.542,-0.330,0.430,1.893,-250.137,3.878,0.0,0.0
44485,1.512,-0.065,-0.106,46.878,-250.137,-48.282,0.0,0.0
44532,1.310,0.048,0.266,-39.679,250.130,-42.802,0.0,0.0
44579,-0.057,-0.282,0.419,-56.573,250.130,-40.183,0.0,0.0
44626,-1.100,-0.299,0.961,-18.832,250.130,25.282,0.0,0.0
44674,-1.703,-0.301,1.507,-5.664,-52.489,39.229,0.0,0.0
44720,-1.177,-0.283,1.006,-13.038,-250.137,26.863,0.0,0.0
44767,0.289,-0.617,0.116,22.046,-250.137,-12.267,0.0,0.0
44814,2.000,0.406,0.149,37.031,-102.878,-3.107,0.0,0.0
44861,1.123,0.081,0.287,-34.336,250.130,-25.061,0.0,0.0
44911,-0.207,-0.227,0.376,-42.122,250.130,-10.427,0.0,0.0
45015,-2.000,-0.083,1.739,-11.962,-16.832,46.122,0.0,0.0
45062,-1.244,-0.359,0.555,-28.641,-250.137,3.176,0.0,0.0
45109,0.229,-0.360,0.076,8.038,-250.137,-69.878,0.0,0.0
45156,2.000,0.636,0.108,20.122,-101.252,-27.092,0.0,0.0
45203,1.065,0.037,0.067,-60.527,250.130,-37.031,0.0,0.0
45250,-0.328,-0.259,-0.063,-71.565,250.130,2.374,0.0,0.0
45296,-1.492,-0.140,0.460,-48.298,250.130,113.412,0.0,0.0
45347,-2.000,-0.453,1.929,-20.321,-101.641,73.214,0.0,0.0
45394,-1.564,-0.202,0.655,-52.412,-250.137,-20.885,0.0,0.0
45442,-0.651,-0.438,0.054,-37.939,-250.137,-76.328,0.0,0.0
45489,1.742,0.135,-0.422,8.328,-191.321,-127.710,0.0,0.0
45536,1.129,-0.193,0.291,-27.420,246.191,-5.969,0.0,0.0
45582,-0.269,-0.116,0.582,-54.435,250.130,37.550,0.0,0.0
45629,-1.548,-0.501,1.185,-14.565,181.046,123.542,0.0,0.0
45676,-1.572,-0.179,1.765,-3.267,-250.137,37.550,0.0,0.0
45723,-0.383,-0.473,0.285,-20.939,-250.137,-50.214,0.0,0.0
45791,2.000,0.374,-0.300,44.443,-176.443,-105.695,0.0,0.0
45839,0.701,-0.035,0.329,-54.504,250.130,-18.046,0.0,0.0
45886,-0.446,-0.175,0.625,-54.580,250.130,35.000,0.0,0.0
45933,-1.603,-0.602,1.108,-5.321,153.779,97.802,0.0,0.0
45980,-1.474,-0.108,1.660,-13.214,-250.137,33.481,0.0,0.0
46027,-0.508,-0.562,0.390,-28.863,-250.137,-32.840,0.0,0.0
46074,1.675,0.030,-0.185,23.748,-150.748,-123.855,0.0,0.0
46121,1.180,-0.118,0.330,-15.779,250.130,-37.832,0.0,0.0
46169,-0.337,-0.153,0.503,-49.466,250.130,13.168,0.0,0.0
46219,-1.640,-0.615,1.190,-12.206,156.725,86.176,0.0,0.0
46266,-1.454,-0.192,1.590,-10.435,-250.137,48.427,0.0,0.0
46313,-0.258,-0.637,0.133,-31.107,-250.137,-33.290,0.0,0.0
46361,1.683,0.043,0.037,23.069,-86.450,-110.802,0.0,0.0
46408,0.927,-0.115,0.391,-17.748,250.130,-35.534,0.0,0.0
46455,-0.271,-0.177,0.567,-57.038,250.130,0.679,0.0,0.0
46502,-1.539,-0.507,1.102,-28.237,176.298,92.130,0.0,0.0
46550,-1.470,-0.238,1.566,-0.374,-250.137,47.840,0.0,0.0
46597,-0.376,-0.507,0.508,-26.916,-250.137,-18.275,0.0,0.0
46664,1.616,0.034,0.031,38.588,-138.351,-121.008,0.0,0.0
46712,0.629,-0.126,0.403,-46.183,250.130,-39.053,0.0,0.0
46759,-0.510,-0.305,0.760,-48.214,250.130,14.183,0.0,0.0
46807,-1.644,-0.603,1.355,6.565,57.740,88.687,0.0,0.0
46854,-1.070,-0.254,1.312,-0.145,-250.137,51.565,0.0,0.0
46901,0.308,-0.673,0.158,-5.008,-250.137,-44.511,0.0,0.0
46948,1.583,0.152,0.464,21.504,-5.924,-80.771,0.0,0.0
46995,0.619,-0.162,0.461,-26.405,250.130,-26.427,0.0,0.0
47043,-0.612,-0.264,0.892,-28.435,250.130,23.519,0.0,0.0
47093,-1.460,-0.455,1.457,-0.275,-7.847,76.458,0.0,0.0
47140,-0.834,-0.335,1.181,-17.336,-250.137,61.397,0.0,0.0
47188,0.555,-0.689,0.202,6.206,-250.137,-36.160,0.0,0.0
47236,1.580,0.127,0.513,38.603,16.756,-68.374,0.0,0.0
47283,0.562,-0.128,0.419,-23.168,250.130,-39.107,0.0,0.0
47330,-0.632,-0.175,0.946,-32.595,250.130,26.107,0.0,0.0
47377,-1.667,-0.541,1.467,4.359,-12.099,95.786,0.0,0.0
47481,0.451,-0.798,-0.032,6.611,-250.137,-54.710,0.0,0.0
47529,1.478,0.233,0.454,-2.008,92.710,-14.847,0.0,0.0
47598,-0.004,-0.258,0.683,-52.718,250.130,-11.519,0.0,0.0
47645,-0.849,-0.481,1.164,-0.359,95.344,33.809,0.0,0.0
47691,-0.678,-0.286,1.275,5.893,-101.298,-15.710,0.0,0.0
47737,0.013,-0.256,0.782,-7.771,-137.725,-20.214,0.0,0.0
47784,0.458,-0.216,0.756,2.031,-52.176,-6.496,0.0,0.0
47831,0.211,-0.222,0.901,-5.382,50.939,8.344,0.0,0.0
47877,-0.047,-0.332,0.996,-0.908,56.947,-0.763,0.0,0.0
47923,-0.120,-0.265,1.053,1.763,28.389,-5.557,0.0,0.0
47969,-0.068,-0.280,0.962,1.656,8.458,-2.282,0.0,0.0
48018,-0.036,-0.276,0.956,0.710,4.748,1.855,0.0,0.0
48064,-0.061,-0.284,0.932,3.214,11.076,0.695,0.0,0.0
48110,-0.045,-0.259,0.972,2.076,8.191,-2.359,0.0,0.0
48156,-0.153,-0.292,1.033,2.901,0.931,-8.389,0.0,0.0
48203,-0.223,-0.286,1.124,11.389,-30.115,-14.267,0.0,0.0
48249,-0.450,-0.275,1.163,25.779,-126.496,-13.038,0.0,0.0
48295,-0.163,-0.220,0.821,16.656,-191.603,18.878,0.0,0.0
48343,0.085,-0.251,0.801,22.763,-231.008,42.298,0.0,0.0
48389,0.747,-0.289,0.444,28.214,-183.901,12.641,0.0,0.0
48438,1.317,-0.084,0.381,7.496,15.466,-2.244,0.0,0.0
48484,1.019,-0.085,0.417,-24.466,244.672,-20.183,0.0,0.0
48531,0.208,-0.207,0.579,-44.305,250.130,-10.115,0.0,0.0
48577,-0.362,-0.293,0.781,-30.015,250.130,8.290,0.0,0.0
48623,-1.000,-0.402,1.144,-7.366,151.756,32.336,0.0,0.0
48670,-1.049,-0.307,1.266,2.710,-86.489,-1.908,0.0,0.0
48716,-0.648,-0.250,1.002,-11.344,-250.137,-11.092,0.0,0.0
48762,0.162,-0.378,0.473,-13.832,-230.214,-52.176,0.0,0.0
48809,0.944,-0.106,0.627,5.977,-68.069,-40.504,0.0,0.0
48859,0.354,-0.233,0.859,-6.573,100.710,6.420,0.0,0.0
48905,-0.069,-0.336,1.083,-5.435,85.176,11.573,0.0,0.0
48952,-0.143,-0.325,1.084,5.229,8.595,-5.794,0.0,0.0
48998,0.083,-0.255,0.922,-1.198,-18.542,-11.916,0.0,0.0
49044,0.182,-0.270,0.872,-3.931,8.855,-6.550,0.0,0.0
49091,0.143,-0.254,0.924,-1.450,36.290,-7.275,0.0,0.0
49137,-0.010,-0.271,1.004,-5.191,36.435,-7.802,0.0,0.0
49183,-0.040,-0.339,0.974,-4.122,15.580,-6.214,0.0,0.0
49230,0.000,-0.291,0.957,0.015,9.153,-4.672,0.0,0.0
49297,0.007,-0.276,0.949,-0.710,11.710,-3.130,0.0,0.0
49343,-0.021,-0.319,0.969,3.725,7.221,-4.710,0.0,0.0
49390,0.007,-0.268,0.951,3.611,8.389,-4.237,0.0,0.0
49436,-0.007,-0.303,0.920,2.794,18.053,-3.916,0.0,0.0
49482,-0.065,-0.264,0.961,1.168,18.618,-3.641,0.0,0.0
49529,-0.055,-0.288,0.917,1.260,14.229,-6.412,0.0,0.0
49575,-0.073,-0.270,0.941,-4.183,11.595,-8.252,0.0,0.0
49623,-0.091,-0.297,0.942,-6.183,9.710,-8.473,0.0,0.0
49669,-0.064,-0.287,0.956,-2.611,2.893,-9.328,0.0,0.0
49719,-0.033,-0.295,0.958,-4.397,14.382,-8.542,0.0,0.0
49765,-0.083,-0.289,1.042,-2.557,29.969,-8.649,0.0,0.0
49812,-0.171,-0.309,1.137,0.992,23.427,-8.870,0.0,0.0
49915,-0.418,-0.392,1.014,27.763,-35.840,4.298,0.0,0.0
49961,-0.566,-0.351,0.958,31.176,-179.015,19.603,0.0,0.0
50009,-0.114,-0.231,0.664,24.580,-250.137,36.038,0.0,0.0
50056,0.636,-0.281,0.393,23.107,-240.313,19.328,0.0,0.0
50102,1.354,-0.085,0.355,10.809,-34.847,-11.725,0.0,0.0
50149,1.081,-0.071,0.425,-30.580,235.832,-25.435,0.0,0.0
50215,0.168,-0.248,0.596,-50.221,250.130,-22.611,0.0,0.0
50263,-0.946,-0.387,1.058,-8.168,250.130,33.450,0.0,0.0
50310,-1.560,-0.449,1.474,23.588,-73.641,18.023,0.0,0.0
50357,-0.702,-0.207,0.877,-8.580,-250.137,1.076,0.0,0.0
50403,0.138,-0.394,0.447,-1.733,-250.137,-25.489,0.0,0.0
50450,1.052,-0.078,0.544,18.122,-119.511,-19.786,0.0,0.0
50497,0.826,-0.091,0.603,-9.603,122.038,-2.656,0.0,0.0
50543,0.168,-0.241,0.855,-33.794,226.359,-1.107,0.0,0.0
50590,-0.375,-0.341,1.098,-12.725,158.947,9.756,0.0,0.0
50640,-0.738,-0.386,1.250,11.466,-18.939,-0.153,0.0,0.0
50686,-0.354,-0.264,0.981,-1.214,-140.282,-2.817,0.0,0.0
50734,0.147,-0.267,0.799,3.275,-142.855,9.115,0.0,0.0
50781,0.451,-0.224,0.782,8.534,-54.374,16.695,0.0,0.0
50827,0.382,-0.249,0.852,0.565,34.809,16.718,0.0,0.0
50874,0.156,-0.242,0.972,-4.038,67.969,9.290,0.0,0.0
50921,-0.019,-0.299,1.012,-3.168,42.901,-3.794,0.0,0.0
50967,-0.063,-0.299,1.032,0.702,-4.618,-5.718,0.0,0.0
51014,0.068,-0.278,0.938,3.382,-16.168,-4.733,0.0,0.0
51061,0.146,-0.282,0.873,-0.939,6.893,2.015,0.0,0.0
51110,0.084,-0.255,0.910,-1.466,33.397,0.099,0.0,0.0
51158,0.023,-0.313,0.938,-4.931,33.214,-4.000,0.0,0.0
51205,-0.070,-0.275,0.988,-1.947,20.412,-5.656,0.0,0.0
51251,-0.054,-0.299,0.978,-0.145,-5.198,-6.237,0.0,0.0
51298,0.040,-0.247,0.965,2.435,-9.618,-4.947,0.0,0.0
51345,0.061,-0.250,0.958,-0.344,-0.611,1.252,0.0,0.0
51392,0.019,-0.295,1.062,-5.573,-4.603,0.740,0.0,0.0
51438,0.078,-0.300,1.020,2.473,-8.847,-7.313,0.0,0.0
51485,0.114,-0.255,0.994,5.832,2.672,-5.649,0.0,0.0
51553,0.070,-0.281,1.019,11.664,21.527,-5.046,0.0,0.0
51600,0.113,-0.254,0.924,21.107,58.038,-7.733,0.0,0.0
51646,0.098,-0.213,0.767,25.443,116.886,-7.702,0.0,0.0
51693,-0.338,-0.185,0.867,15.588,134.550,5.748,0.0,0.0
51740,-1.016,-0.162,1.182,1.260,-25.099,29.389,0.0,0.0
51787,-0.978,-0.326,1.023,-21.992,-250.137,41.061,0.0,0.0
51834,0.043,-0.391,0.452,2.634,-250.137,19.031,0.0,0.0
51881,1.621,0.015,0.126,30.687,-204.305,-24.962,0.0,0.0
51929,1.500,-0.027,0.383,-20.618,167.092,-14.786,0.0,0.0
51979,0.321,-0.241,0.772,-40.954,250.130,-32.359,0.0,0.0
52026,-0.491,-0.357,1.120,-4.313,234.924,-15.908,0.0,0.0
52073,-0.980,-0.333,1.269,20.931,30.252,-1.863,0.0,0.0
52120,-0.739,-0.193,1.181,-6.260,-215.221,25.756,0.0,0.0
52167,0.166,-0.477,0.568,13.511,-250.137,24.237,0.0,0.0
52214,1.298,-0.041,0.375,53.748,-112.740,-34.366,0.0,0.0
52261,1.007,0.141,0.516,-8.786,176.611,-25.130,0.0,0.0
52365,-0.587,-0.299,1.009,-17.664,241.282,-3.840,0.0,0.0
52412,-1.122,-0.155,1.418,-1.924,-74.275,21.397,0.0,0.0
52480,-0.512,-0.318,0.926,-1.588,-250.137,31.412,0.0,0.0
52527,1.088,-0.158,0.460,25.267,-161.160,-14.756,0.0,0.0
52575,1.012,-0.012,0.646,-14.969,105.076,5.847,0.0,0.0
52622,0.226,-0.246,0.898,-19.229,208.443,-10.954,0.0,0.0
52669,-0.327,-0.265,1.064,2.664,136.519,-1.962,0.0,0.0
52716,-0.507,-0.234,1.079,3.733,5.305,7.069,0.0,0.0
52762,-0.232,-0.175,0.995,-8.244,-111.168,21.832,0.0,0.0
52810,0.300,-0.273,0.774,5.924,-116.160,13.008,0.0,0.0
52857,0.643,-0.096,0.719,6.435,3.794,-11.221,0.0,0.0
52908,0.338,-0.111,0.835,-19.115,138.481,-9.420,0.0,0.0
52955,-0.051,-0.270,0.980,-15.084,160.336,-11.000,0.0,0.0
53002,-0.321,-0.297,0.972,1.840,132.550,-0.382,0.0,0.0
53049,-0.444,-0.205,1.038,4.427,74.214,8.733,0.0,0.0
53096,-0.493,-0.260,1.052,5.252,2.443,14.847,0.0,0.0
53143,-0.287,-0.230,0.940,7.130,-42.802,5.794,0.0,0.0
53190,-0.183,-0.126,0.981,2.359,-47.221,0.725,0.0,0.0
53237,-0.037,-0.223,0.842,9.427,-16.504,-4.779,0.0,0.0
53284,-0.094,-0.172,0.929,7.290,29.298,-1.817,0.0,0.0
53352,-0.305,-0.175,0.858,7.817,55.191,-4.771,0.0,0.0
53400,-0.958,-0.150,1.054,-27.290,-98.809,25.473,0.0,0.0
53447,-1.101,-0.224,1.103,-43.481,-250.137,60.260,0.0,0.0
53494,0.256,-0.551,0.220,-3.649,-250.137,-2.748,0.0,0.0
53541,2.000,0.273,-0.034,17.153,-113.168,-8.588,0.0,0.0
53588,1.201,-0.030,0.376,-42.000,250.130,-9.916,0.0,0.0
53637,-0.076,-0.319,0.626,-42.809,250.130,-3.412,0.0,0.0
53684,-1.016,-0.329,0.865,7.145,250.130,35.725,0.0,0.0
53731,-1.704,-0.152,1.568,-10.840,-27.985,18.771,0.0,0.0
53786,-0.907,-0.407,0.859,-31.664,-250.137,41.046,0.0,0.0
53832,0.567,-0.759,0.105,32.679,-250.137,-32.344,0.0,0.0
53878,2.000,0.492,0.388,33.893,-77.359,-23.725,0.0,0.0
53925,0.972,0.035,0.536,-49.618,250.130,-45.313,0.0,0.0
53971,-0.041,-0.454,0.708,-40.099,250.130,-43.267,0.0,0.0
54018,-1.019,-0.617,0.782,14.527,232.756,20.031,0.0,0.0
54064,-1.339,-0.130,1.502,12.282,-67.229,41.137,0.0,0.0
54110,-0.765,-0.283,0.960,-37.611,-250.137,69.473,0.0,0.0
54157,0.360,-0.589,0.473,-7.214,-250.137,20.542,0.0,0.0
54206,1.670,-0.091,0.267,38.489,-55.122,-35.962,0.0,0.0
54252,1.031,-0.060,0.492,-5.573,250.130,-66.168,0.0,0.0
54298,-0.042,-0.244,0.567,-26.947,250.130,-46.664,0.0,0.0
54344,-0.966,-0.396,0.941,-7.878,250.130,35.901,0.0,0.0
54391,-1.555,-0.211,1.710,-8.252,-115.931,43.290,0.0,0.0
54437,-0.762,-0.528,0.890,-15.649,-250.137,18.267,0.0,0.0
54483,0.973,-0.403,-0.111,57.725,-250.137,-143.168,0.0,0.0
54531,1.608,0.148,0.238,-5.786,120.756,-39.382,0.0,0.0
54577,0.262,-0.160,0.294,-66.267,250.130,-55.649,0.0,0.0
54626,-1.132,-0.330,0.862,-33.336,250.130,32.977,0.0,0.0
54673,-1.826,-0.280,1.760,-12.489,-85.405,64.977,0.0,0.0
54719,-1.039,-0.382,0.946,-22.885,-250.137,44.733,0.0,0.0
54817,2.000,0.618,0.341,28.603,-30.069,-29.137,120.0,0.0
54864,0.445,-0.091,0.383,-53.168,250.130,-29.023,0.0,0.0
54910,-0.735,-0.192,0.851,-29.779,250.130,33.863,0.0,0.0
54958,-1.606,-0.382,1.356,4.450,75.992,74.420,0.0,0.0
55004,-1.193,-0.149,1.288,-35.786,-250.137,49.053,0.0,0.0
55050,-0.245,-0.639,0.391,-19.244,-250.137,19.565,0.0,0.0
55117,1.864,0.011,-0.046,64.542,-159.893,-91.382,0.0,0.0
55163,0.645,0.014,0.093,-39.099,250.130,-68.107,0.0,0.0
55211,-0.884,-0.080,0.563,-42.817,250.130,13.260,0.0,0.0
55257,-1.958,-0.337,1.351,-5.031,167.588,95.176,0.0,0.0
55303,-1.766,-0.212,1.410,-46.527,-250.137,49.985,0.0,0.0
55350,-0.625,-0.538,0.404,-31.137,-250.137,4.947,0.0,0.0
55396,1.715,-0.011,-0.392,48.718,-243.015,-136.244,0.0,0.0
55443,1.324,-0.037,0.310,-24.733,227.145,-28.511,0.0,0.0
55490,-0.177,-0.173,0.582,-70.954,250.130,-1.718,0.0,0.0
55539,-1.325,-0.565,1.094,-14.916,175.084,62.008,0.0,0.0
55585,-1.538,-0.063,1.725,-9.229,-208.008,40.382,0.0,0.0
55632,-0.634,-0.398,0.639,-30.275,-250.137,39.336,0.0,0.0
55680,1.164,-0.505,-0.017,38.939,-250.137,-80.832,0.0,0.0
55726,1.658,0.145,0.247,14.412,116.634,-22.466,0.0,0.0
55773,0.310,-0.091,0.522,-61.229,250.130,-25.763,0.0,0.0
55819,-0.688,-0.372,1.050,-32.656,250.130,32.023,0.0,0.0
55866,-1.123,-0.506,1.324,32.489,1.427,28.198,0.0,0.0
55912,-0.440,-0.135,1.037,-1.275,-156.313,-14.511,0.0,0.0
55980,0.197,-0.274,0.674,-0.290,-123.450,-16.748,0.0,0.0
56026,0.299,-0.150,0.856,5.069,31.870,11.794,0.0,0.0
56073,-0.008,-0.206,0.981,-3.046,54.557,8.802,0.0,0.0
56119,-0.148,-0.239,1.054,0.687,21.550,-1.176,0.0,0.0
56166,-0.051,-0.207,0.991,1.725,-14.015,2.389,0.0,0.0
56212,0.036,-0.203,0.954,1.305,-11.641,7.817,0.0,0.0
56259,0.041,-0.202,0.971,0.947,3.130,5.527,0.0,0.0
56305,0.043,-0.191,0.961,1.450,13.191,-0.962,0.0,0.0
56351,0.009,-0.218,0.967,-0.351,22.908,-0.656,0.0,0.0
56401,-0.014,-0.213,0.976,1.489,31.870,-1.282,0.0,0.0
56449,-0.037,-0.214,0.945,2.412,32.611,-3.389,0.0,0.0
56495,-0.156,-0.228,1.038,1.267,18.260,-4.305,0.0,0.0
56542,-0.078,-0.188,0.930,5.092,16.908,-10.015,0.0,0.0
56588,-0.155,-0.196,0.947,-2.885,14.290,-3.031,0.0,0.0
56635,-0.201,-0.237,0.972,-0.382,-0.664,-1.939,0.0,0.0
56681,-0.119,-0.170,0.938,-0.504,-9.641,-1.847,0.0,0.0
56728,-0.100,-0.236,0.961,-1.992,-0.328,0.282,0.0,0.0
56775,-0.105,-0.187,0.958,0.565,8.427,-0.015,0.0,0.0
56842,-0.138,-0.232,0.972,-2.290,3.420,-0.786,0.0,0.0
56889,-0.091,-0.218,0.956,-0.214,14.435,-2.031,0.0,0.0
56935,-0.094,-0.180,0.932,-1.206,31.885,-0.832,0.0,0.0
56982,-0.171,-0.227,0.954,-4.496,33.260,-1.687,0.0,0.0
57029,-0.010,-0.197,0.812,-1.947,64.573,-7.863,0.0,0.0
57076,-0.142,-0.191,0.769,-6.023,128.084,0.992,0.0,0.0
57122,-0.640,-0.153,0.812,-11.916,139.481,20.748,0.0,0.0
57169,-1.327,-0.241,1.215,-31.855,-38.885,45.863,0.0,0.0
57273,0.136,-0.680,0.194,-9.496,-250.137,-39.908,0.0,0.0
57323,2.000,0.270,0.132,11.550,125.664,-61.855,0.0,0.0
57370,0.157,-0.066,-0.204,-59.534,250.130,-54.267,0.0,0.0
57417,-1.426,-0.246,0.560,-69.481,250.130,71.924,0.0,0.0
57464,-2.000,-0.310,1.865,-21.947,-52.504,84.496,0.0,0.0
57510,-1.439,-0.340,0.971,-42.260,-250.137,13.244,0.0,0.0
57558,0.268,-0.610,-0.162,-27.252,-250.137,-126.122,0.0,0.0
57605,1.970,0.049,-0.032,24.817,31.832,-101.481,0.0,0.0
57652,-0.063,0.122,0.566,-50.000,250.130,-23.473,0.0,0.0
57699,-1.307,-0.444,1.218,-83.229,182.313,101.817,0.0,0.0
57766,-1.511,-0.556,1.590,-23.191,-250.137,113.947,0.0,0.0
57814,0.681,-0.856,-0.066,32.931,-250.137,-81.389,0.0,0.0
57861,1.947,0.441,0.393,46.977,58.153,-89.137,0.0,0.0
57908,0.476,-0.081,0.287,-40.168,250.130,-37.420,0.0,0.0
57955,-0.736,-0.144,0.871,-62.176,250.130,44.221,0.0,0.0
58002,-1.942,-0.721,1.678,-13.931,-26.038,88.588,0.0,0.0
58048,-1.073,-0.404,1.223,-3.786,-250.137,45.519,0.0,0.0
58095,0.991,-0.623,-0.219,34.634,-250.137,-133.015,0.0,0.0
58142,1.878,0.304,0.393,27.626,171.221,-89.672,0.0,0.0
58192,-0.108,-0.047,0.010,-47.466,250.130,-33.214,0.0,0.0
58240,-1.342,-0.199,0.766,-73.168,250.130,77.038,0.0,0.0
58287,-2.000,-0.417,1.773,-35.092,-111.267,89.290,0.0,0.0
58334,-1.298,-0.451,0.973,-26.168,-250.137,17.275,0.0,0.0
58381,0.818,-0.403,-0.264,12.198,-250.137,-171.947,0.0,0.0
58428,1.644,0.269,0.461,-4.069,115.420,-79.450,0.0,0.0
58475,-0.131,-0.076,0.387,-67.397,250.130,-9.718,0.0,0.0
58522,-1.418,-0.406,1.246,-72.489,208.824,110.550,0.0,0.0
58569,-1.708,-0.535,1.520,-9.519,-250.137,92.779,0.0,0.0
58614,-0.659,-0.501,0.795,-31.466,-250.137,31.855,0.0,0.0
58661,1.514,-0.319,-0.287,41.473,-173.656,-128.924,0.0,0.0
58708,1.332,-0.080,0.288,0.122,250.130,-72.038,0.0,0.0
58756,-0.364,-0.110,0.155,-42.847,250.130,-20.107,0.0,0.0
58803,-1.698,-0.401,0.896,-31.588,250.130,107.786,0.0,0.0
58850,-1.974,-0.235,1.709,-15.763,-227.069,71.802,0.0,0.0
58898,-0.888,-0.478,0.595,-40.023,-250.137,13.359,0.0,0.0
58945,1.286,-0.249,-0.150,18.359,-199.580,-156.420,0.0,0.0
59013,1.319,0.040,0.096,8.038,250.130,-99.427,0.0,0.0
59060,-1.121,-0.223,0.617,-70.412,250.130,45.397,0.0,0.0
59107,-2.000,-0.458,1.608,-16.412,-38.611,103.924,0.0,0.0
59154,-1.451,-0.309,1.078,-37.206,-250.137,42.000,0.0,0.0
59201,0.313,-0.966,-0.410,-21.466,-250.137,-95.252,0.0,0.0
59249,1.697,0.138,0.244,33.817,75.840,-118.611,0.0,0.0
59296,-0.008,0.017,0.473,-50.878,250.130,-22.931,0.0,0.0
59343,-1.297,-0.503,1.173,-66.672,199.450,91.809,0.0,0.0
59390,-1.550,-0.557,1.499,7.992,-226.405,86.595,0.0,0.0
59441,-0.334,-0.609,0.622,-13.191,-250.137,22.206,0.0,0.0
59489,1.512,-0.180,-0.053,48.015,-94.649,-150.443,0.0,0.0
59536,0.951,-0.102,0.237,-24.351,250.130,-55.847,0.0,0.0
59583,-0.735,-0.130,0.827,-74.198,250.130,10.015,0.0,0.0
59630,-1.751,-0.490,1.357,-16.878,42.313,116.153,0.0,0.0
59735,0.478,-0.723,0.040,-1.809,-250.137,-58.809,0.0,0.0
59782,1.909,0.436,0.378,2.176,152.015,-83.008,0.0,0.0
59829,-0.165,-0.151,0.404,-70.053,250.130,-35.382,0.0,0.0
59877,-1.466,-0.561,0.990,-45.275,247.351,93.802,0.0,0.0
59944,-1.837,-0.336,1.646,-9.756,-250.137,80.344,0.0,0.0
59992,0.188,-1.036,-0.230,-13.305,-250.137,-63.191,0.0,0.0
60062,2.000,1.039,0.683,4.939,-10.901,-62.076,0.0,0.0
60108,-0.171,-0.362,0.707,-71.244,250.130,0.191,0.0,0.0
60154,-1.251,-0.570,1.282,6.038,103.023,84.046,0.0,0.0
60200,-1.062,-0.257,1.494,11.260,-250.137,67.626,0.0,0.0
60247,0.442,-0.841,0.287,17.695,-250.137,-13.947,0.0,0.0
60294,2.000,0.761,0.572,41.198,4.977,-77.931,0.0,0.0
60340,0.336,-0.068,0.709,-51.916,250.130,-12.321,0.0,0.0
60389,-0.579,-0.656,1.190,-18.656,111.420,32.901,0.0,0.0
60435,-0.438,-0.249,1.222,35.763,-59.679,-12.366,0.0,0.0
60481,0.189,-0.223,0.780,-0.595,-89.092,-0.565,0.0,0.0
60527,0.300,-0.299,0.837,4.130,-8.496,20.802,0.0,0.0
60573,0.117,-0.246,0.955,5.328,25.145,12.191,0.0,0.0
60619,0.024,-0.267,1.035,2.153,-6.237,7.656,0.0,0.0
60666,0.142,-0.209,0.922,0.344,2.244,-7.695,0.0,0.0
60712,0.058,-0.307,0.984,-3.939,11.214,2.107,0.0,0.0
60759,0.049,-0.283,0.977,6.107,1.313,5.618,0.0,0.0
60808,0.079,-0.258,0.983,6.229,-15.244,10.931,0.0,0.0
60854,0.153,-0.237,0.938,5.115,-4.221,4.550,0.0,0.0
60900,0.147,-0.221,0.938,-0.137,11.382,1.328,0.0,0.0
60946,0.026,-0.272,0.992,-1.221,4.595,1.321,0.0,0.0
60992,0.059,-0.282,0.965,2.954,-11.489,-0.504,0.0,0.0
61039,0.117,-0.258,0.960,3.336,-12.115,3.893,0.0,0.0
61085,0.101,-0.279,0.983,8.351,-1.443,4.504,0.0,0.0
61131,0.106,-0.259,1.016,14.992,-6.939,7.779,0.0,0.0
61177,0.156,-0.173,0.981,12.069,5.695,5.321,0.0,0.0
61224,0.119,-0.215,0.958,6.840,13.351,2.260,0.0,0.0
61274,0.157,-0.226,0.976,7.061,3.832,-9.870,0.0,0.0
61320,0.188,-0.154,0.979,4.046,19.481,-12.328,0.0,0.0
61366,0.068,-0.251,0.983,2.115,29.725,-25.809,0.0,0.0
61412,-0.384,-0.088,1.098,-6.885,-16.412,-2.924,0.0,0.0
61459,-0.730,-0.313,1.201,-17.725,-217.099,27.939,0.0,0.0
61505,0.173,-0.382,0.543,-1.580,-250.137,6.313,0.0,0.0
61552,1.749,0.015,0.036,4.427,-165.977,-34.015,0.0,0.0
61598,1.502,-0.192,0.112,-41.573,227.000,-34.405,0.0,0.0
61644,0.186,-0.234,0.467,-56.374,250.130,-31.824,0.0,0.0
61694,-0.904,-0.405,1.166,-22.733,236.855,6.168,0.0,0.0
61741,-1.298,-0.385,1.561,4.229,-134.756,25.198,0.0,0.0
61788,-0.223,-0.462,0.683,13.168,-250.137,26.137,0.0,0.0
61834,1.590,-0.180,0.076,55.237,-193.130,-12.122,0.0,0.0
61881,1.031,-0.037,0.574,-8.252,137.992,17.863,0.0,0.0
61927,0.177,-0.289,0.994,-29.244,191.450,9.725,0.0,0.0
61974,-0.148,-0.331,1.168,-0.130,62.550,-14.107,0.0,0.0
62020,0.045,-0.282,1.063,-5.137,-36.802,-10.450,0.0,0.0
62067,0.354,-0.285,0.834,5.260,-27.160,-0.366,0.0,0.0
62173,0.256,-0.270,0.928,4.275,17.260,4.053,0.0,0.0
62220,0.215,-0.236,0.938,-1.053,6.458,-1.641,0.0,0.0
62266,0.224,-0.261,0.929,-4.695,8.382,-3.168,0.0,0.0
62313,0.199,-0.271,0.955,-3.489,12.740,-1.084,0.0,0.0
62359,0.189,-0.299,0.950,-0.313,-3.969,1.000,0.0,0.0
62406,0.246,-0.255,0.920,-0.473,-1.153,0.489,0.0,0.0
62452,0.234,-0.257,0.923,-1.748,9.374,-0.504,0.0,0.0
62499,0.201,-0.291,0.939,-2.198,11.763,-0.924,0.0,0.0
62545,0.158,-0.267,0.976,-0.557,2.611,0.183,0.0,0.0
62595,0.200,-0.260,0.935,-0.557,3.527,1.084,0.0,0.0
62642,0.177,-0.356,0.956,4.496,3.794,3.939,0.0,0.0
62688,0.137,-0.298,1.113,15.473,7.618,18.290,0.0,0.0
62735,0.133,-0.404,1.193,44.397,3.695,22.992,0.0,0.0
62781,0.106,-0.364,1.268,86.565,-9.290,37.954,0.0,0.0
62828,0.183,-0.212,1.221,113.962,-5.969,47.145,0.0,0.0
62875,0.172,-0.190,1.173,134.511,-17.511,43.267,0.0,0.0
62921,0.197,-0.008,1.034,145.305,-26.977,46.771,0.0,0.0
62968,0.248,0.138,0.820,134.153,-24.672,41.130,0.0,0.0
63014,0.288,0.257,0.648,112.725,-12.557,37.740,0.0,0.0
63065,0.256,0.339,0.636,78.679,-11.695,27.412,0.0,0.0
63112,0.303,0.432,0.608,48.420,-7.656,19.672,0.0,0.0
63158,0.286,0.397,0.678,24.237,-13.023,10.565,0.0,0.0
63205,0.381,0.406,0.685,9.015,-7.160,4.389,0.0,0.0
63251,0.514,0.423,0.655,-2.634,40.481,-14.695,0.0,0.0
63298,0.307,0.456,0.743,-10.397,98.817,-17.511,0.0,0.0
63345,-0.001,0.548,0.711,-35.969,127.336,10.573,0.0,0.0
63391,-0.431,0.496,1.118,-72.092,32.183,63.069,0.0,0.0
63438,0.061,0.117,1.111,-56.947,-94.076,42.992,0.0,0.0
63511,0.771,0.199,0.938,39.893,-103.389,-71.969,0.0,0.0
63560,0.478,0.586,0.647,11.870,114.710,-82.740,0.0,0.0
63609,-0.416,0.451,0.895,-39.664,119.481,8.328,0.0,0.0
63660,-0.771,0.270,1.247,-64.183,-82.618,63.221,0.0,0.0
63709,0.169,-0.149,0.861,-22.084,-250.137,3.885,0.0,0.0
63758,1.405,0.301,0.337,28.939,-74.046,-52.511,0.0,0.0
63807,0.490,0.506,0.775,-27.863,171.771,-10.901,0.0,0.0
63856,-0.246,0.139,1.148,-25.321,104.099,15.122,0.0,0.0
63905,-0.101,0.217,1.168,6.450,-49.069,-13.328,0.0,0.0
63958,0.390,0.321,0.829,3.718,-50.885,-6.725,0.0,0.0
64007,0.336,0.272,0.896,-2.763,22.290,16.084,0.0,0.0
64057,0.156,0.223,1.034,0.947,1.290,17.115,0.0,0.0
64128,0.349,0.298,0.864,11.550,-15.931,-4.496,0.0,0.0
64177,0.292,0.290,0.868,0.725,33.412,-6.336,0.0,0.0
64225,0.133,0.236,0.984,-0.863,11.397,-0.832,0.0,0.0
64273,0.235,0.279,0.927,-0.511,-12.489,2.939,0.0,0.0
64322,0.410,0.258,0.859,-1.496,5.405,-6.656,0.0,0.0
64370,0.534,0.286,0.818,-0.603,65.092,-27.756,0.0,0.0
64439,0.368,0.334,0.774,-2.275,149.389,-52.382,0.0,0.0
64488,-0.526,0.360,0.874,-12.878,154.969,-38.260,0.0,0.0
64536,-1.052,0.396,1.158,-65.206,-22.275,8.504,0.0,0.0
64585,-0.911,0.124,0.998,-100.519,-250.137,59.847,0.0,0.0
