Timestamp(ms),AccelX(g),AccelY(g),AccelZ(g),GyroX(deg/s),GyroY(deg/s),GyroZ(deg/s),DistanceLeft(cm),DistanceRight(cm)
35597,1.025,-0.108,0.421,17.221,-145.252,1.847,0.0,0.0
35644,1.035,-0.061,0.438,-4.473,110.160,-44.450,0.0,0.0
35690,0.379,-0.045,0.732,-6.534,215.153,-70.198,0.0,0.0
35737,-0.135,-0.040,0.907,3.191,224.817,-66.718,0.0,0.0
35783,-0.529,0.087,1.139,4.855,147.038,-35.023,0.0,0.0
35829,-0.846,0.144,1.222,-10.084,3.397,-0.313,0.0,0.0
35875,-0.653,0.063,1.117,-25.634,-162.336,50.557,0.0,0.0
35926,-0.100,-0.188,0.875,-17.305,-250.137,87.740,0.0,0.0
35972,1.151,-0.306,0.197,18.580,-224.519,33.802,0.0,0.0
36018,1.635,-0.008,0.200,11.580,76.084,-20.908,0.0,0.0
36065,0.653,-0.003,0.494,-21.878,250.130,-59.076,0.0,0.0
36111,-0.538,-0.058,1.127,-12.496,250.130,-30.412,0.0,0.0
36157,-0.844,-0.082,1.435,-5.870,2.947,-11.031,0.0,0.0
36204,-0.092,0.002,1.015,-2.710,-127.198,-3.748,0.0,0.0
36250,0.418,-0.061,0.815,-4.504,-61.481,12.107,0.0,0.0
36297,0.318,-0.056,0.962,-3.504,24.076,11.137,0.0,0.0
36364,0.181,-0.062,1.025,2.763,28.847,-4.809,0.0,0.0
36410,0.184,-0.019,0.942,0.679,41.130,-17.679,0.0,0.0
36456,0.269,-0.042,0.909,-1.206,76.450,-22.076,0.0,0.0
36503,0.267,-0.059,0.992,2.710,126.908,-37.679,0.0,0.0
36549,-0.271,0.009,1.151,17.374,165.305,-55.031,0.0,0.0
36596,-1.177,0.095,1.345,20.702,37.931,-22.305,0.0,0.0
36642,-1.755,-0.017,1.328,-19.695,-250.137,50.153,0.0,0.0
36689,-0.853,-0.351,0.336,-7.107,-250.137,90.321,0.0,0.0
36736,1.091,-0.456,-0.523,54.382,-250.137,65.450,0.0,0.0
36786,2.000,0.168,-0.505,16.435,103.824,-17.916,0.0,0.0
36832,1.013,-0.033,0.057,-51.954,250.130,-85.450,0.0,0.0
36879,-0.355,-0.285,0.321,-37.061,250.130,-103.886,0.0,0.0
36925,-1.685,0.081,1.091,-6.244,250.130,-24.931,0.0,0.0
36972,-2.000,-0.058,1.712,-63.679,-184.221,26.252,0.0,0.0
37019,-1.206,-0.507,0.622,-8.061,-250.137,80.588,0.0,0.0
37065,1.579,-0.762,-1.070,101.061,-250.137,-7.290,0.0,0.0
37112,2.000,0.461,-0.487,4.160,178.008,-26.557,0.0,0.0
37158,0.452,-0.097,0.334,-78.931,250.130,-69.901,0.0,0.0
37226,-1.145,-0.445,0.878,-3.237,250.130,-49.511,0.0,0.0
37273,-1.552,-0.055,1.421,-25.344,-163.496,32.802,0.0,0.0
37319,-0.780,-0.423,0.834,2.977,-250.137,99.053,0.0,0.0
37366,1.107,-0.753,-0.294,89.603,-250.137,47.779,0.0,0.0
37412,2.000,0.442,-0.350,39.153,10.000,-20.145,0.0,0.0
37459,1.125,0.083,0.244,-64.824,250.130,-81.168,0.0,0.0
37507,-0.308,-0.245,0.543,-47.641,250.130,-91.496,0.0,0.0
37553,-1.528,-0.147,1.242,-5.214,226.756,-24.885,0.0,0.0
37600,-1.702,-0.205,1.410,-35.687,-218.870,50.977,0.0,0.0
37650,-0.281,-0.509,0.416,21.427,-250.137,90.878,0.0,0.0
37697,2.000,-0.079,-0.302,87.794,-250.137,25.649,0.0,0.0
37743,2.000,0.288,0.001,-23.168,180.305,-29.534,0.0,0.0
37790,0.631,-0.160,0.608,-60.420,250.130,-84.443,0.0,0.0
37837,-0.507,-0.361,0.792,-12.695,250.130,-90.038,0.0,0.0
37883,-1.350,0.165,1.415,-1.580,147.969,-8.916,0.0,0.0
37931,-1.351,-0.240,1.341,-26.962,-203.000,72.023,0.0,0.0
38034,1.661,-0.125,-0.042,91.038,-250.137,20.588,0.0,0.0
38081,1.559,0.183,0.188,-32.664,201.840,-46.183,0.0,0.0
38149,0.128,-0.197,0.691,-52.481,250.130,-73.038,0.0,0.0
38196,-0.979,-0.210,1.355,2.557,91.046,-19.198,0.0,0.0
38242,-0.504,-0.064,1.099,2.748,-120.595,-3.076,0.0,0.0
38289,0.268,-0.110,0.745,3.450,-122.282,15.336,0.0,0.0
38336,0.462,-0.015,0.844,4.160,-11.145,18.718,0.0,0.0
38383,0.269,-0.031,0.990,-6.191,44.580,5.740,0.0,0.0
38429,0.095,-0.064,1.073,-3.641,29.389,-11.275,0.0,0.0
38476,0.099,-0.063,1.025,-4.046,10.405,-11.664,0.0,0.0
38523,0.077,-0.091,1.023,-5.198,4.511,-4.916,0.0,0.0
38574,0.051,-0.120,1.028,0.718,-10.214,2.580,0.0,0.0
38620,0.139,-0.057,0.979,2.405,-9.412,2.458,0.0,0.0
38667,0.144,-0.065,0.984,2.084,0.786,1.122,0.0,0.0
38714,0.103,-0.084,1.006,0.847,0.664,-0.435,0.0,0.0
38760,0.102,-0.087,1.003,1.718,-0.107,1.420,0.0,0.0
38807,0.103,-0.074,1.000,3.664,-0.794,5.153,0.0,0.0
38854,0.164,-0.105,0.978,6.252,8.756,6.115,0.0,0.0
38901,0.179,-0.111,0.997,12.046,44.137,13.847,0.0,0.0
38947,0.318,-0.117,0.927,25.122,84.702,17.145,0.0,0.0
38994,0.291,-0.037,0.782,33.252,177.198,7.649,0.0,0.0
39045,-0.052,0.117,0.699,23.260,244.779,10.916,0.0,0.0
39092,-0.519,0.054,0.693,7.779,222.824,13.985,0.0,0.0
39139,-0.865,-0.003,0.782,4.008,154.282,3.023,0.0,0.0
39186,-1.140,-0.036,0.910,-1.031,17.015,-21.137,0.0,0.0
39233,-0.667,0.036,0.722,-9.618,-44.779,-28.832,0.0,0.0
39280,-0.572,-0.003,0.731,-5.893,-19.298,-14.847,0.0,0.0
39327,-0.594,-0.025,0.761,-0.687,2.153,-11.031,0.0,0.0
39374,-0.620,-0.009,0.804,0.550,12.153,-7.298,0.0,0.0
39421,-0.648,-0.017,0.796,3.366,3.137,-5.153,0.0,0.0
39489,-0.574,-0.031,0.735,1.229,1.687,-3.435,0.0,0.0
39536,-0.619,-0.046,0.782,-0.626,1.382,-4.626,0.0,0.0
39583,-0.612,-0.019,0.774,2.985,-9.107,-6.573,0.0,0.0
39630,-0.597,-0.028,0.760,-1.672,-8.847,-3.992,0.0,0.0
39677,-0.604,-0.049,0.797,-1.931,-14.817,-2.855,0.0,0.0
39725,-0.572,-0.034,0.783,0.740,-13.695,-5.473,0.0,0.0
39772,-0.570,-0.050,0.791,-1.809,-11.351,-2.061,0.0,0.0
39819,-0.555,-0.037,0.812,-2.206,-6.473,-2.771,0.0,0.0
39866,-0.565,-0.042,0.814,0.901,-11.702,-1.580,0.0,0.0
39916,-0.559,-0.008,0.837,0.008,-11.015,-2.359,0.0,0.0
39963,-0.724,-0.025,0.964,0.977,-45.252,-4.931,0.0,0.0
40010,-1.030,-0.050,1.097,7.061,-156.275,-3.901,0.0,0.0
40057,-0.931,-0.008,0.899,0.221,-250.137,-12.466,0.0,0.0
40104,-0.051,0.050,0.376,-17.779,-250.137,-6.252,0.0,0.0
40153,0.502,-0.012,0.534,-32.786,-202.359,6.275,0.0,0.0
40200,0.592,-0.116,0.702,-34.405,-92.489,17.649,0.0,0.0
40247,0.456,-0.244,0.828,-21.733,-23.634,14.214,0.0,0.0
40294,0.462,-0.235,0.906,-12.924,-20.031,12.282,0.0,0.0
40361,0.543,-0.172,0.907,-4.824,13.267,4.412,0.0,0.0
40410,0.397,-0.172,0.981,-1.870,33.534,1.321,0.0,0.0
40513,0.342,-0.181,0.953,9.122,6.420,0.702,0.0,0.0
40560,0.318,-0.183,0.935,7.145,9.290,1.336,0.0,0.0
40607,0.247,-0.163,0.963,9.229,5.702,5.740,0.0,0.0
40654,0.328,-0.166,0.911,8.794,-6.908,2.878,0.0,0.0
40701,0.312,-0.128,0.916,4.542,5.298,3.221,0.0,0.0
40750,0.333,-0.135,0.910,2.794,11.840,0.947,0.0,0.0
40797,0.282,-0.171,0.958,2.786,6.626,-1.183,0.0,0.0
40844,0.287,-0.142,0.938,3.550,9.099,0.458,0.0,0.0
40911,0.313,-0.139,0.927,4.542,13.992,-1.076,0.0,0.0
40958,0.240,-0.188,0.970,2.916,3.794,-0.588,0.0,0.0
41007,0.254,-0.119,0.979,4.603,1.252,1.672,0.0,0.0
41054,0.290,-0.129,0.936,4.198,2.626,-0.855,0.0,0.0
41101,0.236,-0.153,0.973,2.847,-4.145,0.206,0.0,0.0
41148,0.388,-0.139,0.865,4.237,11.863,3.969,0.0,0.0
41195,0.610,-0.170,0.958,11.336,43.481,5.305,0.0,0.0
41242,1.242,-0.268,0.224,35.802,195.611,-40.336,0.0,0.0
41290,-0.108,0.013,0.539,2.076,250.130,-68.740,0.0,0.0
41340,-1.370,-0.020,0.742,8.870,250.130,-17.725,0.0,0.0
41389,-2.000,-0.004,1.556,-27.305,-64.534,-7.282,0.0,0.0
41436,-1.583,-0.318,0.836,-34.527,-250.137,39.473,0.0,0.0
41484,0.035,-0.488,0.179,25.450,-250.137,27.779,0.0,0.0
41531,1.934,0.330,-0.227,72.084,-250.137,-67.740,0.0,0.0
41578,1.656,0.115,0.072,-24.405,192.931,-73.221,0.0,0.0
41626,-0.206,-0.069,0.196,-50.229,250.130,-66.061,0.0,0.0
41673,-1.859,0.077,1.569,-49.725,231.038,73.061,0.0,0.0
41728,-1.365,-0.543,1.170,-14.031,-250.137,82.046,0.0,0.0
41777,0.774,-0.525,-0.077,47.214,-250.137,-9.656,0.0,0.0
41824,2.000,0.435,-0.329,18.542,7.298,-33.435,0.0,0.0
41870,0.955,0.050,0.000,-78.290,250.130,-87.786,0.0,0.0
41916,-1.197,-0.254,0.141,-37.069,250.130,-39.641,0.0,0.0
41962,-2.000,0.198,2.000,-46.145,98.046,58.626,0.0,0.0
42008,-1.741,-0.455,1.103,-38.901,-250.137,68.038,0.0,0.0
42055,0.202,-0.791,-0.088,24.511,-250.137,21.611,0.0,0.0
42101,2.000,0.723,-0.375,62.191,-207.405,-15.336,0.0,0.0
42148,1.432,0.245,0.107,-68.886,250.130,-68.374,0.0,0.0
42198,-0.573,-0.307,0.460,-67.740,250.130,-69.389,0.0,0.0
42244,-1.905,-0.149,1.475,-9.244,206.260,4.473,0.0,0.0
42290,-1.569,-0.305,1.318,-30.130,-250.137,58.282,0.0,0.0
42337,-0.268,-0.614,0.390,16.275,-250.137,67.954,0.0,0.0
42383,2.000,0.072,-0.269,108.160,-250.137,-9.595,0.0,0.0
42430,2.000,0.369,0.041,-24.527,247.076,-60.168,0.0,0.0
42476,0.292,-0.121,0.263,-72.947,250.130,-87.038,0.0,0.0
42523,-1.356,-0.411,0.682,-20.962,250.130,-13.511,0.0,0.0
42569,-2.000,-0.121,1.911,-19.084,-101.244,41.710,0.0,0.0
42636,-0.889,-0.449,0.622,-1.924,-250.137,67.718,0.0,0.0
42683,2.000,0.015,-0.290,112.168,-250.137,-5.771,0.0,0.0
42729,1.916,0.422,0.102,-19.511,231.649,-57.122,0.0,0.0
42776,0.215,-0.104,0.333,-76.382,250.130,-76.947,0.0,0.0
42822,-1.214,-0.430,0.738,-31.244,250.130,-14.710,0.0,0.0
42869,-1.892,-0.080,1.893,-25.130,-82.779,51.588,0.0,0.0
42973,0.732,-0.658,0.127,45.221,-250.137,-0.924,0.0,0.0
43019,2.000,0.389,0.100,8.076,118.008,-53.328,0.0,0.0
43066,0.683,0.004,0.262,-74.107,250.130,-68.725,0.0,0.0
43115,-1.037,-0.404,0.881,-34.840,250.130,-32.763,0.0,0.0
43162,-2.000,-0.127,1.994,9.679,-40.901,23.046,0.0,0.0
43208,-1.059,-0.292,0.771,-3.847,-250.137,57.885,0.0,0.0
43255,0.675,-0.640,-0.099,46.504,-250.137,19.214,0.0,0.0
43301,2.000,0.196,-0.073,46.275,-46.992,10.237,0.0,0.0
43348,1.039,0.092,0.402,-31.084,250.130,-38.695,0.0,0.0
43396,-0.063,-0.184,0.801,-32.458,250.130,-45.908,0.0,0.0
43442,-0.593,-0.249,1.174,-9.580,154.977,-36.214,0.0,0.0
43489,-0.714,-0.135,1.307,1.634,-54.160,-19.053,0.0,0.0
43555,0.038,-0.144,0.890,0.786,-141.183,2.939,0.0,0.0
43602,0.471,-0.098,0.827,4.351,3.198,14.344,0.0,0.0
43649,0.219,-0.074,1.004,-0.183,48.450,7.664,0.0,0.0
43696,0.101,-0.084,1.046,1.069,33.374,-5.481,0.0,0.0
43742,0.091,-0.108,1.006,-0.252,9.771,-9.290,0.0,0.0
43789,0.098,-0.090,0.966,-3.084,7.863,-4.511,0.0,0.0
43835,0.052,-0.144,1.009,-4.496,2.435,-0.603,0.0,0.0
43882,0.078,-0.141,0.981,0.160,-5.855,0.405,0.0,0.0
43928,0.123,-0.099,0.961,-0.450,1.863,-3.664,0.0,0.0
43978,0.086,-0.110,0.993,-2.794,12.557,-0.649,0.0,0.0
44024,0.048,-0.128,1.016,-1.328,6.687,-1.473,0.0,0.0
44071,0.071,-0.140,0.995,-0.153,-2.000,-2.115,0.0,0.0
44119,0.088,-0.131,0.978,1.282,1.954,-1.099,0.0,0.0
44165,0.081,-0.130,1.000,1.260,2.870,-0.412,0.0,0.0
44212,0.058,-0.117,0.989,2.252,2.336,-0.397,0.0,0.0
44258,0.077,-0.121,0.988,1.496,-0.015,0.511,0.0,0.0
44305,0.051,-0.142,0.983,1.260,0.313,-1.924,0.0,0.0
44351,0.074,-0.118,0.971,2.290,2.435,1.183,0.0,0.0
44398,0.047,-0.130,0.989,0.267,0.122,0.748,0.0,0.0
44448,0.087,-0.117,0.976,1.710,2.687,0.244,0.0,0.0
44494,0.054,-0.136,0.994,1.748,3.198,1.092,0.0,0.0
44541,0.066,-0.103,0.989,1.191,-0.031,-0.420,0.0,0.0
44588,0.052,-0.130,0.993,2.252,1.389,1.069,0.0,0.0
44635,0.080,-0.132,0.979,3.550,4.947,1.084,0.0,0.0
44682,0.141,-0.126,0.967,6.122,29.954,3.382,0.0,0.0
44728,0.378,-0.184,0.799,16.641,81.802,-11.534,0.0,0.0
44775,0.293,-0.028,0.683,11.412,182.107,-29.351,0.0,0.0
44822,0.004,-0.045,0.555,-17.786,250.130,-28.695,0.0,0.0
44888,-0.675,-0.138,0.506,-21.229,250.130,-1.863,0.0,171.0
44944,-1.274,-0.181,0.839,-12.901,134.939,5.878,0.0,113.0
45004,-1.128,-0.209,0.768,1.817,-6.107,-21.206,0.0,0.0
45051,-0.703,-0.083,0.648,-4.191,-34.260,-11.733,0.0,0.0
45099,-0.713,-0.190,0.647,1.214,-7.137,-1.603,0.0,0.0
45146,-0.730,-0.146,0.693,7.870,-5.504,-1.534,0.0,0.0
45193,-0.713,-0.119,0.678,3.786,-10.885,-0.916,0.0,0.0
45240,-0.750,-0.162,0.728,0.580,-25.527,-4.099,0.0,0.0
45287,-0.686,-0.144,0.696,3.855,-38.321,-4.344,0.0,0.0
45337,-0.605,-0.146,0.656,3.450,-28.237,-4.122,0.0,0.0
45441,-0.638,-0.157,0.733,2.153,-11.672,-2.061,0.0,0.0
45488,-0.608,-0.152,0.723,0.511,-7.649,-1.160,0.0,0.0
45535,-0.631,-0.160,0.762,1.511,-15.748,-0.908,0.0,0.0
45582,-0.550,-0.146,0.710,1.214,-12.198,-3.267,0.0,0.0
45629,-0.585,-0.169,0.748,0.282,-2.191,-2.557,0.0,0.0
45676,-0.602,-0.165,0.768,1.977,-3.229,-3.626,0.0,0.0
45723,-0.601,-0.136,0.747,2.305,-6.969,-4.481,0.0,0.0
45770,-0.575,-0.149,0.733,-0.534,-3.069,-2.718,0.0,0.0
45838,-0.592,-0.159,0.742,-0.351,-1.756,-1.511,0.0,0.0
45885,-0.578,-0.157,0.751,-0.076,-4.954,-2.611,0.0,0.0
45932,-0.602,-0.160,0.784,0.084,-2.366,-2.504,0.0,0.0
45979,-0.579,-0.158,0.783,0.947,-8.267,-2.321,0.0,0.0
46026,-0.612,-0.146,0.816,0.313,-11.076,-0.183,0.0,0.0
46073,-0.635,-0.148,0.830,0.710,-20.412,-0.550,0.0,0.0
46120,-1.060,-0.194,1.034,7.916,-98.847,-3.221,0.0,0.0
46168,-1.304,-0.130,1.026,2.466,-250.137,2.947,0.0,0.0
46215,-0.569,-0.237,0.419,-17.611,-250.137,15.985,0.0,0.0
46262,0.609,-0.306,0.300,14.099,-250.137,-32.023,0.0,0.0
46329,1.821,-0.106,0.061,22.252,-31.916,-12.534,0.0,0.0
46377,0.257,-0.080,0.537,-39.198,250.130,-42.634,0.0,0.0
46425,-1.083,-0.287,1.080,-10.985,250.130,0.198,0.0,0.0
46472,-1.496,-0.236,1.441,-4.504,-79.008,13.756,0.0,0.0
46519,-0.699,-0.225,0.832,-11.824,-250.137,49.634,0.0,0.0
46566,0.392,-0.430,0.447,13.733,-250.137,52.237,0.0,0.0
46614,1.506,-0.047,0.338,24.115,-101.458,17.832,0.0,0.0
46661,1.063,-0.070,0.525,-18.557,175.038,-16.649,0.0,0.0
46729,0.047,-0.199,0.965,-29.382,236.023,-32.878,0.0,0.0
46776,-0.627,-0.316,1.332,-1.237,3.359,-17.786,0.0,0.0
46824,-0.114,-0.199,0.984,1.687,-112.389,-5.527,0.0,0.0
46871,0.338,-0.236,0.814,5.015,-76.328,10.527,0.0,0.0
46918,0.409,-0.182,0.871,6.817,9.962,7.206,0.0,0.0
46965,0.174,-0.170,1.018,3.817,31.748,0.603,0.0,0.0
47012,0.163,-0.183,0.971,3.221,18.450,-9.557,0.0,0.0
47059,0.148,-0.166,0.979,-0.244,17.511,-7.183,0.0,0.0
47107,0.096,-0.194,0.964,-1.534,16.191,-4.634,0.0,0.0
47155,0.078,-0.208,0.996,-0.878,-1.305,-2.496,0.0,0.0
47222,0.136,-0.173,0.955,1.298,1.771,-2.771,0.0,0.0
47269,0.115,-0.167,0.970,-1.511,13.084,-0.412,0.0,0.0
47316,0.083,-0.219,0.985,-2.435,6.626,-3.626,0.0,0.0
47365,0.104,-0.195,0.992,1.153,-2.237,-0.679,0.0,0.0
47412,0.121,-0.174,0.967,0.580,4.489,-0.153,0.0,0.0
47459,0.099,-0.220,0.968,0.458,3.153,-2.183,0.0,0.0
47506,0.084,-0.192,0.974,1.924,4.817,1.305,0.0,0.0
47553,0.120,-0.201,0.946,1.214,4.847,-0.947,0.0,0.0
47601,0.062,-0.201,0.982,-1.168,9.092,-1.053,0.0,0.0
47651,0.083,-0.177,0.981,-1.237,4.061,-0.450,0.0,0.0
47698,0.134,-0.220,0.951,-1.008,3.321,-3.389,0.0,0.0
47747,0.211,-0.203,0.954,-0.618,23.176,-6.420,0.0,0.0
47794,0.170,-0.156,0.976,-3.015,58.443,-14.206,0.0,0.0
47841,-0.119,-0.214,1.115,-4.290,62.405,-22.519,0.0,0.0
47945,-0.790,-0.176,1.192,-8.420,-180.145,44.237,0.0,0.0
47993,0.156,-0.489,0.639,24.420,-250.137,70.595,0.0,0.0
48063,1.413,-0.221,0.148,51.107,-156.649,30.374,0.0,0.0
48110,1.124,-0.023,0.416,-19.977,192.053,-35.855,0.0,0.0
48159,0.376,-0.295,0.610,-36.206,250.130,-75.832,0.0,0.0
48205,-0.594,-0.236,0.960,-12.412,250.130,-42.718,0.0,0.0
48252,-1.244,-0.217,1.444,-12.313,22.496,10.977,0.0,0.0
48299,-0.934,-0.370,1.188,-12.824,-250.137,52.489,0.0,0.0
48345,0.393,-0.529,0.408,29.924,-250.137,34.031,0.0,0.0
48392,1.744,0.060,0.165,35.611,-143.107,11.183,0.0,0.0
48438,1.137,-0.049,0.488,-26.809,167.198,-22.580,0.0,0.0
48484,0.262,-0.260,0.860,-35.954,220.527,-39.672,0.0,0.0
48530,-0.357,-0.391,1.181,-11.275,95.176,-24.634,0.0,0.0
48580,-0.207,-0.222,1.151,-1.656,-68.679,-11.260,0.0,0.0
48626,0.316,-0.258,0.835,3.733,-94.947,0.496,0.0,0.0
48672,0.615,-0.230,0.755,8.931,-14.458,4.786,0.0,0.0
48719,0.395,-0.171,0.921,1.176,45.756,0.397,0.0,0.0
48765,0.241,-0.190,0.966,-1.672,39.084,-8.221,0.0,0.0
48812,0.216,-0.245,0.967,-5.244,12.412,-12.679,0.0,0.0
48858,0.240,-0.228,0.957,-1.511,6.427,-7.076,0.0,0.0
48905,0.236,-0.245,0.939,-0.664,1.878,-3.878,0.0,0.0
48951,0.227,-0.239,0.957,1.450,-2.260,-1.565,0.0,0.0
48997,0.237,-0.203,0.936,2.458,-0.672,-2.710,0.0,0.0
49046,0.250,-0.241,0.919,1.260,3.053,-1.740,0.0,0.0
49093,0.237,-0.239,0.958,1.641,7.137,3.145,0.0,0.0
49139,0.354,-0.214,0.885,1.504,24.267,-3.527,0.0,0.0
49185,0.609,-0.215,0.768,-2.924,95.359,-6.969,0.0,0.0
49232,0.592,-0.224,0.541,2.611,237.740,-24.191,0.0,0.0
49278,-0.047,-0.170,0.764,-10.565,250.130,-30.168,0.0,0.0
49326,-0.830,-0.344,0.945,4.939,231.870,-13.718,0.0,0.0
49372,-1.790,-0.440,0.919,39.511,94.817,-39.504,0.0,0.0
49419,-1.820,0.082,1.199,-22.344,-187.847,4.427,0.0,0.0
49485,-1.218,-0.535,0.584,-17.977,-250.137,94.786,0.0,0.0
49532,1.129,-0.647,-0.511,55.237,-250.137,-23.282,0.0,0.0
49579,2.000,0.030,-0.302,10.023,-24.641,-7.580,0.0,0.0
49626,1.205,-0.170,0.009,-71.328,250.130,-84.542,0.0,0.0
49672,-0.828,-0.349,0.362,-71.542,250.130,-49.443,0.0,0.0
49719,-2.000,-0.301,1.570,-15.992,189.008,48.603,0.0,0.0
49765,-1.646,-0.464,1.347,-17.954,-250.137,70.137,0.0,0.0
49812,-0.086,-0.685,0.187,15.053,-250.137,40.786,0.0,0.0
49859,2.000,0.680,-0.063,71.191,-218.313,-66.916,0.0,0.0
49908,1.291,0.124,0.086,-54.366,250.130,-62.725,0.0,0.0
49955,-0.662,-0.375,0.461,-66.420,250.130,-35.725,0.0,0.0
50002,-2.000,-0.535,1.236,16.763,219.672,42.565,0.0,0.0
50049,-1.665,-0.272,1.394,-33.214,-250.137,59.794,0.0,0.0
50096,-0.369,-0.626,0.312,-10.893,-250.137,51.183,0.0,0.0
50143,2.000,0.238,-0.177,87.260,-250.137,-86.649,0.0,0.0
50189,1.630,0.091,0.170,-43.618,250.130,-60.344,0.0,0.0
50236,-0.240,-0.404,0.565,-71.183,250.130,-54.840,0.0,0.0
50283,-1.577,-0.556,0.900,-1.702,249.069,21.252,0.0,0.0
50390,-0.442,-0.515,0.598,-11.985,-250.137,55.550,0.0,0.0
50437,2.000,0.366,0.140,66.733,-174.282,-51.313,0.0,0.0
50484,1.352,-0.001,0.261,-51.099,250.130,-74.992,0.0,0.0
50530,-0.361,-0.327,0.548,-66.252,250.130,-42.015,0.0,0.0
50577,-1.759,-0.639,1.066,8.763,208.870,42.359,0.0,0.0
50624,-1.509,-0.133,1.389,-11.954,-234.595,44.649,0.0,0.0
50671,-0.476,-0.470,0.573,-13.427,-250.137,49.626,0.0,0.0
50717,1.555,-0.426,-0.110,78.931,-250.137,-47.443,0.0,0.0
50785,1.670,0.082,0.236,-10.641,142.489,-51.855,0.0,0.0
50832,-0.418,-0.382,0.736,-68.779,250.130,-39.687,0.0,0.0
50879,-1.462,-0.468,1.461,-1.351,82.290,35.252,0.0,0.0
50926,-0.825,-0.361,1.211,12.557,-250.137,57.069,0.0,0.0
50973,0.633,-0.550,0.339,25.763,-250.137,-11.153,0.0,0.0
51019,1.523,0.104,0.422,36.191,14.481,-11.122,0.0,0.0
51066,0.466,-0.040,0.696,-38.588,236.427,-36.580,0.0,0.0
51113,-0.594,-0.368,1.157,-36.939,168.740,-0.382,0.0,0.0
51161,-0.819,-0.431,1.333,3.580,-97.649,13.893,0.0,0.0
51211,0.177,-0.333,0.801,15.198,-203.038,-1.779,0.0,0.0
51258,0.901,-0.127,0.554,21.382,-47.366,3.435,0.0,0.0
51304,0.469,-0.156,0.839,-8.198,88.282,2.237,0.0,0.0
51351,0.023,-0.281,1.067,-8.908,76.886,-5.611,0.0,0.0
51398,-0.019,-0.250,1.015,2.076,4.389,-14.847,0.0,0.0
51445,0.137,-0.270,0.938,-2.290,-23.321,-6.962,0.0,0.0
51492,0.208,-0.242,0.926,2.000,-3.618,1.595,0.0,0.0
51538,0.179,-0.242,0.959,1.985,6.405,0.275,0.0,0.0
51586,0.167,-0.195,0.949,1.351,14.160,-2.427,0.0,0.0
51633,0.144,-0.260,0.950,-2.229,16.901,-4.336,0.0,0.0
51683,0.078,-0.249,1.000,0.519,7.595,-2.099,0.0,0.0
51730,0.117,-0.244,0.973,1.458,-4.405,-0.061,0.0,0.0
51776,0.139,-0.257,0.947,2.145,1.511,-0.908,0.0,0.0
51823,0.123,-0.215,0.969,1.336,6.084,1.832,0.0,0.0
51870,0.108,-0.262,0.971,0.702,0.115,-1.206,0.0,0.0
51917,0.124,-0.246,0.974,0.794,-4.779,2.183,0.0,0.0
51964,0.149,-0.225,0.951,0.672,1.351,-1.695,0.0,0.0
52011,0.117,-0.280,0.958,-0.542,4.252,0.458,0.0,0.0
52058,0.090,-0.241,0.976,1.031,-2.000,0.237,0.0,0.0
52125,0.152,-0.251,0.951,-0.168,-4.847,-1.641,0.0,0.0
52172,0.110,-0.253,0.980,0.183,2.756,1.084,0.0,0.0
52219,0.122,-0.247,0.960,-0.389,3.534,-1.672,0.0,0.0
52267,0.175,-0.284,0.951,1.107,4.183,-2.053,0.0,0.0
52314,0.298,-0.299,0.987,3.557,13.214,-6.939,0.0,0.0
52361,0.527,-0.283,0.921,17.832,67.458,-25.985,0.0,0.0
52408,0.487,-0.282,0.696,26.313,187.740,-43.649,0.0,0.0
52455,-0.252,-0.126,0.603,15.229,250.130,-52.313,0.0,0.0
52502,-0.713,-0.283,0.668,3.641,242.817,-32.496,0.0,0.0
52549,-1.305,-0.169,0.663,9.855,167.336,8.191,0.0,0.0
52617,-1.603,-0.142,1.077,-38.626,-165.740,30.115,0.0,0.0
52664,-0.557,-0.456,0.663,-9.756,-250.137,37.824,0.0,0.0
52711,0.922,-0.321,0.229,37.809,-234.000,-43.603,0.0,0.0
52759,1.329,0.105,0.303,5.046,130.458,-34.618,0.0,0.0
52862,-1.385,-0.369,1.266,-23.702,136.099,24.672,0.0,0.0
52910,-1.013,-0.348,1.043,-19.794,-250.137,32.267,0.0,0.0
52958,0.469,-0.379,0.410,6.733,-250.137,-5.328,0.0,0.0
53005,1.427,0.032,0.452,10.122,-27.603,-4.145,0.0,0.0
53052,0.391,-0.186,0.764,-30.191,197.237,-10.198,0.0,0.0
53102,-0.498,-0.408,1.229,-15.183,123.886,-3.519,0.0,0.0
53150,-0.432,-0.271,1.186,7.145,-32.573,-18.992,0.0,0.0
53197,0.030,-0.256,0.875,-1.282,-59.947,-3.382,0.0,0.0
53244,0.128,-0.268,0.874,4.000,4.038,11.046,0.0,0.0
53292,-0.024,-0.275,0.958,5.183,21.473,6.344,0.0,0.0
53339,-0.062,-0.238,0.986,4.046,2.992,1.344,0.0,0.0
53386,-0.001,-0.251,0.955,-1.061,-5.275,-3.420,0.0,0.0
53433,0.019,-0.223,0.957,-4.336,5.443,-3.595,0.0,0.0
53480,-0.018,-0.280,0.975,-2.718,6.183,-4.321,0.0,0.0
53549,-0.058,-0.294,0.971,3.611,3.473,-2.817,0.0,0.0
53596,-0.043,-0.258,0.961,-0.718,4.504,0.962,0.0,0.0
53643,-0.045,-0.255,0.961,0.527,1.046,-2.137,0.0,0.0
53691,-0.036,-0.273,0.940,1.534,-0.740,-0.137,0.0,0.0
53738,-0.020,-0.254,0.940,0.496,4.832,-1.069,0.0,0.0
53785,-0.053,-0.278,0.947,-0.542,5.443,-1.756,0.0,0.0
53832,-0.054,-0.246,0.952,-0.817,6.908,-1.557,0.0,0.0
53879,-0.047,-0.272,0.935,-1.267,8.221,-0.153,0.0,0.0
53926,-0.074,-0.249,0.980,-2.695,0.313,0.489,0.0,0.0
53978,0.000,-0.292,0.959,-3.092,-13.351,-4.176,0.0,0.0
54025,0.098,-0.296,0.898,1.000,11.832,-18.252,0.0,0.0
54072,0.072,-0.301,0.875,-1.412,47.969,-17.863,0.0,0.0
54120,0.081,-0.360,0.681,1.214,115.130,-41.687,0.0,0.0
54167,-0.298,-0.171,0.413,-24.496,248.130,-31.908,0.0,0.0
54214,-1.095,-0.209,0.914,-59.191,188.870,28.626,0.0,0.0
54268,-1.145,-0.583,1.247,-32.603,-144.481,53.534,0.0,0.0
54315,-0.151,-0.500,0.855,20.481,-227.962,-17.198,0.0,0.0
54361,0.549,-0.152,0.644,14.496,-86.137,-39.695,0.0,0.0
54410,-0.460,-0.253,1.073,-14.267,37.992,-24.931,0.0,0.0
54457,-0.706,-0.417,1.077,-4.405,-80.534,20.374,0.0,0.0
54503,-0.161,-0.469,0.984,5.847,-184.939,35.489,0.0,0.0
54549,0.899,-0.373,0.480,48.260,-79.267,-43.794,0.0,0.0
54595,0.407,-0.037,0.549,-3.733,167.954,-40.405,0.0,0.0
54642,-0.716,-0.305,1.061,-33.260,163.725,1.962,0.0,0.0
54688,-1.071,-0.454,1.202,-7.794,-80.817,16.275,0.0,0.0
54734,-0.282,-0.389,0.897,-3.992,-244.099,31.656,0.0,0.0
54781,0.897,-0.370,0.421,27.954,-105.748,-21.107,0.0,0.0
54831,0.534,-0.171,0.688,-7.092,131.855,-0.206,0.0,0.0
54877,-0.322,-0.341,1.154,-20.489,132.115,1.145,0.0,0.0
54923,-0.451,-0.420,1.119,4.550,-4.427,-18.008,0.0,0.0
54970,-0.075,-0.287,0.912,-1.076,-47.229,-6.260,0.0,0.0
55016,0.085,-0.375,0.832,3.336,-4.580,8.847,0.0,0.0
55062,-0.053,-0.329,0.967,5.473,19.290,6.031,0.0,0.0
55109,-0.088,-0.335,0.979,4.969,-0.183,3.023,0.0,0.0
55155,-0.000,-0.282,0.926,3.664,3.924,-4.069,0.0,0.0
55201,-0.058,-0.334,0.929,0.344,10.954,-3.824,0.0,0.0
55308,-0.066,-0.346,0.940,3.740,-6.282,0.229,0.0,0.0
55354,-0.047,-0.294,0.937,1.603,6.366,-0.542,0.0,0.0
55401,-0.058,-0.312,0.924,0.137,8.382,-3.206,0.0,0.0
55447,-0.114,-0.333,0.958,-1.687,1.267,-3.221,0.0,0.0
55493,-0.054,-0.324,0.922,2.885,-2.427,-2.611,0.0,0.0
55540,-0.078,-0.323,0.946,-0.145,-0.275,-1.450,0.0,0.0
55586,-0.066,-0.313,0.960,1.626,5.397,-3.305,0.0,0.0
55633,-0.026,-0.334,0.939,4.473,2.756,-2.893,0.0,0.0
55680,-0.033,-0.281,0.954,4.924,22.160,-6.176,0.0,0.0
55727,-0.024,-0.340,0.936,9.710,37.992,-12.008,0.0,0.0
55793,-0.196,-0.338,0.882,15.412,72.206,-20.405,0.0,0.0
55839,-1.020,-0.211,1.195,-10.634,-27.672,44.817,0.0,0.0
55886,-0.825,-0.427,1.095,-16.405,-249.702,86.389,0.0,0.0
55933,0.573,-0.674,0.541,39.176,-250.137,29.626,0.0,0.0
55980,1.816,0.072,0.374,56.756,-38.809,-59.527,0.0,0.0
56027,0.528,0.043,0.558,-22.382,250.130,-61.366,0.0,0.0
56073,-1.064,-0.413,0.991,-27.679,250.130,-7.771,0.0,0.0
56120,-1.608,-0.291,1.560,-15.008,-116.084,51.191,0.0,0.0
56167,-0.512,-0.515,0.833,3.817,-250.137,58.267,0.0,0.0
56216,2.000,-0.172,-0.224,88.901,-221.069,-68.427,0.0,0.0
56263,1.282,0.140,0.061,-24.573,250.130,-80.557,0.0,0.0
56310,-0.722,-0.198,0.408,-74.473,250.130,-25.137,0.0,0.0
56356,-1.756,-0.288,1.818,-51.901,24.084,48.466,0.0,0.0
56403,-0.760,-0.590,0.992,-4.466,-250.137,5.634,0.0,0.0
56450,1.503,-0.178,-0.127,46.473,-200.527,-80.779,0.0,0.0
56497,0.842,-0.018,0.663,-12.069,152.412,19.351,0.0,0.0
56544,-0.091,-0.271,1.033,-38.221,207.237,5.595,0.0,0.0
56591,-0.538,-0.448,1.260,9.878,37.504,-14.794,0.0,0.0
56657,-0.013,-0.125,0.958,0.794,-46.405,-19.099,0.0,0.0
56705,0.116,-0.355,0.919,2.985,-8.053,9.603,0.0,0.0
56752,0.097,-0.248,0.969,10.206,6.809,4.550,0.0,0.0
56798,0.072,-0.237,0.942,3.298,11.000,2.061,0.0,0.0
56845,0.064,-0.255,0.951,0.282,11.931,-0.595,0.0,0.0
56891,0.008,-0.242,0.954,-0.366,9.740,-3.779,0.0,0.0
56938,0.031,-0.303,0.932,-3.618,0.794,-1.855,0.0,0.0
56985,0.012,-0.243,0.971,-0.748,6.779,-1.153,0.0,0.0
57031,0.064,-0.273,0.954,-1.756,5.740,-6.374,0.0,0.0
57081,0.164,-0.296,1.001,3.313,24.344,-12.313,0.0,0.0
57127,0.268,-0.226,1.067,14.031,60.733,-29.244,0.0,0.0
57175,0.096,-0.296,0.951,17.656,106.863,-44.893,0.0,0.0
57222,-0.607,-0.281,0.889,14.893,117.275,-46.374,0.0,0.0
57269,-1.182,-0.131,0.970,-13.107,-13.580,28.237,0.0,0.0
57316,-1.028,-0.309,0.941,-40.763,-250.137,99.160,0.0,0.0
57363,0.428,-0.790,0.377,8.504,-250.137,53.099,0.0,0.0
57409,2.000,0.012,0.322,52.412,-141.137,-28.427,0.0,0.0
57456,1.204,-0.021,0.427,-31.695,250.130,-73.374,0.0,0.0
57524,-0.693,-0.414,0.654,-43.702,250.130,-43.687,0.0,0.0
57571,-1.630,-0.156,1.625,-35.206,-124.336,64.603,0.0,0.0
57618,-0.475,-0.671,0.785,-9.191,-250.137,94.328,0.0,0.0
57665,1.864,-0.391,-0.168,81.916,-243.435,-74.321,0.0,0.0
57768,-0.088,-0.358,0.519,-78.672,250.130,-51.519,0.0,0.0
57817,-1.664,-0.270,1.544,-5.969,103.275,41.824,0.0,0.0
57863,-1.066,-0.416,1.270,-16.893,-250.137,82.122,0.0,0.0
57910,0.872,-0.807,-0.044,41.817,-250.137,-59.977,0.0,0.0
57958,2.000,0.040,0.091,5.275,63.504,-41.336,0.0,0.0
58008,0.135,-0.245,0.538,-71.886,250.130,-43.191,0.0,0.0
58055,-1.309,-0.603,1.050,-16.405,227.740,26.176,0.0,0.0
58102,-1.337,-0.428,1.512,6.832,-234.412,71.176,0.0,0.0
58149,0.201,-0.627,0.497,26.328,-250.137,26.313,0.0,0.0
58196,2.000,0.201,0.112,59.206,-91.847,-36.038,0.0,0.0
58243,0.952,0.042,0.378,-38.282,250.130,-47.405,0.0,0.0
58291,-0.616,-0.400,0.782,-54.802,250.130,-22.916,0.0,0.0
58338,-1.464,-0.350,1.574,-9.763,16.015,31.405,0.0,0.0
58384,-0.681,-0.430,1.119,0.824,-250.137,41.550,0.0,0.0
58452,1.575,-0.416,-0.070,77.008,-207.267,-67.244,0.0,0.0
58500,0.714,0.056,0.423,-45.664,250.130,-46.611,0.0,0.0
58547,-0.818,-0.486,1.062,-54.046,250.130,-4.679,0.0,0.0
58594,-1.495,-0.420,1.605,19.038,-92.710,27.802,0.0,0.0
58641,-0.246,-0.386,0.791,7.053,-250.137,22.756,0.0,0.0
58688,1.493,-0.025,0.224,38.901,-113.527,-27.649,0.0,0.0
58735,0.617,-0.066,0.716,-18.443,156.962,8.397,0.0,0.0
58782,-0.175,-0.340,1.166,-22.328,138.809,7.779,0.0,0.0
58829,-0.216,-0.327,1.151,14.740,-7.374,-25.351,0.0,0.0
58881,0.127,-0.184,0.892,-0.740,-21.466,-5.878,0.0,0.0
58928,0.115,-0.311,0.926,1.504,2.840,8.710,0.0,0.0
58975,0.061,-0.251,0.994,6.939,-4.817,5.718,0.0,0.0
59022,0.152,-0.214,0.928,6.374,-5.786,2.832,0.0,0.0
59069,0.123,-0.229,0.956,-0.366,11.076,-2.275,0.0,0.0
59116,0.082,-0.241,0.962,-1.985,13.397,-1.267,0.0,0.0
59163,0.032,-0.298,0.990,-1.252,0.328,0.519,0.0,0.0
59210,0.114,-0.260,0.961,3.313,-7.122,1.656,0.0,0.0
59257,0.150,-0.209,0.945,-0.710,4.687,-0.710,0.0,0.0
59325,0.062,-0.259,0.985,-2.366,4.015,-1.740,0.0,0.0
59373,0.080,-0.228,0.959,0.687,-1.763,-1.053,0.0,0.0
59420,0.093,-0.282,0.957,-0.099,-0.832,-0.916,0.0,0.0
59467,0.089,-0.255,0.963,0.458,1.198,-0.252,0.0,0.0
59514,0.112,-0.257,0.942,1.252,3.084,-1.695,0.0,0.0
59561,0.064,-0.252,0.981,-0.824,3.321,0.679,0.0,0.0
59609,0.120,-0.270,0.953,1.847,0.695,-2.802,0.0,0.0
59656,0.095,-0.255,0.972,0.313,5.000,-0.855,0.0,0.0
59703,0.207,-0.217,0.998,2.527,16.244,-5.092,0.0,0.0
59750,0.245,-0.250,1.087,-0.481,38.160,-11.473,0.0,0.0
59819,0.328,-0.346,0.968,18.145,85.237,-41.748,0.0,0.0
59866,-0.447,-0.160,0.735,28.786,189.954,-35.496,0.0,0.0
59914,-1.339,-0.092,1.186,-14.298,13.656,52.366,0.0,0.0
59961,-1.039,-0.395,0.995,-25.534,-250.137,87.252,0.0,0.0
60008,0.331,-0.577,0.392,37.496,-250.137,21.366,0.0,0.0
60056,1.996,0.166,0.091,34.466,-106.802,-22.382,0.0,0.0
60103,1.041,-0.044,0.439,-44.145,250.130,-47.221,0.0,0.0
60151,-0.385,-0.324,0.802,-40.992,250.130,-49.244,0.0,0.0
60255,-1.302,-0.250,1.381,-34.611,-233.878,46.519,0.0,0.0
60306,0.608,-0.819,0.192,44.824,-250.137,1.008,0.0,0.0
60354,1.935,0.221,0.128,45.229,-14.550,-15.489,0.0,0.0
60401,0.681,-0.006,0.480,-47.321,250.130,-28.565,0.0,0.0
60449,-0.562,-0.298,1.057,-41.206,250.130,-13.420,0.0,0.0
60496,-0.817,-0.414,1.354,-0.557,-20.748,-15.802,0.0,0.0
60567,0.048,-0.228,0.885,-6.305,-146.947,-10.366,0.0,0.0
60613,0.512,-0.228,0.833,1.321,-1.855,10.298,0.0,0.0
60659,0.205,-0.218,1.013,-3.260,59.557,4.366,0.0,0.0
60705,0.046,-0.294,1.015,3.740,33.985,-8.802,0.0,0.0
60754,0.064,-0.260,0.962,1.046,7.198,-11.328,0.0,0.0
60802,0.046,-0.296,0.949,-1.435,4.458,-2.191,0.0,0.0
60848,0.063,-0.254,0.975,2.702,-2.397,3.626,0.0,0.0
60894,0.131,-0.221,0.933,2.527,-0.924,-0.046,0.0,0.0
60940,0.097,-0.231,0.956,-2.336,10.061,-3.160,0.0,0.0
60986,0.063,-0.264,0.958,1.046,7.901,-5.153,0.0,0.0
61033,0.050,-0.258,0.979,-0.916,0.939,-2.427,0.0,0.0
61079,0.088,-0.234,0.981,1.450,4.481,0.817,0.0,0.0
61125,0.070,-0.288,0.956,2.702,4.779,-2.420,0.0,0.0
61174,0.102,-0.240,0.969,3.992,11.115,0.481,0.0,0.0
61220,0.161,-0.273,0.903,7.908,27.221,-7.183,0.0,0.0
61266,0.126,-0.227,0.889,3.221,58.260,-5.534,0.0,0.0
61314,-0.151,-0.271,0.859,2.366,76.847,-4.992,0.0,0.0
61360,-0.634,-0.061,0.973,-17.634,17.374,12.710,0.0,0.0
61406,-0.844,-0.353,1.141,-56.466,-184.389,70.611,0.0,0.0
61453,0.115,-0.784,0.698,-1.847,-250.137,49.687,0.0,0.0
61499,1.414,-0.190,0.523,56.809,-167.595,-7.595,0.0,0.0
61546,1.394,0.025,0.460,-0.664,166.435,-52.252,0.0,0.0
61613,0.089,-0.231,0.760,-39.870,250.130,-48.061,0.0,0.0
61659,-1.287,-0.278,1.391,-17.038,70.618,-5.115,0.0,0.0
61706,-1.067,-0.432,1.215,-21.878,-250.137,57.603,0.0,0.0
61753,0.438,-0.839,0.277,45.252,-250.137,13.557,0.0,0.0
61799,1.886,0.116,0.119,55.076,-61.275,-15.901,0.0,0.0
61845,0.793,0.022,0.498,-32.237,250.130,-10.878,0.0,0.0
61892,-0.168,-0.340,0.943,-41.443,250.130,-12.351,0.0,0.0
61939,-0.822,-0.493,1.341,6.542,43.992,-16.557,0.0,0.0
61985,-0.219,-0.307,1.060,5.725,-150.359,-6.847,0.0,0.0
62035,0.649,-0.248,0.639,15.191,-86.145,-6.809,0.0,0.0
62082,0.495,-0.214,0.766,-3.931,68.947,-1.786,0.0,0.0
62129,-0.019,-0.235,1.005,-14.893,99.504,5.115,0.0,0.0
62175,-0.192,-0.396,1.077,-2.389,4.809,-5.305,0.0,0.0
62222,-0.143,-0.222,1.104,-2.321,-82.886,5.611,0.0,0.0
62268,0.274,-0.375,0.956,-0.450,-117.725,14.565,0.0,0.0
62315,1.010,-0.400,0.714,32.924,-34.901,-43.641,0.0,0.0
62361,0.852,-0.094,0.453,13.985,207.855,-88.863,0.0,0.0
62408,-0.585,-0.135,0.712,-38.947,250.130,-22.115,0.0,0.0
62475,-1.605,-0.334,1.553,-44.038,-66.313,75.443,0.0,0.0
62522,-0.180,-0.707,0.413,7.809,-250.137,26.145,0.0,0.0
62569,2.000,0.025,-0.239,81.244,-158.443,-83.611,0.0,0.0
62615,1.187,0.204,0.297,-27.031,250.130,-47.870,0.0,0.0
62718,-1.679,-0.451,1.712,-27.733,59.061,52.702,0.0,0.0
62766,-0.640,-0.520,0.851,-8.084,-250.137,32.038,0.0,0.0
62813,2.000,-0.393,-0.460,79.427,-250.137,-97.634,0.0,0.0
62860,1.496,0.170,0.166,-9.519,250.130,-59.763,0.0,0.0
62906,-0.515,-0.183,0.612,-68.863,250.130,-4.481,0.0,0.0
62956,-1.925,-0.448,1.952,-12.443,-37.977,70.183,0.0,0.0
63003,-0.708,-0.543,0.871,7.313,-250.137,38.198,0.0,0.0
63050,1.877,-0.313,-0.538,75.656,-250.137,-87.763,0.0,0.0
63096,1.491,0.075,0.225,-9.511,244.870,-34.092,0.0,0.0
63143,-0.182,-0.262,0.722,-59.290,250.130,-20.519,0.0,0.0
63191,-1.318,-0.457,1.399,-9.748,116.489,30.878,0.0,0.0
63238,-0.881,-0.313,1.266,-10.084,-250.137,42.145,0.0,0.0
63284,0.774,-0.699,0.342,29.656,-250.137,-26.992,0.0,0.0
63331,2.000,0.199,0.074,38.779,86.954,-62.466,0.0,0.0
63398,0.239,-0.025,0.367,-59.374,250.130,-40.740,0.0,0.0
63446,-1.597,-0.460,1.455,-18.000,96.763,57.260,0.0,0.0
63493,-1.166,-0.350,1.230,-12.847,-250.137,45.298,0.0,0.0
63539,0.688,-0.843,0.102,27.046,-250.137,-30.931,0.0,0.0
63586,1.991,0.268,0.095,47.656,70.107,-23.641,0.0,0.0
63633,0.371,0.057,0.526,-48.817,250.130,-24.565,0.0,0.0
63680,-1.080,-0.399,1.104,-36.084,230.565,25.198,0.0,0.0
63727,-1.584,-0.365,1.655,-11.924,-185.084,45.374,0.0,0.0
63774,-0.336,-0.534,0.563,-4.275,-250.137,43.023,0.0,0.0
63824,2.000,-0.196,0.016,92.664,-198.962,-46.267,0.0,0.0
63870,1.287,0.243,0.406,2.015,226.588,-37.702,0.0,0.0
63918,-0.101,-0.141,0.770,-53.473,250.130,-21.023,0.0,0.0
63965,-1.027,-0.477,1.378,-14.084,64.000,-2.328,0.0,0.0
64012,-0.465,-0.399,1.079,4.702,-220.595,-5.771,0.0,0.0
64059,0.864,-0.224,0.445,29.725,-169.359,-8.351,0.0,0.0
64106,0.829,-0.108,0.659,3.443,63.824,0.573,0.0,0.0
64153,0.129,-0.147,1.036,-18.954,120.511,4.954,0.0,0.0
64200,-0.007,-0.295,1.080,0.206,20.573,-17.366,0.0,0.0
64273,0.216,-0.198,0.910,-8.374,-4.550,-19.153,0.0,0.0
64323,0.050,-0.282,1.032,-2.076,8.626,4.641,0.0,0.0
64372,0.178,-0.205,0.975,7.847,-19.603,1.725,0.0,0.0
64421,0.258,-0.205,0.929,5.183,-0.618,2.000,0.0,0.0
64471,0.192,-0.192,0.965,1.282,19.954,-1.641,0.0,0.0
64520,0.124,-0.220,0.994,3.389,4.885,-0.466,0.0,0.0
64586,0.186,-0.216,0.936,2.214,-6.115,-2.031,0.0,0.0
64636,0.225,-0.220,0.907,-1.847,9.847,-3.878,0.0,0.0
64703,0.119,-0.234,0.991,-3.511,13.840,-3.153,0.0,0.0
64752,0.306,-0.194,0.894,1.008,28.573,-10.969,0.0,0.0
64822,0.446,-0.273,0.828,0.275,96.618,-28.298,0.0,0.0
64872,-0.553,-0.137,0.999,-7.313,135.710,-21.534,0.0,0.0
64939,-1.300,-0.290,1.410,-33.618,-133.183,66.008,0.0,0.0
64989,0.412,-0.699,0.405,42.771,-250.137,28.740,0.0,0.0
65055,2.000,0.164,-0.284,36.779,-24.817,-49.641,0.0,0.0
65105,-0.148,-0.087,0.286,-57.092,250.130,-60.695,0.0,0.0
65172,-1.741,-0.374,1.441,-39.252,222.076,46.221,0.0,0.0
65222,-1.040,-0.413,0.985,-26.405,-250.137,62.412,0.0,0.0
