Timestamp(ms),AccelX(g),AccelY(g),AccelZ(g),GyroX(deg/s),GyroY(deg/s),GyroZ(deg/s),DistanceLeft(cm),DistanceRight(cm)
36851,0.079,-0.167,0.686,7.229,-225.763,38.214,0.0,0.0
36897,0.786,-0.064,0.671,17.649,-59.947,27.641,0.0,0.0
36943,0.701,0.048,0.695,-2.198,116.618,-13.427,0.0,0.0
36989,-0.121,0.012,1.044,-13.206,152.565,-10.321,0.0,0.0
37037,-0.556,-0.111,1.297,-14.405,3.038,-2.527,0.0,0.0
37083,-0.006,-0.068,0.976,-6.382,-89.786,-9.969,0.0,0.0
37129,0.340,-0.068,0.796,-4.130,-9.229,6.176,0.0,0.0
37176,0.028,-0.068,1.051,-3.489,33.214,10.275,0.0,0.0
37220,-0.041,-0.088,1.083,-0.305,-6.618,3.145,0.0,0.0
37266,0.124,-0.035,0.947,-0.733,-9.099,-3.374,0.0,0.0
37312,0.092,-0.056,0.963,-4.092,13.847,-0.702,0.0,0.0
37358,-0.026,-0.103,1.039,-3.870,3.374,3.267,0.0,0.0
37405,0.063,-0.069,0.993,-1.412,-17.794,1.031,0.0,0.0
37451,0.113,-0.065,0.965,-3.008,-3.878,2.756,0.0,0.0
37497,0.069,-0.080,0.976,-4.832,1.595,-0.450,0.0,0.0
37544,-0.031,-0.042,0.983,-11.427,0.802,-1.137,0.0,0.0
37591,0.060,-0.100,0.881,-14.634,17.435,1.290,0.0,0.0
37640,-0.342,-0.023,1.034,-29.511,11.260,22.771,0.0,0.0
37687,-0.491,-0.215,1.181,-33.519,-137.473,61.053,0.0,0.0
37733,0.366,-0.323,0.898,5.092,-250.137,43.092,0.0,0.0
37780,1.567,-0.224,0.417,30.275,-98.611,-16.802,0.0,0.0
37826,1.394,0.027,0.205,-6.565,250.130,-67.527,0.0,0.0
37872,-0.090,-0.138,0.212,-26.160,250.130,-46.374,0.0,0.0
37919,-1.263,-0.133,0.743,-16.931,250.130,5.817,0.0,0.0
37965,-1.909,-0.135,1.418,-32.107,59.282,25.687,0.0,0.0
38012,-1.443,-0.205,1.083,-50.626,-250.137,22.954,0.0,0.0
38079,-0.492,-0.465,0.395,-13.351,-250.137,9.290,0.0,0.0
38126,1.855,0.142,0.046,29.046,-129.267,-89.382,0.0,0.0
38173,1.016,-0.064,0.165,-39.344,250.130,-53.260,0.0,0.0
38219,-0.863,-0.140,0.672,-42.473,250.130,-8.252,0.0,0.0
38266,-1.973,-0.309,1.764,-19.115,30.649,49.618,0.0,0.0
38312,-1.314,-0.286,1.010,-18.183,-250.137,24.282,0.0,0.0
38360,0.527,-0.352,-0.004,7.000,-250.137,-6.725,0.0,0.0
38407,2.000,0.184,0.110,23.023,-56.412,7.145,0.0,0.0
38453,1.001,-0.045,0.281,-42.595,250.130,-36.901,0.0,0.0
38503,-0.555,-0.235,0.909,-42.153,250.130,-31.786,0.0,0.0
38549,-1.202,-0.335,1.400,-16.863,86.595,0.290,0.0,0.0
38596,-0.981,-0.254,1.281,-22.427,-250.137,5.412,0.0,0.0
38642,0.466,-0.362,0.461,-1.053,-250.137,1.412,0.0,0.0
38689,1.489,-0.073,0.285,15.427,9.496,-8.664,0.0,0.0
38736,0.367,-0.116,0.743,-30.473,237.557,9.397,0.0,0.0
38782,-0.359,-0.420,1.193,-24.160,139.275,4.153,0.0,0.0
38830,-0.407,-0.337,1.160,2.366,6.718,-23.595,0.0,0.0
38876,-0.033,-0.255,0.963,-9.947,-63.550,-10.084,0.0,0.0
38943,0.268,-0.320,0.808,-3.427,2.198,-3.840,0.0,0.0
38990,-0.196,-0.238,1.001,-13.740,65.679,15.168,0.0,0.0
39036,-0.698,-0.383,1.272,-16.382,-86.076,30.420,0.0,0.0
39084,-0.049,-0.409,0.876,7.366,-229.244,16.397,0.0,0.0
39131,1.017,-0.334,0.609,29.985,-116.969,0.176,0.0,0.0
39178,1.382,-0.233,0.227,36.053,225.229,-36.893,0.0,0.0
39280,-1.499,0.064,0.392,-40.885,250.130,2.107,0.0,0.0
39327,-2.000,-0.325,1.688,-44.008,-199.191,92.947,0.0,0.0
39374,-1.580,-0.382,0.484,-38.649,-250.137,43.718,0.0,0.0
39425,0.898,-0.866,-0.812,6.176,-250.137,-96.557,0.0,0.0
39472,2.000,0.429,0.183,12.824,142.397,-29.748,0.0,0.0
39519,-0.278,-0.042,0.357,-65.206,250.130,-17.603,0.0,0.0
39565,-1.590,-0.434,1.378,-42.527,198.855,69.740,0.0,0.0
39612,-1.740,-0.293,1.633,-27.351,-250.137,36.336,0.0,0.0
39659,-0.137,-0.526,0.218,-38.611,-250.137,-12.107,0.0,0.0
39706,2.000,0.271,-0.277,38.824,-46.153,-115.649,0.0,0.0
39753,0.743,-0.057,0.112,-50.802,250.130,-37.763,0.0,0.0
39800,-1.032,-0.299,1.048,-55.718,250.130,22.794,0.0,0.0
39868,-1.928,-0.489,1.873,-4.626,-202.534,51.931,0.0,0.0
39915,0.340,-0.633,0.060,-9.473,-250.137,-4.092,0.0,0.0
39962,2.000,0.314,-0.069,44.351,5.130,-49.710,0.0,0.0
40008,0.698,-0.075,0.073,-52.504,250.130,-52.061,0.0,0.0
40055,-1.067,-0.283,0.754,-44.473,250.130,1.565,0.0,0.0
40102,-2.000,-0.416,1.974,-4.977,-143.275,45.824,0.0,0.0
40150,-0.809,-0.414,0.581,-18.107,-250.137,39.962,0.0,0.0
40197,1.995,-0.873,-0.952,32.595,-250.137,-59.847,0.0,0.0
40264,1.774,-0.196,-0.351,-35.076,250.130,-72.252,0.0,0.0
40311,-1.390,-0.421,0.722,-68.046,250.130,1.931,0.0,0.0
40358,-2.000,-0.479,2.000,3.221,-113.397,45.924,0.0,0.0
40406,-1.290,-0.348,0.529,-18.328,-250.137,28.412,0.0,0.0
40453,1.527,-1.111,-1.078,15.618,-250.137,-80.618,0.0,0.0
40500,1.999,-0.114,-0.308,-10.786,250.130,-51.473,0.0,0.0
40547,-0.622,-0.319,0.486,-94.786,250.130,-15.489,0.0,0.0
40594,-2.000,-0.887,1.465,-1.962,141.344,71.244,0.0,0.0
40641,-1.678,-0.135,1.431,-7.466,-250.137,33.336,0.0,0.0
40692,0.257,-0.872,-0.368,-25.718,-250.137,-17.000,0.0,0.0
40739,2.000,0.180,-0.503,31.038,91.313,-41.321,0.0,0.0
40786,-0.132,-0.098,0.650,-74.252,250.130,-1.443,0.0,0.0
40834,-1.438,-0.646,1.648,-24.611,62.802,88.290,0.0,0.0
40881,-0.591,-0.380,1.111,8.183,-250.137,32.634,0.0,0.0
40928,1.297,-0.707,-0.160,25.313,-155.366,-73.382,0.0,0.0
40975,1.407,-0.256,0.026,0.466,250.130,-40.969,0.0,0.0
41022,-0.455,-0.137,0.504,-79.992,250.130,-29.023,0.0,0.0
41069,-1.929,-0.873,1.548,-42.443,106.511,59.214,0.0,0.0
41137,-1.449,-0.286,1.159,-4.992,-250.137,43.557,0.0,0.0
41185,1.622,-1.112,-0.930,25.076,-250.137,-72.534,0.0,0.0
41232,1.995,-0.136,0.025,-0.237,250.130,-51.527,0.0,0.0
41279,0.026,-0.489,0.045,-83.366,250.130,-36.878,0.0,0.0
41326,-1.768,-0.647,0.897,-37.092,250.130,38.969,0.0,0.0
41373,-2.000,-0.170,1.913,12.458,-250.137,54.229,0.0,0.0
41420,-1.021,-0.500,0.234,-8.939,-250.137,52.115,0.0,0.0
41468,1.973,-0.953,-0.887,55.969,-250.137,-76.840,0.0,0.0
41516,2.000,-0.150,-0.468,-6.931,250.130,-56.252,0.0,0.0
41566,-0.425,-0.394,-0.192,-87.168,250.130,-31.954,0.0,0.0
41614,-2.000,-0.809,1.215,-21.176,250.130,80.305,0.0,0.0
41661,-2.000,-0.428,1.685,-1.519,-250.137,71.511,0.0,0.0
41765,2.000,-0.009,-1.122,92.321,-217.863,-83.466,0.0,0.0
41812,0.605,-0.004,-0.374,-52.908,250.130,-41.481,0.0,0.0
41860,-0.813,-0.336,-0.211,-79.649,250.130,16.198,0.0,0.0
41908,-2.000,-0.834,1.243,6.840,250.130,69.511,0.0,0.0
41955,-1.954,-0.215,1.509,-14.084,-250.137,-6.481,0.0,0.0
42002,-1.335,-0.262,0.563,-71.756,-250.137,-35.473,0.0,0.0
42071,1.192,-0.962,-0.691,-7.557,-250.137,-123.916,0.0,0.0
42118,1.217,-0.051,0.065,-64.023,250.130,-49.298,0.0,0.0
42166,-0.616,-0.620,0.759,-106.649,250.130,-4.092,0.0,0.0
42213,-1.698,-0.934,1.550,7.496,1.298,40.412,0.0,0.0
42260,-0.708,-0.200,0.914,17.985,-250.137,12.763,0.0,0.0
42307,0.944,-0.863,-0.121,5.542,-250.137,-43.412,0.0,0.0
42355,1.526,-0.283,0.107,10.183,121.267,4.947,0.0,0.0
42402,0.085,-0.457,0.704,-72.794,250.130,-18.756,0.0,0.0
42449,-1.168,-0.853,1.494,-18.122,-29.130,18.710,0.0,0.0
42501,0.098,-0.355,0.767,5.015,-250.137,-4.336,0.0,0.0
42548,2.000,-0.314,-0.091,33.328,-21.885,-20.008,0.0,0.0
42596,0.092,-0.524,0.887,-36.344,218.725,0.542,0.0,0.0
42643,-0.615,-0.710,1.139,2.137,-42.672,24.817,0.0,0.0
42691,1.058,-0.541,0.289,-10.611,-46.542,-17.160,0.0,0.0
42738,-0.174,-0.602,1.157,-25.885,154.863,0.634,0.0,0.0
42785,-0.263,-0.631,1.112,32.840,-96.244,32.634,0.0,0.0
42833,0.990,-0.422,0.333,-4.214,43.298,-10.122,0.0,0.0
42881,-0.173,-0.759,0.875,12.840,23.244,10.076,0.0,0.0
42949,0.628,-0.525,0.567,-8.626,35.893,-11.145,0.0,0.0
43003,-0.083,-0.440,1.113,3.855,7.130,30.298,0.0,0.0
43049,0.129,-0.728,0.632,9.527,32.496,-5.847,0.0,0.0
43096,0.194,-0.250,1.017,20.374,11.542,38.489,0.0,0.0
43142,0.015,-0.669,0.865,-8.466,53.153,-18.901,0.0,0.0
43188,-0.240,-0.436,1.082,8.130,-64.779,-1.962,0.0,0.0
43235,0.363,-0.609,0.598,-3.214,-82.809,-12.046,0.0,0.0
43281,0.269,-0.430,0.819,15.015,-32.725,14.863,0.0,0.0
43327,0.556,-0.490,0.595,-20.450,-10.847,-7.008,0.0,0.0
43376,-0.085,-0.523,1.003,-6.527,86.824,-21.947,0.0,0.0
43423,-0.232,-0.522,1.106,20.725,-85.405,24.786,0.0,0.0
43469,0.715,-0.651,0.491,-0.267,-53.695,-15.542,0.0,0.0
43515,0.302,-0.428,0.738,4.511,103.954,-9.519,0.0,0.0
43563,-0.341,-0.580,1.041,5.206,10.733,29.565,0.0,0.0
43609,0.288,-0.459,0.738,15.221,-40.534,10.176,0.0,0.0
43655,0.257,-0.438,0.777,-8.725,10.985,-1.847,0.0,0.0
43702,0.160,-0.475,0.869,-3.214,20.985,11.420,0.0,0.0
43748,0.072,-0.508,0.924,-4.252,-1.595,-2.122,0.0,0.0
43814,0.183,-0.507,0.847,-6.824,-8.221,-4.260,0.0,0.0
43860,0.154,-0.514,0.844,3.427,34.931,11.191,0.0,0.0
43908,0.059,-0.483,0.929,3.321,20.687,6.687,0.0,0.0
43954,-0.013,-0.510,0.945,2.405,-10.130,2.412,0.0,0.0
44000,0.183,-0.496,0.812,6.947,-28.840,0.916,0.0,0.0
44047,0.182,-0.467,0.855,-1.519,2.397,0.733,0.0,0.0
44093,0.163,-0.500,0.873,2.153,10.336,1.702,0.0,0.0
44139,0.249,-0.455,0.801,2.435,32.099,-0.695,0.0,0.0
44242,0.152,-0.504,0.696,-3.290,156.076,-1.168,0.0,0.0
44292,-0.570,-0.409,0.952,-14.122,169.977,15.145,0.0,0.0
44339,-1.068,-0.603,1.185,-0.740,-52.580,42.435,0.0,0.0
44386,-1.021,-0.499,1.065,7.496,-250.137,27.649,0.0,0.0
44432,0.061,-0.648,0.177,13.405,-250.137,-0.481,0.0,0.0
44479,1.542,-0.279,0.147,33.656,-151.275,4.779,0.0,0.0
44525,1.034,-0.251,0.425,-10.511,163.702,1.527,0.0,0.0
44572,0.297,-0.431,0.588,-45.847,250.130,-18.153,0.0,0.0
44618,-0.485,-0.562,1.032,-41.260,211.290,-12.305,0.0,0.0
44665,-0.879,-0.662,1.252,-5.183,-54.008,-19.557,0.0,0.0
44732,-0.368,-0.539,0.833,-12.191,-239.000,-29.916,0.0,0.0
44779,1.124,-0.482,0.354,18.359,-43.145,10.664,0.0,0.0
44826,0.421,-0.336,0.741,-16.901,163.702,12.786,0.0,0.0
44872,-0.126,-0.586,0.962,-15.672,122.137,23.160,0.0,0.0
44919,-0.369,-0.587,1.100,4.931,1.611,-1.260,0.0,0.0
44965,0.095,-0.486,0.801,-1.092,-67.130,-9.237,0.0,0.0
45012,0.334,-0.487,0.689,-2.496,-14.511,-3.550,0.0,0.0
45060,0.188,-0.504,0.814,-7.351,41.985,0.145,0.0,0.0
45106,0.008,-0.536,0.914,-7.053,33.649,-4.664,0.0,0.0
45156,-0.005,-0.529,0.959,-0.275,6.618,-2.366,0.0,0.0
45202,0.091,-0.520,0.871,3.611,-6.626,-2.916,0.0,0.0
45249,0.118,-0.525,0.872,6.718,8.359,4.786,0.0,0.0
45295,0.076,-0.522,0.896,11.344,27.771,5.542,0.0,0.0
45342,0.028,-0.509,0.911,12.962,21.252,2.954,0.0,0.0
45389,-0.026,-0.521,0.944,15.435,17.061,3.053,0.0,0.0
45435,0.079,-0.479,0.885,23.427,20.771,4.641,0.0,0.0
45483,0.051,-0.446,0.780,25.588,72.817,10.824,0.0,0.0
45529,-0.392,-0.439,0.930,25.641,68.679,31.672,0.0,0.0
45576,-0.615,-0.453,1.009,32.718,-84.847,49.328,0.0,0.0
45626,-0.118,-0.420,0.810,24.893,-238.008,47.588,0.0,0.0
45673,0.856,-0.314,0.485,27.916,-137.099,-0.672,0.0,0.0
45720,0.981,-0.206,0.541,-7.450,104.855,-24.328,0.0,0.0
45766,-0.031,-0.407,0.875,-22.595,227.710,-39.000,0.0,0.0
45813,-0.815,-0.451,1.122,2.573,100.061,-6.183,0.0,0.0
45860,-0.772,-0.318,1.238,4.046,-176.954,18.779,0.0,0.0
45907,0.369,-0.379,0.502,0.748,-242.038,13.435,0.0,0.0
45955,1.168,-0.241,0.322,6.519,24.947,-12.443,0.0,0.0
46001,0.199,-0.305,0.883,-32.977,178.901,-3.107,0.0,0.0
46068,-0.578,-0.519,1.270,-9.412,49.076,-0.557,0.0,0.0
46115,0.156,-0.312,0.862,-1.282,-82.137,-4.550,0.0,0.0
46162,0.456,-0.423,0.712,2.405,12.580,2.618,0.0,0.0
46210,0.005,-0.320,1.010,-3.115,71.977,7.618,0.0,0.0
46256,-0.167,-0.381,1.108,-0.305,-11.122,11.977,0.0,0.0
46303,0.212,-0.393,0.791,5.565,-14.489,-9.366,0.0,0.0
46350,0.146,-0.326,0.850,-3.939,47.885,3.519,0.0,0.0
46397,-0.074,-0.367,0.980,-4.870,44.115,4.160,0.0,0.0
46444,-0.123,-0.418,0.990,-1.137,-8.863,-0.198,0.0,0.0
46494,0.074,-0.308,0.917,-4.275,-7.573,-3.321,0.0,0.0
46540,0.045,-0.406,0.931,-2.206,7.038,-0.275,0.0,0.0
46587,-0.034,-0.361,1.028,-0.214,8.847,4.099,0.0,0.0
46692,0.069,-0.352,0.976,11.679,29.695,2.176,0.0,0.0
46739,0.036,-0.387,0.908,22.878,85.168,0.420,0.0,0.0
46785,-0.307,-0.264,0.970,26.725,113.053,16.809,0.0,0.0
46832,-0.913,-0.324,1.250,24.282,-20.427,42.076,0.0,0.0
46879,-0.532,-0.342,1.017,24.985,-236.618,54.359,0.0,0.0
46927,0.638,-0.383,0.461,49.588,-195.565,12.573,0.0,0.0
46995,1.051,0.031,0.448,27.580,102.519,-17.656,0.0,0.0
47042,-0.481,-0.171,0.953,-9.427,238.802,-10.687,0.0,0.0
47089,-1.118,-0.274,1.347,-4.130,-12.969,11.649,0.0,0.0
47136,-0.502,-0.175,0.951,-11.931,-242.313,20.802,0.0,0.0
47183,0.849,-0.383,0.300,15.641,-170.672,-9.267,0.0,0.0
47230,0.788,0.002,0.600,-2.168,124.443,-19.649,0.0,0.0
47278,-0.297,-0.256,1.058,-27.985,184.817,-0.710,0.0,0.0
47325,-0.819,-0.391,1.390,-3.565,-27.313,2.336,0.0,0.0
47372,-0.026,-0.190,0.928,-0.649,-127.969,-14.191,0.0,0.0
47422,0.465,-0.164,0.726,-6.450,2.115,-9.802,0.0,0.0
47469,0.077,-0.256,0.978,-5.481,81.305,-0.076,0.0,0.0
47516,-0.406,-0.250,1.234,3.595,22.779,-5.023,0.0,0.0
47563,-0.050,-0.214,0.923,4.863,-48.412,-12.305,0.0,0.0
47610,0.085,-0.169,0.924,0.000,3.237,-3.084,0.0,0.0
47657,-0.040,-0.237,1.013,5.023,17.130,3.763,0.0,0.0
47706,-0.040,-0.219,1.013,4.298,3.786,-5.427,0.0,0.0
47753,0.034,-0.100,0.959,-2.893,9.374,-6.924,0.0,0.0
47800,-0.020,-0.146,0.987,-7.130,19.588,-11.206,0.0,0.0
47847,0.011,-0.264,0.944,7.611,23.099,-16.374,0.0,0.0
47897,0.227,-0.284,0.741,17.947,90.840,-21.206,0.0,0.0
47944,-0.438,-0.056,0.954,-5.557,129.328,-20.672,0.0,0.0
47992,-1.098,-0.278,1.411,-27.038,-82.328,18.710,0.0,0.0
48039,-0.491,-0.404,0.923,-8.847,-250.137,15.458,0.0,0.0
48087,1.148,-0.317,0.169,38.145,-164.626,-51.405,0.0,0.0
48134,0.908,-0.037,0.455,2.168,164.145,-14.748,0.0,0.0
48181,-0.377,-0.085,0.947,-30.053,237.702,-19.374,0.0,0.0
48229,-1.119,-0.376,1.461,-5.863,-73.221,22.305,0.0,0.0
48279,-0.004,-0.248,0.803,-2.771,-250.137,18.779,0.0,0.0
48327,1.663,-0.199,0.124,26.084,-15.992,-25.031,0.0,0.0
48374,0.458,0.100,0.592,-38.420,250.130,-27.420,0.0,0.0
48421,-1.001,-0.238,1.497,-51.534,164.038,22.901,0.0,0.0
48468,-1.027,-0.453,1.429,1.351,-218.137,0.656,0.0,0.0
48517,0.580,-0.295,0.405,3.557,-199.626,-50.366,0.0,0.0
48564,1.073,-0.131,0.450,2.053,84.443,-7.153,0.0,0.0
48611,-0.233,-0.093,1.105,-24.435,184.145,9.817,0.0,0.0
48658,-0.606,-0.450,1.357,-3.267,-54.679,19.519,0.0,0.0
48706,0.207,-0.188,0.841,7.977,-106.298,-28.359,0.0,0.0
48751,0.554,-0.168,0.670,-1.595,13.588,0.962,0.0,0.0
48798,0.070,-0.273,1.013,-4.687,79.595,9.122,0.0,0.0
48845,-0.120,-0.272,1.121,4.321,21.626,-0.122,0.0,0.0
48892,0.092,-0.176,0.936,5.267,-11.382,-9.267,0.0,0.0
48941,0.157,-0.200,0.883,-3.618,16.664,-4.649,0.0,0.0
48988,-0.031,-0.238,0.965,-1.992,27.344,-0.557,0.0,0.0
49035,-0.025,-0.185,1.008,6.000,-9.382,5.481,0.0,0.0
49139,0.092,-0.208,0.949,1.412,4.573,7.931,0.0,0.0
49187,0.089,-0.174,0.989,0.847,0.908,9.626,0.0,0.0
49257,0.086,-0.197,0.997,0.382,11.649,3.214,0.0,0.0
49303,-0.094,-0.244,1.002,-1.580,16.977,7.015,0.0,0.0
49349,-0.338,-0.161,1.030,-1.084,-22.252,17.771,0.0,0.0
49395,-0.639,-0.299,1.190,-12.557,-180.878,53.046,0.0,0.0
49442,0.295,-0.487,0.622,16.092,-250.137,47.916,0.0,0.0
49488,1.426,-0.128,0.347,35.885,-98.145,-7.053,0.0,0.0
49534,1.131,-0.020,0.353,-10.511,230.038,-33.748,0.0,0.0
49581,-0.263,-0.142,0.834,-38.290,250.130,-18.626,0.0,0.0
49628,-1.184,-0.322,1.523,-26.305,43.611,26.489,0.0,0.0
49677,-0.676,-0.300,1.197,-19.809,-250.137,30.863,0.0,0.0
49723,1.287,-0.540,-0.084,25.359,-224.366,-31.313,0.0,0.0
49770,1.333,0.069,0.278,-1.771,197.244,-29.527,0.0,0.0
49816,-0.385,-0.099,1.019,-49.145,250.130,7.641,0.0,0.0
49862,-1.024,-0.491,1.564,-18.702,-39.031,46.008,0.0,0.0
49909,0.159,-0.350,0.811,-3.344,-195.000,-28.611,0.0,0.0
49955,1.099,-0.111,0.479,5.504,25.634,-41.282,0.0,0.0
50001,0.113,-0.197,0.907,-18.153,169.359,14.634,0.0,0.0
50049,-0.459,-0.449,1.361,-6.183,22.290,32.038,0.0,0.0
50115,0.052,-0.272,0.974,13.802,-77.771,-17.672,0.0,0.0
50162,0.394,-0.231,0.800,-3.481,42.298,-3.046,0.0,0.0
50208,0.087,-0.352,1.025,2.802,67.450,6.160,0.0,0.0
50254,0.017,-0.243,1.038,15.198,44.366,-8.336,0.0,0.0
50301,0.112,-0.230,0.894,8.000,37.336,-8.527,0.0,0.0
50348,-0.099,-0.195,0.977,5.099,43.885,-9.962,0.0,0.0
50394,-0.135,-0.238,0.984,1.527,5.389,-0.664,0.0,0.0
50441,-0.081,-0.226,0.964,5.496,-12.695,0.084,0.0,0.0
50487,-0.004,-0.190,0.932,3.107,-6.802,3.092,0.0,0.0
50536,-0.015,-0.211,0.927,-1.321,-1.550,3.748,0.0,0.0
50583,-0.125,-0.169,1.048,-9.580,-13.443,6.008,0.0,0.0
50629,-0.015,-0.269,0.980,-3.481,-43.893,9.229,0.0,0.0
50676,0.288,-0.295,0.928,9.260,-15.611,-2.527,0.0,0.0
50722,0.243,-0.132,0.819,17.046,90.008,-23.481,0.0,0.0
50769,-0.694,-0.108,1.270,-6.664,31.710,1.351,0.0,0.0
50816,-0.710,-0.240,1.172,-13.756,-216.748,27.229,0.0,0.0
50863,0.464,-0.377,0.625,10.771,-250.137,5.473,0.0,0.0
50909,1.846,0.033,0.165,28.931,43.160,-43.672,0.0,0.0
50975,0.248,0.071,0.412,-37.252,250.130,-11.366,0.0,0.0
51022,-1.427,-0.463,1.671,-28.641,-13.542,51.397,0.0,0.0
51069,-0.466,-0.296,1.067,-15.084,-250.137,-2.634,0.0,0.0
51116,1.406,-0.212,0.004,23.847,-71.473,-82.443,0.0,0.0
51163,0.386,0.023,0.651,-28.374,236.053,7.649,0.0,0.0
51209,-0.729,-0.339,1.604,-41.458,74.565,63.427,0.0,0.0
51256,-0.344,-0.555,1.055,14.824,-138.504,-17.679,0.0,0.0
51303,0.589,0.027,0.681,-0.328,-46.740,-35.649,0.0,0.0
51349,0.244,-0.311,0.915,-10.275,54.069,22.397,0.0,0.0
51399,-0.120,-0.311,1.158,7.656,24.466,7.496,0.0,0.0
51446,0.086,-0.198,0.968,8.145,-24.794,0.092,0.0,0.0
51492,0.191,-0.233,0.892,-0.908,-4.321,-0.160,0.0,0.0
51596,0.055,-0.231,0.967,-0.427,15.000,0.588,0.0,0.0
51643,0.088,-0.226,0.945,-0.328,0.840,-2.344,0.0,0.0
51689,0.126,-0.241,0.928,-4.275,5.015,-4.260,0.0,0.0
51736,0.071,-0.187,0.980,-5.359,25.298,-0.244,0.0,0.0
51783,0.134,-0.288,0.887,-1.031,32.779,-0.206,0.0,0.0
51829,0.067,-0.216,0.987,-4.252,53.382,0.160,0.0,0.0
51876,-0.125,-0.274,1.073,-1.450,27.664,-1.893,0.0,0.0
51927,0.031,-0.264,1.034,3.435,-6.618,-8.885,0.0,0.0
51973,0.232,-0.253,0.818,7.511,47.214,-24.221,0.0,0.0
52020,-0.271,-0.060,0.893,-13.794,113.107,-3.802,0.0,0.0
52067,-1.049,-0.354,1.339,-37.870,-68.023,44.863,0.0,0.0
52113,-0.610,-0.503,1.027,-3.397,-250.137,46.504,0.0,0.0
52160,1.252,-0.342,0.116,64.893,-237.374,-61.985,0.0,0.0
52207,1.543,0.132,0.052,1.099,212.473,-43.466,0.0,0.0
52254,-0.327,-0.066,0.585,-57.481,250.130,-14.618,0.0,0.0
52301,-1.621,-0.445,1.688,-37.053,69.053,59.092,0.0,0.0
52369,-1.186,-0.301,1.323,-14.206,-250.137,44.565,0.0,0.0
52416,2.000,-0.215,-0.590,85.443,-164.466,-124.962,0.0,0.0
52463,1.238,0.127,-0.277,-30.076,250.130,-60.901,0.0,0.0
52510,-1.141,0.042,0.962,-80.450,250.130,23.145,0.0,0.0
52556,-2.000,-0.616,1.878,-8.282,-74.267,86.107,0.0,0.0
52603,-0.541,-0.435,0.737,-3.695,-250.137,-3.992,0.0,0.0
52651,1.377,-0.073,-0.185,35.412,-60.603,-150.641,0.0,0.0
52698,0.414,0.066,0.425,-33.191,250.130,-8.252,0.0,0.0
52745,-1.272,-0.317,1.691,-76.115,103.252,82.725,0.0,0.0
52795,-1.202,-0.581,1.301,-7.679,-250.137,92.107,0.0,0.0
52842,1.327,-0.735,-0.328,44.046,-250.137,-76.664,0.0,0.0
52889,1.852,0.427,0.191,2.969,206.924,-51.450,0.0,0.0
52936,-0.334,-0.016,0.692,-73.031,250.130,-7.969,0.0,0.0
52983,-1.589,-0.687,1.788,-33.290,1.611,78.305,0.0,0.0
53030,-0.648,-0.376,1.173,7.931,-250.137,37.130,0.0,0.0
53078,1.704,-0.482,-0.385,66.588,-135.985,-107.351,0.0,0.0
53124,1.040,0.152,0.273,-2.763,250.130,-67.206,0.0,0.0
53171,-1.071,0.028,0.963,-55.672,250.130,9.519,0.0,0.0
53238,-1.887,-0.508,1.755,-16.504,-181.023,78.053,0.0,0.0
53286,0.413,-0.677,0.140,4.718,-250.137,-3.489,0.0,0.0
53334,2.000,0.515,0.019,53.832,17.802,-100.198,0.0,0.0
53381,0.457,0.204,0.056,-35.252,250.130,-27.176,0.0,0.0
53428,-1.399,-0.306,1.393,-59.412,250.130,61.221,0.0,0.0
53475,-1.433,-0.354,1.620,-14.290,-250.137,73.504,0.0,0.0
53522,0.615,-0.666,0.219,-4.588,-250.137,-21.420,0.0,0.0
53569,1.758,0.127,0.173,24.466,87.015,-119.359,0.0,0.0
53616,0.062,0.104,0.675,-57.916,250.130,-6.519,0.0,0.0
53661,-1.166,-0.430,1.535,-50.534,92.092,81.198,0.0,0.0
53708,-0.897,-0.425,1.424,9.870,-250.137,72.389,0.0,0.0
53755,1.329,-0.463,0.152,45.992,-250.137,-37.374,0.0,0.0
53803,1.733,0.159,0.076,21.466,235.786,-114.679,0.0,0.0
53850,-0.487,0.226,0.639,-53.679,250.130,-36.847,0.0,0.0
53897,-1.675,-0.365,1.870,-46.176,18.954,64.382,0.0,0.0
53945,-0.962,-0.441,1.109,-2.031,-250.137,70.099,0.0,0.0
54048,1.218,0.419,0.285,-10.679,250.130,-94.191,0.0,0.0
54099,-1.407,-0.290,1.782,-82.985,133.573,69.595,0.0,0.0
54147,-1.282,-0.582,1.282,-12.107,-250.137,101.985,0.0,0.0
54194,1.197,-0.533,-0.191,23.832,-250.137,-87.954,0.0,0.0
54242,1.820,0.571,0.313,-4.328,206.153,-77.130,0.0,0.0
54289,-0.884,0.231,1.379,-85.198,250.130,25.198,0.0,0.0
54336,-1.389,-0.628,1.823,-22.939,-227.595,125.977,0.0,0.0
54383,0.834,-0.775,0.395,48.237,-250.137,-10.756,0.0,0.0
54431,1.879,0.174,0.109,28.824,138.313,-129.855,0.0,0.0
54478,-0.143,0.187,0.631,-53.634,250.130,-13.359,0.0,0.0
54546,-1.302,-0.432,1.826,-48.969,-17.771,107.191,0.0,0.0
54594,0.964,-0.783,0.324,56.603,-250.137,-32.611,0.0,0.0
54641,1.531,0.284,0.212,29.481,164.779,-136.359,0.0,0.0
54688,-0.451,0.324,0.878,-65.061,250.130,0.298,0.0,0.0
54736,-1.393,-0.421,2.000,-58.061,-114.366,114.214,0.0,0.0
54784,-0.294,-1.001,0.455,12.412,-250.137,42.000,0.0,0.0
54831,1.420,0.082,0.060,47.084,-104.458,-165.962,0.0,0.0
54879,0.762,0.200,0.406,-38.687,227.901,-19.718,0.0,0.0
54926,-0.691,-0.235,1.444,-75.779,130.244,69.466,0.0,0.0
54976,0.195,-0.922,0.845,20.466,-158.649,68.542,0.0,0.0
55024,1.435,0.077,0.298,76.061,88.908,-135.557,0.0,0.0
55071,-0.197,0.550,0.531,-49.870,250.130,-26.740,0.0,0.0
55118,-1.788,-0.524,2.000,-77.260,-96.076,90.840,0.0,0.0
55166,-0.859,-0.839,0.689,5.427,-250.137,-4.489,0.0,0.0
55214,2.000,1.397,-0.431,83.824,-173.084,-184.626,0.0,0.0
55262,1.023,0.439,-0.324,-65.931,250.130,-19.878,0.0,0.0
55309,-1.256,-0.105,1.337,-107.588,250.130,93.298,0.0,0.0
55356,-1.514,-0.795,1.789,15.908,-204.466,119.489,0.0,0.0
55425,0.639,-0.197,0.339,44.840,-218.427,-117.534,0.0,0.0
55478,-0.604,0.049,1.319,-64.656,29.473,53.389,0.0,0.0
55524,-0.817,-0.661,1.378,-22.053,-250.137,117.832,0.0,0.0
55571,1.776,-0.508,-0.541,92.588,-216.160,-112.031,0.0,0.0
55617,1.763,0.060,-0.392,7.405,250.130,-70.664,0.0,0.0
55663,-0.779,0.230,0.536,-86.046,250.130,10.527,0.0,0.0
55709,-1.703,-0.341,2.000,-54.244,10.069,107.580,0.0,0.0
55756,-0.762,-0.712,0.918,1.786,-250.137,18.260,0.0,0.0
55802,1.332,0.094,-0.265,35.466,-82.450,-184.611,0.0,0.0
55852,0.424,0.185,0.476,-55.466,236.809,1.794,0.0,0.0
55898,-1.086,-0.339,1.808,-89.687,-10.710,109.573,0.0,0.0
55945,-0.468,-1.188,0.701,0.817,-250.137,74.366,0.0,0.0
55991,1.763,0.164,-0.059,61.160,-60.061,-166.878,0.0,0.0
56037,0.865,0.055,0.065,-28.618,250.130,-48.603,0.0,0.0
56084,-1.179,-0.049,1.404,-94.260,250.130,65.191,0.0,0.0
56130,-1.197,-0.522,1.745,-21.947,-250.137,136.924,0.0,0.0
56177,1.211,-0.537,-0.026,78.443,-198.931,-156.855,0.0,0.0
56223,1.374,0.742,0.344,-7.183,219.954,-79.718,0.0,0.0
56272,-0.992,0.004,1.512,-92.382,181.122,91.504,0.0,0.0
56320,-0.784,-0.851,1.215,-29.046,-250.137,136.679,0.0,0.0
56366,0.874,0.013,0.411,70.412,-37.702,-149.198,0.0,0.0
56413,0.541,0.330,0.782,-19.580,166.817,-41.260,0.0,0.0
56515,-0.440,-0.506,1.145,21.267,-39.580,19.565,0.0,0.0
56562,0.412,0.062,0.724,13.397,-42.260,-10.115,0.0,0.0
56609,0.298,-0.160,0.863,-5.855,40.573,7.015,0.0,0.0
56655,0.011,-0.134,1.144,4.000,34.023,14.504,0.0,0.0
56701,0.138,-0.114,0.975,9.679,2.740,-0.221,0.0,0.0
56751,0.288,-0.070,0.880,1.344,39.962,-9.519,0.0,0.0
56798,0.121,-0.061,0.847,0.817,101.962,-11.053,0.0,0.0
56844,-0.076,-0.069,0.907,-11.557,116.496,-4.779,0.0,0.0
56891,-0.271,-0.039,0.825,-18.588,126.527,-0.244,0.0,0.0
56937,-1.149,-0.091,1.368,-35.206,-20.809,31.962,0.0,0.0
56984,-1.048,-0.269,1.284,-26.489,-250.137,22.725,0.0,0.0
57030,0.678,-0.623,0.010,40.908,-250.137,-53.794,0.0,0.0
57077,2.000,0.377,0.005,15.954,-12.397,-37.290,0.0,0.0
57123,0.615,0.057,0.170,-62.992,250.130,-20.336,0.0,0.0
57191,-1.143,-0.142,1.146,-77.634,250.130,43.267,0.0,0.0
57237,-1.052,-0.556,1.491,12.550,-250.137,73.351,0.0,0.0
57284,0.976,-0.563,-0.079,71.763,-239.534,-96.580,0.0,0.0
57331,1.502,0.419,0.169,-9.550,169.069,-13.931,0.0,0.0
57377,-0.541,0.010,1.018,-85.191,250.130,47.718,0.0,0.0
57424,-1.401,-0.503,1.858,-19.733,-115.565,116.595,0.0,0.0
57472,-0.166,-0.640,0.769,34.107,-250.137,16.588,0.0,0.0
57518,1.502,0.186,0.064,53.130,-56.740,-119.687,0.0,0.0
57565,0.769,0.178,0.335,-25.008,250.130,-20.611,0.0,0.0
57614,-0.856,-0.222,1.270,-55.832,245.031,33.718,0.0,0.0
57661,-1.129,-0.546,1.482,12.817,-164.618,39.000,0.0,0.0
57708,0.246,-0.179,0.639,23.122,-227.588,-74.076,0.0,0.0
57754,1.347,0.159,0.383,4.504,19.466,-52.221,0.0,0.0
57801,0.214,-0.077,0.778,-29.702,234.107,-9.183,0.0,0.0
57848,-0.598,-0.268,1.306,-21.573,128.634,13.290,0.0,0.0
57894,-0.677,-0.225,1.248,11.244,-74.656,3.679,0.0,0.0
57942,-0.009,-0.091,0.854,0.305,-151.687,3.260,0.0,0.0
57989,0.376,-0.166,0.781,0.748,-67.389,15.863,0.0,0.0
58055,0.317,-0.104,0.895,2.924,28.817,13.511,0.0,0.0
58102,0.163,-0.141,0.938,0.763,62.718,2.771,0.0,0.0
58149,0.044,-0.062,0.976,-1.916,78.305,-5.542,0.0,0.0
58195,-0.090,-0.185,0.968,-3.237,64.832,-0.740,0.0,0.0
58243,-0.168,-0.189,1.030,1.718,45.206,-5.977,0.0,0.0
58290,-0.086,-0.098,1.048,12.076,45.076,-6.542,0.0,0.0
58336,-0.168,-0.038,0.779,20.061,80.153,-13.458,0.0,0.0
58383,-0.872,-0.004,1.291,-31.397,-0.198,33.092,0.0,0.0
58430,-0.810,-0.250,1.212,-37.687,-242.748,68.886,0.0,0.0
58480,0.688,-0.625,0.354,31.427,-250.137,-6.557,0.0,0.0
58527,1.674,0.348,0.292,20.344,49.237,-78.260,0.0,0.0
58573,0.167,0.039,0.234,-51.779,250.130,-51.527,0.0,0.0
58620,-1.547,-0.360,1.391,-72.992,247.130,28.183,0.0,0.0
58668,-1.672,-0.417,1.704,-32.885,-250.137,76.458,0.0,0.0
58715,-0.007,-0.657,0.237,-21.115,-250.137,-0.458,0.0,0.0
58762,2.000,0.504,0.080,55.214,-42.832,-123.985,0.0,0.0
58809,0.475,0.305,0.400,-39.824,250.130,-20.573,0.0,0.0
58856,-0.954,-0.436,1.308,-57.870,178.947,60.466,0.0,0.0
58962,0.648,-0.148,0.510,25.924,-139.282,-80.038,0.0,0.0
59010,0.517,-0.099,0.786,-22.977,130.031,9.634,0.0,0.0
59057,-0.354,-0.320,1.324,-10.710,95.802,23.435,0.0,0.0
59104,-0.084,-0.268,1.054,24.092,-51.328,3.855,0.0,0.0
59151,0.265,0.067,0.869,4.107,-12.344,-10.061,0.0,0.0
59198,0.133,-0.191,0.933,-4.260,29.229,3.122,0.0,0.0
59245,-0.063,-0.209,1.056,3.107,7.969,3.725,0.0,0.0
59292,0.052,-0.151,0.972,3.702,-22.198,3.191,0.0,0.0
59338,0.197,-0.159,0.893,3.191,-0.885,-2.435,0.0,0.0
59388,0.167,-0.171,0.936,-1.290,38.053,-2.275,0.0,0.0
59436,0.075,-0.132,0.967,0.603,69.527,-5.046,0.0,0.0
59483,-0.099,-0.192,1.103,-0.344,46.656,-1.992,0.0,0.0
59530,-0.409,-0.168,1.149,16.878,-18.786,-15.084,0.0,0.0
59577,-0.248,-0.048,0.915,-0.206,-94.359,-12.275,0.0,0.0
59624,-0.347,-0.144,1.002,-18.893,-147.107,31.840,0.0,0.0
59671,0.044,-0.406,0.962,-5.229,-250.137,60.573,0.0,0.0
59718,1.448,-0.373,0.280,68.206,-131.305,-24.214,0.0,0.0
59766,1.378,0.133,0.156,8.405,250.130,-67.710,0.0,0.0
59834,-0.493,0.125,0.694,-49.023,250.130,-21.695,0.0,0.0
59881,-1.534,-0.204,1.926,-42.237,-148.809,56.954,0.0,0.0
59928,-0.008,-0.658,0.398,-1.130,-250.137,16.916,0.0,0.0
59975,1.731,0.073,0.042,38.504,-24.519,-111.069,0.0,0.0
60022,0.469,0.229,0.300,-40.038,250.130,-18.015,0.0,0.0
60069,-1.133,-0.417,1.380,-71.023,195.565,59.817,0.0,0.0
60118,-1.057,-0.441,1.569,-3.038,-250.137,74.237,0.0,0.0
60165,0.945,-0.436,0.267,45.962,-228.481,-78.718,0.0,0.0
60212,1.444,0.388,0.278,10.420,187.824,-84.237,0.0,0.0
60262,-1.028,0.221,1.182,-82.214,250.130,48.702,0.0,0.0
60309,-1.504,-0.438,2.000,-59.466,-237.244,137.237,0.0,0.0
60357,0.096,-1.176,0.149,22.168,-250.137,-7.855,0.0,0.0
60404,2.000,0.484,0.022,52.962,12.183,-172.466,0.0,0.0
60451,0.298,0.306,0.363,-56.244,250.130,-18.901,0.0,0.0
60498,-1.228,-0.422,1.617,-88.863,119.748,82.420,0.0,0.0
60546,-1.090,-0.693,1.528,-10.053,-250.137,78.321,0.0,0.0
60593,1.395,-0.203,-0.197,75.786,-192.756,-187.550,0.0,0.0
60636,1.223,0.106,-0.010,-15.443,250.130,-68.886,113.0,0.0
60700,-0.966,0.072,1.024,-83.756,250.130,27.473,0.0,0.0
60747,-1.561,-0.485,1.922,-17.122,-237.954,101.924,0.0,0.0
60794,0.401,-0.825,0.126,43.137,-250.137,-62.840,0.0,0.0
60843,2.000,0.757,0.189,40.924,31.382,-116.634,0.0,0.0
60890,0.086,0.215,0.330,-51.870,250.130,-3.389,0.0,0.0
60937,-1.355,-0.396,1.609,-68.901,126.466,97.878,0.0,0.0
60984,-1.066,-0.495,1.450,-7.840,-250.137,105.206,0.0,0.0
61032,1.219,-0.325,-0.051,75.000,-205.573,-139.427,0.0,0.0
61079,1.237,0.371,-0.000,-9.985,242.458,-52.092,0.0,0.0
61130,-1.103,-0.047,1.279,-106.664,250.130,64.076,0.0,0.0
61177,-1.330,-0.464,1.848,-40.748,-246.084,137.656,0.0,0.0
61225,0.567,-1.000,0.292,76.870,-250.137,-102.176,0.0,0.0
61273,2.000,1.090,0.275,34.160,105.756,-109.374,0.0,0.0
61320,-0.223,0.352,0.351,-78.351,250.130,-2.908,0.0,0.0
61424,-1.562,-0.741,1.407,0.198,-250.137,90.695,0.0,0.0
61472,2.000,0.545,-0.745,100.542,-160.435,-209.511,0.0,0.0
61519,0.760,0.513,0.007,-40.374,250.130,-20.901,0.0,0.0
61571,-1.334,-0.134,1.387,-117.160,250.130,94.847,0.0,0.0
61619,-1.539,-0.833,1.668,-9.901,-250.137,95.519,0.0,0.0
61666,0.823,-0.194,0.250,49.832,-250.137,-156.634,0.0,0.0
61733,1.292,0.330,0.066,-29.603,216.695,-36.656,0.0,0.0
61779,-1.286,-0.166,1.365,-101.977,213.901,85.817,0.0,0.0
61826,-1.398,-0.550,1.731,-28.290,-250.137,118.687,0.0,0.0
61873,0.849,-0.715,0.170,60.962,-250.137,-125.137,0.0,0.0
61919,2.000,0.671,-0.138,9.702,130.740,-73.443,0.0,0.0
61965,-0.215,0.191,0.444,-92.595,250.130,6.832,0.0,0.0
62015,-1.764,-0.526,2.000,-56.122,-3.947,126.267,0.0,0.0
62061,-0.870,-0.748,0.883,28.344,-250.137,52.786,0.0,0.0
62107,1.408,0.010,-0.349,64.443,-162.290,-166.802,0.0,0.0
62154,0.854,0.407,0.156,-26.145,250.130,-15.069,0.0,0.0
62200,-1.007,-0.177,1.411,-101.244,221.626,87.931,0.0,0.0
62247,-1.085,-0.606,1.705,-18.221,-250.137,132.763,0.0,0.0
62294,1.087,-0.519,0.141,96.641,-185.298,-149.053,0.0,0.0
62340,1.507,0.780,0.114,20.420,250.130,-114.534,0.0,0.0
62387,-0.935,0.360,1.051,-93.901,250.130,32.267,0.0,0.0
62436,-1.343,-0.320,1.982,-78.046,-185.191,132.740,0.0,0.0
62483,0.119,-1.385,0.201,50.733,-250.137,-79.542,0.0,0.0
62529,1.628,0.840,0.292,42.718,60.618,-185.466,0.0,0.0
62575,-0.201,0.324,0.500,-60.496,250.130,23.382,0.0,0.0
62622,-1.420,-0.210,1.954,-90.427,-7.885,148.855,0.0,0.0
62668,-0.866,-1.079,0.891,-2.565,-250.137,104.198,0.0,0.0
62715,1.498,0.217,-0.116,81.435,-120.649,-234.931,0.0,0.0
62761,0.998,0.304,-0.079,-26.496,250.130,-58.916,0.0,0.0
62809,-1.290,0.040,1.013,-102.588,250.130,68.405,0.0,0.0
62875,-1.623,-0.381,1.958,-41.901,-200.000,147.420,0.0,0.0
62922,0.807,-0.168,0.072,68.473,-250.137,-165.481,0.0,0.0
62968,1.766,0.902,0.344,-7.840,132.328,-61.832,0.0,0.0
63015,-0.625,0.159,1.100,-98.275,250.130,46.244,0.0,0.0
63062,-1.133,-0.476,1.605,-36.412,-101.076,101.237,0.0,0.0
63109,-0.182,-0.344,0.876,30.305,-250.137,-24.137,0.0,0.0
63156,1.010,0.259,0.354,5.427,-103.282,-67.038,0.0,0.0
63202,0.632,0.007,0.713,-29.649,125.626,10.267,0.0,0.0
63249,-0.067,-0.291,1.178,-17.832,125.443,14.267,0.0,0.0
63298,-0.184,-0.072,1.126,17.687,16.664,-12.198,0.0,0.0
63345,0.048,0.025,0.959,-3.374,-22.496,-10.985,0.0,0.0
63391,0.106,-0.124,0.974,-9.870,-7.282,4.122,0.0,0.0
63438,0.103,-0.152,0.987,-1.573,-10.229,3.305,0.0,0.0
63484,0.139,-0.031,0.999,-1.313,-2.145,-0.641,0.0,0.0
63532,0.158,-0.078,0.938,-3.550,14.786,-3.092,0.0,0.0
63578,0.093,-0.102,0.983,-5.298,26.427,-6.244,0.0,0.0
63625,0.047,-0.080,1.006,-3.389,21.534,-4.588,0.0,0.0
63671,0.037,-0.117,1.011,-2.710,11.962,-0.817,0.0,0.0
63738,0.018,-0.073,1.040,-0.687,3.977,-1.122,0.0,0.0
63785,0.046,-0.050,1.009,-2.015,-0.374,-3.527,0.0,0.0
63889,0.048,-0.082,1.069,-6.924,-2.099,-7.443,0.0,0.0
63935,0.064,-0.034,0.923,-1.740,21.824,-12.779,0.0,0.0
63982,-0.359,-0.085,1.101,-25.641,-14.061,2.450,0.0,0.0
64029,-0.729,-0.223,1.508,-14.527,-238.298,23.031,0.0,0.0
64076,0.595,-0.452,0.400,40.847,-250.137,-31.504,0.0,0.0
64122,1.727,0.109,0.135,19.099,45.573,-28.374,0.0,0.0
64169,0.394,0.080,0.542,-31.916,250.130,-16.305,0.0,0.0
64220,-0.900,-0.214,1.383,-32.389,153.198,16.084,0.0,0.0
64266,-0.470,-0.222,1.289,4.229,-192.794,23.664,0.0,0.0
64313,0.721,-0.187,0.509,19.641,-174.160,-2.084,0.0,0.0
64360,0.904,0.038,0.606,1.916,63.038,-2.153,0.0,0.0
64406,0.121,-0.044,1.042,-24.214,145.046,9.015,0.0,0.0
64453,-0.135,-0.218,1.174,-3.282,33.748,-3.870,0.0,0.0
64500,0.066,-0.046,1.017,-3.023,-39.733,-10.603,0.0,0.0
64547,0.287,-0.125,0.893,-6.626,-18.336,1.244,0.0,0.0
64593,0.206,-0.178,0.989,-1.519,3.557,7.618,0.0,0.0
64661,0.200,-0.092,1.010,2.817,4.847,6.427,0.0,0.0
64708,0.231,-0.106,0.963,1.985,-1.267,5.504,0.0,0.0
64754,0.244,-0.097,0.951,-0.366,13.038,0.992,0.0,0.0
64801,0.168,-0.133,0.988,-3.817,11.786,1.542,0.0,0.0
64848,0.150,-0.115,1.000,-0.298,0.298,2.168,0.0,0.0
64896,0.205,-0.132,0.960,-1.008,-3.160,2.305,0.0,0.0
64942,0.167,-0.083,0.975,-3.824,5.015,2.603,0.0,0.0
64989,0.332,-0.166,1.052,-0.031,-9.847,0.771,0.0,0.0
65036,0.640,-0.120,0.916,21.542,41.031,-44.450,0.0,0.0
65083,0.327,0.046,0.777,-5.832,163.176,-59.397,0.0,0.0
65156,-0.896,-0.086,1.120,-28.550,111.137,6.611,0.0,0.0
65205,-1.059,-0.333,1.196,-13.588,-250.137,86.939,0.0,0.0
65272,1.018,-0.595,-0.038,70.580,-250.137,4.328,0.0,0.0
65321,1.373,0.307,0.113,-4.328,250.130,-32.092,0.0,0.0
65388,-0.303,-0.041,0.805,-52.176,250.130,-11.947,0.0,0.0
65438,-1.044,-0.297,1.504,4.824,-73.191,1.099,0.0,0.0
65505,0.001,-0.103,0.854,3.542,-241.771,-15.366,0.0,0.0
65554,0.849,0.026,0.640,5.176,20.221,1.092,0.0,0.0
65604,0.282,-0.063,0.885,-16.382,141.542,6.267,0.0,0.0
65656,-0.235,-0.133,1.179,-4.824,55.969,-3.038,0.0,0.0
65723,-0.081,-0.069,1.022,-0.130,-35.779,-12.366,0.0,0.0
65773,0.194,-0.103,0.887,-2.137,-25.092,14.046,0.0,0.0
65840,0.172,-0.092,0.977,4.130,-2.397,13.901,0.0,0.0
65889,0.168,-0.110,1.027,-0.779,7.588,1.824,0.0,0.0
65955,0.323,-0.102,1.024,9.069,30.519,-11.458,0.0,0.0
66006,0.123,0.047,0.921,10.840,116.870,-22.160,0.0,0.0
66072,-0.606,0.031,1.113,-9.740,60.084,29.618,0.0,0.0
66122,-0.318,-0.322,0.999,-6.947,-250.137,68.389,0.0,0.0
66192,1.115,-0.187,0.398,47.618,-141.626,-5.878,0.0,0.0
66242,0.588,0.156,0.541,-19.870,250.130,-49.359,0.0,0.0
66309,-0.638,-0.078,0.922,-34.733,250.130,-14.450,0.0,0.0
66359,-1.086,-0.155,1.525,-37.489,-192.954,27.695,0.0,0.0
66425,0.297,-0.385,0.590,2.443,-250.137,-4.122,0.0,0.0
66476,1.213,0.207,0.308,-1.710,146.847,-36.817,0.0,0.0
