Timestamp(ms),AccelX(g),AccelY(g),AccelZ(g),GyroX(deg/s),GyroY(deg/s),GyroZ(deg/s),DistanceLeft(cm),DistanceRight(cm)
52183,-0.512,-0.081,0.931,1.74,0.687,-8.71,17,0
52239,-0.479,-0.081,0.902,0.206,-1.344,-9.168,16,0
52302,-0.478,-0.097,0.916,0.351,-1.015,-11.405,0,0
52365,-0.48,-0.113,0.938,2.74,-2.702,-16.038,0,0
52428,-0.471,-0.112,0.925,8.176,0.45,-19.45,0,0
52491,-0.51,-0.096,0.938,15.351,-0.763,-22.29,0,187
52543,-0.527,-0.11,0.896,17.122,0.817,-26.198,17,0
52598,-0.563,-0.138,0.937,10.305,8.977,-24.534,18,185
52648,-0.544,-0.1,0.972,6.237,-6.313,-15.832,17,153
52711,-0.486,-0.124,0.898,6.687,-17.58,-10.618,187,0
52767,-0.504,-0.233,0.846,5.13,-7.779,-7.779,16,0
52818,-0.487,-0.313,0.853,8.038,-4.817,-8.595,16,182
52871,-0.474,-0.318,0.849,7.252,-5.832,-12.954,19,182
52923,-0.452,-0.323,0.847,4.74,-1.954,-17.137,16,181
52983,-0.44,-0.283,0.875,2.824,1.366,-17.763,173,180
53042,-0.426,-0.239,0.907,-0.511,0.443,-13.618,172,151
53107,-0.429,-0.223,0.906,0.389,-5.947,-4.878,0,179
53158,-0.358,-0.229,0.842,7.137,-5.351,0.656,20,177
53210,-0.353,-0.227,0.843,8.382,3.122,1.42,16,177
53272,-0.403,-0.248,0.895,5.702,4.389,4.802,0,175
53334,-0.419,-0.228,0.94,-2.885,2.756,9.992,0,174
53395,-0.425,-0.235,0.974,-4.947,-0.359,11.344,0,172
53446,-0.42,-0.22,0.979,-1.511,-1.481,15.779,17,170
53506,-0.404,-0.208,0.949,0.84,-6.122,20.328,16,168
53566,-0.451,-0.231,0.935,-1.969,-5.313,19.29,188,165
53630,-0.485,-0.261,0.923,-3.031,-3.756,16.107,0,163
53681,-0.462,-0.221,0.885,1.29,-3.229,16.924,17,161
53731,-0.443,-0.186,0.845,1.45,-3.809,13.855,20,160
53781,-0.497,-0.185,0.832,-2.992,-4.092,7.649,17,158
53840,-0.548,-0.231,0.856,-5.55,-15.656,8.16,184,155
53891,-0.502,-0.227,0.879,0.939,-0.664,11.107,16,153
53941,-0.476,-0.236,0.841,16.924,29.092,16.115,17,152
54000,-0.586,-0.178,0.898,23.985,44.557,9.702,185,150
54050,-0.655,-0.115,0.896,23.359,-5.87,-8.046,16,148
54103,-0.547,-0.049,0.804,11.695,-20.878,-11.58,16,147
54152,-0.52,-0.051,0.823,3.267,-2.588,-2.809,16,146
54202,-0.552,-0.083,0.894,2.351,-0.977,1.412,16,145
54251,-0.524,-0.099,0.887,6.718,-8.924,0.237,16,144
54300,-0.473,-0.102,0.848,10.679,-0.679,-0.786,16,143
54349,-0.517,-0.1,0.89,10.977,6.053,-2.641,16,142
54398,-0.521,-0.106,0.913,12.695,-0.015,-5.122,16,140
54448,-0.51,-0.084,0.895,14.275,0.344,-5.855,16,140
54497,-0.503,-0.053,0.897,13.748,1.809,-6.13,18,137
54557,-0.513,-0.026,0.901,11.84,1.069,-5.031,166,137
54606,-0.521,-0.015,0.905,9.206,-0.611,-3.817,19,135
54664,-0.533,-0.018,0.915,7.511,-2.351,-1.29,169,134
54722,-0.538,-0.016,0.937,-0.656,-5.763,2.397,170,134
54781,-0.492,-0.028,0.946,-4.115,-18.527,-0.649,0,132
54840,-0.482,-0.075,0.939,-9.885,-8.214,-5.42,178,132
54897,-0.541,-0.106,1.004,-15.824,0.55,-0.786,164,131
54998,-0.491,-0.17,0.825,-14.252,-22.985,5.763,162,131
55051,-0.47,-0.26,0.843,-12.214,-15.977,2.191,37,131
55108,-0.464,-0.287,0.891,-8.588,-11.87,-1.84,179,130
55165,-0.416,-0.277,0.917,-1.122,-14.13,-7.702,168,128
55222,-0.342,-0.226,0.891,3.45,-10.763,-13.076,169,99
55277,-0.409,-0.19,0.962,5.885,5.603,-8.969,168,97
55324,-0.471,-0.22,0.958,14.359,-3.038,1.794,16,98
55383,-0.384,-0.139,0.87,15.458,9.656,13.786,168,145
55433,-0.446,-0.123,0.901,6.45,9.038,20.519,24,142
55482,-0.429,-0.087,0.877,-1.84,-8.863,25.069,17,143
55538,-0.429,-0.062,0.888,-11.626,-7.573,36.87,17,0
55595,-0.46,-0.055,0.954,-22.336,-7.176,49.351,16,0
55644,-0.476,-0.121,0.97,-23.061,-20.298,59.229,17,138
55697,-0.415,-0.147,0.928,-26.168,-19.901,64.366,16,0
55753,-0.51,-0.226,0.955,-37.786,-16.221,63.649,16,0
55806,-0.439,-0.215,0.94,-29.824,-35.71,61.137,16,0
55860,-0.373,-0.176,0.891,-23.122,-28.359,50.16,17,0
55912,-0.463,-0.148,0.878,-21.893,-1.389,42.947,17,0
55965,-0.546,-0.146,0.921,-23.634,-4.275,44.405,16,0
56022,-0.463,-0.142,0.883,-18.389,-19.725,43.107,16,0
56083,-0.444,-0.114,0.846,-13.939,-9.924,40.298,167,0
56144,-0.495,-0.088,0.887,-8.405,3.031,35.42,168,0
56206,-0.53,-0.086,0.93,-1.443,2.71,32.374,169,193
56259,-0.469,-0.052,0.933,-0.359,-4.183,34.626,17,193
56311,-0.427,-0.05,0.911,-3.214,-6.626,32.137,16,0
56371,-0.456,-0.046,0.922,-5.137,3.031,29.046,171,158
56432,-0.515,-0.072,0.958,-3.71,3.687,26.573,171,188
56488,-0.457,-0.064,0.898,0.939,10.58,25.824,19,194
56541,-0.507,-0.051,0.913,-0.351,13.137,22.977,20,187
56594,-0.525,-0.058,0.901,0.176,-1.42,18.458,21,186
56654,-0.495,-0.028,0.873,-1.832,-4.427,15.313,170,183
56714,-0.504,0,0.876,-7.58,-0.496,14.023,171,151
56774,-0.516,0.001,0.905,-11.481,-1.534,14.473,170,183
56826,-0.521,-0.007,0.928,-13.901,-0.702,14.84,16,182
56887,-0.517,-0.007,0.934,-17.229,-3.389,12.748,168,179
56939,-0.504,-0.011,0.942,-22.588,-2.198,13.122,16,182
56992,-0.515,-0.037,0.938,-25.466,-5.305,15.031,17,147
57051,-0.499,-0.081,0.918,-22.695,-10.473,15.328,165,146
57111,-0.51,-0.105,0.881,-15.908,-7.947,13.565,165,177
57171,-0.529,-0.12,0.9,-14.237,-3.847,10.092,166,178
57224,-0.493,-0.092,0.937,-19.168,-7.26,10.939,16,178
57284,-0.478,-0.099,0.933,-19.214,-10.351,14.527,198,140
57342,-0.49,-0.138,0.893,-14.046,-13.672,15.557,179,139
57393,-0.494,-0.182,0.872,-10.153,-8.176,15.74,9,139
57445,-0.488,-0.19,0.877,-9.878,-9.71,14.053,16,138
57494,-0.458,-0.198,0.873,-12.26,-13.183,13.359,16,138
57544,-0.47,-0.245,0.91,-16.84,-25.405,11.702,17,137
57593,-0.471,-0.279,0.945,-11.847,-20.046,18.427,17,137
57643,-0.384,-0.266,0.916,6.389,18.328,27.214,17,136
57693,-0.46,-0.226,0.949,11.244,36.076,26.458,16,136
57794,-0.473,-0.168,0.875,1.115,-38.595,7.679,175,134
57843,-0.366,-0.134,0.804,-9.305,-14.519,19.015,16,133
57892,-0.446,-0.124,0.878,-14.405,-1.595,23.878,11,133
57945,-0.453,-0.125,0.906,-14.763,-13.45,24.168,17,132
57994,-0.433,-0.135,0.897,-16,-13.527,28.824,16,132
58043,-0.446,-0.153,0.933,-18.74,-11.145,39.527,16,131
58092,-0.399,-0.146,0.947,-19.481,-14.427,45.748,17,131
58141,-0.351,-0.139,0.95,-21.137,-17.588,49.015,17,131
58190,-0.385,-0.141,0.972,-22.237,-12.344,53.649,17,130
58240,-0.446,-0.161,0.958,-20.046,-13.313,58.771,16,130
58289,-0.44,-0.155,0.936,-20.038,-14.336,67.198,18,130
58344,-0.463,-0.151,0.93,-31.412,-12.046,73.947,17,172
58394,-0.466,-0.185,0.975,-36.672,-22.687,75.336,18,146
58454,-0.458,-0.216,0.949,-33.16,-22.366,66.901,174,164
58505,-0.464,-0.197,0.93,-24,-8.076,61.092,17,143
58555,-0.455,-0.148,0.903,-22.183,-7.71,58.397,20,160
58607,-0.43,-0.165,0.912,-17.107,-21.305,46.519,17,169
58660,-0.412,-0.144,0.873,-11.588,-12.565,37.985,17,0
58713,-0.488,-0.122,0.922,-7.092,4.229,36.626,9,0
58765,-0.531,-0.118,0.987,0.221,-10.962,33.237,16,179
58828,-0.448,-0.09,0.929,5.969,-18.099,30.649,164,179
58889,-0.451,-0.081,0.908,3.336,5.74,30.763,165,168
58943,-0.494,-0.058,0.937,2.267,-2.198,29.267,30,0
59004,-0.442,-0.046,0.884,2.855,-10.786,25.534,165,0
59066,-0.444,-0.056,0.885,3.565,-2.145,21.809,165,0
59128,-0.475,-0.044,0.92,4.107,1.267,16.679,168,0
59191,-0.453,-0.016,0.943,0.992,0.794,12.137,185,0
59245,-0.444,0.002,0.956,-1.916,-1.366,13.069,20,0
59308,-0.448,-0.014,0.953,-2.588,-6.42,10.603,186,0
59371,-0.442,0.017,0.933,-2.145,1.176,8.252,166,173
59433,-0.485,0.004,0.943,-2.908,0.023,7.885,165,0
59496,-0.455,0.019,0.94,-6.237,-3.565,8.611,185,0
59549,-0.43,0.009,0.94,-8.031,-5.038,7.939,18,0
59602,-0.407,0.008,0.965,-9,-6.122,4.45,18,0
59657,-0.387,0.039,0.988,-4.557,-6.695,-1.878,18,0
59710,-0.405,0.051,0.978,-1.382,-2.931,-3.947,17,0
59772,-0.407,0.039,0.954,-2.84,-6.573,-5.664,188,0
59826,-0.435,-0.054,0.93,-6.718,-11.824,-5.969,16,0
59892,-0.459,-0.124,0.929,-9.168,-7.221,-1.298,185,0
59956,-0.454,-0.075,0.978,-14.565,-3.954,4.702,192,0
60019,-0.421,-0.092,1.018,-15.489,-15.046,8.099,184,0
60083,-0.352,-0.065,0.976,-0.443,0.076,2,0,0
60136,-0.418,-0.035,0.967,3.115,12.008,-5.901,16,0
60189,-0.441,-0.056,0.964,-0.489,-4.992,-9.588,17,0
60253,-0.379,-0.092,0.909,-2.71,-8.824,-9.763,178,0
60306,-0.399,-0.211,0.906,-4.405,-10.542,-3.29,17,0
60368,-0.441,-0.156,0.925,-7.176,7.511,10.122,183,0
60435,-0.394,-0.177,0.905,-13.954,-15.053,6.321,177,0
60488,-0.376,-0.179,0.913,-15.244,0.611,5.298,16,0
60541,-0.434,-0.207,0.967,-10.351,-2,7.16,17,0
60654,-0.36,-0.253,0.933,-5.679,-6.427,9.542,174,0
60716,-0.365,-0.234,0.932,-5.145,-2.931,11.389,173,0
60768,-0.391,-0.242,0.952,-6.099,-5.191,12.817,17,0
60830,-0.348,-0.22,0.939,-5.863,-8.992,14.878,171,0
60892,-0.363,-0.203,0.968,-5.267,-3.542,19.252,173,0
60953,-0.361,-0.207,0.954,2.58,11.282,29.542,172,0
61018,-0.427,-0.145,0.985,2.779,6.412,29.16,173,0
61070,-0.36,-0.133,0.924,-1.29,-15.679,29.298,18,0
61123,-0.321,-0.127,0.904,-4.802,-6.115,32.244,18,0
61185,-0.356,-0.133,0.945,-9.397,-3.336,34.695,174,0
61237,-0.358,-0.141,0.947,-11.885,-7.931,36.649,20,176
61288,-0.398,-0.137,0.959,-15.344,0.061,41.947,16,174
61347,-0.459,-0.147,1.022,-16.046,-2.466,47.733,175,171
61399,-0.424,-0.118,0.964,-6.611,-5.466,46.901,17,169
61450,-0.471,-0.098,0.934,-5.198,3.962,47.206,23,167
61503,-0.534,-0.113,0.936,-12.817,1.053,46.786,16,166
61554,-0.535,-0.14,0.911,-16.244,-12.046,46.359,17,163
61614,-0.486,-0.111,0.881,-18.489,-14.046,42.74,178,162
61675,-0.476,-0.115,0.888,-19.573,-11.084,38.137,0,160
61735,-0.46,-0.108,0.884,-16.763,-9.855,32.542,0,159
61787,-0.444,-0.093,0.898,-16.687,-10.977,26.718,16,157
61847,-0.45,-0.11,0.941,-12.29,-7.55,23.611,0,156
61905,-0.443,-0.102,0.926,-7.153,-2.863,21.405,160,155
61968,-0.442,-0.112,0.942,-7.237,-8.153,15.504,177,154
62027,-0.432,-0.12,0.925,-6.969,-4.015,13.954,177,153
62077,-0.466,-0.121,0.952,-7.412,-3.359,13.901,16,151
62127,-0.449,-0.126,0.933,-6.252,-9.809,11.511,16,151
62177,-0.458,-0.144,0.944,-3.794,-10.695,10.725,17,150
62227,-0.44,-0.137,0.917,0.038,-10.153,10.015,20,149
62285,-0.442,-0.112,0.917,1.252,-4.588,8.847,167,148
62336,-0.458,-0.135,0.944,3.611,-9.031,7.603,16,147
62394,-0.449,-0.106,0.911,5.397,-1.351,5.496,168,146
62446,-0.459,-0.081,0.96,6.191,4.313,2.122,16,145
62495,-0.432,-0.056,0.95,3.687,-3.832,0.427,16,145
62554,-0.42,-0.067,0.936,2.756,-2.664,1.374,162,144
62611,-0.428,-0.069,0.921,4.076,-1.672,-0.611,162,143
62661,-0.419,-0.07,0.919,4.817,0.916,-3.023,16,143
62710,-0.445,-0.099,0.941,6.489,-0.588,-5.672,16,142
62769,-0.436,-0.087,0.925,8.321,-0.053,-7.832,161,142
62826,-0.43,-0.049,0.944,6.595,5.725,-7.824,160,141
62875,-0.437,-0.013,0.965,2.351,4.458,-6.061,18,141
62928,-0.45,-0.008,0.974,1.74,-0.771,-3.802,17,141
62978,-0.418,-0.002,0.966,2.351,-6.069,-3.664,16,140
63035,-0.436,-0.024,0.943,-0.55,-4.137,-6.053,168,140
63085,-0.411,-0.031,0.951,-8.664,2.771,-6.42,19,139
63134,-0.455,-0.082,0.975,-13.389,1.519,-4.687,16,139
63193,-0.462,-0.104,0.961,-10.023,-4.176,-0.893,166,138
63251,-0.438,-0.094,0.933,-2.336,0.229,-1.206,175,137
63300,-0.431,-0.086,0.922,2.977,3.115,-5.023,21,137
63358,-0.452,-0.099,0.938,-1.305,2.977,-6.443,173,136
63458,-0.451,-0.162,0.955,1.618,-3.977,-4.786,171,135
63515,-0.417,-0.157,0.907,1.824,-2.939,-5.046,169,135
63574,-0.442,-0.176,0.921,3.366,-2.55,-8.046,169,133
63623,-0.45,-0.181,0.906,5.817,-1.641,-6.038,22,133
63672,-0.432,-0.168,0.905,6.969,-2.046,-5.008,19,132
63721,-0.444,-0.164,0.905,5.534,-1.137,-2.969,18,132
63778,-0.458,-0.191,0.926,5.885,-0.878,4.511,158,132
63836,-0.41,-0.179,0.912,7.237,5.847,3.733,157,131
63895,-0.451,-0.207,0.929,8.443,3.137,3.74,156,131
63953,-0.422,-0.211,0.876,9.977,-2.084,3.107,168,130
64003,-0.437,-0.162,0.889,4.695,11.359,6.137,19,130
64060,-0.458,-0.163,0.921,0.046,8.351,6.84,171,130
64109,-0.466,-0.172,0.948,-7.473,-0.702,6.298,19,130
64167,-0.397,-0.147,0.934,-7.427,-6.374,9.542,182,129
64217,-0.378,-0.102,0.912,-9.412,-0.496,13.359,16,128
64266,-0.409,-0.064,0.945,-13.366,-3.405,18.931,18,128
64314,-0.421,-0.052,0.956,-13.71,-7.908,29.924,17,127
64366,-0.451,-0.081,0.961,-11.351,-9.55,39.969,18,125
64415,-0.438,-0.101,0.948,-6.992,-8.504,47.328,18,124
64463,-0.445,-0.104,0.942,-6.733,-6.282,50.084,18,124
64513,-0.441,-0.135,0.944,-10.992,-5.733,50.122,18,119
64570,-0.449,-0.144,0.969,-15.985,-3.137,45.466,175,117
64627,-0.458,-0.153,0.941,-15.344,-4.366,39.099,175,115
64684,-0.522,-0.148,0.909,-16.924,-0.496,32.466,169,113
64740,-0.542,-0.15,0.904,-16.695,-5.71,30.45,145,110
64796,-0.496,-0.16,0.865,-15.519,-6.817,27.901,169,109
64857,-0.472,-0.15,0.862,-13.534,-4.282,23.076,171,108
64915,-0.492,-0.12,0.857,-9.237,-2.038,18.107,146,164
64973,-0.542,-0.109,0.849,-6.16,-0.046,16.305,144,163
65032,-0.577,-0.106,0.858,-3.832,-0.962,16.374,143,161
65090,-0.554,-0.071,0.844,-3.13,1.84,20.511,143,160
65147,-0.551,-0.064,0.863,-2.855,-3.893,19.183,143,159
65199,-0.552,-0.041,0.841,-2.198,-2.221,15.137,16,158
65250,-0.58,-0.017,0.861,-1.534,3.824,15.069,18,157
65310,-0.61,0.006,0.909,-4.107,2.702,19.87,143,156
65369,-0.561,0.009,0.909,-8.802,-4.626,23.061,142,156
65426,-0.57,-0.054,0.886,-10.847,-5.672,20.16,143,155
65477,-0.565,-0.067,0.863,-8.511,-5.237,18.557,17,155
65527,-0.55,-0.058,0.862,-8.863,-6.092,16.389,17,155
65579,-0.543,-0.056,0.862,-10.611,-9.328,12.878,16,154
65629,-0.526,-0.057,0.874,-8.802,-10.756,10.382,17,154
65679,-0.512,-0.048,0.916,-4.611,-10.412,4.718,16,154
65730,-0.51,-0.018,0.94,-1.557,-10.45,0.679,16,154
65783,-0.513,-0.021,0.943,0.878,-12.282,-3.481,16,154
65833,-0.53,-0.03,0.925,-0.336,-8.786,-6.84,16,154
65885,-0.53,-0.038,0.94,-5.824,-6.092,-2.534,16,154
65935,-0.51,-0.063,0.945,-11.099,-10.557,-0.626,19,154
65986,-0.449,-0.082,0.917,-11.863,-15.832,-0.046,21,155
66037,-0.439,-0.109,0.892,-10.084,-11.962,-4.29,17,155
66087,-0.469,-0.139,0.911,-0.71,4.061,-4.031,16,155
66181,-0.499,-0.123,0.905,0.702,-0.351,-5.16,16,156
66235,-0.459,-0.145,0.901,-3.053,-7.069,-3.092,16,154
66295,-0.442,-0.15,0.895,-4.008,-4.702,-0.84,187,155
66347,-0.47,-0.17,0.917,-2.305,-7.198,0.557,17,157
66406,-0.462,-0.193,0.9,0.122,-9.252,2.779,169,153
66465,-0.447,-0.196,0.893,2.008,-3.038,6.382,169,157
66525,-0.45,-0.218,0.911,1.511,-0.053,11.885,170,153
66575,-0.427,-0.218,0.932,2.931,7.565,9.962,16,152
66626,-0.479,-0.25,0.977,-0.015,-0.496,4.107,17,161
66688,-0.447,-0.252,0.93,-3.58,-16.855,3.794,0,152
66744,-0.374,-0.208,0.917,-6.198,-9.534,7.672,21,196
66805,-0.368,-0.186,0.91,-3.496,-13.641,4.389,170,191
66866,-0.359,-0.159,0.888,-6.328,-7.107,4.962,172,169
66925,-0.413,-0.173,0.924,-5.023,-4.183,9.412,170,152
66988,-0.407,-0.158,0.933,-3.473,-6.008,14.382,0,161
67047,-0.376,-0.142,0.944,-3.496,-5.84,17.824,171,162
67099,-0.39,-0.167,0.988,-4.336,-7.031,21.733,18,167
67160,-0.365,-0.167,0.974,-1.695,-9.794,23.466,172,168
67210,-0.372,-0.158,0.963,-0.031,-10.046,24.87,18,151
67273,-0.364,-0.143,0.961,-2.908,-9.733,28.458,173,165
67334,-0.414,-0.169,0.976,-8.038,-7.313,27.718,175,150
67385,-0.434,-0.175,0.956,-7.901,-6.656,25.672,16,162
67445,-0.431,-0.174,0.948,-6.389,-2.725,27.191,177,160
67507,-0.407,-0.163,0.932,-3.534,-0.878,27.519,179,182
67568,-0.418,-0.163,0.893,-2.908,-4.252,24.809,183,158
67629,-0.449,-0.16,0.878,-3.771,-1.221,19.29,184,155
67689,-0.461,-0.174,0.877,-2.282,0.786,13.504,185,144
67759,-0.481,-0.14,0.906,-1.84,4.435,13.221,184,166
67817,-0.486,-0.114,0.899,-3.031,2.122,11.74,181,138
67876,-0.511,-0.122,0.927,-3.023,2.794,13.832,183,138
67926,-0.501,-0.125,0.886,-0.603,0.893,13.168,16,136
67976,-0.519,-0.104,0.865,1.573,3.153,10.748,16,159
68026,-0.535,-0.089,0.878,1.725,4.069,7.557,17,171
68075,-0.524,-0.076,0.909,1.275,0.443,6.649,17,142
68124,-0.497,-0.07,0.907,1.046,2.45,8.908,17,140
68173,-0.537,-0.073,0.923,-0.954,1.473,10.351,17,137
68228,-0.508,-0.083,0.898,0.267,-4.16,8.618,17,182
68288,-0.487,-0.1,0.88,1.55,0.366,4.473,187,160
68347,-0.525,-0.095,0.903,3.107,0.786,1.702,185,159
68398,-0.52,-0.077,0.902,2.695,-2.282,-0.069,16,153
68448,-0.495,-0.063,0.887,2.557,-1.916,-1.267,16,162
68498,-0.503,-0.023,0.891,0.733,0.954,-0.779,18,154
68547,-0.515,-0.017,0.907,-3.298,-4.29,-0.901,16,131
68605,-0.496,-0.036,0.947,-6.153,-12.954,-5.511,189,139
68665,-0.453,-0.08,0.982,-6.908,-16.809,-15.237,198,132
68727,-0.413,-0.111,1.021,0.725,4.771,-14.282,186,137
68786,-0.457,-0.108,0.991,5.321,-3.473,-15.176,186,131
68845,-0.485,-0.149,0.916,10.779,-10.405,-17.061,186,139
68903,-0.492,-0.166,0.87,15.527,-4.229,-18.573,186,140
68961,-0.499,-0.156,0.909,14.176,-0.382,-13.351,183,108
69052,-0.45,-0.135,0.901,7.496,-2.168,-3.603,16,109
69099,-0.438,-0.135,0.892,5.183,-7.412,-3.122,16,111
69150,-0.428,-0.149,0.896,2.924,-9.489,-2.885,16,169
69198,-0.427,-0.162,0.906,0.557,-4.809,-0.679,16,115
69249,-0.426,-0.17,0.907,-0.382,-4.954,-0.183,16,112
69297,-0.417,-0.183,0.907,-1.382,-5.885,-0.382,18,113
69345,-0.413,-0.189,0.897,-2.137,-3.611,0.046,16,118
69401,-0.415,-0.189,0.934,-4.458,-1.443,2.115,171,116
69458,-0.405,-0.19,0.949,-7.359,-4.061,4.611,173,116
69519,-0.398,-0.202,0.961,-10,-2.237,6.42,0,145
69568,-0.407,-0.215,0.992,-10.679,-7.527,11.817,16,149
69627,-0.342,-0.204,0.944,-7.237,-12.305,14.527,0,119
69679,-0.34,-0.186,0.885,-3.695,-5.611,14.611,17,119
69738,-0.378,-0.184,0.905,-6.794,-1.763,15.618,0,144
69798,-0.394,-0.221,0.906,-9.183,-7.947,13.29,0,146
69858,-0.389,-0.307,0.912,-4.046,0.115,13.542,0,117
69906,-0.424,-0.278,0.965,7.641,-0.679,11.733,19,117
69964,-0.381,-0.251,0.929,13.137,0.023,6.969,0,116
70022,-0.417,-0.235,0.964,12.649,-0.305,3.092,183,116
70081,-0.395,-0.236,0.949,11.275,-10.992,-1.84,184,144
70141,-0.371,-0.242,0.975,12.695,-16.443,-0.115,0,138
70193,-0.305,-0.252,0.917,15.389,-8.824,-3.71,17,117
70254,-0.348,-0.2,0.94,11.863,9.611,-5.183,0,169
70313,-0.4,-0.199,0.984,9.565,-5.221,-9.053,0,140
70372,-0.351,-0.179,0.957,6.069,0.817,-9.237,187,112
70429,-0.38,-0.169,0.997,8.58,-5.038,-12.847,174,136
70477,-0.337,-0.094,0.977,12.313,-5.168,-13.878,20,108
70526,-0.366,-0.094,0.968,10.046,-2.122,-12.023,16,127
70574,-0.401,-0.102,0.981,9.672,-3.672,-10.221,16,104
70622,-0.411,-0.097,0.955,8.855,-3.618,-6.954,17,115
70672,-0.383,-0.082,0.958,9.947,-10.26,-7.183,17,99
70719,-0.387,-0.1,0.94,11.206,-8.282,-7.069,16,98
70766,-0.406,-0.11,0.962,14.145,-13.069,-9.206,16,96
70813,-0.376,-0.091,0.937,13.031,-11.649,-11.366,17,94
70859,-0.362,-0.081,0.948,9.336,-8.779,-9.832,17,94
70906,-0.373,-0.073,0.96,6.45,-3.427,-7.313,18,93
70953,-0.381,-0.072,0.962,4.641,-2.275,-8.603,16,91
71000,-0.389,-0.107,0.959,5.695,-3.29,-9.412,16,89
71056,-0.424,-0.076,0.994,6.618,-10.107,-11.031,186,88
71115,-0.367,-0.053,0.95,7.107,-8.55,-7.878,199,87
71173,-0.354,-0.149,0.934,10.931,2.924,-18.489,0,86
71229,-0.196,-0.151,0.883,36.481,-25.794,-46.824,188,85
71276,-0.178,-0.153,0.819,26.817,66,-55.763,18,84
71332,-0.666,-0.008,1.084,29.267,65.687,-47.878,189,83
71379,-0.534,0.062,0.938,35.588,6.832,-44.137,16,97
71427,-0.517,0.016,0.972,28.366,42.061,-29.649,16,97
71483,-0.563,0.017,1.052,27.519,8.176,-21.198,190,84
71533,-0.394,-0.03,0.887,34.809,15.344,-18.321,17,103
71590,-0.496,0.019,1.035,51.481,25.672,-17.397,188,108
71649,-0.422,0.086,0.929,40.786,21.611,-20.573,187,109
71750,-0.467,0.075,0.834,48.534,24.298,-13.313,190,118
71809,-0.555,0.082,0.901,32.58,9.107,-5.008,185,124
71858,-0.529,0.093,0.853,28.679,5.275,-2.542,37,116
71908,-0.591,0.181,0.848,27.466,-1.985,-2.397,35,117
71957,-0.497,0.143,0.884,21.237,-13.809,-1.573,34,119
72007,-0.429,0.114,0.872,21.931,-2.176,-5.885,33,133
72060,-0.54,0.094,0.9,24.42,3.069,-7.473,33,133
72110,-0.597,0.152,0.918,28.977,-6.267,-2.359,33,127
72160,-0.461,0.246,0.837,26.351,0.344,-0.595,33,119
72209,-0.585,0.207,0.869,26.519,-2.618,-1.947,33,128
72259,-0.54,0.266,0.836,26.893,0.87,0.595,35,128
72309,-0.57,0.268,0.844,19.046,-7.672,0.786,40,126
72359,-0.567,0.312,0.868,17.145,4.053,8.794,38,129
72409,-0.49,0.272,0.828,13.176,-4.931,3.344,33,124
72459,-0.546,0.311,0.885,16.985,-2.573,3.145,33,127
72511,-0.509,0.341,0.814,17.183,-12.267,-3.321,33,121
72561,-0.578,0.343,0.792,13.931,1.443,3.061,32,127
72610,-0.542,0.318,0.785,2.664,-12.55,0.939,32,112
72659,-0.511,0.31,0.833,1.023,-9.092,3.893,35,111
72708,-0.463,0.245,0.802,-2.107,-14.023,-4.992,32,112
72757,-0.557,0.296,0.859,-0.122,5.573,-1.092,32,113
72806,-0.558,0.292,0.877,-0.298,-5.176,-4.74,32,111
72855,-0.525,0.246,0.887,0.885,-9.076,-4.053,31,112
72904,-0.557,0.355,0.851,9.847,2.183,-1.679,32,112
72956,-0.585,0.291,0.851,4.931,-6.832,0.832,31,126
73007,-0.579,0.222,0.829,4.817,-0.962,7.397,31,124
73056,-0.501,0.323,0.861,8.725,-5.061,4.443,31,126
73106,-0.462,0.378,0.781,1.038,-0.557,-0.992,30,127
73155,-0.61,0.292,0.83,1.076,-5.496,2.855,30,127
73205,-0.541,0.337,0.819,3.282,4.45,10.908,30,124
73253,-0.509,0.302,0.845,2.534,-9.313,9.435,30,105
73303,-0.626,0.215,0.887,6.595,9.443,13.397,31,112
73352,-0.481,0.365,0.837,5.45,-17.137,12.511,30,123
73405,-0.535,0.292,0.757,-4.153,10.466,5.076,31,122
73454,-0.644,0.289,0.93,4.511,-11.733,17.511,31,122
73503,-0.32,0.413,0.762,-1.229,-11.832,1.664,30,122
73553,-0.688,0.308,0.81,-4.015,20.206,7.885,31,129
73604,-0.559,0.289,0.928,0.634,-24.992,15.221,30,129
73654,-0.289,0.283,0.776,-2.695,-0.092,-4.885,30,127
73703,-0.714,0.298,0.989,8.359,10.13,6.008,31,128
73753,-0.437,0.416,0.764,7.489,-15.802,2.389,31,124
73802,-0.609,0.285,0.871,8.878,4.534,10.29,30,122
73856,-0.5,0.394,0.826,8.366,-8.244,6.496,31,121
73905,-0.488,0.329,0.772,4.26,-5.977,0.496,31,124
73955,-0.593,0.371,0.84,2.527,4.359,8.061,31,124
74004,-0.43,0.35,0.789,-2.382,-14.069,-0.191,31,123
74054,-0.551,0.315,0.834,-6.824,9.832,-2.893,31,122
74109,-0.5,0.349,0.792,-8.55,-10.618,-4.794,30,122
74159,-0.482,0.31,0.772,-18.977,-1.733,-10.557,30,130
74208,-0.572,0.27,0.874,-13.58,4.656,-6.069,31,126
74300,-0.6,0.23,0.832,-18.107,5.939,-9.038,31,126
74352,-0.585,0.286,0.938,-6.939,-4.466,-0.496,30,123
74401,-0.409,0.202,0.799,-12.336,-1.275,-12.802,30,121
74450,-0.758,0.188,0.948,0.206,12.252,1.55,31,121
74499,-0.508,0.298,0.859,0.771,-16.466,0.679,30,121
74548,-0.651,0.136,0.855,4.366,12.542,5.412,30,121
74596,-0.589,0.295,0.809,13.282,-9.588,11.267,31,121
74645,-0.472,0.15,0.723,-2.023,0.504,3.29,30,121
74694,-0.781,0.179,0.987,4.267,10.649,16.214,30,121
74743,-0.345,0.375,0.843,7.122,-24.924,4.672,30,122
74795,-0.66,0.096,0.867,20.542,13.359,4.031,30,126
74844,-0.574,0.282,0.833,24.511,-20.267,6.267,31,121
74893,-0.572,0.201,0.75,9.305,11.13,4.985,30,125
74942,-0.603,0.321,0.833,11.588,-9.885,6.763,30,125
74991,-0.488,0.341,0.81,8.008,-2.687,2.061,31,125
75040,-0.698,0.267,0.853,17.878,10.504,10.153,31,126
75089,-0.482,0.393,0.866,16.084,-19.947,6.878,31,125
75139,-0.541,0.221,0.79,17.58,3.794,4.145,31,126
75188,-0.572,0.392,0.794,22.344,-5,7.679,31,128
75240,-0.57,0.279,0.749,6.863,-0.511,4.382,31,123
75289,-0.519,0.376,0.834,12.038,-10.618,8.137,31,128
75338,-0.471,0.445,0.815,12.718,-5.008,-1.221,31,126
75387,-0.675,0.319,0.843,14.55,-5.321,6.214,31,127
75437,-0.488,0.443,0.698,11.954,-6.511,9.031,31,127
75486,-0.521,0.349,0.796,4.817,-8.084,5.527,31,126
75536,-0.485,0.383,0.801,11.099,2.969,2.573,31,126
75585,-0.577,0.49,0.792,11.061,-9.321,4.313,31,128
75634,-0.625,0.3,0.866,6.565,5.458,13.908,31,131
75686,-0.436,0.503,0.707,15.031,-9.42,9.855,32,128
75736,-0.586,0.443,0.732,4.916,6.267,5.695,31,127
75785,-0.622,0.443,0.829,11.618,-1.519,19.183,31,127
75835,-0.419,0.465,0.705,1.466,-9.275,6.473,31,126
75884,-0.71,0.422,0.84,8.908,12.641,17.282,31,126
75933,-0.426,0.467,0.823,9.313,-22.534,12.13,31,125
75982,-0.563,0.458,0.74,9.458,11.641,7.046,31,125
76032,-0.589,0.458,0.771,9.87,-10.382,13.099,31,121
76081,-0.427,0.483,0.712,1.733,-1.817,6.893,30,125
76133,-0.597,0.438,0.808,4.87,1.527,8.26,30,125
76182,-0.46,0.532,0.753,7.924,-8.87,5.26,31,126
76231,-0.541,0.436,0.775,4.244,-0.221,3.137,31,126
76280,-0.558,0.508,0.745,8.58,-3.298,5.626,31,126
76329,-0.492,0.508,0.691,-1.183,-5.366,0.779,31,126
76380,-0.614,0.456,0.865,3.908,-6.786,8.55,30,126
76429,-0.391,0.543,0.704,4.321,-9.779,-1.45,30,127
76478,-0.634,0.43,0.771,3.015,7,4.366,30,128
76527,-0.513,0.541,0.756,3.55,-13.863,7.405,30,121
76579,-0.494,0.501,0.716,-1.71,1.466,1.145,31,129
76628,-0.571,0.518,0.818,3.847,-7.962,9.481,30,121
76678,-0.436,0.541,0.722,2.344,-8.122,3,30,121
76727,-0.586,0.484,0.746,0.42,2.031,7.153,31,122
76819,-0.433,0.495,0.754,-0.008,-9.153,3.237,30,121
76868,-0.57,0.484,0.751,4.015,9.13,7.229,31,121
76917,-0.524,0.548,0.749,4.893,-13.481,8.634,30,122
76966,-0.458,0.569,0.655,-2.992,5.481,8.992,31,121
77016,-0.573,0.468,0.799,-2.87,-3.679,9.718,32,129
77069,-0.416,0.571,0.736,0.061,1.084,5.084,33,128
77118,-0.56,0.527,0.763,1.969,1.435,5.893,33,127
77167,-0.505,0.498,0.751,-1.534,-7.931,8.954,31,127
77217,-0.442,0.486,0.752,-0.779,0.748,4.679,31,126
77266,-0.537,0.524,0.764,1.74,-2.168,3.221,31,126
77316,-0.538,0.517,0.778,4.71,-0.611,8.878,31,126
77366,-0.462,0.521,0.752,2.374,-8.664,5.527,31,126
77415,-0.542,0.482,0.735,2.038,5.397,4.656,31,126
77464,-0.534,0.517,0.789,2.076,-8.221,6.863,30,126
77517,-0.457,0.511,0.755,2.626,-3.443,1.397,31,126
77566,-0.573,0.543,0.779,5.046,0.702,5.641,31,126
77616,-0.457,0.546,0.712,4.672,-12.504,5.496,31,121
77665,-0.534,0.502,0.735,1.763,6.527,3.45,31,120
77714,-0.56,0.54,0.784,3.687,-9.786,8.58,31,121
77763,-0.42,0.547,0.705,2.832,-4.786,5.458,31,121
77813,-0.557,0.534,0.763,4.878,-1.725,6.947,31,130
77862,-0.5,0.575,0.705,2.282,-0.084,10.802,31,130
77913,-0.482,0.5,0.748,0.069,-6.229,6.427,31,130
77965,-0.496,0.572,0.713,2.733,0.183,5.443,31,130
78015,-0.523,0.568,0.723,1.183,-0.817,7.794,31,131
78064,-0.507,0.552,0.747,1.939,-0.221,9.214,32,131
78114,-0.472,0.532,0.75,3.13,-3.763,5.153,32,131
78164,-0.484,0.538,0.724,2.397,2.481,4.458,31,131
78215,-0.518,0.595,0.7,3.626,-4.237,2.214,31,131
78264,-0.557,0.561,0.729,-0.618,0.794,7.519,31,132
78314,-0.468,0.553,0.725,-0.008,-9.191,5.053,31,131
78364,-0.464,0.557,0.717,-3,3.015,1.405,30,136
78414,-0.514,0.533,0.749,-2.618,-3.542,1.542,30,132
78467,-0.521,0.56,0.753,-0.198,-2.595,2.626,31,130
78517,-0.483,0.554,0.721,-0.137,-7.863,2.26,30,131
78566,-0.514,0.533,0.757,1.389,-0.702,3.588,30,122
78616,-0.512,0.539,0.737,2.55,-2.153,4.679,30,130
78666,-0.481,0.551,0.698,2.496,-5.267,0.137,30,131
78715,-0.578,0.542,0.769,3.756,-0.443,6.534,30,130
78766,-0.465,0.604,0.701,4.931,-7.947,6.191,30,128
78815,-0.523,0.544,0.717,-0.29,4.977,6.817,30,129
78865,-0.532,0.55,0.796,1.779,-11.29,7.557,30,128
78917,-0.439,0.62,0.654,3.412,4.519,3.74,29,129
78967,-0.609,0.521,0.773,-1.221,-2.786,9.794,29,130
79017,-0.399,0.559,0.677,-0.122,-7.611,4.481,30,130
79067,-0.513,0.589,0.672,-2.214,6.168,0.832,30,130
79117,-0.586,0.555,0.755,-5.221,-4.16,9.45,30,121
79166,-0.407,0.546,0.74,-3.344,-4.634,3.435,30,120
79215,-0.541,0.506,0.77,2.603,3.893,2.382,30,121
79264,-0.546,0.595,0.72,3.42,-6.863,4.076,30,121
79356,-0.516,0.536,0.749,-1.374,-4.298,5.305,30,121
79410,-0.529,0.552,0.757,-0.901,2.305,6.252,30,128
79460,-0.519,0.566,0.723,3.664,-5.725,8.74,30,128
79509,-0.513,0.574,0.751,1.962,-7.962,5.939,29,120
79559,-0.49,0.521,0.687,-1.466,-2.313,3.931,30,129
79608,-0.552,0.571,0.723,1.893,-3.748,6.771,36,120
79657,-0.499,0.582,0.747,-1.031,-4.038,7.992,29,120
79708,-0.486,0.5,0.748,-2.069,-8.221,4.046,29,121
79757,-0.553,0.532,0.765,4.748,-7.527,3.061,30,130
79807,-0.504,0.582,0.675,4.366,-38.412,-1.321,30,131
79860,-0.493,0.518,0.753,0.084,-5.733,5.305,29,128
79910,-0.44,0.573,0.77,1.55,10.015,5.939,39,127
79961,-0.503,0.595,0.722,3.679,-17.13,4.198,36,128
80010,-0.499,0.535,0.766,0.382,4.046,8.45,30,121
80060,-0.41,0.558,0.69,-0.405,-9.328,1.595,30,122
80109,-0.529,0.52,0.789,1.053,-4.802,3.153,31,121
80159,-0.436,0.589,0.721,-0.282,6.786,7.626,30,122
80208,-0.486,0.568,0.731,1.069,-8.443,0.908,30,128
80265,-0.515,0.545,0.784,-0.015,3.321,8.45,31,128
80316,-0.468,0.564,0.782,0.443,-2.145,6.374,30,128
80365,-0.436,0.561,0.717,3.023,-4.099,4.42,30,114
80414,-0.506,0.629,0.7,3.244,3.611,4.893,29,129
80463,-0.482,0.562,0.72,-1.542,-2.763,6.435,30,130
80512,-0.489,0.59,0.708,-2.733,1.977,5.206,29,115
80561,-0.496,0.574,0.794,-2.084,-3.626,8.229,30,128
80609,-0.379,0.604,0.692,3.122,-2.275,0.725,29,114
80658,-0.554,0.557,0.759,-0.573,8.855,4.863,30,129
80707,-0.458,0.587,0.729,-2.573,-5.489,3.16,30,128
80759,-0.475,0.589,0.72,0.214,3.771,1.229,29,127
80808,-0.541,0.569,0.745,2.611,-6.786,3.893,30,127
80858,-0.47,0.581,0.71,-2.489,-3.198,5.015,30,128
80907,-0.527,0.55,0.764,0.099,-4.542,3.481,29,127
80955,-0.477,0.617,0.731,2.351,-4.939,7.29,30,115
81004,-0.464,0.558,0.706,1.046,-6.885,4.344,30,127
81053,-0.518,0.523,0.758,-1.214,2.794,4.802,30,121
81102,-0.45,0.573,0.745,1.489,-8.931,3.107,30,126
81150,-0.506,0.469,0.775,1.214,-1.718,1.634,30,122
81203,-0.453,0.588,0.698,4.794,-3.916,1.901,30,126
81252,-0.533,0.594,0.667,0.771,3.573,3.687,30,126
81301,-0.562,0.514,0.793,-0.481,-5.168,12.321,30,121
81350,-0.356,0.574,0.726,3.397,-7.618,3.191,31,121
81399,-0.585,0.544,0.732,2.046,11.634,0.695,29,127
81448,-0.551,0.578,0.755,3.977,-13.305,11.244,30,127
81497,-0.378,0.58,0.619,0.855,-5.878,2.992,30,114
81546,-0.601,0.552,0.755,-0.679,0.718,7.061,30,127
81595,-0.473,0.575,0.746,0.183,-7.374,11.351,28,120
81647,-0.448,0.588,0.728,2.382,2.168,5.366,29,127
81696,-0.571,0.575,0.752,2.786,5.137,10.046,38,121
81744,-0.494,0.565,0.736,1.771,-3.817,13.649,29,113
81794,-0.412,0.589,0.672,0.603,-4.344,3.595,29,127
81886,-0.469,0.626,0.692,0.344,-7.221,5.672,30,121
81934,-0.461,0.563,0.742,-4.916,-3.473,5.206,30,113
81983,-0.466,0.572,0.679,0.137,-2.595,2.916,30,121
82032,-0.493,0.634,0.742,-1.985,-4.214,5.55,29,122
82081,-0.479,0.536,0.751,-4.87,-7.916,3.427,29,123
82134,-0.453,0.621,0.714,0.718,0.031,3.183,29,122
82182,-0.517,0.563,0.784,1.252,-8.641,6.824,29,122
82231,-0.399,0.575,0.701,2.603,3.099,5.557,29,127
82279,-0.514,0.539,0.75,3.87,-7.214,2.618,29,107
82329,-0.451,0.592,0.698,0.191,-2.519,2.847,30,127
82378,-0.479,0.578,0.733,0.618,-3.832,3.023,29,127
82427,-0.489,0.588,0.766,-1.053,-2.534,2.985,30,128
82477,-0.469,0.595,0.721,4.527,-1.916,2.679,30,128
82527,-0.483,0.613,0.68,-0.504,-2.725,3.366,33,126
82576,-0.473,0.51,0.772,-4.313,-7.618,2.71,28,127
82637,-0.514,0.614,0.714,-0.634,7.824,1.427,30,128
82689,-0.537,0.556,0.746,-0.198,-9.634,10.618,28,129
82740,-0.413,0.544,0.712,-0.076,2.565,5.389,28,121
82792,-0.52,0.602,0.718,-1.84,0.656,4.405,29,120
82843,-0.522,0.527,0.785,-1,1.321,10.786,29,121
82894,-0.392,0.593,0.696,3.885,-7.153,1.374,29,121
82946,-0.574,0.651,0.679,0.252,6.198,8.214,29,121
82997,-0.489,0.51,0.735,-5.832,-6.763,11.542,28,127
83049,-0.37,0.555,0.684,-2.71,1.069,-2.061,28,127
83103,-0.609,0.59,0.771,-1.198,-1.603,1.748,29,127
83155,-0.44,0.59,0.694,-7.687,-3.763,1.947,29,126
83207,-0.547,0.533,0.769,-4.779,-2.595,2.626,29,126
83258,-0.473,0.573,0.709,-5.809,-0.725,3.481,28,121
83310,-0.533,0.531,0.752,-4.504,-3.298,2.962,30,126
83362,-0.49,0.604,0.715,3.542,0.473,8.374,29,126
83414,-0.479,0.547,0.801,2.489,-7.809,7.725,30,125
83466,-0.471,0.531,0.673,4.817,0.679,5.275,30,126
83517,-0.507,0.576,0.68,-6.855,-7.656,3.733,30,125
83571,-0.464,0.549,0.745,-7.924,5.672,5.076,30,125
83623,-0.544,0.579,0.836,-4.366,-9.397,2.656,28,128
83676,-0.463,0.568,0.696,-4.756,7.527,5.16,28,130
83727,-0.517,0.544,0.769,-3.954,-9.74,4.931,30,122
83779,-0.426,0.502,0.701,-12.748,-0.137,0.916,29,124
83830,-0.537,0.499,0.773,-12.756,1.74,1.084,28,120
83881,-0.471,0.574,0.733,-11.695,-4.519,-1,28,122
83934,-0.512,0.483,0.757,-18.84,2.313,-6.565,28,120
83986,-0.605,0.444,0.816,-18.695,-0.534,-1.023,29,132
84041,-0.407,0.481,0.751,-16.695,-6.656,-1.74,29,135
84092,-0.567,0.402,0.772,-13.916,6.374,-4.863,29,119
84144,-0.621,0.438,0.789,-15.183,6.809,0.511,29,120
84195,-0.504,0.497,0.81,-7.092,-3.748,8.634,27,119
84247,-0.428,0.369,0.737,-12.008,6.443,-2.366,30,120
84298,-0.647,0.436,0.815,-4.374,-0.855,8.076,29,119
84349,-0.463,0.443,0.715,-13.672,1.42,3.489,30,120
84402,-0.626,0.361,0.822,-8.473,9.916,5.718,30,132