Timestamp(ms),AccelX(g),AccelY(g),AccelZ(g),GyroX(deg/s),GyroY(deg/s),GyroZ(deg/s),DistanceLeft(cm),DistanceRight(cm)
49294,-0.014,-0.957,0.342,-4.969,11.977,-12.153,0,69
49349,-0.033,-0.991,0.352,-6.244,21.702,-16.45,0,69
49405,-0.02,-0.945,0.347,-3.29,20.519,-15.405,0,71
49451,-0.003,-0.935,0.357,2.489,17.824,-13.145,17,71
49506,0.048,-0.969,0.321,12.031,19.298,-16.405,0,73
49562,0.082,-0.966,0.277,22.237,40.115,-13.763,0,72
49618,0.029,-0.948,0.354,21.122,45.924,-9.779,0,73
49677,0.044,-0.862,0.376,18.298,10.115,-3.519,0,74
49733,0.09,-0.898,0.346,0.947,6.573,-5.878,0,76
49778,0.096,-0.862,0.372,-10.176,5.374,-9.473,9,76
49823,0.107,-0.792,0.376,-12.977,5.84,-4.534,16,76
49880,0.073,-0.8,0.412,-16.344,0.084,-3.42,0,77
49936,0.106,-0.829,0.428,-19.107,-9.26,-5.855,0,78
49992,0.117,-0.845,0.449,-15.733,-5.351,0.351,0,78
50049,0.085,-0.871,0.509,-10.565,-9.275,8.366,0,77
50105,0.088,-0.947,0.502,-2.092,-23.458,9.16,0,76
50163,0.072,-0.986,0.48,11.137,-23.924,13.702,0,76
50220,0.081,-1.06,0.449,9.244,-10.13,17.137,0,75
50276,0.011,-1.008,0.439,9.908,-6.427,17.885,0,74
50331,-0.05,-0.974,0.379,12.893,-16.855,25.183,0,73
50376,-0.052,-0.984,0.312,16.122,-30.71,31.435,6,71
50433,-0.072,-0.969,0.289,17.298,-36.359,28.969,0,72
50478,-0.07,-0.988,0.25,13.489,-40.588,20.374,16,71
50534,-0.06,-0.917,0.247,8.519,-28.466,19.756,0,74
50589,-0.095,-0.847,0.275,7.511,-36.267,19.023,0,71
50649,-0.038,-0.839,0.255,2.16,-27.588,9.618,0,70
50704,-0.077,-0.873,0.313,2.649,-16.664,0.634,0,70
50760,-0.079,-0.858,0.349,3.908,-6.939,-2.725,0,72
50817,-0.083,-0.954,0.37,6.908,-7.71,-10.634,0,72
50872,-0.01,-1.032,0.338,-3.328,17.504,-21.611,0,72
50928,-0.033,-1.033,0.385,-7.244,29.58,-22.038,0,73
50984,0.014,-1.146,0.331,-16.107,34.847,-30.786,0,74
51041,-0.023,-0.982,0.353,-29.687,50.977,-25.252,0,74
51097,-0.069,-0.893,0.43,-19.061,14.725,-15.595,0,76
51146,0.111,-0.871,0.317,5.702,-7.099,-5.832,16,79
51203,0.169,-0.877,0.293,11.542,14.893,-4.695,0,79
51252,0.116,-0.897,0.357,4.992,35.229,-2.374,81,80
51298,0.064,-0.856,0.407,-0.107,14.336,-0.725,16,80
51347,0.084,-0.788,0.393,-4.756,-16.397,2.695,76,81
51396,0.152,-0.772,0.341,-12.725,-20.603,2.565,75,81
51453,0.131,-0.815,0.373,-19.58,-6.779,-0.939,0,81
51510,0.117,-0.852,0.439,-13.611,-12.756,-0.061,0,81
51566,0.098,-0.878,0.453,-8.221,-8.679,10.916,0,80
51625,0.078,-0.914,0.466,-5.076,-15.061,9.076,0,76
51671,0.074,-0.937,0.453,1.466,-16.641,13.71,6,75
51727,0.107,-0.97,0.39,6.015,-4.221,18.504,0,73
51781,0.003,-1.155,0.425,-0.748,15.153,11.168,0,38
51834,-0.039,-1.111,0.357,7.191,-1.771,13.26,0,29
51888,-0.054,-1.003,0.286,19.344,-16.832,30.687,0,24
51931,-0.068,-0.985,0.241,17.389,-36.847,26.344,9,23
52026,0.025,-0.857,0.115,12.802,-20.321,2.794,0,21
52079,-0.075,-0.862,0.226,18.42,-9.954,11.305,0,22
52135,-0.025,-0.821,0.243,12.924,-5.321,6.221,0,20
52189,-0.018,-0.807,0.298,5.969,8.16,-1.29,0,20
52242,-0.117,-0.876,0.427,7.26,4.901,4.519,0,21
52295,-0.069,-0.874,0.438,7.885,-3.435,3.237,0,20
52348,-0.007,-0.99,0.391,-3.427,23.947,-8.802,0,16
52405,-0.101,-1.069,0.472,-6.031,42.786,-22.924,0,16
52458,-0.064,-1.257,0.41,-9.809,44.473,-31.756,0,16
52514,0.019,-0.849,0.348,-5.489,70.382,-9.344,0,16
52568,-0.04,-0.917,0.38,6.786,72.252,10.069,0,17
52625,-0.015,-0.899,0.292,10.168,73.26,0.374,0,21
52681,-0.028,-0.764,0.295,-7.099,92.992,2.542,0,23
52736,-0.168,-0.81,0.411,-11,70.618,4.595,0,32
52789,-0.202,-0.881,0.404,-4.641,18.45,-4.71,0,31
52842,-0.136,-0.826,0.368,-12.969,-8.084,-7.336,0,20
52887,-0.094,-0.808,0.339,-11.26,-11.924,-5.611,57,19
52940,-0.128,-0.826,0.372,-11.046,-9.466,-4.55,0,19
52986,-0.161,-0.898,0.395,-10.954,-7.939,-4.084,58,20
53031,-0.131,-0.952,0.36,-5.679,-4.511,-1.221,53,23
53080,-0.083,-0.925,0.324,-2.847,11.58,8.893,59,26
53134,-0.138,-1.134,0.339,-11.542,30.802,9.42,0,32
53188,-0.15,-1.127,0.215,-8.282,48.618,-4.718,0,36
53242,-0.18,-1.043,0.27,-5.656,33.374,5.817,0,36
53297,-0.138,-0.982,0.279,-5.87,8.985,10.748,0,38
53351,-0.14,-1.093,0.244,2.443,-16.863,-3.229,0,48
53405,-0.1,-0.836,0.209,4.168,-25.489,-0.328,183,55
53460,-0.11,-0.833,0.207,8.412,-32,0.779,193,57
53516,-0.134,-0.857,0.235,12.931,-26.252,-5.046,190,64
53575,-0.13,-0.899,0.262,12.672,-18.534,-8.947,186,70
53632,-0.114,-0.925,0.287,14.115,-3.557,-6.519,182,97
53688,-0.128,-1.033,0.323,13.527,11.595,-9.672,191,79
53740,-0.113,-1.013,0.337,7.58,15.229,-19.351,90,97
53791,-0.131,-1.119,0.333,3.298,11.229,-24.901,85,104
53838,-0.063,-1.154,0.324,-10.969,16.496,-34.588,82,30
53886,-0.107,-0.812,0.401,-9.832,7.679,-13.382,80,42
53937,-0.047,-0.862,0.348,9.069,-32.58,8.237,144,37
53985,0.11,-0.88,0.18,18.542,-8.542,8.58,77,43
54039,0.02,-0.82,0.261,4.58,26.924,11.473,138,44
54089,-0.035,-0.811,0.321,-3.641,17.763,8.557,128,39
54136,-0.016,-0.82,0.333,-9.191,3.794,1.695,71,42
54188,-0.023,-0.828,0.356,-13.519,2.198,-0.137,129,45
54237,-0.094,-0.845,0.411,-10.275,-13.603,4.023,112,43
54287,-0.099,-0.827,0.438,-8.038,-28.374,7,117,45
54336,-0.068,-0.882,0.424,-6.168,-27.924,11.336,105,45
54386,-0.057,-0.987,0.426,-4.084,-11.244,8.458,102,49
54435,-0.046,-0.963,0.402,4.954,5.382,11,94,67
54489,-0.131,-1.093,0.443,-0.069,5.748,18.267,91,61
54537,-0.116,-1.041,0.386,-5.221,0.794,10.344,87,58
54584,-0.157,-1.043,0.336,-8.015,-8.641,13.076,83,26
54674,-0.133,-0.984,0.173,1.298,-34.771,23.519,78,19
54720,-0.11,-1.015,0.104,-0.145,-23,4.489,76,19
54766,-0.135,-0.818,0.151,-0.588,-11.542,7.679,74,18
54812,-0.174,-0.782,0.169,1.229,-10.756,15.45,72,17
54858,-0.216,-0.795,0.212,-3.069,-7.817,13.771,69,18
54903,-0.243,-0.778,0.21,-4.481,-7.015,14.687,68,17
54952,-0.291,-0.822,0.287,-5.679,-7.45,20.847,65,18
54998,-0.308,-0.921,0.314,-5.496,-12.802,16.244,63,18
55044,-0.268,-1.025,0.224,0.053,-1.092,14.679,60,20
55089,-0.29,-0.943,0.288,0.214,22.42,25.443,58,22
55135,-0.315,-1.015,0.346,0.817,22.763,30.198,57,23
55180,-0.329,-1.189,0.416,-5.092,2.634,23.824,57,25
55226,-0.202,-1.037,0.35,-7.527,-12.962,18.939,54,27
55271,-0.138,-0.895,0.354,2.489,-22.252,26.519,52,16
55315,-0.096,-1.126,0.287,11.031,-24.87,13.237,51,17
55363,0.018,-1.069,0.26,15.977,-12.26,7.023,51,17
55413,0.01,-1.063,0.331,12.328,-8.031,4.061,51,111
55463,-0.012,-0.969,0.332,17.275,-16.786,-21.947,51,101
55510,-0.005,-0.818,0.29,19.405,-14.328,-40.443,53,46
55557,-0.027,-0.821,0.292,10.672,3.344,-42.305,56,43
55603,-0.038,-0.82,0.263,11.076,20.519,-43.076,55,38
55649,-0.058,-0.794,0.303,4.107,30.275,-34.023,58,37
55696,-0.04,-0.847,0.324,-0.885,31.992,-29.282,59,40
55746,-0.041,-0.859,0.386,-2.74,34.695,-26.206,65,33
55792,-0.043,-0.828,0.37,-0.328,33.893,-15.443,69,31
55847,-0.073,-0.862,0.375,-2.885,40.725,2.26,111,29
55896,-0.083,-1.314,0.235,-6.336,63.16,-15.893,111,26
55944,-0.091,-1.063,0.207,-4.13,98.519,-21.389,111,29
55992,-0.175,-0.852,0.252,2.435,101.435,2.656,112,22
56039,-0.259,-0.999,0.324,-0.26,80.992,-2.626,97,22
56086,-0.237,-1.069,0.359,9.244,46.87,-23.573,95,21
56132,-0.074,-0.914,0.224,18.901,45.634,-24.527,93,23
56182,-0.068,-0.893,0.203,21.473,78.886,-12.313,92,18
56226,-0.134,-0.921,0.223,23.725,102.786,-11.489,57,17
56271,-0.196,-0.902,0.247,30.962,93.198,-14.443,57,19
56315,-0.237,-0.893,0.256,34.115,70.573,-17.252,58,18
56360,-0.168,-0.856,0.201,27.458,54.214,-20,57,17
56407,-0.18,-0.915,0.221,13.069,54.26,-22.046,87,14
56453,-0.201,-0.963,0.225,3.595,57.573,-28.023,87,18
56499,-0.201,-1,0.239,-9.641,63.901,-37.298,87,14
56545,-0.186,-1.08,0.263,-14.786,70.145,-45.336,86,15
56594,-0.177,-1.241,0.215,-9.611,83.153,-52.863,86,16
56640,-0.159,-1.16,0.23,-16.489,101.664,-56.328,85,17
56686,-0.176,-0.895,0.306,-17.634,109.824,-40.71,86,17
56732,-0.192,-0.851,0.344,-4.267,88.076,-15.786,87,18
56779,-0.123,-0.904,0.269,9.336,67.046,-7.481,87,20
56828,-0.077,-0.786,0.229,6.908,78.534,-9.504,140,24
56878,-0.119,-0.669,0.287,-0.763,77.794,-6.908,136,26
56928,-0.127,-0.744,0.323,-9.313,60.878,-7.992,134,27
56980,-0.131,-0.836,0.353,-20.748,39.015,-18.015,130,29
57072,-0.147,-0.869,0.479,-28.45,-0.252,-12.176,125,33
57122,-0.194,-1.087,0.481,-21.832,-35.023,3.076,122,34
57170,-0.121,-1.119,0.406,-2.443,-49.84,2.863,118,33
57220,-0.002,-1.017,0.296,4.344,-21.008,15.687,115,33
57269,-0.122,-1.206,0.338,0.092,14.42,10.298,112,34
57317,-0.118,-1.2,0.286,16.679,14.885,9.435,108,34
57365,-0.07,-0.985,0.234,36.298,9.557,34.298,103,35
57413,-0.082,-0.998,0.197,39.702,8.389,48.603,99,35
57464,-0.126,-1.107,0.163,43.527,0.74,36.107,96,35
57511,-0.142,-0.982,0.168,46.466,-12.031,16.466,85,35
57559,-0.102,-0.778,0.153,43.122,-19.939,16.626,84,36
57607,-0.13,-0.762,0.152,35.466,-17.504,18.718,83,45
57654,-0.168,-0.783,0.175,29.305,-21.443,11.863,83,44
57702,-0.144,-0.781,0.166,26.359,-24.962,5.893,83,46
57750,-0.148,-0.852,0.184,16.252,-17.069,2.863,83,47
57798,-0.17,-1.022,0.217,3.252,-9.542,-9.305,82,51
57846,-0.163,-1.082,0.261,-10.924,-6.863,-22.908,82,55
57897,-0.134,-1.037,0.295,-22.076,-8.969,-28.061,81,57
57946,-0.12,-1.215,0.29,-32.405,-2.443,-41.641,79,58
57995,-0.048,-0.982,0.325,-39.802,11.099,-44.053,83,58
58045,-0.021,-0.789,0.352,-30.725,23.733,-21.611,115,61
58096,-0.026,-0.866,0.361,-12.824,24.687,-4.87,113,66
58146,0.028,-0.946,0.275,0.496,38.321,0.725,110,69
58198,-0.01,-0.94,0.275,1.252,61.336,0.809,107,71
58248,-0.054,-0.802,0.309,-5.58,62.107,5.733,105,74
58301,-0.141,-0.778,0.357,-16.931,37.924,6.565,102,76
58352,-0.172,-0.823,0.409,-23.206,-2.817,-6.779,99,80
58403,-0.103,-0.81,0.384,-23.282,-38.748,-14.168,97,82
58454,-0.064,-0.878,0.365,-21.046,-48.275,-6.412,94,85
58505,-0.057,-1.066,0.385,-15.802,-44.092,-3.069,92,91
58556,0.026,-1.035,0.279,3.336,-22.603,-0.565,91,97
58604,0.049,-0.915,0.225,3.878,28.397,15.061,91,44
58659,-0.126,-1.174,0.275,-11.656,62.061,7.443,0,45
58720,-0.244,-1.105,0.363,-13.031,42.985,-6.26,0,157
58777,-0.175,-0.944,0.279,5.16,-17.176,19.153,0,44
58832,-0.133,-1.08,0.182,12.053,-43.221,27.931,0,46
58887,-0.085,-1.168,0.074,25.237,-41.076,13.198,0,39
58941,-0.023,-0.909,0.076,29.458,-16.489,15.023,0,36
58995,-0.072,-0.874,0.121,29.366,-0.092,28.198,0,38
59043,-0.07,-0.828,0.116,38.122,1.931,25.206,93,37
59091,-0.041,-0.765,0.089,39.947,17.336,21.115,95,36
59142,-0.099,-0.773,0.163,29.252,33.542,14.847,95,64
59197,-0.173,-0.987,0.21,16.817,24.588,2.58,0,67
59256,-0.159,-1.12,0.201,7.42,13.481,-21.374,0,65
59313,-0.101,-1.052,0.185,-1.221,27.649,-32.061,0,72
59369,-0.1,-1.174,0.152,-12.893,61.863,-49.015,0,73
59425,-0.134,-0.944,0.226,-25.534,94.313,-53.382,0,73
59482,-0.199,-0.928,0.285,-21.534,85.076,-46.817,0,74
59538,-0.115,-1,0.206,-2.55,65.176,-31.954,0,75
59595,-0.007,-0.988,0.105,7.962,92.969,-8.985,0,76
59695,-0.153,-0.885,0.324,0.115,103.931,9.519,0,79
59752,-0.132,-0.771,0.365,6.466,67.16,-0.351,0,80
59811,-0.106,-0.723,0.365,-4.382,53.794,-16.084,0,81
59869,-0.165,-0.843,0.401,-14,49.023,-16.603,0,82
59925,-0.221,-0.902,0.441,-13.748,29.771,-15.183,0,83
59982,-0.185,-0.944,0.402,-11.908,11.313,-10.565,0,83
60040,-0.159,-0.924,0.363,-8.924,13.573,2.985,0,83
60097,-0.195,-0.909,0.369,-10.725,26.679,16.16,0,83
60145,-0.222,-1.087,0.332,-10.58,21.718,20.29,58,83
60194,-0.232,-1.202,0.262,-5.29,13.534,16.802,54,84
60242,-0.19,-1.155,0.187,8.046,6.573,23.137,54,85
60295,-0.109,-0.829,0.14,22.038,8.786,42.573,50,86
60343,-0.142,-0.903,0.108,18.595,16.145,50.122,47,86
60391,-0.215,-0.993,0.151,17.687,16.74,33.557,49,86
60436,-0.276,-1.056,0.181,28.58,1.023,8.855,51,17
60480,-0.225,-0.951,0.162,37.008,-13.489,-0.695,51,16
60533,-0.177,-0.948,0.134,36.145,-13.649,5.733,0,17
60587,-0.152,-1,0.126,31.748,-0.496,12.634,0,18
60641,-0.149,-0.941,0.164,27.313,12.366,11.061,0,20
60697,-0.166,-0.848,0.251,18.809,23.023,5.382,0,68
60755,-0.223,-0.864,0.314,19.389,9.626,-6.87,0,66
60813,-0.205,-0.835,0.31,20.55,8.542,-15.779,0,75
60868,-0.257,-0.927,0.317,15.397,17.527,-23.229,0,61
60924,-0.256,-0.997,0.317,8.496,13.702,-37.183,0,70
60981,-0.252,-0.96,0.335,-11.542,6.374,-40.771,0,61
61036,-0.209,-1.167,0.257,-17.931,11.092,-60.427,0,60
61093,-0.156,-0.887,0.285,-14.725,27.053,-59.069,0,69
61150,-0.097,-0.843,0.205,3.29,41.924,-30.405,0,68
61205,-0.065,-0.902,0.162,14.87,76.137,-19.427,0,59
61264,-0.134,-0.923,0.185,9.084,101.298,-13.603,0,66
61321,-0.218,-0.801,0.278,-5.656,87.679,-16.679,0,65
61377,-0.281,-0.829,0.385,-21.947,31.168,-24.168,0,65
61433,-0.184,-0.791,0.331,-17.389,-8.817,-31.511,0,65
61490,-0.119,-0.773,0.333,-26.13,-10.756,-21.046,0,64
61546,-0.178,-0.96,0.388,-19.458,-7.244,0.397,0,64
61601,-0.186,-1.02,0.404,-7.344,-10.168,15.748,0,64
61658,-0.139,-1.076,0.333,-1.725,-0.634,26.206,0,61
61717,-0.196,-1.214,0.312,3.137,11.122,12.58,0,62
61772,-0.194,-1.038,0.291,11.992,-2.473,17.641,0,60
61829,-0.208,-0.893,0.253,17.947,-27.321,35.855,0,59
61885,-0.253,-0.971,0.178,15.13,-55.42,41.534,0,59
61940,-0.265,-1.046,0.106,18.015,-77.389,27.481,0,58
61997,-0.235,-0.85,0.128,19.725,-89.45,24.489,0,58
62052,-0.222,-0.878,0.155,23.931,-93.13,25.466,0,58
62108,-0.181,-0.806,0.212,29.176,-92.939,21.313,0,59
62164,-0.202,-0.827,0.281,32.13,-90.206,20.603,0,60
62223,-0.116,-0.802,0.305,27.16,-61.534,18.824,0,62
62279,-0.258,-1.039,0.486,20.779,-49.458,15.427,0,63
62336,-0.187,-1.018,0.491,28.328,-57.489,-0.45,0,65
62392,-0.112,-1.051,0.479,22.176,-22.473,-8.16,0,67
62481,-0.135,-0.838,0.6,17.031,-14.443,14.45,17,70
62527,-0.029,-0.865,0.521,21,-21.137,9.382,11,72
62590,-0.009,-0.867,0.514,27.061,-11.863,9.924,0,72
62646,0.024,-0.833,0.529,23.473,8.069,8.015,0,73
62702,-0.023,-0.733,0.604,22.244,-3.405,8.298,0,73
62760,0.017,-0.691,0.572,12.901,-3,5.794,0,74
62817,-0.07,-0.679,0.649,9.191,-1.321,3.725,0,74
62872,-0.046,-0.652,0.641,8.679,-10.656,4.473,0,74
62928,-0.062,-0.664,0.682,4.901,-5.328,8.13,0,75
62985,-0.101,-0.703,0.75,2.397,-12.191,8.008,0,75
63030,-0.057,-0.716,0.729,4.748,-11.183,11.351,11,75
63086,-0.082,-0.697,0.749,10.275,-0.26,17.763,0,75
63141,-0.113,-0.741,0.77,10.229,1.489,19.053,0,75
63198,-0.15,-0.811,0.714,-7.573,21.817,6.794,0,74
63246,-0.249,-0.832,0.694,-6.733,11.511,11.481,9,74
63301,-0.228,-0.789,0.62,-11.107,-2.076,13.382,0,73
63357,-0.268,-0.869,0.608,-20.725,-15.389,6.221,0,73
63414,-0.14,-0.759,0.495,-22.466,-9.924,2.794,0,74
63459,-0.159,-0.705,0.506,-20.908,2.771,4.603,17,74
63515,-0.196,-0.741,0.508,-22.023,-0.954,-4.16,0,75
63571,-0.089,-0.724,0.42,-28.267,21.603,-15.87,0,75
63628,-0.087,-0.73,0.397,-39.58,79.137,-19.176,0,75
63684,-0.317,-0.883,0.569,-40.939,84.176,-17.504,0,75
63742,-0.348,-0.99,0.605,-30.221,18.542,-36.282,0,76
63795,-0.123,-0.945,0.426,-21.191,13.748,-43.176,112,76
63846,-0.067,-1.044,0.319,-21.16,55.618,-49.618,111,77
63896,-0.093,-1.225,0.26,-37.389,105.015,-77.481,107,77
63947,-0.093,-0.991,0.288,-43.489,130.267,-74.29,103,77
63998,-0.175,-0.898,0.409,-24.893,98.191,-34.504,101,78
64049,-0.206,-1.082,0.348,2.084,36.687,-19.13,100,79
64100,-0.061,-0.97,0.247,9.954,14.702,-15.366,100,79
64149,-0.039,-0.812,0.273,2.13,26.687,-1.511,82,80
64202,-0.083,-0.749,0.323,0.137,13.366,11.985,79,80
64251,-0.09,-0.743,0.356,0.16,-5.809,13.031,77,81
64301,-0.041,-0.801,0.319,-3.336,-18.305,9.214,74,81
64351,-0.032,-0.955,0.343,-6.137,-23.099,2.664,72,82
64400,0.017,-1.033,0.345,-6.359,-25.061,-0.84,72,81
64448,0.045,-0.996,0.32,-6.13,-15.16,4.855,57,81
64504,0.018,-0.866,0.328,-7.466,1.359,6.802,0,80
64562,-0.071,-0.843,0.38,-9.198,4.42,7.763,0,80
64618,-0.123,-0.893,0.394,-10.359,-8.771,6.321,0,79
64671,-0.056,-0.963,0.328,-11.237,-5.962,8.573,79,78
64728,-0.125,-1.177,0.325,-15.916,14.038,-4.336,0,81
64784,-0.113,-1.098,0.251,-4.74,23.305,-15.809,0,77
64841,-0.084,-0.878,0.251,10.061,22.985,20.412,0,76
64898,-0.154,-1.067,0.224,18.435,6.374,30.557,0,75
64954,-0.122,-1.126,0.154,25.405,-7.122,11.298,0,75
65010,-0.083,-0.857,0.178,17.397,-6.939,2.71,0,74
65059,-0.156,-0.806,0.223,9.809,-19.672,8.176,72,73
65108,-0.186,-0.798,0.24,11.985,-41.947,8.221,72,72
65204,-0.094,-0.898,0.2,16.282,-14.321,-6.076,71,72
65253,-0.098,-0.952,0.217,14.443,10.412,-3.145,71,73
65302,-0.125,-1.093,0.248,13.305,21.069,-6.237,72,75
65351,-0.064,-1.026,0.244,7.115,30.397,-6.863,71,79
65400,-0.1,-1.082,0.266,-5.489,41.511,-8.45,73,75
65457,-0.121,-1.045,0.317,-17.282,35.405,-24.046,0,79
65513,-0.089,-0.932,0.295,-19.229,22.046,-29.588,0,76
65570,-0.035,-0.785,0.305,-18.42,27.687,-21.107,0,80
65629,-0.051,-0.876,0.308,-10.29,32.176,-7.061,172,83
65686,-0.029,-0.958,0.283,-5.771,32.061,-3.107,169,105
65741,-0.042,-0.982,0.285,-3.053,34.649,-3.901,166,85
65797,-0.033,-0.855,0.316,-1.985,38.557,3.191,163,87
65851,-0.086,-0.845,0.384,-7.13,23.718,3.122,160,87
65907,-0.059,-0.837,0.369,-7.458,4.496,-6,157,112
65963,-0.061,-0.879,0.399,-15.237,-7.473,-12.168,154,91
66018,-0.056,-0.934,0.408,-12.183,-21.817,-13.695,151,89
66071,-0.012,-0.937,0.35,-5.489,-20.038,-12.061,149,76
66128,-0.018,-0.904,0.302,-4.443,4.817,-7,146,77
66183,-0.064,-1.056,0.296,-6.26,20.908,-1.275,143,92
66236,-0.116,-1.163,0.294,-5.359,25.397,-8.771,140,69
66289,-0.115,-1.021,0.237,2.725,23.885,2.794,138,83
66342,-0.124,-0.94,0.211,5.763,13.046,31.092,135,75
66396,-0.155,-1.092,0.203,6.832,-8.763,38.733,131,81
66447,-0.125,-1.077,0.123,16.214,-26.305,22.924,129,63
66499,-0.051,-0.792,0.125,13.634,-24.443,30.412,126,62
66550,-0.115,-0.847,0.17,6.611,-18.069,31.29,123,64
66605,-0.147,-0.834,0.191,8.397,-33.153,11.061,121,57
66656,-0.102,-0.824,0.169,11.198,-33.313,-2.565,118,57
66707,-0.086,-0.962,0.172,7.656,-21.092,-14.084,116,62
66758,-0.082,-1.121,0.205,3.168,-8.885,-23.366,115,57
66808,-0.061,-1.084,0.214,-0.084,0.55,-20.115,113,55
66859,-0.081,-1.08,0.237,-7.443,11.267,-13.893,112,53
66909,-0.092,-1.178,0.243,-11.29,15.947,-21.573,111,54
66960,-0.091,-0.959,0.283,-16.756,17.275,-18.221,110,54
67013,-0.076,-0.827,0.273,-5.511,11.916,-10.595,110,57
67066,-0.007,-0.879,0.219,8.382,20.351,-1.771,165,54
67118,0.041,-0.929,0.181,16.008,46.595,5.351,115,58
67171,-0.025,-0.95,0.241,10.183,63.107,11.672,144,63
67223,-0.107,-0.925,0.347,1,37.947,10.328,140,66
67275,-0.121,-0.903,0.358,0.511,-7.282,2.573,135,61
67328,-0.053,-0.841,0.309,-1.061,-24.282,-3.42,133,61
67380,-0.029,-0.851,0.294,-2.58,-18.641,-4.389,130,64
67431,-0.036,-0.867,0.297,-1.023,-12.008,0.519,126,58
67486,-0.05,-0.879,0.311,0.809,-9.336,7.908,123,62
67536,-0.049,-0.902,0.3,2.282,-1.496,8.427,119,53
67588,-0.096,-0.891,0.312,-3.168,9.885,9.992,115,56
67638,-0.148,-0.926,0.35,-6.305,13.191,10.527,111,54
67689,-0.183,-1.154,0.346,-7.557,13.542,5.519,107,57
67739,-0.16,-1.1,0.344,1.779,7.695,5.45,103,57
67788,-0.103,-1.021,0.321,19.42,15.802,25.542,99,50
67880,-0.301,-1.233,0.447,63.519,-17.992,41.695,91,57
67930,-0.146,-1.283,0.224,93.359,-84.153,33.16,88,43
67984,0.114,-0.953,0.052,100.351,-39.908,37.412,137,44
68033,-0.071,-0.764,0.2,90.573,25.504,26.435,91,35
68084,-0.173,-0.777,0.281,69.886,35.763,10.153,144,42
68132,-0.192,-0.89,0.373,65.214,10.916,-17.038,81,38
68178,-0.201,-0.865,0.449,60.969,26.702,-33.038,58,40
68227,-0.294,-0.684,0.559,51.046,57.099,-32.863,78,36
68275,-0.448,-0.752,0.759,48.534,40.466,-36.786,77,49
68323,-0.295,-0.781,0.695,62.817,26.511,-44.84,77,51
68372,-0.331,-0.592,0.819,59.649,54.191,-35.031,76,47
68424,-0.34,-0.468,0.869,62.496,25.969,-24.992,75,63
68473,-0.178,-0.356,0.798,46.481,25.359,-15.573,75,68
68523,-0.366,-0.547,0.966,39.466,13.466,-3.947,74,75
68572,-0.195,-0.454,0.883,44.748,-12,0.595,73,57
68620,-0.184,-0.389,0.888,34.015,11.931,6.656,73,50
68668,-0.233,-0.46,0.896,25.832,-16.87,3.435,73,60
68717,-0.19,-0.445,0.804,17.74,-2.382,4.893,72,57
68765,-0.279,-0.417,0.854,14.099,-7.313,0.168,72,57
68817,-0.296,-0.426,0.878,8.321,-6.122,1.275,72,58
68866,-0.231,-0.449,0.872,12.618,-5.786,1.023,72,59
68915,-0.27,-0.403,0.899,11.366,0.664,-0.924,72,61
68963,-0.323,-0.398,0.925,5.908,-4.26,2.947,72,62
69012,-0.247,-0.369,0.868,7.076,-2.198,1.763,72,63
69067,-0.271,-0.344,0.924,3.947,5.084,2.13,72,63
69115,-0.292,-0.386,0.94,5.176,-6.275,2.893,72,62
69163,-0.233,-0.393,0.89,3.794,-1.168,3.145,72,63
69211,-0.297,-0.392,0.959,2.55,2.427,1.595,72,57
69259,-0.245,-0.344,0.891,3.817,-4.992,-0.336,71,58
69309,-0.291,-0.38,0.895,0.634,1.924,0.824,71,57
69357,-0.309,-0.398,0.935,0.832,-1.26,0.069,71,58
69404,-0.277,-0.366,0.943,2.328,-3.496,3.244,71,58
69452,-0.296,-0.385,0.947,5.252,-5.84,4.679,71,59
69500,-0.238,-0.364,0.902,5.641,2.275,4.71,71,66
69548,-0.31,-0.392,0.956,6.397,-3.359,4.832,71,54
69596,-0.241,-0.368,0.889,4.802,-2.076,3.992,71,52
69643,-0.298,-0.354,0.948,3.008,0.076,3.298,71,53
69691,-0.263,-0.361,0.917,3.847,-5.13,2,72,54
69741,-0.257,-0.341,0.9,0.878,6.015,1.412,71,57
69789,-0.306,-0.374,0.959,2.534,-6.817,-0.168,71,58
69836,-0.271,-0.321,0.923,2.786,3.328,2.58,58,57
69883,-0.302,-0.341,0.949,3.015,-2.687,2.504,71,58
69931,-0.267,-0.344,0.918,3.458,-2.985,2.504,58,56
69978,-0.286,-0.318,0.946,2.45,2.863,2.809,58,56
70026,-0.29,-0.338,0.951,4.168,-5.305,1.802,72,56
70072,-0.268,-0.321,0.933,3.405,3.351,1.489,58,55
70119,-0.288,-0.303,0.937,3.634,-1.947,1.076,58,55
70170,-0.288,-0.297,0.948,3.16,-2.824,1.679,72,54
70217,-0.3,-0.33,0.964,3.443,2.725,2.229,72,55
70264,-0.276,-0.31,0.943,4.206,-4.527,2.634,57,56
70355,-0.244,-0.29,0.916,3.298,0.756,0.183,72,56
70404,-0.317,-0.322,0.964,1.008,-0.534,1.038,73,57
70451,-0.278,-0.321,0.934,2.008,-1.031,1.313,72,57
70499,-0.326,-0.304,0.97,1.702,3.679,1.962,73,57
70547,-0.294,-0.288,0.946,1.023,-3.916,2.282,73,57
70595,-0.293,-0.303,0.94,0.092,1.786,3.466,73,57
70646,-0.28,-0.301,0.948,0.992,-2.145,2.282,73,57
70693,-0.272,-0.301,0.943,-1.023,-1.977,1.061,73,57
70742,-0.293,-0.303,0.967,0.321,1.038,0.244,73,57
70790,-0.276,-0.295,0.941,1.351,0.901,-0.267,73,56
70838,-0.288,-0.309,0.953,0.351,1.496,-1.527,73,56
70886,-0.298,-0.296,0.938,0.244,3.802,-1.725,73,57
70933,-0.309,-0.298,0.946,-0.237,1.71,-1,73,57
70981,-0.297,-0.287,0.933,-0.656,1.191,-0.275,73,56
71029,-0.299,-0.321,0.946,0.588,-0.015,0.366,73,56
71080,-0.288,-0.305,0.946,1.076,2.29,-2.099,73,56
71129,-0.286,-0.288,0.946,-0.542,4.634,-1.191,73,56
71176,-0.318,-0.319,0.944,0.183,-3.221,-3.237,58,56
71224,-0.275,-0.309,0.91,-0.229,5.084,-3.099,73,57
71271,-0.346,-0.313,0.964,2.229,4.214,-1.336,58,56
71319,-0.298,-0.286,0.916,1.939,-1.321,-2,73,57
71367,-0.312,-0.304,0.94,-1.542,-0.023,-1.275,73,57
71415,-0.296,-0.306,0.921,-1.092,1.588,-3.626,73,57
71462,-0.342,-0.319,0.961,-1.107,9.534,-0.824,58,57
71513,-0.326,-0.328,0.927,-1.702,-1.626,-0.443,58,57
71561,-0.291,-0.326,0.911,-0.916,0.809,-3.275,73,57
71608,-0.337,-0.309,0.927,-0.145,7.137,-0.969,58,57
71655,-0.362,-0.326,0.95,-2.366,0.313,1.802,58,56
71703,-0.282,-0.353,0.904,-1.947,-4.466,-0.359,73,57
71750,-0.309,-0.313,0.945,-0.244,8.985,-2.298,57,57
71797,-0.342,-0.319,0.957,1.183,-3.252,-3.092,58,57
71845,-0.314,-0.328,0.891,3.137,4.008,-2.916,59,57
71892,-0.364,-0.327,0.946,4,3.779,-2.672,58,57
71943,-0.344,-0.314,0.928,1.847,-0.847,1.466,58,58
71991,-0.323,-0.32,0.926,1.443,-1.252,1.595,73,58
72039,-0.329,-0.296,0.928,1.374,0.756,0.008,73,58
72087,-0.337,-0.304,0.923,0.153,1.107,-1.084,73,58
72135,-0.376,-0.314,0.935,0.122,2.023,0.87,74,58
72183,-0.327,-0.312,0.906,2.061,-0.076,3.122,74,57
72231,-0.326,-0.294,0.898,2.015,3.076,1.878,74,57
72281,-0.335,-0.313,0.921,0.58,5.771,1.969,73,68
72329,-0.365,-0.308,0.945,2.176,0.679,2.588,74,57
72378,-0.336,-0.316,0.905,2.427,3.947,2.71,74,63
72423,-0.381,-0.296,0.939,1.389,5,3.267,74,57
72471,-0.348,-0.294,0.902,-0.397,5.603,2.977,74,57
72520,-0.415,-0.297,0.95,-2.695,3.763,4.107,74,63
72568,-0.366,-0.298,0.911,-2.038,-2.779,3.359,73,63
72616,-0.363,-0.313,0.923,-0.527,1.214,3.786,73,57
72666,-0.369,-0.313,0.921,-0.641,-3.664,2.718,73,57
72714,-0.368,-0.306,0.903,0.435,0.824,3.206,73,58
72805,-0.373,-0.318,0.911,-0.244,-2.427,2.763,73,60
72854,-0.352,-0.306,0.891,0.183,-3.023,0.26,73,60
72905,-0.371,-0.296,0.909,-1.275,1.656,0.153,73,61
72953,-0.386,-0.304,0.927,-1.26,-2.511,1.137,73,61
73003,-0.363,-0.299,0.913,-0.305,-3.809,1.191,73,60
73051,-0.339,-0.311,0.893,-0.893,1.275,0.634,73,61
73100,-0.374,-0.319,0.916,0.733,1,-0.145,74,63
73148,-0.35,-0.314,0.89,-0.786,0.733,-1.756,73,63
73196,-0.368,-0.298,0.891,-3.076,5.55,-1.611,73,57
73245,-0.391,-0.303,0.925,-2.756,4.053,-0.771,73,57
73293,-0.366,-0.304,0.909,-1.519,-4.939,-2.824,73,57
73345,-0.401,-0.306,0.93,-4.015,9.275,-0.45,74,57
73394,-0.393,-0.311,0.926,-0.618,-1.885,-0.977,74,58
73442,-0.372,-0.319,0.896,-0.382,4.107,0.885,74,59
73491,-0.397,-0.303,0.899,-1.046,9.595,0.947,74,71
73539,-0.402,-0.327,0.915,-0.672,2.58,1.176,74,57
73587,-0.394,-0.318,0.883,-0.931,-0.473,0.137,74,57
73636,-0.405,-0.303,0.906,-1.496,7.748,1.611,74,57
73684,-0.411,-0.335,0.906,-1.802,-10.099,-1.267,73,58
73733,-0.35,-0.337,0.871,-2.901,-4.069,-1.855,73,57
73785,-0.421,-0.329,0.918,-4.008,-4.542,-1.496,73,58
73833,-0.39,-0.346,0.877,-2.481,-0.382,1.015,73,58
73882,-0.437,-0.342,0.92,0.71,-0.168,2.168,74,58
73931,-0.371,-0.322,0.898,-0.244,-4.397,2.817,73,81
73980,-0.383,-0.338,0.914,0.939,-4.061,1.809,73,75
74030,-0.357,-0.333,0.866,-0.031,-2.382,0.015,73,57
74078,-0.42,-0.354,0.903,0.496,1.901,-0.405,73,57
74126,-0.382,-0.316,0.881,1.511,-0.321,0.679,73,57
74175,-0.411,-0.33,0.91,0.534,0.267,1.832,73,57
74226,-0.39,-0.334,0.893,2.366,-1.252,2.649,73,58
74275,-0.437,-0.336,0.928,4.374,4.985,6.412,73,57
74323,-0.373,-0.305,0.886,4.84,-7.718,3.092,73,56
74372,-0.335,-0.336,0.854,1.046,-1.611,0.908,73,57
74420,-0.409,-0.302,0.918,-0.115,3.58,0.084,73,57
74469,-0.395,-0.335,0.905,1.031,-2.756,0.115,73,57
74517,-0.405,-0.333,0.918,2.099,-1.183,2.626,73,57
74566,-0.391,-0.304,0.922,4.031,-5.198,1.511,73,63
74615,-0.404,-0.28,0.899,2.336,4.229,1.344,73,63
74668,-0.425,-0.319,0.915,3.924,-0.206,1.443,73,64
74716,-0.367,-0.292,0.862,2.824,-2.672,0.809,73,63
74765,-0.403,-0.329,0.907,0.931,3.038,1.885,73,62
74813,-0.404,-0.315,0.904,1.672,1.397,2.74,73,61
74862,-0.421,-0.281,0.911,0.176,-1.313,2.191,73,61
74911,-0.395,-0.294,0.902,-0.382,-2.168,-0.58,73,61
74959,-0.426,-0.274,0.941,0.275,1.58,1.565,73,61
75015,-0.392,-0.296,0.903,4.328,-0.924,2.924,73,60
75063,-0.401,-0.308,0.91,5.168,-2.824,1.122,73,61
75113,-0.371,-0.285,0.858,1.275,3.176,0.542,73,62
75161,-0.422,-0.304,0.896,1.046,-1.176,-0.977,73,64
75210,-0.42,-0.276,0.882,-1.511,-0.328,2.107,73,65
75301,-0.37,-0.302,0.886,0.809,-0.649,3.038,73,63
75350,-0.403,-0.285,0.918,-0.084,-3.069,1.061,73,63
75398,-0.391,-0.263,0.884,-1.252,2.229,1.366,73,61
75446,-0.43,-0.292,0.914,1.328,-0.573,0.947,73,63
75494,-0.409,-0.282,0.898,0.802,-1.168,3.321,73,63
75542,-0.399,-0.313,0.895,2.031,-3.26,2.702,73,64
75593,-0.381,-0.306,0.878,1.366,1.183,0.511,73,61
75641,-0.355,-0.287,0.87,-2.962,1.191,-2.046,73,63
75689,-0.442,-0.29,0.91,-2.321,1.336,-2.924,73,62
75738,-0.442,-0.273,0.922,-1.947,1.687,0.397,73,61
75786,-0.423,-0.3,0.896,-1.183,-3.397,0.916,73,60
75834,-0.417,-0.317,0.899,-1.092,1.878,2.168,73,61
75882,-0.406,-0.309,0.909,-1.87,-1.794,0.58,73,59
75930,-0.408,-0.296,0.908,-2.168,-0.168,-0.962,73,61
75977,-0.391,-0.32,0.885,-3.481,-1.649,-1.74,73,58
76028,-0.414,-0.307,0.882,-7.351,3.382,-2.183,73,57
76077,-0.439,-0.336,0.901,-5.786,-3.023,-3.16,73,58
76125,-0.392,-0.321,0.88,-5.382,-3.519,-2.137,73,56
76173,-0.419,-0.333,0.92,-5.252,0.985,-0.695,73,56
76221,-0.391,-0.33,0.903,-2.435,-2.366,-1.206,73,57
76268,-0.391,-0.34,0.879,-2.328,1.947,-1.115,73,57
76316,-0.429,-0.331,0.896,0.198,1.481,-0.947,73,57
76364,-0.408,-0.312,0.888,-0.374,1.649,-0.305,73,57
76412,-0.411,-0.369,0.89,-0.672,4.038,1,73,57
76464,-0.448,-0.313,0.934,4.656,4.405,3.847,73,57
76512,-0.435,-0.303,0.935,7.664,-3.427,2.679,73,70
76561,-0.382,-0.334,0.832,3.198,4.412,5,73,63
76609,-0.45,-0.326,0.906,4.779,0.817,2.74,74,63
76657,-0.403,-0.301,0.887,3.832,-3.305,2.473,73,62
76705,-0.441,-0.296,0.916,4.649,5.069,3.389,74,62
76753,-0.477,-0.285,0.938,6.87,2.221,7.679,74,61
76802,-0.439,-0.289,0.883,12.527,-5.588,8.405,73,61
76850,-0.404,-0.305,0.866,9.366,0.313,8.198,74,63
76902,-0.389,-0.279,0.846,4.679,1.305,4.641,74,64
76950,-0.439,-0.29,0.886,1.053,-2.015,3.099,73,65
76999,-0.417,-0.259,0.874,0.153,-2.969,-0.16,73,69
77047,-0.451,-0.279,0.895,-2.702,1.733,0.466,74,69
77096,-0.459,-0.292,0.904,0.427,-5.382,0.046,74,69
77145,-0.409,-0.255,0.888,-0.053,-5.626,-0.015,74,58
77193,-0.406,-0.279,0.87,-3.221,-1.511,1.237,74,69
77242,-0.416,-0.291,0.879,-0.985,-3.672,-2.198,74,69
77291,-0.448,-0.255,0.885,-0.565,3.107,-0.282,74,70
77343,-0.444,-0.273,0.914,1.443,-2.45,1.908,74,71
77391,-0.434,-0.272,0.916,3.496,0.802,2.534,74,70
77441,-0.424,-0.25,0.891,2.893,0.496,3.153,74,69
77489,-0.448,-0.304,0.909,2.427,0.229,2.206,74,57
77537,-0.436,-0.245,0.883,1.893,0.45,2.458,74,57
77586,-0.435,-0.276,0.904,0.771,-2.557,0.962,74,70
77634,-0.401,-0.277,0.875,-1.023,3.328,0.427,74,57
77682,-0.487,-0.259,0.899,0.13,3.939,-0.122,74,69
77774,-0.458,-0.27,0.91,-0.366,1.084,2.588,74,69
77824,-0.459,-0.243,0.881,0.649,-0.107,4.267,74,65
77875,-0.43,-0.268,0.896,0.382,-5.55,2.084,73,63
77924,-0.403,-0.288,0.871,-1.275,0.634,0.412,74,65
77972,-0.455,-0.263,0.9,-3.183,2.985,-0.924,73,62
78020,-0.457,-0.282,0.894,-2.908,-3.069,0.145,73,63
78069,-0.454,-0.271,0.894,-1.298,-3.679,0.55,73,63
78117,-0.419,-0.261,0.868,-2.855,0.458,1.244,73,64
78167,-0.492,-0.289,0.943,-2.13,0.015,1.794,73,69
78216,-0.43,-0.281,0.9,3.672,-3.13,3.282,73,69
78264,-0.426,-0.292,0.892,6.679,-1.13,2.679,73,57
78315,-0.428,-0.282,0.879,4.87,2.687,1.511,73,57
78363,-0.435,-0.255,0.877,2.168,1.824,-0.71,73,58
78411,-0.427,-0.254,0.85,-1.16,0.718,-1.458,73,57
78459,-0.458,-0.277,0.883,-1.412,2.809,-1.588,73,63
78509,-0.454,-0.271,0.906,-0.87,-3.359,-2.527,73,69
78558,-0.442,-0.256,0.896,-2.137,0.603,-0.412,73,68
78607,-0.463,-0.282,0.898,-0.878,1.939,1.267,73,68
78655,-0.455,-0.264,0.899,-0.656,-3,0.672,73,68
78704,-0.445,-0.29,0.879,0.42,3.16,3.023,73,68
78765,-0.493,-0.292,0.927,4.122,4.076,3.985,74,68
78816,-0.439,-0.258,0.863,4.389,-4.863,0.641,73,62
78866,-0.463,-0.286,0.857,2.237,2.573,0.29,73,62
78917,-0.486,-0.257,0.87,0.878,-2.832,0.435,73,62
78967,-0.451,-0.261,0.859,-1.122,-2.092,0.13,73,58
79017,-0.468,-0.269,0.885,-1.107,-1.015,1.145,73,57
79069,-0.466,-0.265,0.897,-1.023,-2.015,0.481,73,57
79120,-0.454,-0.254,0.864,-0.855,-1.26,1.038,73,65
79170,-0.485,-0.262,0.893,-1.45,1.473,3.573,73,63
79223,-0.453,-0.275,0.89,0.076,-4.397,3.481,73,57
79275,-0.451,-0.27,0.89,0.435,0.084,3.542,73,57
79325,-0.447,-0.275,0.884,2.542,-2.298,2.214,73,57
79375,-0.465,-0.25,0.885,1.641,0.397,3.641,73,56
79426,-0.447,-0.267,0.901,1.405,0.366,2.672,73,56
79476,-0.442,-0.243,0.874,1.389,-3.489,1.084,73,57
79526,-0.475,-0.269,0.899,1,0.916,1.779,73,56
79577,-0.448,-0.282,0.88,2.321,-3.649,1.321,73,57
79628,-0.46,-0.246,0.884,0.634,1.641,1.435,73,57
79681,-0.452,-0.251,0.865,1.565,-3.489,-0.298,73,57
79731,-0.473,-0.261,0.899,0.916,3.618,1.809,73,57
79782,-0.469,-0.229,0.876,2.313,-1.008,2.527,73,57
79833,-0.475,-0.262,0.909,4.908,-3.527,0.824,74,57
79883,-0.439,-0.251,0.879,1.137,0.359,-0.176,73,57
79934,-0.467,-0.236,0.868,-1.557,1.137,-1.107,73,57
79984,-0.477,-0.232,0.88,-2.214,-4.947,-1.115,73,57
80035,-0.487,-0.278,0.897,-2.786,0,1.718,73,56
80086,-0.429,-0.218,0.866,-2.817,-4.435,-0.198,73,55
80139,-0.51,-0.278,0.933,-3.573,1.359,1.664,73,57
80190,-0.442,-0.216,0.89,0.351,-2.198,2.405,73,58
80240,-0.491,-0.282,0.933,1.908,0.626,3.672,73,58