Timestamp(ms),AccelX(g),AccelY(g),AccelZ(g),GyroX(deg/s),GyroY(deg/s),GyroZ(deg/s),DistanceLeft(cm),DistanceRight(cm)
63309,-0.516,-0.009,1.062,-6.496,-12.229,-1,17,0
63365,-0.456,-0.021,1.042,-12.328,-4.092,2.626,10,0
63428,-0.541,-0.08,1.079,-16.336,-8.023,9.855,0,0
63492,-0.484,-0.182,0.97,-11.229,-19.641,7.458,0,0
63554,-0.45,-0.24,0.894,-1.221,-11.74,1.969,0,0
63618,-0.435,-0.301,0.843,10.74,-12.435,1.893,0,0
63674,-0.322,-0.258,0.782,9.115,-5.321,6,16,0
63729,-0.373,-0.233,0.821,-6.489,-13.092,0.145,18,0
63785,-0.333,-0.239,0.824,-8.908,-19.641,4.908,16,0
63849,-0.363,-0.173,0.936,-9.069,-6.824,11.534,0,0
63905,-0.355,-0.132,0.972,-11.076,-9.435,20.084,17,0
63959,-0.299,-0.155,0.979,-7.969,-19.916,26.038,18,0
64021,-0.238,-0.151,0.96,3.282,-8.634,25.45,0,0
64084,-0.272,-0.143,0.968,14.55,5.893,18.427,0,0
64148,-0.276,-0.099,1.005,16.985,10.153,7.206,0,0
64203,-0.304,-0.042,1.023,12.099,14.42,6.725,9,0
64257,-0.361,-0.04,1.012,4.809,6,12.061,16,0
64312,-0.443,-0.139,0.98,-1.405,19.481,4.947,16,0
64368,-0.587,-0.193,1.06,-0.863,25.229,4.542,19,0
64420,-0.571,-0.194,1.015,6.87,6.45,12.084,9,0
64477,-0.471,-0.151,0.889,11.092,-4.58,6.58,16,0
64538,-0.453,-0.112,0.841,9.237,-10.588,0.687,0,171
64591,-0.51,-0.114,0.845,5.565,2.992,-2.687,10,0
64644,-0.498,-0.044,0.873,5.214,4.924,-1.038,23,0
64701,-0.478,-0.026,0.903,4,-3.901,3.679,17,0
64753,-0.391,-0.044,0.878,5.374,-8.55,0.763,18,0
64820,-0.353,-0.013,0.896,6.924,-4.809,-8.901,0,0
64876,-0.377,0.013,0.928,6.985,-0.107,-12.511,19,0
64940,-0.451,0.002,0.962,0.313,-8.122,-16.321,0,0
64996,-0.44,-0.01,0.972,-5.534,-12.344,-12.626,16,0
65048,-0.437,0.006,1.015,-3.565,-4.267,-8.992,16,0
65104,-0.413,-0.01,1.03,0.863,-5.153,-2.198,16,0
65158,-0.421,-0.044,0.993,-5.359,11.313,-8.687,9,0
65220,-0.475,-0.051,1.058,-9.244,28.321,-8.366,0,0
65284,-0.486,-0.092,0.994,4.786,-1,-3.802,0,0
65340,-0.421,-0.142,0.814,10.252,-9.198,-14.939,16,0
65403,-0.469,-0.229,0.806,13.588,2.71,-16.771,0,0
65459,-0.481,-0.225,0.949,12.901,5.809,-17.718,9,0
65512,-0.348,-0.112,0.951,6.885,-0.595,-12.534,18,0
65568,-0.297,-0.062,0.919,3.565,-7.519,-10.962,10,0
65622,-0.328,-0.049,0.884,4.267,-4.282,-10.618,16,0
65677,-0.398,-0.051,0.915,1.908,1.74,-3.992,8,0
65730,-0.398,-0.065,0.949,-0.473,-2.137,2.26,16,0
65794,-0.34,-0.041,0.965,-1.45,-4.893,10.313,0,0
65860,-0.331,-0.039,0.989,2.519,-6.641,11.969,0,0
65916,-0.379,-0.009,1.017,5.84,4.55,13.84,16,0
65970,-0.409,-0.012,1.048,4.542,2.519,20.13,16,0
66032,-0.46,-0.072,1.036,-2.145,6.672,12.55,0,0
66096,-0.505,-0.064,1.025,-2.74,8.901,17.099,0,0
66157,-0.494,-0.05,0.961,-6.481,1.084,21.496,0,167
66264,-0.544,-0.072,0.831,-4.229,4.275,8.947,0,0
66325,-0.532,-0.04,0.802,-2.321,10.137,9.046,0,165
66378,-0.494,-0.04,0.814,-3.427,0.206,3.763,16,0
66435,-0.53,-0.093,0.857,-11.611,-6.084,-2.282,18,0
66498,-0.51,-0.132,0.868,-7.321,-5.916,4.137,0,0
66562,-0.464,-0.033,0.927,-9.611,-0.74,4.008,0,0
66617,-0.463,0.009,0.966,-6.908,-3.565,-0.198,11,0
66681,-0.492,0.047,1.026,2.863,0.916,-10.031,0,0
66738,-0.502,0.07,1.003,9.153,-10.603,-9.328,18,0
66801,-0.499,0.061,0.939,7.824,-19.779,-14.679,0,0
66865,-0.584,-0.043,1.013,-7.405,0.336,-15.252,0,0
66928,-0.547,-0.177,1.037,-6.702,-16.962,-9.374,0,0
66995,-0.285,-0.171,0.823,10.336,-26.305,-8.252,0,0
67058,-0.341,-0.224,0.791,12.565,1.107,-9.702,0,0
67115,-0.424,-0.185,0.918,0.58,5.855,-9.779,16,0
67168,-0.371,-0.126,0.941,-8.702,-9.901,-4.939,16,0
67231,-0.283,-0.071,0.902,-11.84,-7.626,-2.779,0,0
67295,-0.351,-0.136,0.927,-14.771,-4.977,-5.962,0,0
67358,-0.405,-0.218,0.989,-12.244,-1.885,9.069,0,0
67423,-0.377,-0.177,0.998,-11.237,4,35.084,0,0
67486,-0.343,-0.153,0.885,-25.214,-1.313,49.397,0,0
67550,-0.275,-0.14,0.972,0.031,9.076,17.305,0,0
67614,-0.364,-0.065,1.009,17.855,18.847,5.802,0,166
67678,-0.435,-0.073,1.031,17.366,11.069,14.519,0,194
67741,-0.45,-0.078,0.991,6.443,3.641,13.626,0,0
67805,-0.521,-0.158,0.99,1.595,9.84,6.107,0,0
67861,-0.47,-0.09,0.923,10.374,7.458,6.145,9,0
67921,-0.551,-0.085,0.883,5.84,8.679,3.557,0,145
67985,-0.608,-0.103,0.907,4.435,-8.794,1.603,0,0
68046,-0.552,-0.063,0.807,1.916,-3.45,2.466,0,164
68110,-0.557,-0.051,0.851,2.656,2.046,-1.191,0,0
68176,-0.513,-0.033,0.865,5.71,-2.634,-1,0,0
68238,-0.497,0.004,0.9,2.504,-1.359,-0.87,0,155
68301,-0.488,-0.02,0.881,0.893,-7.29,-5.504,0,0
68365,-0.457,0.018,0.894,0.908,-0.931,-10.985,0,0
68428,-0.482,0.037,0.911,-1.855,-4.42,-14.458,0,0
68493,-0.492,0.068,0.938,-5.511,-7.573,-13.687,0,0
68546,-0.568,0.09,0.953,-9.366,-17.168,-6.061,20,0
68610,-0.57,0.132,0.954,-12.542,-17.893,11.885,0,0
68663,-0.576,-0.011,1.045,-15.695,-8.817,20.053,18,0
68729,-0.441,-0.262,1.074,-0.069,-15.626,20.611,0,0
68794,-0.305,-0.214,0.936,5.771,3.061,7.145,0,0
68857,-0.353,-0.209,0.865,13.13,-1.321,-11.611,0,0
68911,-0.383,-0.2,0.836,14.794,4.817,-24.023,16,0
68974,-0.434,-0.198,0.89,4.954,12.74,-26.466,0,0
69027,-0.451,-0.185,0.962,1.969,5.489,-27.763,18,0
69092,-0.369,-0.098,0.923,4.893,2.74,-25.84,0,0
69145,-0.352,-0.022,0.939,3.84,8.198,-18.756,16,0
69201,-0.381,-0.035,0.974,3.855,5.74,-7.947,11,0
69258,-0.388,-0.056,0.991,7.977,2.947,0.153,17,0
69364,-0.323,-0.092,0.964,14.718,-3.672,0.817,0,0
69417,-0.386,-0.041,0.984,9.542,3.687,0.756,16,0
69471,-0.428,-0.006,0.99,1.198,4.168,3.779,16,0
69532,-0.492,-0.045,1.006,-12.824,3.763,1.756,0,159
69596,-0.525,0.038,0.977,-19.779,-5.573,17.885,0,0
69660,-0.676,-0.061,1.059,-23.336,-6.076,42.198,0,0
69713,-0.463,-0.318,0.952,6.916,-37.725,28.702,16,0
69777,-0.264,-0.17,0.758,16.634,15.939,11.176,0,0
69844,-0.541,-0.087,0.802,8.573,33.863,-10.626,0,0
69898,-0.571,0.004,0.791,5.611,-2.863,-17.763,17,0
69954,-0.503,0.036,0.792,3.427,-3,-16.611,9,0
70006,-0.519,-0.003,0.854,7.069,7.397,-16.351,8,0
70071,-0.509,0.011,0.882,12.504,8.969,-18.382,0,0
70124,-0.525,0.007,0.948,10.87,3.74,-21.832,17,0
70188,-0.538,0.017,0.964,8.458,-2.702,-23.748,0,0
70241,-0.566,0.028,0.997,6.275,-5.756,-24.382,18,194
70305,-0.554,0.027,1.027,9.702,-15.771,-23.26,0,0
70369,-0.522,0.053,0.989,3.71,-0.87,-28.412,0,0
70435,-0.585,-0.069,1.045,-3.771,-4.267,-12.336,0,0
70500,-0.418,-0.152,0.871,3.038,-24.939,-7.168,0,0
70563,-0.352,-0.259,0.773,12.351,-6.183,-10.863,0,0
70618,-0.451,-0.285,0.846,16.145,10.74,-19.076,16,0
70671,-0.488,-0.248,0.96,8.305,11.733,-20.71,16,0
70724,-0.373,-0.102,0.946,5.29,-2.496,-15.237,10,0
70777,-0.296,-0.007,0.896,2.924,-3.275,-15.137,11,0
70847,-0.374,-0.004,0.916,-0.053,3.87,-6.954,0,0
70903,-0.432,-0.059,0.941,0.344,-3.443,4.008,16,0
70959,-0.39,-0.069,0.958,-3.313,-5.267,13.931,18,0
71022,-0.337,-0.047,0.964,-10.214,-7.534,19.763,0,0
71085,-0.383,-0.022,0.975,-12.656,-13.26,18.763,0,0
71141,-0.493,0.026,1.002,-14,-5.519,46.252,10,0
71194,-0.563,-0.201,1.08,-21.672,-17.55,56.229,19,0
71257,-0.374,-0.309,1.072,-1.992,-21.969,39.053,0,0
71313,-0.3,-0.152,0.939,0.55,10.42,23.374,16,0
71365,-0.521,-0.159,0.885,-12.412,10.29,12.45,9,0
71429,-0.571,-0.1,0.821,-20,-8.702,7.519,0,0
71494,-0.536,-0.082,0.767,-16.305,-13.366,-4.015,0,0
71552,-0.531,-0.081,0.847,-5.756,5.756,1.115,18,0
71614,-0.476,-0.106,0.91,2.198,1.55,1.435,0,0
71677,-0.425,-0.103,0.931,4.023,-0.863,-3.183,0,0
71734,-0.427,-0.061,0.907,1.687,6.267,-7.947,16,0
71796,-0.454,-0.041,0.944,1.26,3.214,-9.725,0,0
71853,-0.46,-0.043,0.969,2.023,-0.939,-12.237,18,0
71916,-0.456,-0.04,0.996,3.427,-4.519,-10.511,0,0
71972,-0.438,-0.018,0.994,3.71,-5.893,-10.641,16,0
72039,-0.444,-0.025,1.005,4.718,-8.275,-11.008,0,0
72095,-0.437,-0.078,1.018,10.137,-7.351,-16.313,16,0
72159,-0.428,-0.036,0.989,6.756,8.366,-15.855,0,0
72221,-0.46,-0.025,0.998,1.122,2.26,-5.466,0,0
72285,-0.427,-0.095,0.902,3.977,-11.237,-1.481,0,0
72391,-0.45,-0.288,0.907,4.84,4.534,-4.954,0,0
72455,-0.38,-0.241,0.935,2.916,-3.038,-12.794,0,0
72517,-0.301,-0.122,0.929,-4.168,0.924,-12.282,0,0
72581,-0.331,-0.023,0.889,-7.664,-7.084,-11.504,0,0
72647,-0.46,0.04,0.914,-13.13,1.435,15.947,0,0
72711,-0.55,-0.068,1.036,-16.359,-13.229,49.748,0,0
72774,-0.14,-0.288,0.988,0.649,-29.771,44.214,0,0
72837,-0.065,-0.26,0.925,8.504,7.229,20.786,0,0
72900,-0.331,-0.151,0.998,9.87,26.901,4.992,0,0
72964,-0.495,0.007,1.044,1.718,13.893,15.763,0,0
73027,-0.586,-0.066,1.073,-13.229,8.244,8.389,0,0
73091,-0.579,-0.093,0.947,-9.008,5.802,25.588,0,0
73153,-0.62,-0.06,0.808,-15.718,13.84,32.183,0,0
73210,-0.626,-0.159,0.786,-13.427,-13.595,20.153,30,0
73274,-0.452,-0.108,0.77,-2.038,-5.527,10.84,0,0
73337,-0.454,-0.077,0.844,6.008,13.656,4.931,0,0
73399,-0.549,-0.126,0.889,11.076,4.191,-4.985,0,172
73462,-0.521,-0.049,0.838,6.992,4.969,-9.794,0,0
73526,-0.581,-0.022,0.925,-4.45,3.244,-8.191,0,0
73589,-0.537,-0.029,0.947,0.13,-8.176,-11.176,0,0
73650,-0.477,0.034,0.926,3.015,-2.214,-9.092,0,155
73713,-0.523,0.085,0.915,-7.053,-12.092,-7.29,0,0
73780,-0.603,0.072,1.011,-9.115,-14.038,11.466,0,0
73843,-0.528,-0.08,0.998,-5.893,-33.168,13.748,0,0
73900,-0.381,-0.153,1.011,-1.87,-1.863,10.405,16,0
73963,-0.412,-0.186,1.006,-2.168,-3.863,11.298,0,0
74027,-0.412,-0.248,0.809,2.328,-16.405,-8.702,0,0
74090,-0.429,-0.299,0.774,6.092,5.382,-19.015,0,0
74153,-0.474,-0.185,0.948,0.344,9.557,-25.458,0,0
74210,-0.409,-0.085,0.955,3.588,-0.947,-14.802,16,0
74273,-0.363,-0.01,0.898,2.878,0.725,-4.229,0,0
74330,-0.422,-0.05,0.91,-1.305,-0.679,5.748,17,0
74386,-0.434,-0.113,0.923,-6.588,-3.962,14.008,16,0
74449,-0.39,-0.161,0.947,-7.519,-10.794,17.817,0,0
74506,-0.289,-0.208,0.99,-7.45,-25.16,9.595,17,0
74559,-0.231,-0.296,0.979,-1.206,-23.137,-0.641,16,0
74615,-0.278,-0.213,1.007,3.603,9.664,2.45,16,0
74679,-0.369,-0.083,1.065,5.145,-5.74,1.756,0,0
74742,-0.375,0.053,1.001,8.855,10.908,19.252,0,0
74806,-0.514,-0.007,0.997,9.809,27.786,19.947,0,0
74862,-0.504,-0.077,0.913,7.542,7.198,21.405,17,0
74929,-0.493,-0.073,0.819,-12.145,6.679,26.534,0,0
74982,-0.572,-0.13,0.862,-28.847,-5.908,25.771,18,0
75045,-0.568,-0.167,0.893,-23.649,-8.969,18.473,0,0
75109,-0.504,-0.08,0.859,-8.817,8.084,13.656,0,0
75173,-0.508,-0.086,0.881,-0.618,4.641,10.351,0,0
75237,-0.448,-0.086,0.85,3.809,0.672,-1.832,0,0
75300,-0.479,-0.074,0.896,-0.374,5.305,-12.305,0,0
75364,-0.486,-0.076,0.938,4.641,7.466,-19.168,0,0
75427,-0.593,-0.061,1.055,12.565,8.794,-17.519,0,0
75537,-0.406,0.017,0.89,21.145,8.588,-14.489,0,0
75600,-0.566,0.021,0.965,11.275,7.397,-10.756,0,0
75664,-0.499,0.039,0.933,4.763,-29.71,-15.504,0,0
75727,-0.438,0.023,0.895,-10.137,-8.435,-16.115,0,0
75791,-0.558,-0.086,1.011,-21.038,0.527,-8.176,0,0
75855,-0.459,-0.15,0.909,-10.42,-25.252,-1.847,0,0
75919,-0.395,-0.196,0.809,-4.939,-11.168,-6.405,0,0
75972,-0.443,-0.238,0.87,-1.038,5.336,-4.374,16,0
76036,-0.451,-0.235,0.921,-2.282,4.29,-2.756,0,0
76102,-0.387,-0.19,0.901,-5.527,-1.542,0.015,0,0
76166,-0.36,-0.146,0.881,-5.687,2.092,-0.573,0,0
76219,-0.442,-0.15,0.93,-5.489,5.13,4.313,17,0
76272,-0.42,-0.139,0.931,-5.611,1.031,10.099,17,0
76336,-0.39,-0.157,0.923,-5.458,-1.916,12.687,0,0
76400,-0.35,-0.133,0.94,-7.313,-3.015,11.435,0,0
76453,-0.348,-0.148,0.986,-9.313,-6.618,7.229,17,0
76507,-0.39,-0.164,1.019,-2.534,2.374,12.29,16,0
76570,-0.407,-0.132,1.022,4.145,-3.275,17.893,0,0
76637,-0.439,-0.172,0.968,-1.397,-10.038,14.198,0,0
76700,-0.513,-0.187,0.97,-4.481,-1.038,14.191,0,0
76765,-0.465,-0.135,0.94,-4.458,-12.542,15.672,0,0
76828,-0.466,-0.138,0.88,-3.748,-5.656,18.969,0,0
76892,-0.568,-0.144,0.846,-4.336,-1.504,15.511,0,0
76955,-0.548,-0.139,0.837,0.313,3.229,16.435,0,0
77020,-0.469,-0.132,0.819,11.672,20.794,16.046,0,0
77073,-0.558,-0.066,0.872,10.267,18.191,7.924,18,0
77136,-0.562,-0.048,0.887,4.023,-0.015,5.137,0,0
77203,-0.491,-0.011,0.879,-0.229,-6.13,0.389,0,0
77267,-0.468,0.022,0.875,-6.336,-3.031,-5.565,0,0
77331,-0.511,-0.049,0.961,-11.29,-17.031,-18.405,0,0
77384,-0.442,-0.153,1.089,2.855,-9.069,-8.206,16,0
77448,-0.458,-0.076,0.962,17.947,21.389,-5.122,0,0
77512,-0.563,0.004,0.996,14.389,13.443,-21.221,0,0
77576,-0.527,-0.028,0.933,1.45,-21.641,-14.321,0,0
77639,-0.43,-0.092,0.851,-1.794,-13.626,-7.641,0,0
77704,-0.484,-0.178,0.892,-1.42,-2.244,-9.473,0,0
77767,-0.441,-0.22,0.911,2.214,-8.901,-5.802,0,0
77835,-0.396,-0.274,0.902,2.351,-0.595,-5.679,0,0
77888,-0.391,-0.242,0.922,-0.977,2.802,-11.198,16,0
77941,-0.337,-0.167,0.9,-2.382,1.252,-8.664,16,0
77995,-0.362,-0.125,0.898,-7.389,0.733,-5.931,18,0
78048,-0.418,-0.139,0.906,-10.084,1.649,1.328,17,0
78101,-0.418,-0.135,0.948,-11.405,2.191,11.374,17,0
78166,-0.368,-0.133,0.961,-10.183,-7.031,20.26,0,0
78229,-0.309,-0.141,0.951,-5.939,-8.45,23.168,0,0
78294,-0.391,-0.202,0.986,1.855,2.466,20.366,0,0
78360,-0.401,-0.138,1.035,5.832,-0.641,23.679,0,0
78425,-0.441,-0.174,1.034,-4.427,-5.779,18.618,0,0
78478,-0.486,-0.176,0.996,-7.282,-5.954,21.229,23,0
78542,-0.449,-0.14,0.897,-9.626,-9.603,21.321,0,0
78639,-0.404,-0.192,0.792,2.282,-4.237,-6.489,11,0
78702,-0.627,-0.189,0.926,4.687,12.496,-7.092,0,0
78761,-0.532,-0.129,0.878,19.885,-18.595,-15.901,16,0
78818,-0.428,-0.022,0.834,12.992,10.977,-2.634,16,0
78870,-0.514,-0.051,0.937,1.924,4.992,0.076,16,0
78925,-0.459,-0.072,0.905,-1.427,-11.519,-5.298,16,0
78982,-0.416,-0.042,0.91,-5.634,-1.809,-2.962,16,0
79035,-0.437,-0.046,0.929,-6.084,-0.237,-3.863,16,0
79098,-0.454,-0.056,0.953,-3.511,-4.771,-4.16,0,0
79154,-0.435,-0.055,0.962,0.053,-6.534,-4.435,16,0
79217,-0.425,-0.053,0.967,-0.634,-2.641,-6.679,0,0
79273,-0.465,-0.058,1.013,-2.206,-5.275,-4.573,16,0
79337,-0.413,-0.063,0.99,-0.252,-13.908,-5.397,0,0
79393,-0.448,-0.102,0.983,-2.641,5.489,-7.527,17,0
79449,-0.504,-0.151,1.022,-4.214,2.885,-4.122,17,0
79505,-0.417,-0.163,0.939,0.519,-15.427,1.351,16,0
79557,-0.32,-0.23,0.865,3.939,-5.55,-0.771,16,0
79613,-0.41,-0.279,0.895,7.099,7.58,-2.985,16,0
79667,-0.41,-0.259,0.913,9.053,1.649,-2.733,19,0
79723,-0.35,-0.227,0.891,3.481,1.641,-6.405,17,0
79775,-0.376,-0.205,0.944,-4.603,5.832,-8.473,16,0
79832,-0.382,-0.164,0.983,-5.397,-6.527,-5.557,16,0
79895,-0.361,-0.138,0.973,-2.435,-1.992,0.557,0,0
79962,-0.369,-0.15,0.953,3.985,-0.847,7.695,0,0
80024,-0.333,-0.115,0.914,6.023,-4.771,11.534,0,0
80088,-0.302,-0.09,0.913,0.389,-1.672,15.252,0,0
80151,-0.29,-0.119,0.932,-6.924,-1.824,14.527,0,0
80215,-0.313,-0.145,0.986,-11.725,3.588,13.786,0,0
80278,-0.309,-0.141,1.008,-9.053,-3.374,18.748,0,0
80340,-0.3,-0.119,0.987,-9.557,-1.374,23.137,0,0
80404,-0.472,-0.28,1.034,-11.176,-0.015,1.771,0,0
80460,-0.405,-0.17,0.936,-4.115,-0.053,-4.061,16,0
80517,-0.5,-0.134,0.853,-13.397,6.634,-1.252,16,0
80573,-0.629,-0.183,0.847,-18.885,-1.351,4.618,17,0
80626,-0.567,-0.168,0.843,-14.733,-10.595,4.557,17,0
80679,-0.536,-0.148,0.854,-11.176,-0.534,4.802,20,0
80733,-0.51,-0.16,0.889,-5.74,3.618,7.656,20,0
80796,-0.493,-0.162,0.919,-2.603,1.824,5.206,0,0
80851,-0.449,-0.17,0.871,-1.771,4.328,4.313,9,0
80905,-0.485,-0.195,0.908,-1.847,7.893,-1.183,10,0
80960,-0.493,-0.197,0.929,0.489,1.45,-8.282,10,0
81016,-0.474,-0.168,0.943,3.115,-1.901,-14.351,9,0
81070,-0.467,-0.135,0.969,6,-5.679,-20.29,21,0
81133,-0.473,-0.115,1.023,9.076,-8.58,-22.84,0,0
81186,-0.435,-0.27,0.962,14.939,-23.786,-36.618,17,0
81240,-0.416,-0.26,1.023,18.588,4.473,-55.702,16,0
81293,-0.4,-0.24,0.988,10.504,11.046,-34.794,17,0
81356,-0.212,-0.082,0.765,9.069,-5.008,-32.794,0,0
81420,-0.349,-0.566,0.712,10.107,25.145,-50.298,0,0
81483,-0.529,-0.103,0.874,1.412,20.481,-12.397,0,0
81583,-0.331,-0.422,0.831,-16.832,12.405,5.084,17,0
81647,-0.367,-0.292,0.929,-19.351,22.687,8.107,0,0
81700,-0.402,-0.404,0.823,-23.489,15.321,9.427,16,0
81764,-0.466,-0.365,0.877,-18.847,13.565,15.695,0,0
81827,-0.521,-0.293,0.903,-23.198,8.023,27.87,0,0
81891,-0.427,-0.344,0.857,-19.809,-3.641,30.137,0,0
81944,-0.43,-0.331,0.848,-22.71,11.679,34.405,18,0
81997,-0.419,-0.311,0.74,-21.458,5.962,34.863,16,0
82058,-0.469,-0.375,0.738,-14.168,11.87,42.198,0,134
82124,-0.513,-0.44,0.702,-17.45,38.397,19.183,0,0
82184,-0.789,-0.677,0.932,-8.985,18.115,0.145,0,125
82244,-0.542,-0.3,0.669,-7.58,5.58,-19.794,0,134
82308,-0.872,-0.157,0.615,-19.84,13.153,-12.748,0,0
82359,-0.716,-0.243,0.491,-20.992,-2.649,8.504,45,132
82418,-0.725,-0.371,0.63,-26.71,13.443,13.244,0,124
82478,-0.776,-0.348,0.724,-20.267,-6.191,17.656,0,116
82537,-0.971,-0.108,0.716,-23.519,7.282,40.023,0,123
82600,-0.616,-0.501,0.585,-3.992,-30.733,45.45,0,0
82654,-0.68,-0.503,0.504,-23.298,7.069,17.137,38,114
82713,-0.951,-0.501,0.635,-15.557,-1.71,18.74,0,125
82771,-0.624,-0.452,0.663,-1.885,-13.221,11.496,0,116
82831,-0.736,-0.503,0.726,14.275,20.282,0.183,0,117
82890,-0.709,-0.424,0.751,47.664,-20.817,-6.29,0,113
82940,-0.596,-0.494,0.707,46.221,-5.328,-32.702,38,127
82990,-0.696,-0.244,0.669,32.878,-16.053,-29.733,37,114
83050,-0.514,0.003,0.392,41.595,13.489,-31.267,0,127
83100,-0.77,-0.154,0.667,13.901,28.817,-11.786,36,126
83152,-0.576,-0.142,0.732,-9.863,6.427,-6.061,16,128
83203,-0.663,-0.106,0.748,-16.534,6.389,-6.947,43,123
83253,-0.865,-0.263,0.725,-18.809,3.924,6.931,40,114
83307,-0.67,-0.381,0.777,-17.641,-16.008,9.153,46,0
83357,-0.57,-0.383,0.672,-13.504,3.191,0.26,41,113
83406,-0.694,-0.487,0.691,-9.443,0.229,-5.115,36,111
83457,-0.586,-0.482,0.702,0.321,-3.084,-11.412,38,123
83516,-0.625,-0.341,0.721,2.176,16.985,-9.954,0,126
83566,-0.701,-0.284,0.647,7.824,7.313,-9.992,35,121
83619,-0.725,-0.383,0.656,5.656,10.504,-2.076,35,118
83668,-0.657,-0.29,0.599,8.443,4.076,-6.092,38,116
83719,-0.74,-0.173,0.601,-2.527,15.412,3.618,37,115
83768,-0.947,-0.169,0.705,-5.802,-3.977,18.191,37,112
83818,-0.848,-0.423,0.589,5.618,-12.344,23.389,34,123
83876,-0.728,-0.4,0.624,-6.855,-1.008,13.725,0,110
83927,-0.599,-0.373,0.627,-0.679,-19.603,-1.962,35,121
83977,-0.826,-0.514,0.685,19.863,15.42,-3.511,35,116
84029,-0.683,-0.572,0.682,32.542,-21.931,-21.863,38,116
84089,-0.582,-0.342,0.673,22.565,11.13,-40.656,0,130
84140,-0.756,-0.091,0.612,21.496,8.832,-33.282,38,126
84200,-0.756,-0.113,0.502,31.656,11.42,-14.664,0,127
84250,-0.673,-0.125,0.516,-1.634,12.672,3.267,37,119
84308,-0.788,-0.212,0.674,-18.595,13.244,11.718,0,110
84402,-0.7,-0.503,0.782,-6.496,-14.931,19.176,33,117
84452,-0.535,-0.65,0.67,10.786,-14.893,-3.954,36,125
84502,-0.65,-0.551,0.675,13.611,-2.076,-20.107,38,127
84555,-0.712,-0.242,0.569,16.756,-7.092,-20.542,37,119
84605,-0.816,-0.205,0.582,6.87,9.992,-0.634,33,117
84655,-0.642,-0.504,0.768,28.718,-13.794,6.527,34,113
84705,-0.482,-0.322,0.774,41.611,1.458,-4.74,34,114
84754,-0.747,-0.138,0.73,41.061,3.985,-4.504,32,113
84803,-0.876,-0.104,0.659,32.45,-3.931,13.435,33,113
84852,-0.666,-0.115,0.6,14.023,-5.71,20.649,33,114
84902,-0.557,-0.054,0.698,-0.29,-8.107,7.565,32,114
84952,-0.609,-0.166,0.685,-15.015,3.55,-3.679,33,114
85005,-0.754,-0.211,0.724,-7.664,-2.725,-0.931,35,115
85054,-0.688,-0.231,0.732,-1.931,-2.618,5.336,36,114
85104,-0.711,-0.292,0.771,5.29,0.244,3.046,36,114
85155,-0.783,-0.333,0.828,13.176,-7.985,-1.748,36,142
85206,-0.765,-0.233,0.806,18.145,-13.916,4.076,34,131
85257,-0.639,-0.247,0.772,27.626,-11.908,5.557,33,132
85307,-0.572,-0.23,0.703,29.221,-6.756,-3.664,35,134
85358,-0.665,-0.206,0.721,26.756,-6.443,-6.527,36,131
85410,-0.657,-0.071,0.705,24.282,-0.779,-2.382,34,151
85465,-0.679,0.085,0.696,15.534,-8.809,5.336,31,152
85515,-0.729,0.093,0.609,-1.885,6.71,13.397,31,122
85569,-0.656,-0.055,0.709,-11.977,-3.802,21.176,33,0
85630,-0.644,-0.167,0.848,-8.916,7.702,16.611,34,0
85684,-0.797,-0.188,0.838,0.885,1.42,19.038,32,0
85737,-0.804,-0.212,0.773,7.183,-1.389,20.107,31,0
85788,-0.711,-0.198,0.922,9.229,-22.779,21.176,32,142
85841,-0.464,-0.185,0.807,10.916,-15.198,-0.344,31,0
85896,-0.633,-0.164,0.75,23.55,-3.107,-14.885,30,0
85949,-0.596,-0.04,0.663,22.763,-13.786,-18.374,30,141
85998,-0.654,-0.017,0.646,19.588,9.053,-15.618,29,130
86047,-0.733,0.003,0.753,12.626,3.374,-10.168,30,121
86096,-0.679,0.111,0.805,10.13,0.534,-5.534,30,120
86146,-0.711,0.119,0.765,5.359,15.977,-2.153,30,120
86195,-0.799,0.059,0.776,9.916,-5.603,5.969,30,121
86243,-0.687,0.062,0.729,0.809,5.244,14.641,30,120
86292,-0.751,-0.064,0.785,0.901,-8.252,15.695,30,120
86344,-0.705,-0.018,0.831,6.595,-8.802,20.16,29,121
86393,-0.596,-0.044,0.803,9.153,-11.504,14.496,29,122
86443,-0.749,-0.059,0.828,15.924,7.817,10.649,29,122
86492,-0.636,0.04,0.705,19.855,-12.588,7.611,29,123
86541,-0.649,0.007,0.744,7.863,3.176,3.42,30,123
86590,-0.656,0.052,0.794,6.13,-4.382,-6.435,30,123
86639,-0.633,0.101,0.715,-1.855,5.504,-8.481,30,123
86688,-0.754,0.085,0.758,-1.405,-3.794,-6.328,30,123
86737,-0.587,0.054,0.67,-10.366,4.802,-7.557,30,123
86790,-0.686,-0.022,0.8,-14.267,5.221,-13.382,28,122
86839,-0.721,0.042,0.817,-7.191,4.656,-9.45,28,121
86888,-0.725,0.01,0.822,2.679,-8.122,-5.542,30,122
86980,-0.703,0.068,0.829,16.466,-20.046,7.939,29,123
87034,-0.604,0.031,0.735,10.954,-1.282,5.008,29,0
87088,-0.68,0.011,0.761,21.443,-2.458,4.87,28,0
87142,-0.547,0.003,0.739,13.26,-0.58,-2.031,29,0
87195,-0.646,0,0.791,12.656,7.168,-10.145,28,0
87249,-0.726,0.13,0.8,7.656,1.611,-9.885,28,0
87306,-0.711,0.083,0.831,7.336,-2.618,-6.595,29,0
87356,-0.715,0.133,0.772,10.55,-3.664,-4.473,29,134
87409,-0.659,0.183,0.721,8.931,-4.221,-1.191,29,0
87463,-0.72,0.118,0.781,3.603,-3.16,4.168,29,0
87517,-0.676,0.079,0.791,0.267,-0.992,7.382,28,0
87571,-0.607,0.114,0.72,-1.198,-4.733,-0.328,28,0
87621,-0.734,0.048,0.808,-1.427,0.763,5.321,28,135
87670,-0.595,0.068,0.718,2.786,-1.244,0.595,28,126
87719,-0.737,-0.008,0.809,8.191,3.847,-3.198,29,125
87770,-0.727,0.05,0.82,15.992,-2.519,-1.267,29,135
87826,-0.646,0.12,0.737,16.573,-1.336,-6.084,30,0
87876,-0.712,0.146,0.748,12.603,3.756,-4.985,29,126
87925,-0.643,0.203,0.744,6.137,-3.977,-5.87,30,124
87979,-0.725,0.199,0.724,0.885,5.641,-1.198,30,0
88029,-0.723,0.203,0.734,-0.824,-0.282,6.626,30,124
88079,-0.651,0.133,0.843,2.595,-8.061,3.023,28,134
88132,-0.674,0.125,0.755,-5.084,7.924,6.282,29,0
88181,-0.723,0.082,0.731,2.099,-10.397,4.58,28,125
88231,-0.656,0.058,0.673,-5.29,5.031,1.366,29,124
88284,-0.707,-0.013,0.73,-10.916,-2.947,-5.893,30,126
88333,-0.644,-0.014,0.826,-7.351,-0.802,-13.458,28,125
88383,-0.656,0.003,0.788,6.771,1.374,-16.977,27,123
88432,-0.719,0.088,0.748,7.626,-6.397,-16.115,27,124
88481,-0.727,0.154,0.736,4.481,1.374,-12.168,29,124
88536,-0.765,0.191,0.798,4.924,-8.298,-5.916,29,0
88589,-0.682,0.205,0.787,6.664,-3.595,4.084,28,0
88639,-0.716,0.164,0.787,15.008,-9.45,17.71,28,124
88688,-0.658,0.09,0.707,13.168,2.298,24.756,27,125
88745,-0.62,0.119,0.758,4.023,-2.214,16.718,28,0
88799,-0.749,0.159,0.84,3.824,6.916,16.359,29,0
88850,-0.642,0.12,0.767,2.069,-6.267,12.74,29,141
88900,-0.594,0.07,0.728,-0.481,-2.504,1.107,28,143
88950,-0.722,0.101,0.802,0.214,1.557,-0.84,29,144
89000,-0.663,0.136,0.732,1.336,-0.916,-0.069,30,127
89052,-0.697,0.132,0.765,-0.542,3.702,-0.435,28,155
89106,-0.669,0.174,0.776,1.29,-4.824,-2.023,29,0
89155,-0.689,0.212,0.77,5.282,0.756,-1.611,28,127
89208,-0.675,0.191,0.74,2.916,0.13,1.641,30,127
89257,-0.645,0.127,0.76,2.328,-3.137,-0.466,29,125
89307,-0.661,0.182,0.753,2.092,3.435,-3.855,29,125
89357,-0.696,0.193,0.719,-0.985,-2.611,-2.359,30,126
89406,-0.693,0.221,0.72,-2.031,6.084,1.405,29,126
89456,-0.7,0.194,0.764,-4.443,-4.366,1.893,30,126
89507,-0.739,0.17,0.787,-6.206,9.344,5.832,29,150
89600,-0.652,0.133,0.768,-1.84,7.557,-6.084,29,125
89650,-0.689,0.155,0.685,1.931,-4.519,-3.649,30,127
89703,-0.666,0.15,0.683,0.183,-0.878,-2.893,29,125
89752,-0.709,0.138,0.755,-10.069,5.473,-9.84,29,126
89802,-0.746,0.176,0.815,-12.763,-2.481,-13.046,29,136
89852,-0.695,0.136,0.786,-6.527,-5.26,-8.092,27,124
89902,-0.649,0.053,0.708,-2.733,-0.328,-6.496,28,124
89952,-0.618,0.097,0.678,-7.618,-3.672,-11.115,27,124
90001,-0.771,0.072,0.797,-8.656,5.237,-11.473,28,124
90051,-0.708,0.142,0.797,-2.321,-5.649,-7.588,28,123
90100,-0.679,0.086,0.78,-2.71,-2.008,-3.87,28,122
90152,-0.708,0.055,0.74,0.588,-0.099,-2.863,28,122
90203,-0.68,0.015,0.729,0.206,-2.641,-1.779,27,127
90252,-0.673,0.076,0.762,-1.038,-2.061,-2.878,27,127
90302,-0.709,0.085,0.788,-0.771,-2.634,-0.939,27,128
90352,-0.682,0.059,0.759,0.534,-2.878,-0.061,30,127
90402,-0.72,0.035,0.748,0.687,0.107,3.901,28,128
90451,-0.669,0.056,0.744,1.733,-3.122,3.55,27,128
90502,-0.686,0.055,0.822,6.115,2.794,4.473,27,128
90552,-0.738,0.061,0.787,6.145,-1.176,3.214,36,123
90604,-0.66,0.117,0.772,12.221,-3.84,1.84,28,124
90654,-0.717,0.08,0.736,17.221,-1.603,4.695,30,124
90703,-0.725,0.096,0.775,13,-6.046,8.099,30,123
90754,-0.665,0.132,0.767,10.122,-5.122,5.336,29,124
90808,-0.748,0.155,0.781,9,-3.099,6.282,29,0
90862,-0.571,0.16,0.671,5.87,-7.664,0.656,30,0
90916,-0.717,0.12,0.751,-1.58,3.962,2.282,29,0
90970,-0.678,0.138,0.765,3.267,-10.58,4.916,28,0
91024,-0.637,0.142,0.755,-1.458,0.26,6.084,29,0
91081,-0.688,0.133,0.808,0.756,-4.702,2.809,28,0
91132,-0.656,0.153,0.775,4.656,-3.802,1.267,29,137
91183,-0.698,0.167,0.776,5.176,1.641,3.038,29,136
91233,-0.675,0.134,0.77,-0.481,-6.282,2.122,30,135
91287,-0.569,0.144,0.728,-4.565,-3.351,-6.794,30,0
91338,-0.709,0.145,0.775,-3.015,0.527,-5.595,30,135
91392,-0.702,0.16,0.785,2.237,-7.191,1.969,29,0
91446,-0.643,0.131,0.842,7.137,1.42,4,29,0
91500,-0.702,0.152,0.828,14.183,-2.489,2.672,30,0
91558,-0.671,0.237,0.773,13.397,-4.511,4.855,29,0
91613,-0.597,0.149,0.717,7.756,-1.878,1.939,30,0
91667,-0.649,0.197,0.741,8.031,-0.511,-0.832,30,0
91721,-0.649,0.234,0.766,1.725,1.389,1.26,30,0
91776,-0.673,0.192,0.822,6.557,-1.947,4.252,29,0
91827,-0.635,0.144,0.788,3.412,-1.527,1.153,30,154
91879,-0.601,0.235,0.742,4.916,-5.214,-4.115,30,153
91936,-0.734,0.255,0.773,5.153,7.695,4.061,29,153
91986,-0.64,0.165,0.759,0.916,-5.412,6.168,29,155
92043,-0.613,0.199,0.761,2.557,1.099,-0.656,29,0
92097,-0.73,0.246,0.8,-4.008,7.191,-1.603,29,0
92150,-0.624,0.224,0.719,-12.962,-4.626,-6.382,30,0
92243,-0.638,0.165,0.73,-12.985,0.634,-7.069,30,147
92295,-0.719,0.165,0.784,-12.267,0.122,-4.985,29,146
92348,-0.682,0.162,0.796,-10.29,0.321,-3.061,28,0
92397,-0.731,0.099,0.87,-6.656,-2.649,-1.542,29,125
92446,-0.65,0.131,0.759,1.069,-5.107,-2.626,30,125
92496,-0.644,0.122,0.718,0.321,0.107,-1.29,30,127
92549,-0.701,0.043,0.801,-2.588,0.313,-4.412,29,125
92598,-0.612,0.13,0.771,-5.29,-4.534,-8.618,29,125
92647,-0.712,0.147,0.811,-3.748,4.336,-5.977,30,124
92696,-0.697,0.06,0.824,0.687,-10,-4.084,28,124
92745,-0.646,0.113,0.763,2.969,1.74,-2.45,30,125
92794,-0.675,0.112,0.774,4.855,-2.427,-2.908,30,124
92844,-0.69,0.107,0.801,3.893,-2.779,-1.748,30,124
92893,-0.717,0.136,0.807,5.427,1.282,1.977,30,125
92943,-0.641,0.136,0.739,3.45,-4.13,4.405,30,137
92996,-0.653,0.062,0.783,3.756,-0.275,0.939,30,137
93049,-0.704,0.139,0.8,9.351,1.931,1.87,30,0
93103,-0.655,0.185,0.734,4.359,4.779,4.634,30,0
93157,-0.713,0.148,0.758,3.718,2.504,7.191,38,0
93208,-0.706,0.092,0.865,5.626,3.695,4.664,30,161
93267,-0.654,0.185,0.742,9.893,-5.656,1.55,0,125
93317,-0.744,0.166,0.72,3.29,2.374,6.145,32,126
93371,-0.673,0.14,0.802,5.534,-8.107,6.931,32,0
93434,-0.647,0.219,0.686,8.595,0.366,1.191,0,0
93488,-0.759,0.136,0.788,1.267,-3.985,5.511,31,0
93545,-0.566,0.134,0.757,0.031,-6.412,-1.603,30,0
93596,-0.71,0.235,0.756,6.382,4.771,-1.16,30,152
93646,-0.712,0.224,0.739,4.786,-5.267,2.885,32,141
93697,-0.675,0.135,0.819,0.168,-7,3.863,34,141
93748,-0.583,0.206,0.791,10.908,-0.908,-2.832,30,161
93800,-0.715,0.252,0.761,15.504,5.786,1.84,31,161
93851,-0.735,0.227,0.742,10.893,-7.595,13.489,31,163
93902,-0.637,0.248,0.775,7.847,-5.985,8.733,31,152
93954,-0.669,0.294,0.807,7.328,-6.427,7.221,30,150
94007,-0.637,0.225,0.774,7.847,-8.748,6.718,30,151
94061,-0.542,0.198,0.687,5.16,-7.885,-0.107,30,0
94115,-0.674,0.21,0.715,-0.237,3.901,-2.901,33,0
94169,-0.634,0.291,0.75,-5.84,-5.13,-2.641,32,0
94223,-0.653,0.254,0.817,-6.824,3.939,-4.847,31,0
94277,-0.628,0.259,0.769,-1.771,-0.71,-4.084,29,0
94330,-0.691,0.28,0.788,-0.29,-2.397,-0.542,31,0
94385,-0.663,0.19,0.787,-2.588,0.885,2.618,29,0
94439,-0.597,0.26,0.746,-1.336,-2.473,-1.458,31,0
94495,-0.705,0.276,0.791,-4.672,5.489,1.412,31,0
94550,-0.624,0.206,0.783,-2.947,-8.756,1.076,30,0
94601,-0.604,0.214,0.751,-2.534,2.58,-2.321,30,149
94654,-0.712,0.251,0.789,-3.634,-2.344,-2.267,31,0
94706,-0.62,0.259,0.729,-9.336,0.366,-1.435,31,161
94760,-0.657,0.165,0.816,-6.534,1.534,-2.855,31,0
94814,-0.624,0.197,0.766,-1.756,-0.893,-6.267,30,0
94911,-0.675,0.225,0.758,-5.427,1.076,-5.901,30,0
94965,-0.698,0.191,0.772,-5.42,-0.122,-5.771,30,0
95019,-0.656,0.19,0.749,-2.817,1.55,-4.244,30,0
95074,-0.669,0.119,0.762,-5.206,-0.863,-3.595,29,0
95126,-0.693,0.122,0.784,-5.641,5.962,-8.916,28,161
95179,-0.701,0.18,0.778,-5.863,-3.748,-10.26,28,0
95230,-0.689,0.144,0.777,-3.176,2.137,-3.733,28,153
95285,-0.651,0.105,0.73,1.092,-2.679,-2.763,29,0
95339,-0.696,0.114,0.753,-1.664,2.916,-5.756,28,0
95392,-0.711,0.144,0.773,-5.565,0.382,-6.481,28,0
95443,-0.688,0.169,0.793,-2.756,-0.71,-2.328,28,152
95494,-0.654,0.121,0.736,-1.244,-0.481,-2.267,28,125
95547,-0.741,0.079,0.761,-1.824,-0.878,0.237,28,131
95596,-0.632,0.098,0.734,-3.802,-2.092,-2.031,28,130
95646,-0.751,0.094,0.821,-3.458,5.031,-1.023,29,131
95696,-0.686,0.119,0.802,0.847,-8.573,0.389,29,131
95747,-0.631,0.125,0.715,-0.107,1.992,-0.794,29,132
95796,-0.733,0.077,0.742,-0.733,-0.305,1.122,30,131
95846,-0.661,0.103,0.75,0.244,-0.893,1.298,30,125
95896,-0.708,0.076,0.825,0.763,-5.015,-0.618,31,131
95946,-0.701,0.13,0.75,3.137,3.84,2.366,29,130
95998,-0.732,0.121,0.797,5.733,-6.939,4.336,29,131
96051,-0.631,0.079,0.737,3.069,-0.687,1.74,31,158
96102,-0.723,0.13,0.782,5.962,-2.931,2.031,30,157
96152,-0.655,0.104,0.758,5.756,-6.58,-0.206,31,125
96205,-0.633,0.089,0.76,3.038,-3.221,-7.214,30,0
96260,-0.768,0.209,0.736,3.527,2.229,-0.733,30,0
96314,-0.697,0.144,0.764,1.832,-6.824,5.718,30,0
96368,-0.611,0.105,0.746,5.427,0.145,0.901,29,0
96422,-0.737,0.19,0.766,5.191,3.45,2.565,30,0
96488,-0.66,0.174,0.774,0.534,-8.198,6.145,29,0
96545,-0.681,0.144,0.764,-0.641,-4.542,3.382,30,0
96602,-0.732,0.121,0.832,2.786,-3.473,6.359,31,0
96659,-0.594,0.16,0.749,3.466,-1.718,1.573,32,0
96715,-0.714,0.177,0.789,4.664,-4.695,1.191,30,0
96772,-0.678,0.202,0.772,-2.458,-7.794,7.038,29,0
96829,-0.577,0.125,0.737,-1.076,2.534,-0.595,29,0
96885,-0.682,0.146,0.815,-0.695,-6.863,-4.786,29,0
96943,-0.667,0.185,0.754,2.87,3.786,-0.603,30,0
97002,-0.64,0.157,0.772,3.115,-3.084,0.069,29,0
97059,-0.677,0.167,0.799,2.084,4.664,-0.924,30,0
97116,-0.684,0.177,0.786,3.954,-4.443,0.939,30,0
97170,-0.656,0.172,0.768,5.099,-1.481,2.947,29,155
97224,-0.656,0.196,0.762,4.725,1.244,1.725,29,157
97280,-0.681,0.132,0.784,3.198,-6.084,0.473,30,162
97333,-0.672,0.197,0.767,0.786,0.916,0.275,30,142
97389,-0.663,0.214,0.77,-1.221,-6.603,1.954,30,0
97444,-0.652,0.172,0.784,3.939,-2.824,2.321,29,161
97501,-0.655,0.189,0.752,3.626,-2.435,1.763,30,0
97561,-0.688,0.174,0.794,5.221,-5.137,5.824,30,0