Timestamp(ms),AccelX(g),AccelY(g),AccelZ(g),GyroX(deg/s),GyroY(deg/s),GyroZ(deg/s),DistanceLeft(cm),DistanceRight(cm)
45783,-0.046,-0.991,0.179,3.313,-5.176,5.427,97.0,72.0
45830,-0.040,-1.013,0.200,2.366,1.275,5.137,107.0,69.0
45877,-0.054,-0.985,0.229,2.870,3.450,4.580,109.0,69.0
45925,-0.058,-0.925,0.219,3.282,1.244,3.397,121.0,68.0
45973,-0.056,-0.958,0.230,0.008,4.115,3.076,120.0,69.0
46019,-0.080,-1.040,0.236,-5.305,-0.145,-1.260,100.0,52.0
46065,-0.052,-0.974,0.218,-2.305,5.351,-0.954,106.0,50.0
46114,-0.083,-0.934,0.265,-5.145,4.366,5.328,106.0,50.0
46160,-0.075,-0.967,0.223,-3.015,5.000,2.221,100.0,51.0
46206,-0.073,-0.948,0.193,-2.863,7.794,-0.244,109.0,54.0
46254,-0.105,-0.935,0.206,-4.550,11.725,-1.924,98.0,71.0
46302,-0.119,-0.967,0.198,-5.611,7.496,-3.931,119.0,71.0
46350,-0.121,-0.943,0.178,-5.565,4.992,-4.985,121.0,72.0
46400,-0.123,-0.957,0.202,-11.191,4.847,-4.473,120.0,102.0
46447,-0.126,-0.979,0.207,-13.176,6.718,-5.466,90.0,69.0
46495,-0.136,-1.004,0.216,-10.939,9.053,-6.573,90.0,100.0
46544,-0.135,-1.024,0.245,-10.695,4.931,-3.985,88.0,79.0
46595,-0.094,-1.092,0.192,-11.595,2.565,-0.198,84.0,129.0
46640,-0.079,-1.185,0.187,-11.733,-0.450,2.092,83.0,57.0
46685,-0.072,-1.350,0.169,-12.420,0.313,2.344,84.0,52.0
46730,-0.104,-1.398,0.124,-12.084,-10.687,-1.389,79.0,56.0
46777,-0.038,-1.074,0.116,-8.122,-17.573,1.962,81.0,92.0
46822,0.063,-0.958,0.002,2.420,-12.840,15.000,79.0,58.0
46867,0.068,-0.948,-0.063,12.863,13.901,22.435,78.0,58.0
46914,0.004,-0.967,-0.045,9.366,24.244,29.481,105.0,61.0
46964,-0.034,-0.958,0.014,-0.344,6.153,28.351,106.0,63.0
47011,-0.051,-0.983,-0.027,-1.076,-8.817,6.786,105.0,64.0
47058,-0.044,-0.914,-0.021,-4.962,-21.763,-3.145,104.0,66.0
47106,-0.021,-0.843,-0.000,-8.519,-14.031,-6.557,102.0,69.0
47153,0.008,-0.821,-0.025,-5.969,0.420,-1.626,99.0,70.0
47202,-0.075,-0.844,0.069,-7.672,8.153,4.901,102.0,114.0
47253,-0.092,-0.948,0.072,-6.328,-6.344,3.038,98.0,137.0
47300,-0.078,-1.056,0.048,-3.817,-22.527,-3.466,96.0,74.0
47347,0.022,-1.060,-0.018,0.939,-8.473,-3.061,95.0,75.0
47397,-0.020,-1.059,0.062,-1.588,12.985,-5.198,92.0,76.0
47444,-0.115,-1.160,0.189,-0.336,7.130,-6.710,92.0,77.0
47492,-0.108,-1.299,0.109,9.298,-5.603,-12.931,91.0,79.0
47539,-0.103,-1.311,0.148,14.916,0.641,-14.695,90.0,83.0
47593,-0.114,-1.454,0.129,12.267,-8.282,-5.466,88.0,0.0
47640,-0.079,-1.300,0.127,19.878,-17.954,-5.908,86.0,87.0
47697,0.075,-0.610,0.129,27.473,-3.130,10.855,84.0,131.0
47752,0.156,-0.767,0.021,19.847,17.153,41.748,83.0,0.0
47800,0.126,-0.867,0.040,22.382,41.397,52.443,84.0,118.0
47861,-0.047,-0.865,0.187,7.153,28.237,42.015,167.0,0.0
47913,0.074,-0.897,0.065,4.756,-10.672,17.908,141.0,123.0
47968,0.069,-0.690,0.156,5.221,17.359,-4.519,90.0,0.0
48011,-0.055,-0.774,0.180,-1.076,24.145,-7.344,140.0,0.0
48063,-0.119,-0.906,0.203,-0.206,7.908,-9.885,138.0,140.0
48116,-0.105,-0.960,0.150,-4.573,-7.183,-15.336,136.0,129.0
48173,-0.108,-0.968,0.170,-12.924,1.687,-14.718,136.0,0.0
48267,-0.172,-1.107,0.274,-16.359,33.664,-16.481,135.0,107.0
48324,-0.197,-1.241,0.265,-8.031,28.832,-16.603,132.0,178.0
48376,-0.219,-1.381,0.255,-11.351,0.725,-18.244,132.0,116.0
48421,-0.161,-1.341,0.167,-6.878,-25.344,-6.718,106.0,27.0
48467,-0.007,-0.993,0.059,0.634,-31.328,-0.954,124.0,27.0
48512,-0.001,-0.848,0.087,1.664,-14.489,7.267,88.0,30.0
48557,0.006,-0.987,-0.041,9.534,-13.420,29.565,113.0,33.0
48602,0.003,-0.931,-0.032,14.779,-5.756,36.885,111.0,30.0
48648,-0.067,-0.827,0.076,1.664,-13.145,30.649,116.0,35.0
48703,-0.078,-0.871,0.026,-1.626,-34.794,19.130,115.0,0.0
48752,-0.018,-0.708,0.040,2.412,-35.969,12.176,111.0,41.0
48804,-0.031,-0.799,0.026,-6.389,-33.679,16.221,109.0,158.0
48863,-0.058,-0.979,-0.010,-0.847,-28.626,13.473,161.0,0.0
48921,-0.140,-1.018,0.105,-13.611,-42.351,8.473,158.0,0.0
48975,-0.089,-1.070,0.019,-6.687,-42.214,4.702,104.0,0.0
49031,-0.115,-1.059,0.125,-10.702,-29.924,-5.412,101.0,0.0
49087,-0.118,-1.180,0.155,-10.206,-18.832,-12.565,133.0,0.0
49144,-0.149,-1.370,0.183,-1.763,-22.931,-8.855,145.0,0.0
49201,-0.076,-1.556,0.078,6.305,-18.992,-10.855,125.0,0.0
49258,-0.086,-1.130,0.101,20.908,-14.046,-6.573,89.0,0.0
49314,-0.073,-0.621,0.265,16.664,-34.802,20.435,132.0,0.0
49371,0.075,-0.967,0.069,10.046,-46.443,37.473,125.0,0.0
49413,0.149,-0.872,0.072,18.710,-26.832,46.740,121.0,0.0
49459,0.021,-0.782,0.224,5.779,-32.573,37.176,126.0,38.0
49506,0.105,-0.770,0.048,7.634,-30.733,18.252,125.0,37.0
49553,0.047,-0.672,0.121,6.076,-13.473,17.649,141.0,39.0
49600,-0.055,-0.815,0.138,-3.389,-10.710,9.962,126.0,40.0
49650,-0.077,-0.935,0.122,-5.473,-22.099,6.878,120.0,39.0
49696,-0.066,-0.924,0.134,-8.321,-18.046,5.015,120.0,41.0
49743,-0.114,-0.979,0.189,-18.580,-15.160,1.626,121.0,43.0
49789,-0.161,-0.991,0.225,-19.214,-22.588,-0.389,117.0,43.0
49837,-0.157,-0.990,0.285,-21.183,-33.221,1.702,117.0,44.0
49884,-0.114,-1.073,0.219,-18.023,-24.710,-0.244,116.0,44.0
49930,-0.153,-1.177,0.269,-14.099,-18.954,2.817,114.0,45.0
49977,-0.162,-1.218,0.220,-8.611,-22.580,6.420,111.0,46.0
50023,-0.175,-1.363,0.153,-10.634,-28.038,5.290,109.0,47.0
50072,-0.159,-1.269,0.099,-18.947,-46.076,4.969,96.0,48.0
50118,-0.042,-0.910,0.030,-4.427,-57.557,11.557,105.0,51.0
50164,0.045,-0.954,-0.066,4.008,-38.954,20.160,96.0,45.0
50209,0.017,-0.951,-0.051,0.252,-20.092,29.023,94.0,52.0
50256,-0.030,-0.927,-0.042,-0.137,-16.992,30.534,110.0,48.0
50304,-0.067,-0.896,0.004,-3.069,-29.870,22.519,109.0,56.0
50350,-0.062,-0.848,-0.017,-6.969,-42.351,8.725,110.0,51.0
50397,-0.044,-0.800,-0.009,-9.603,-43.969,8.634,101.0,56.0
50444,-0.032,-0.827,0.017,-11.130,-38.634,8.878,105.0,60.0
50493,-0.065,-0.931,0.014,-10.229,-30.237,2.557,96.0,63.0
50540,-0.128,-0.964,0.057,-11.740,-37.481,1.542,96.0,59.0
50586,-0.084,-1.048,-0.003,-7.649,-39.595,0.130,93.0,58.0
50632,-0.087,-1.023,0.015,-6.389,-35.664,-1.634,91.0,66.0
50677,-0.096,-0.982,0.031,-9.969,-28.893,2.053,97.0,35.0
50766,-0.094,-1.045,0.045,-1.550,-20.718,-4.954,86.0,49.0
50811,-0.151,-1.020,0.090,0.282,-11.916,-6.733,84.0,49.0
50857,-0.133,-1.109,0.034,3.527,-11.901,-9.450,82.0,69.0
50906,-0.134,-1.086,0.049,4.473,-8.496,-7.649,80.0,52.0
50952,-0.110,-1.094,0.060,2.794,2.634,-2.023,78.0,61.0
50997,-0.135,-1.222,0.078,1.427,1.550,0.260,75.0,64.0
51043,-0.146,-1.321,0.110,3.641,12.359,-1.679,73.0,71.0
51088,-0.185,-1.481,0.086,4.473,-4.840,-0.328,71.0,61.0
51136,-0.116,-1.163,0.098,12.832,-27.710,1.550,90.0,91.0
51182,0.067,-0.616,0.094,13.870,-20.374,19.061,87.0,65.0
51228,0.039,-0.786,0.142,-0.130,-17.443,36.794,84.0,67.0
51275,0.089,-1.008,0.088,9.718,-27.214,43.710,81.0,69.0
51324,0.072,-0.975,0.120,8.702,-23.122,36.855,79.0,76.0
51372,0.012,-0.928,0.129,-0.809,-35.534,25.351,85.0,76.0
51420,0.104,-0.890,-0.018,10.092,-6.672,23.160,101.0,82.0
51468,-0.033,-0.807,0.085,-0.618,21.870,18.641,99.0,88.0
51516,-0.098,-0.823,0.111,-2.954,21.344,14.107,99.0,86.0
51565,-0.146,-0.860,0.140,-3.954,3.038,8.321,96.0,88.0
51612,-0.140,-0.897,0.101,-5.763,-7.145,6.450,94.0,88.0
51661,-0.157,-0.914,0.129,-11.641,-7.359,3.649,92.0,98.0
51709,-0.212,-1.012,0.130,-18.458,-11.244,-5.473,91.0,93.0
51762,-0.211,-0.981,0.161,-14.450,-19.855,-13.137,85.0,108.0
51811,-0.063,-1.152,0.008,-14.947,12.389,-8.458,82.0,109.0
51859,-0.218,-1.155,0.166,-18.160,25.061,-2.656,81.0,109.0
51907,-0.252,-1.281,0.159,-15.191,10.252,-5.183,78.0,104.0
51955,-0.162,-1.510,-0.004,-16.000,-4.924,-0.832,76.0,103.0
52003,-0.112,-1.120,0.030,-11.679,5.916,1.092,74.0,107.0
52054,-0.087,-0.756,0.091,-17.794,9.084,8.550,72.0,135.0
52103,-0.092,-0.989,0.007,-5.809,-13.168,14.015,71.0,137.0
52152,-0.081,-0.958,0.015,4.954,-20.786,6.115,71.0,113.0
52203,0.047,-0.973,-0.130,-1.664,-20.542,9.985,71.0,118.0
52252,-0.032,-0.855,-0.033,3.824,4.756,1.061,77.0,119.0
52303,-0.090,-0.807,-0.023,2.740,1.145,5.534,88.0,146.0
52355,-0.095,-0.850,-0.021,2.435,-0.962,5.977,86.0,145.0
52405,0.000,-0.871,-0.162,3.878,14.962,6.176,84.0,125.0
52455,-0.135,-0.868,-0.019,-2.366,31.802,9.824,83.0,127.0
52506,-0.176,-1.041,-0.049,0.771,7.786,14.366,81.0,152.0
52557,-0.148,-1.017,-0.018,0.244,-7.718,4.611,79.0,155.0
52613,-0.138,-1.102,-0.036,-0.115,-2.321,-10.130,78.0,156.0
52664,-0.168,-1.092,0.007,4.779,2.397,-9.099,77.0,158.0
52715,-0.159,-1.175,-0.003,8.229,4.626,-4.489,75.0,159.0
52766,-0.175,-1.237,0.049,12.550,12.847,-4.389,74.0,158.0
52818,-0.155,-1.299,0.012,12.733,14.870,-4.290,72.0,159.0
52870,-0.212,-1.263,0.065,17.863,10.924,-3.229,70.0,159.0
52921,-0.103,-0.955,-0.017,23.939,12.527,8.733,69.0,163.0
52972,-0.086,-0.707,0.087,6.672,11.870,18.313,68.0,163.0
53024,-0.157,-0.839,0.162,-0.687,-3.092,21.298,69.0,168.0
53080,-0.077,-0.981,0.068,4.137,-26.107,29.183,89.0,148.0
53131,-0.117,-0.872,0.175,-8.046,-35.305,35.221,87.0,152.0
53183,0.023,-0.957,0.021,2.099,-21.282,21.191,86.0,147.0
53277,-0.124,-0.798,0.109,7.527,31.473,4.939,84.0,158.0
53330,-0.181,-0.847,0.124,7.977,16.931,-2.534,83.0,179.0
53384,-0.234,-0.990,0.096,2.229,-7.626,-7.611,81.0,180.0
53431,-0.224,-0.992,0.091,-6.878,-18.130,-16.000,80.0,68.0
53483,-0.197,-0.976,0.133,-10.069,-3.733,-18.374,79.0,165.0
53536,-0.276,-1.034,0.193,-6.786,0.008,-19.908,78.0,180.0
53592,-0.189,-1.135,0.108,1.695,-4.206,-6.672,76.0,181.0
53644,-0.211,-1.164,0.136,-4.779,6.290,3.427,73.0,160.0
53697,-0.197,-1.357,0.068,-3.588,16.122,3.863,71.0,188.0
53748,-0.340,-1.355,0.196,-12.542,-15.664,4.183,71.0,165.0
53801,-0.218,-0.873,0.192,-9.198,-47.481,5.038,68.0,193.0
53855,-0.001,-0.863,0.029,8.366,-24.679,23.855,66.0,193.0
53908,-0.042,-0.915,-0.019,11.603,0.015,44.550,88.0,172.0
53961,-0.095,-0.844,0.031,7.496,-3.786,38.405,86.0,173.0
54014,-0.044,-0.848,-0.016,-0.160,-20.153,20.443,84.0,177.0
54073,0.002,-0.803,-0.046,-1.427,-9.733,5.427,83.0,0.0
54127,-0.056,-0.839,-0.021,-5.221,7.053,1.779,82.0,0.0
54187,-0.122,-0.975,0.001,-7.908,-1.214,-3.603,81.0,186.0
54239,-0.166,-1.029,0.021,-11.321,-0.885,-11.656,78.0,0.0
54292,-0.194,-0.997,0.053,-13.099,-4.649,-12.366,77.0,190.0
54345,-0.208,-0.989,0.092,-8.763,-2.847,-14.580,76.0,0.0
54398,-0.213,-1.066,0.097,-0.160,4.893,-16.206,76.0,0.0
54451,-0.225,-1.160,0.109,5.771,8.649,-13.542,74.0,0.0
54507,-0.238,-1.271,0.080,12.298,17.260,-15.824,73.0,0.0
54559,-0.196,-1.270,0.036,17.183,25.656,-5.977,71.0,0.0
54611,-0.212,-1.369,0.113,10.809,25.450,2.611,70.0,192.0
54664,-0.266,-1.170,0.172,19.511,7.229,8.359,68.0,194.0
54717,0.006,-0.528,0.136,28.443,4.435,27.656,68.0,0.0
54770,-0.035,-0.816,0.130,2.092,12.511,39.679,90.0,199.0
54824,-0.041,-1.042,0.041,11.489,20.565,32.626,89.0,0.0
54878,-0.189,-0.808,0.233,-0.626,-0.626,23.710,88.0,0.0
54932,-0.101,-0.859,0.111,-4.221,-22.527,7.061,87.0,0.0
54988,-0.080,-0.749,0.092,3.305,-6.153,-0.763,85.0,0.0
55042,-0.168,-0.779,0.134,-0.618,6.550,7.870,84.0,0.0
55095,-0.209,-0.920,0.118,-4.573,-7.221,4.252,83.0,0.0
55149,-0.197,-0.977,0.114,-8.794,-10.267,-2.023,82.0,0.0
55202,-0.188,-0.988,0.134,-13.405,-3.321,-15.107,81.0,0.0
55256,-0.238,-0.961,0.222,-8.328,11.275,-18.351,79.0,0.0
55309,-0.254,-0.973,0.192,-2.061,4.779,-21.534,77.0,0.0
55362,-0.221,-1.120,0.133,-0.389,8.305,-12.076,76.0,0.0
55415,-0.240,-1.136,0.133,-1.809,16.855,-4.618,74.0,0.0
55471,-0.250,-1.383,0.134,-17.168,10.260,-5.580,71.0,0.0
55524,-0.306,-1.456,0.147,-14.191,-6.282,1.496,70.0,0.0
55576,-0.155,-0.921,0.109,-3.198,-21.840,2.359,68.0,0.0
55629,-0.091,-0.848,0.060,-3.038,-9.405,21.931,68.0,0.0
55684,-0.106,-0.893,0.047,1.855,-14.069,37.550,89.0,0.0
55737,-0.049,-0.826,0.002,3.618,-23.649,34.840,86.0,0.0
55791,-0.012,-0.916,-0.034,-5.542,-26.359,23.244,85.0,0.0
55844,0.005,-0.854,-0.061,2.893,-1.290,13.092,85.0,0.0
55899,-0.099,-0.803,0.045,-9.290,-0.534,11.252,82.0,0.0
55998,-0.101,-0.959,0.011,-5.412,-19.137,-4.687,80.0,0.0
56042,-0.134,-0.991,0.046,-7.053,-7.916,-18.099,80.0,29.0
56085,-0.141,-1.017,0.044,-3.198,-1.649,-25.969,79.0,28.0
56129,-0.196,-1.016,0.085,0.763,1.679,-27.832,78.0,29.0
56172,-0.183,-1.066,0.071,3.412,1.878,-28.771,77.0,30.0
56216,-0.193,-1.067,0.098,5.267,10.031,-28.985,77.0,31.0
56259,-0.188,-1.158,0.061,8.145,15.878,-22.542,76.0,34.0
56312,-0.172,-1.213,0.079,8.847,18.687,-13.260,74.0,0.0
56366,-0.206,-1.343,0.106,7.191,21.031,-7.969,73.0,0.0
56422,-0.163,-1.335,0.104,9.252,17.931,-2.443,72.0,0.0
56475,-0.117,-1.087,0.100,17.252,4.962,8.450,70.0,0.0
56527,-0.020,-0.538,0.198,17.969,3.878,23.130,68.0,0.0
56581,-0.029,-0.910,0.115,3.794,2.527,28.290,68.0,0.0
56633,0.042,-1.000,0.051,15.244,15.603,33.389,67.0,0.0
56691,-0.091,-0.850,0.230,-0.641,5.664,26.275,159.0,0.0
56750,-0.042,-0.874,0.098,2.252,-22.870,12.221,158.0,0.0
56807,-0.023,-0.759,0.082,2.634,0.458,8.924,156.0,0.0
56865,-0.068,-0.842,0.066,-1.099,29.206,11.374,155.0,0.0
56926,-0.160,-0.864,0.134,-4.252,20.298,9.412,154.0,0.0
56984,-0.209,-0.978,0.158,-13.756,-2.145,4.397,152.0,0.0
57041,-0.143,-1.073,0.098,-11.275,-2.672,-10.603,151.0,0.0
57100,-0.178,-1.044,0.170,-13.412,19.962,-30.756,150.0,0.0
57157,-0.200,-1.207,0.177,-3.748,57.107,-33.511,149.0,0.0
57210,-0.346,-1.270,0.220,-5.595,32.137,-23.458,64.0,0.0
57263,-0.297,-1.423,0.161,-7.847,-8.252,-12.107,64.0,0.0
57316,-0.178,-1.041,0.122,-6.947,-44.527,-5.290,59.0,0.0
57368,0.004,-0.821,0.036,-2.115,-38.435,5.183,59.0,0.0
57423,0.037,-0.971,-0.087,2.664,2.061,28.130,58.0,0.0
57476,-0.019,-0.866,-0.012,-3.359,1.931,34.565,57.0,0.0
57533,-0.012,-0.903,-0.006,-6.740,-8.893,23.985,132.0,0.0
57589,0.029,-0.765,-0.031,-3.916,-15.153,17.053,131.0,0.0
57646,0.073,-0.856,-0.064,-11.855,-6.908,13.748,129.0,0.0
57703,-0.038,-0.893,0.052,-4.237,0.176,7.641,128.0,0.0
57759,-0.066,-0.983,-0.011,-6.046,-19.023,-7.855,127.0,0.0
57816,-0.087,-1.057,-0.010,-5.076,-16.229,-11.779,127.0,0.0
57872,-0.107,-1.035,-0.034,0.519,-3.725,-15.458,126.0,0.0
57931,-0.138,-1.055,0.018,1.466,9.557,-15.527,126.0,0.0
57988,-0.185,-1.029,0.049,4.656,7.191,-16.321,125.0,0.0
58044,-0.174,-1.041,0.049,6.977,-2.672,-6.519,125.0,0.0
58100,-0.178,-1.188,0.061,5.901,0.389,-0.611,124.0,0.0
58157,-0.139,-1.172,0.057,14.137,8.420,-2.939,121.0,0.0
58213,-0.084,-1.280,0.021,9.321,-1.893,16.802,119.0,0.0
58269,-0.098,-1.455,0.096,6.611,-9.328,21.527,116.0,0.0
58324,0.009,-0.832,0.098,13.916,-18.618,14.725,114.0,0.0
58381,0.107,-0.684,0.087,11.702,11.992,23.496,113.0,0.0
58439,-0.063,-0.950,0.116,-2.267,2.969,25.198,111.0,0.0
58494,0.043,-0.839,0.075,4.740,-2.702,18.641,110.0,0.0
58551,-0.014,-0.781,0.111,-3.107,6.969,12.298,110.0,0.0
58606,-0.073,-0.838,0.129,7.557,14.328,2.809,108.0,0.0
58661,-0.117,-0.876,0.122,6.756,10.519,4.664,107.0,0.0
58760,-0.156,-0.989,0.084,-2.817,6.313,14.687,106.0,0.0
58815,-0.166,-0.978,0.091,-4.756,10.443,3.115,105.0,0.0
58870,-0.223,-0.962,0.108,-6.809,9.313,-6.802,103.0,0.0
58926,-0.226,-0.982,0.130,-7.511,18.573,-18.015,102.0,0.0
58984,-0.271,-1.043,0.149,-7.489,19.420,-18.275,100.0,0.0
59039,-0.251,-1.139,0.093,-2.656,9.313,-8.580,98.0,0.0
59094,-0.226,-1.149,0.150,-5.168,1.885,-1.237,96.0,0.0
59149,-0.135,-1.478,0.017,-11.282,-5.496,-3.893,93.0,0.0
59203,-0.083,-1.157,0.075,-6.504,-20.962,0.542,91.0,0.0
59257,0.004,-0.885,0.042,-10.885,-23.832,-4.519,88.0,0.0
59313,-0.003,-0.966,-0.029,-7.695,-10.924,1.595,86.0,0.0
59367,0.024,-0.884,-0.039,-3.023,-17.878,11.046,84.0,0.0
59420,0.036,-0.884,-0.032,-10.885,-13.229,11.771,82.0,0.0
59478,0.031,-0.787,-0.064,-2.076,-0.145,11.305,81.0,0.0
59532,-0.023,-0.823,0.014,-10.053,-4.611,16.031,80.0,0.0
59586,-0.001,-0.943,-0.054,-4.893,-9.588,7.206,80.0,0.0
59640,-0.036,-1.019,-0.030,-4.076,-9.046,7.542,80.0,0.0
59695,-0.024,-1.075,-0.053,-0.916,-7.122,5.298,79.0,0.0
59748,-0.068,-1.046,-0.040,-0.588,-4.573,-1.305,78.0,0.0
59802,-0.074,-1.029,-0.015,-0.893,-6.099,-2.924,78.0,0.0
59856,-0.096,-0.985,0.005,5.260,-3.748,-3.092,78.0,0.0
59910,-0.084,-1.058,-0.024,10.122,1.481,11.107,78.0,0.0
59967,-0.124,-1.040,0.016,11.321,3.947,15.893,78.0,0.0
60021,-0.152,-0.939,0.066,5.313,-7.466,6.069,78.0,0.0
60076,-0.086,-1.010,0.003,12.298,-9.885,3.466,79.0,0.0
60130,-0.131,-0.999,0.038,8.679,6.237,4.939,79.0,0.0
60183,-0.140,-0.991,0.063,5.053,-2.275,11.420,79.0,0.0
60237,-0.120,-0.945,0.092,6.053,-10.351,15.992,79.0,0.0
60292,-0.083,-1.021,0.054,4.878,3.870,13.527,78.0,0.0
60346,-0.116,-1.027,0.089,5.924,6.489,13.382,78.0,0.0
60399,-0.160,-0.954,0.123,5.504,0.198,2.328,78.0,0.0
60456,-0.112,-0.986,0.069,6.870,-6.985,1.855,78.0,0.0
60511,-0.154,-0.989,0.087,5.389,4.053,3.374,78.0,0.0
60565,-0.124,-0.993,0.066,4.931,8.496,7.618,77.0,0.0
60618,-0.213,-0.978,0.137,1.336,-2.160,5.840,78.0,0.0
60673,-0.100,-0.981,0.055,2.710,-5.267,4.527,78.0,0.0
60727,-0.165,-0.992,0.117,0.573,2.779,8.573,79.0,0.0
60788,-0.125,-0.993,0.095,2.893,1.244,6.733,0.0,0.0
60849,-0.153,-0.970,0.115,-0.015,-4.275,8.023,0.0,0.0
60910,-0.132,-0.965,0.106,0.588,-1.771,6.511,0.0,0.0
60975,-0.128,-1.010,0.063,0.817,-0.740,3.656,0.0,0.0
61035,-0.166,-0.989,0.117,-1.611,-1.962,4.046,0.0,0.0
61096,-0.130,-0.988,0.098,1.122,5.611,4.496,0.0,0.0
61157,-0.153,-1.013,0.108,0.298,3.985,3.053,0.0,0.0
61224,-0.201,-1.010,0.139,1.290,-0.985,2.008,0.0,0.0
61284,-0.109,-0.971,0.083,4.687,3.336,1.656,0.0,0.0
61337,-0.203,-0.985,0.126,1.160,2.504,3.969,78.0,0.0
61390,-0.173,-0.976,0.103,1.931,-8.084,2.229,78.0,0.0
61444,-0.126,-0.998,0.048,-0.382,-4.817,2.382,79.0,0.0
61496,-0.144,-0.964,0.109,0.260,16.954,5.290,78.0,0.0
61595,-0.175,-0.979,0.123,-1.656,-13.740,2.916,78.0,0.0
61656,-0.103,-1.003,0.048,-0.863,-3.107,5.527,0.0,0.0
61709,-0.181,-0.973,0.133,-2.824,2.885,7.710,78.0,0.0
61762,-0.150,-1.008,0.102,-0.878,-7.145,2.107,78.0,0.0
61821,-0.139,-0.988,0.102,0.137,-1.748,1.031,0.0,0.0
61875,-0.167,-0.991,0.100,0.664,3.756,1.534,78.0,0.0
61928,-0.107,-0.999,0.050,2.244,11.122,4.069,78.0,0.0
61981,-0.219,-0.964,0.161,-0.382,11.595,6.481,77.0,0.0
62034,-0.182,-1.017,0.092,1.122,-9.809,0.763,78.0,0.0
62090,-0.120,-0.968,0.061,-0.237,-3.908,4.435,77.0,0.0
62143,-0.179,-0.977,0.135,-2.748,5.076,7.763,78.0,0.0
62196,-0.156,-1.015,0.088,1.916,1.427,4.504,78.0,0.0
62249,-0.165,-0.985,0.107,0.244,-2.176,4.427,78.0,0.0
62303,-0.142,-0.965,0.080,0.916,3.305,4.198,78.0,0.0
62356,-0.173,-0.990,0.095,-2.420,-1.115,7.893,77.0,0.0
62409,-0.155,-0.986,0.100,-2.374,-5.069,4.076,78.0,0.0
62462,-0.120,-0.986,0.062,-1.939,4.473,2.298,78.0,0.0
62516,-0.176,-0.983,0.108,-2.847,4.718,4.191,77.0,0.0
62572,-0.164,-0.994,0.093,-2.527,-5.969,2.824,77.0,0.0
62625,-0.118,-1.010,0.049,-2.420,-0.336,1.511,77.0,0.0
62679,-0.165,-0.963,0.100,-3.130,9.107,4.298,78.0,0.0
62732,-0.167,-1.008,0.093,-2.031,-2.031,1.779,78.0,0.0
62785,-0.142,-0.984,0.079,-2.878,-2.107,1.137,78.0,0.0
62838,-0.151,-0.983,0.074,-3.015,-0.939,-1.221,78.0,0.0
62892,-0.186,-1.015,0.096,-3.603,-13.344,-2.939,79.0,0.0
62945,-0.100,-0.985,0.041,-1.580,-1.290,-2.824,80.0,0.0
62998,-0.180,-1.002,0.090,-3.878,2.710,1.557,79.0,0.0
63054,-0.152,-0.991,0.084,-0.634,-3.565,2.008,80.0,0.0
63109,-0.122,-1.030,0.053,-1.809,-1.244,2.359,80.0,0.0
63162,-0.154,-1.002,0.093,-0.374,2.649,4.427,80.0,0.0
63215,-0.153,-0.987,0.110,0.634,-5.420,1.718,81.0,0.0
63268,-0.166,-1.030,0.095,3.855,-12.443,0.038,81.0,0.0
63323,-0.100,-0.980,0.029,5.962,2.588,2.344,81.0,0.0
63376,-0.147,-1.009,0.043,1.061,6.031,6.397,82.0,0.0
63436,-0.159,-0.989,0.080,-0.702,0.779,6.794,0.0,0.0
63497,-0.112,-1.003,0.065,-0.878,-3.313,3.374,0.0,0.0
63557,-0.160,-1.001,0.099,1.168,-0.588,4.565,0.0,0.0
63613,-0.131,-0.997,0.080,2.794,-3.763,6.168,81.0,0.0
63674,-0.111,-1.005,0.029,2.557,-2.176,6.656,0.0,0.0
63734,-0.146,-0.974,0.084,0.748,5.863,6.313,0.0,0.0
63795,-0.140,-1.009,0.073,1.458,-6.389,3.603,0.0,0.0
63855,-0.124,-0.994,0.093,-0.611,-1.305,3.870,0.0,0.0
63916,-0.147,-0.989,0.085,2.305,1.626,4.626,0.0,0.0
63969,-0.156,-0.996,0.085,0.931,-4.107,5.534,81.0,0.0
64022,-0.114,-0.987,0.068,3.076,1.313,6.382,82.0,0.0
64082,-0.168,-0.986,0.108,0.458,2.870,6.305,0.0,0.0
64146,-0.140,-0.979,0.090,1.664,-4.573,4.382,0.0,0.0
64206,-0.125,-0.984,0.059,0.466,1.947,4.878,0.0,0.0
64267,-0.173,-0.981,0.113,-1.427,-3.183,4.420,0.0,0.0
64327,-0.152,-1.003,0.097,-0.985,1.420,0.718,0.0,0.0
64424,-0.173,-0.988,0.101,1.901,2.344,6.420,81.0,0.0
64478,-0.167,-0.992,0.086,0.076,-6.969,5.832,82.0,0.0
64531,-0.149,-0.981,0.091,-2.305,-3.115,4.939,81.0,0.0
64592,-0.123,-0.998,0.076,-0.763,2.969,7.534,0.0,0.0
64646,-0.161,-1.001,0.097,-0.183,2.221,5.573,82.0,0.0
64706,-0.165,-0.972,0.136,0.824,0.595,2.695,0.0,0.0
64770,-0.125,-1.000,0.089,2.443,-7.282,3.252,0.0,0.0
64830,-0.133,-1.004,0.085,-1.450,-1.885,2.153,0.0,0.0
64890,-0.158,-0.985,0.099,0.992,2.496,4.786,0.0,0.0
64951,-0.146,-1.001,0.089,-0.939,-6.267,3.115,0.0,0.0
65012,-0.146,-0.983,0.109,0.176,0.198,4.733,0.0,0.0
65073,-0.136,-1.000,0.089,2.672,0.099,4.344,0.0,0.0
65133,-0.172,-0.986,0.106,0.405,-1.221,5.542,0.0,0.0
65193,-0.127,-0.987,0.095,1.405,2.931,3.359,0.0,0.0
65254,-0.179,-1.007,0.113,2.405,-1.985,4.298,0.0,0.0
65317,-0.143,-0.955,0.112,2.962,7.145,5.282,0.0,0.0
65372,-0.169,-1.011,0.104,2.344,-6.252,4.000,80.0,0.0
65432,-0.132,-0.974,0.079,1.130,-0.252,4.191,0.0,0.0
65492,-0.158,-0.994,0.098,2.153,2.588,3.679,0.0,0.0
65553,-0.163,-0.986,0.111,-0.809,-3.328,3.038,0.0,0.0
65613,-0.133,-0.980,0.117,0.794,7.679,3.588,0.0,0.0
65675,-0.191,-1.005,0.124,0.672,-6.275,2.275,0.0,0.0
65735,-0.135,-0.982,0.099,0.771,-4.023,3.710,0.0,0.0
65796,-0.128,-0.994,0.079,1.366,5.031,2.725,0.0,0.0
65856,-0.164,-0.997,0.111,-1.076,-0.519,3.771,0.0,0.0
65920,-0.142,-0.963,0.120,-0.496,2.985,3.435,0.0,0.0
65981,-0.149,-1.004,0.093,0.443,-2.687,1.733,0.0,0.0
66041,-0.156,-0.981,0.123,-0.389,-1.656,4.885,0.0,0.0
66102,-0.130,-0.994,0.092,0.313,-0.748,2.511,0.0,0.0
66163,-0.138,-0.997,0.093,0.176,0.794,2.275,0.0,0.0
66224,-0.164,-0.992,0.119,0.237,1.229,2.595,0.0,0.0
66284,-0.137,-0.988,0.093,1.153,-3.427,1.237,0.0,0.0
66344,-0.153,-0.976,0.113,-0.710,-1.466,3.916,0.0,0.0
66406,-0.135,-0.993,0.110,0.397,1.076,2.817,0.0,0.0
66469,-0.150,-0.997,0.113,0.275,-0.275,2.595,0.0,0.0
66530,-0.147,-0.988,0.114,0.466,-1.511,3.145,0.0,0.0
66591,-0.131,-1.006,0.097,0.374,1.023,3.137,0.0,0.0
66652,-0.143,-0.985,0.129,-1.397,-1.466,3.122,0.0,0.0
66712,-0.131,-0.996,0.110,1.023,-0.588,2.779,0.0,0.0
66774,-0.145,-0.978,0.113,0.473,1.565,3.046,0.0,0.0
66834,-0.153,-1.003,0.108,-1.023,-3.863,2.870,0.0,0.0
66894,-0.127,-0.977,0.123,-0.412,4.580,4.603,0.0,0.0
66956,-0.149,-1.008,0.118,-0.015,-3.069,2.626,0.0,0.0
67016,-0.131,-0.991,0.112,-0.389,-2.962,3.588,0.0,0.0
67081,-0.120,-0.992,0.099,1.130,4.412,2.389,0.0,0.0
67141,-0.160,-1.005,0.130,-0.252,-0.168,4.328,0.0,0.0
67203,-0.140,-0.986,0.101,0.565,-1.061,3.252,0.0,0.0
67263,-0.130,-0.987,0.107,1.137,2.260,3.832,0.0,0.0
67323,-0.128,-1.003,0.109,0.053,-1.664,4.107,0.0,0.0
67385,-0.136,-0.987,0.129,0.847,3.290,4.542,0.0,0.0
67488,-0.146,-0.981,0.116,0.130,-1.649,4.466,0.0,0.0
67550,-0.132,-0.987,0.097,1.573,1.137,3.924,0.0,0.0
67610,-0.148,-1.000,0.126,-0.450,-2.267,4.534,0.0,0.0
67675,-0.132,-0.987,0.106,0.794,-2.176,4.168,0.0,0.0
67735,-0.124,-0.982,0.094,0.939,1.092,2.985,0.0,0.0
67796,-0.145,-0.993,0.121,-0.275,-1.282,4.046,0.0,0.0
67857,-0.124,-0.986,0.114,0.031,1.183,2.870,0.0,0.0
67918,-0.121,-0.992,0.104,-0.382,2.947,2.489,0.0,0.0
67979,-0.164,-1.004,0.143,-0.466,-1.267,2.511,0.0,0.0
68040,-0.127,-0.985,0.112,1.053,-2.260,3.168,0.0,0.0
68101,-0.128,-0.987,0.118,0.611,4.389,4.771,0.0,0.0
68162,-0.141,-1.007,0.114,0.702,0.076,3.992,0.0,0.0
68222,-0.129,-0.984,0.113,0.229,1.137,4.206,0.0,0.0
68287,-0.148,-0.994,0.115,-0.634,-2.832,4.374,0.0,0.0
68348,-0.132,-0.992,0.117,0.267,3.069,4.924,0.0,0.0
68409,-0.134,-0.997,0.112,0.328,-0.191,2.534,0.0,0.0
68470,-0.131,-0.975,0.107,-0.985,-0.641,4.580,0.0,0.0
68531,-0.138,-1.012,0.122,-1.031,2.603,5.985,0.0,0.0
68592,-0.143,-0.986,0.132,-0.160,-0.809,3.321,0.0,0.0
68654,-0.129,-0.999,0.112,1.733,3.130,3.656,0.0,0.0
68714,-0.145,-0.996,0.115,2.099,2.130,4.023,0.0,0.0
68773,-0.146,-0.990,0.124,0.969,1.916,3.992,80.0,0.0
68837,-0.142,-0.985,0.116,1.504,0.420,4.031,0.0,0.0
68896,-0.148,-0.997,0.111,0.061,-2.099,5.092,0.0,0.0
68957,-0.126,-0.979,0.107,0.985,6.511,4.031,0.0,0.0
69010,-0.184,-1.000,0.151,-1.427,-2.519,3.924,80.0,0.0
69069,-0.116,-0.985,0.098,0.893,-1.466,4.160,0.0,0.0
69130,-0.136,-1.005,0.106,0.198,2.740,5.817,0.0,0.0
69189,-0.158,-0.999,0.132,1.382,-2.496,2.977,0.0,0.0
69250,-0.121,-0.971,0.105,-0.290,-0.336,4.992,0.0,0.0
69310,-0.147,-1.021,0.123,-1.176,-4.504,4.160,0.0,0.0
69369,-0.122,-0.978,0.116,-0.366,1.740,3.137,0.0,0.0
69433,-0.147,-0.992,0.117,1.656,-0.412,3.191,0.0,0.0
69493,-0.141,-0.990,0.107,1.000,-1.267,2.992,0.0,0.0
69553,-0.146,-0.987,0.115,-0.267,-1.053,1.802,0.0,0.0
69613,-0.131,-0.997,0.113,-0.718,-4.084,1.519,0.0,0.0
69673,-0.144,-1.001,0.114,-1.053,1.076,3.023,0.0,0.0
69733,-0.127,-0.973,0.120,-0.504,1.916,1.275,0.0,0.0
69793,-0.155,-0.998,0.128,0.695,-2.634,4.954,0.0,0.0
69854,-0.108,-0.990,0.108,-0.076,4.160,2.863,0.0,0.0
69913,-0.158,-0.991,0.129,0.053,1.511,2.786,0.0,0.0
69977,-0.152,-0.988,0.116,-0.611,-4.229,4.092,0.0,0.0
70037,-0.111,-0.989,0.088,0.115,8.427,3.450,0.0,0.0
70096,-0.185,-1.001,0.152,-2.221,-2.527,5.847,0.0,0.0
70157,-0.096,-0.991,0.113,1.832,-2.038,4.267,0.0,0.0
70217,-0.126,-1.005,0.114,1.237,3.504,4.046,0.0,0.0
70278,-0.149,-0.988,0.135,2.458,-0.557,4.763,0.0,0.0
70337,-0.107,-0.981,0.095,1.092,1.061,3.641,0.0,0.0
70397,-0.120,-0.994,0.105,0.389,5.244,3.252,0.0,0.0
70458,-0.158,-0.991,0.136,-0.458,0.328,3.618,0.0,0.0
70561,-0.104,-1.000,0.096,-0.947,0.939,4.573,0.0,0.0
70624,-0.149,-0.989,0.130,1.252,4.099,2.252,0.0,0.0
70684,-0.125,-0.978,0.099,-0.466,-0.931,0.802,0.0,0.0
70745,-0.146,-0.987,0.114,-1.305,1.351,2.176,0.0,0.0
70805,-0.138,-0.992,0.122,-1.229,0.435,3.573,0.0,0.0
70865,-0.129,-1.001,0.113,-0.664,-3.969,0.878,0.0,0.0
70926,-0.138,-0.976,0.121,-0.160,5.878,6.122,0.0,0.0
70985,-0.131,-1.004,0.112,1.153,-2.679,4.649,0.0,0.0
71046,-0.131,-0.990,0.132,-0.290,-2.573,4.496,0.0,0.0
71106,-0.106,-0.995,0.106,1.809,-2.115,5.336,0.0,0.0
71170,-0.111,-0.999,0.091,0.939,0.885,3.847,0.0,0.0
71230,-0.136,-0.982,0.129,-0.458,1.229,4.489,0.0,0.0
71290,-0.131,-0.977,0.115,0.298,-0.672,3.908,0.0,0.0
71351,-0.113,-1.023,0.093,0.038,-1.573,3.916,0.0,0.0
71411,-0.137,-0.979,0.132,0.290,5.405,4.443,0.0,0.0
71472,-0.133,-1.000,0.120,1.252,-5.817,1.977,0.0,0.0
71531,-0.110,-0.987,0.112,0.534,1.313,4.954,0.0,0.0
71591,-0.124,-1.003,0.111,1.031,0.527,3.336,0.0,0.0
71652,-0.145,-0.979,0.121,0.275,0.580,3.031,0.0,0.0
71712,-0.134,-0.982,0.105,-0.840,-2.466,3.870,0.0,0.0
71776,-0.113,-1.005,0.111,0.412,-1.649,5.550,0.0,0.0
71836,-0.138,-0.991,0.130,0.130,1.107,5.015,0.0,0.0
71897,-0.102,-0.981,0.098,1.809,3.603,3.847,0.0,0.0
71957,-0.150,-0.993,0.124,-0.359,-1.366,3.809,0.0,0.0
72017,-0.113,-0.985,0.108,-0.947,-0.725,2.771,0.0,0.0
72078,-0.156,-0.984,0.140,-0.740,-0.336,2.718,0.0,0.0
72138,-0.132,-0.983,0.114,-0.618,-2.786,4.160,0.0,0.0
72199,-0.132,-1.002,0.115,-0.435,0.084,5.733,0.0,0.0
72259,-0.141,-0.986,0.125,-1.206,-2.527,3.427,0.0,0.0
72323,-0.133,-0.993,0.111,0.122,0.344,6.527,0.0,0.0
72383,-0.124,-0.990,0.122,-1.099,-0.473,4.794,0.0,0.0
72443,-0.123,-1.003,0.105,-0.160,-2.496,2.076,0.0,0.0
72504,-0.133,-0.979,0.125,-1.748,1.214,3.412,0.0,0.0
72565,-0.137,-0.996,0.118,0.679,-0.328,2.260,0.0,0.0
72626,-0.144,-0.996,0.109,-0.534,-1.366,2.481,0.0,0.0
72686,-0.123,-0.988,0.113,0.718,1.908,2.603,0.0,0.0
72747,-0.137,-1.004,0.126,-1.290,-1.802,3.237,0.0,0.0
72807,-0.129,-0.985,0.124,0.435,2.634,3.885,0.0,0.0
72867,-0.129,-1.005,0.118,1.420,-1.023,3.557,0.0,0.0
72931,-0.130,-0.988,0.106,0.824,0.351,3.351,0.0,0.0
72991,-0.130,-0.985,0.123,0.061,-0.672,2.985,0.0,0.0
73052,-0.125,-0.999,0.111,-0.351,-3.603,1.733,0.0,0.0
73113,-0.149,-0.980,0.135,-0.496,2.603,5.061,0.0,0.0
73174,-0.122,-0.995,0.104,0.382,-5.031,2.580,0.0,0.0
73234,-0.136,-0.984,0.106,-1.427,-1.076,6.458,0.0,0.0
73294,-0.125,-1.007,0.104,-0.458,-3.977,3.718,0.0,0.0
73355,-0.128,-1.007,0.107,-1.290,-1.504,5.420,0.0,0.0
73416,-0.122,-0.983,0.129,-0.511,0.878,2.198,0.0,0.0
73480,-0.131,-1.005,0.116,0.817,-3.931,1.611,0.0,0.0
73540,-0.135,-0.976,0.120,-0.153,-1.603,3.099,0.0,0.0
73644,-0.121,-0.983,0.131,0.359,3.901,5.092,0.0,0.0
73705,-0.130,-1.009,0.105,1.580,-2.115,3.023,0.0,0.0
73765,-0.132,-0.965,0.128,-0.489,4.244,4.893,0.0,0.0
73826,-0.144,-1.004,0.128,0.824,-4.985,5.878,0.0,0.0
73886,-0.067,-0.986,0.056,1.710,9.313,3.176,0.0,0.0
73948,-0.176,-0.999,0.129,-0.832,6.870,7.626,0.0,0.0
74008,-0.112,-0.988,0.099,0.985,-6.656,1.863,0.0,0.0
74072,-0.118,-0.995,0.115,-1.244,13.718,5.794,0.0,0.0
74133,-0.158,-1.006,0.135,-0.405,-4.420,0.313,0.0,0.0
74193,-0.099,-1.000,0.081,0.328,-0.405,1.679,0.0,0.0
74254,-0.146,-0.982,0.122,0.145,8.634,3.107,0.0,0.0
74314,-0.141,-1.000,0.106,-0.519,-5.000,-0.008,0.0,0.0
74376,-0.130,-0.983,0.122,-0.725,-1.061,4.786,0.0,0.0
74436,-0.104,-0.998,0.093,1.015,2.275,3.687,0.0,0.0
74497,-0.151,-1.011,0.130,-0.244,-1.496,3.916,0.0,0.0
74558,-0.118,-1.006,0.122,0.817,-2.725,1.840,0.0,0.0
74618,-0.138,-1.003,0.095,3.412,-1.435,3.260,0.0,0.0
74683,-0.145,-0.969,0.140,3.275,-1.779,12.412,0.0,0.0
74743,-0.068,-0.934,0.090,6.321,13.473,14.954,0.0,0.0
74805,-0.126,-1.005,0.082,-0.893,2.985,7.489,0.0,0.0
74865,-0.080,-0.946,0.077,-4.908,12.473,1.466,0.0,0.0
74926,-0.117,-0.975,0.118,-5.420,15.710,0.168,0.0,0.0
74980,-0.173,-1.015,0.130,-5.084,4.168,-3.901,83.0,0.0
75034,-0.112,-0.992,0.082,-3.725,7.366,-4.282,83.0,0.0
75088,-0.169,-1.009,0.126,-3.603,13.611,-2.939,83.0,0.0
75143,-0.173,-1.011,0.115,-1.565,0.473,-2.466,83.0,0.0
75200,-0.112,-0.969,0.072,-0.702,10.473,-0.809,84.0,0.0
75254,-0.173,-1.004,0.104,-1.000,4.679,2.618,83.0,0.0
75309,-0.119,-0.988,0.075,-0.664,-0.916,0.947,84.0,0.0
75363,-0.099,-1.004,0.052,-1.481,4.237,2.244,84.0,0.0
75417,-0.141,-0.980,0.099,-2.511,4.275,1.855,84.0,0.0
75472,-0.100,-1.004,0.058,-1.198,-2.092,1.046,84.0,0.0
75527,-0.120,-0.988,0.068,-2.511,2.695,1.847,84.0,0.0
75581,-0.099,-0.993,0.060,-2.290,-0.076,1.878,84.0,0.0
75635,-0.101,-0.990,0.055,-3.939,1.481,1.160,84.0,0.0
75693,-0.105,-1.013,0.056,-5.183,-0.901,0.725,84.0,0.0
75747,-0.097,-1.010,0.058,-5.443,-2.641,0.550,84.0,0.0
75801,-0.115,-1.011,0.073,-3.244,2.336,2.550,84.0,0.0
75855,-0.108,-1.033,0.072,-1.969,-4.099,0.870,84.0,0.0
75910,-0.105,-1.003,0.078,1.321,0.679,3.885,84.0,0.0
75965,-0.114,-1.030,0.057,1.931,-5.183,4.145,84.0,0.0
76019,-0.110,-1.004,0.054,2.565,-3.389,6.321,84.0,0.0
76073,-0.066,-1.010,0.030,2.382,1.924,5.855,84.0,0.0
76128,-0.129,-0.995,0.079,1.389,0.908,7.481,84.0,0.0
76182,-0.108,-1.013,0.045,1.977,-9.229,4.336,84.0,0.0
76239,-0.061,-0.975,0.037,-0.115,-0.252,8.427,84.0,0.0
76295,-0.125,-1.006,0.078,-0.595,-0.069,7.275,84.0,0.0
76349,-0.096,-1.017,0.050,-0.611,-8.992,2.595,84.0,0.0
76409,-0.104,-1.008,0.071,0.061,-1.573,3.092,84.0,0.0
76463,-0.123,-1.008,0.081,1.046,-6.855,1.527,85.0,0.0
76559,-0.115,-1.009,0.062,1.244,-0.435,6.405,84.0,0.0
76612,-0.123,-1.000,0.068,0.420,-6.198,3.038,84.0,0.0
76666,-0.109,-1.005,0.060,0.573,-5.611,1.931,85.0,0.0
76720,-0.121,-0.996,0.071,1.260,-4.870,5.748,84.0,0.0
76782,-0.107,-1.007,0.078,2.191,-1.901,6.962,0.0,0.0
76835,-0.101,-1.015,0.073,3.840,-3.565,5.687,84.0,0.0
76896,-0.110,-0.999,0.073,3.084,0.290,5.618,0.0,0.0
76955,-0.122,-0.992,0.077,2.191,-3.115,7.282,0.0,0.0
77016,-0.127,-1.005,0.097,1.290,-5.718,8.847,0.0,0.0
77076,-0.127,-1.012,0.093,2.748,-6.275,5.809,0.0,0.0
77135,-0.147,-0.998,0.119,2.855,-5.031,7.847,0.0,0.0
77196,-0.127,-0.998,0.108,5.473,-2.351,7.099,0.0,0.0
77256,-0.150,-1.001,0.106,4.786,-9.863,6.863,0.0,0.0
77319,-0.146,-1.002,0.118,3.969,-8.664,8.580,0.0,0.0
77379,-0.119,-0.976,0.089,4.282,-2.435,8.809,0.0,0.0
77440,-0.173,-0.996,0.136,3.626,-8.450,9.924,0.0,0.0
77499,-0.125,-0.977,0.121,3.595,-7.634,10.412,0.0,0.0
77559,-0.131,-0.989,0.111,5.046,-5.061,10.939,0.0,0.0
77620,-0.163,-0.983,0.140,2.282,-5.550,8.351,0.0,0.0
77680,-0.123,-0.967,0.132,3.733,-1.099,8.359,0.0,0.0
77741,-0.159,-0.995,0.138,2.328,-5.687,6.824,0.0,0.0
77800,-0.138,-0.969,0.136,1.328,1.824,5.229,0.0,0.0
77860,-0.157,-0.988,0.157,1.153,-4.099,4.802,0.0,0.0
77924,-0.160,-0.993,0.152,0.954,1.183,2.740,0.0,0.0
77983,-0.175,-0.971,0.160,1.573,-5.099,0.160,0.0,0.0
78044,-0.164,-0.969,0.143,1.649,2.580,6.733,0.0,0.0
78104,-0.171,-0.985,0.145,-0.153,-8.802,5.733,0.0,0.0
78164,-0.142,-0.978,0.141,-0.443,-3.893,6.107,0.0,0.0
78225,-0.142,-1.000,0.153,1.107,1.687,5.443,0.0,0.0
78284,-0.187,-0.981,0.193,1.641,-1.168,4.275,0.0,0.0
78345,-0.152,-0.961,0.170,3.328,-3.206,4.641,0.0,0.0
78405,-0.156,-0.976,0.150,5.130,-1.802,4.809,0.0,0.0
78477,-0.148,-0.967,0.134,2.802,4.145,5.366,0.0,0.0
78540,-0.174,-0.969,0.152,1.092,3.893,3.802,0.0,0.0
78603,-0.158,-0.974,0.167,-1.412,-0.366,2.321,0.0,0.0
78665,-0.179,-0.989,0.190,0.458,-2.481,2.718,0.0,0.0
78728,-0.164,-0.969,0.193,2.420,-1.130,2.618,0.0,0.0
78791,-0.159,-0.987,0.145,4.649,2.023,4.198,0.0,0.0
78839,-0.187,-0.960,0.180,0.931,3.000,6.069,0.0,0.0
78902,-0.152,-0.974,0.154,0.954,-3.550,3.176,0.0,0.0
78965,-0.163,-0.964,0.176,-2.244,4.298,4.924,0.0,0.0
79028,-0.176,-0.974,0.186,-0.511,0.420,2.626,0.0,0.0
79093,-0.150,-0.994,0.158,0.229,-0.565,4.107,0.0,0.0
79157,-0.172,-0.970,0.179,-0.809,5.542,3.481,0.0,0.0
79219,-0.168,-0.978,0.173,0.191,-2.466,2.313,0.0,0.0
79282,-0.152,-0.974,0.162,-1.328,-1.718,2.473,0.0,0.0
79344,-0.175,-0.960,0.176,-1.840,11.038,2.809,0.0,0.0
79408,-0.184,-0.989,0.171,-1.107,-7.069,1.122,0.0,0.0
79470,-0.148,-0.970,0.154,-1.771,2.267,2.328,0.0,0.0
79533,-0.173,-0.972,0.172,-0.649,5.557,3.863,0.0,0.0
