Timestamp(ms),AccelX(g),AccelY(g),AccelZ(g),GyroX(deg/s),GyroY(deg/s),GyroZ(deg/s),DistanceLeft(cm),DistanceRight(cm)
26250,-0.642,-0.185,0.796,-3.618,14.038,9.809,0,122
26298,-0.635,-0.199,0.764,-7.725,-2.885,0.466,16,128
26356,-0.647,-0.194,0.784,-8.519,13.718,1.901,0,122
26416,-0.66,-0.185,0.838,-5.481,10.809,9.137,0,120
26474,-0.619,-0.196,0.772,-8.053,2.763,7.611,0,121
26532,-0.618,-0.234,0.778,-7.466,5.076,3.496,0,120
26580,-0.597,-0.21,0.733,-0.557,13.885,-0.053,16,119
26642,-0.614,-0.175,0.728,2.466,29.771,0.145,0,118
26700,-0.708,-0.132,0.796,5.321,33.13,2,0,125
26760,-0.713,-0.087,0.797,5.481,24.26,2.511,0,118
26808,-0.751,-0.107,0.823,1.58,30.55,5.924,32,116
26857,-0.796,-0.14,0.842,3.71,10.939,1.183,30,117
26915,-0.77,-0.171,0.799,5.664,-9.45,-10.786,0,117
26974,-0.711,-0.194,0.786,3.71,-8.374,-13.122,0,119
27032,-0.652,-0.173,0.772,7.595,-10.031,-9.718,0,123
27082,-0.648,-0.165,0.741,12.115,-12.595,-6.924,36,124
27144,-0.612,-0.223,0.721,11.504,-11.458,-4.634,0,126
27203,-0.611,-0.274,0.726,8.634,-11.649,-3.481,0,127
27252,-0.591,-0.296,0.742,2.924,-19.206,-7.908,30,127
27302,-0.566,-0.325,0.775,0.122,-24.038,-12.55,29,128
27351,-0.467,-0.321,0.835,-0.656,-32.672,-16.595,9,129
27399,-0.464,-0.287,0.849,8.443,-12.191,-8.962,9,131
27447,-0.437,-0.245,0.853,19.359,2.962,-6.115,9,130
27497,-0.475,-0.212,0.867,27.481,20.481,-0.473,29,133
27546,-0.537,-0.166,0.867,34.58,20.565,9.076,30,128
27598,-0.552,-0.07,0.858,31.298,20.557,22.58,31,128
27648,-0.599,-0.06,0.886,23.214,5.595,25.389,30,127
27697,-0.579,-0.042,0.861,16.45,-12.221,25.916,28,129
27756,-0.529,-0.012,0.814,11.305,-11.427,32.603,0,133
27806,-0.625,-0.013,0.809,-5.16,14.779,36.153,30,133
27856,-0.773,-0.078,0.917,-18.954,18.015,23.595,29,131
27906,-0.767,-0.113,0.883,-14.466,-3.229,25,28,131
27955,-0.602,-0.043,0.722,-8.45,-2.443,30.672,29,124
28004,-0.644,-0.049,0.678,-11.847,4.237,24.221,29,123
28063,-0.721,-0.051,0.67,-10.221,-1.511,10.832,156,119
28112,-0.749,-0.006,0.656,-4.435,7.489,5.252,29,117
28161,-0.742,0.038,0.69,0,10.603,8.053,28,115
28209,-0.709,0.05,0.716,0.931,5.198,9.603,30,113
28264,-0.685,0.05,0.736,-0.733,1.382,4.214,149,112
28313,-0.718,0.024,0.763,-2.45,1.061,-5.099,29,111
28368,-0.71,0.028,0.766,-1.237,1.725,-7.519,159,109
28418,-0.687,0.082,0.77,-7,6.092,-7.115,38,108
28473,-0.715,0.089,0.786,-11.817,2.481,-6.282,160,107
28525,-0.664,0.098,0.796,-13.878,-7.595,-6.458,38,105
28573,-0.661,0.066,0.81,-12.252,-8.244,-7.084,31,104
28621,-0.684,0.045,0.837,-7.824,-8.053,-8.038,31,103
28679,-0.665,0.043,0.852,-2.344,-9.176,-9.122,0,102
28737,-0.646,0.039,0.855,1.435,-10.55,-12.763,0,100
28794,-0.675,0.005,0.846,-3.115,-1.878,-18.061,0,100
28854,-0.667,0.012,0.871,-14.031,2.565,-10.573,0,123
28946,-0.571,-0.13,0.811,-6.664,-35.153,-7.481,29,125
28999,-0.528,-0.168,0.755,6.214,0.153,-6.771,30,135
29057,-0.646,-0.255,0.918,21.298,-3.664,-14.74,158,135
29113,-0.546,-0.212,0.786,32.008,-6.16,-14.794,145,129
29164,-0.546,-0.194,0.75,28.282,35.046,-6.359,30,147
29214,-0.642,-0.182,0.817,22.305,33.221,-8.725,29,146
29264,-0.632,-0.129,0.829,13.527,0.069,-18.924,28,129
29314,-0.542,-0.06,0.775,1.588,-9.679,-17.435,26,129
29363,-0.536,-0.052,0.774,-4.985,3.023,-10.733,27,129
29413,-0.578,-0.066,0.805,-6.229,4.794,-6.061,28,135
29466,-0.565,-0.051,0.815,-6.176,2.282,0.206,29,134
29515,-0.559,-0.066,0.849,-7.053,2.863,9.099,28,134
29565,-0.556,-0.06,0.884,-8.718,-0.267,14.305,28,134
29616,-0.573,-0.067,0.888,-8.069,-1.718,16.626,29,140
29666,-0.594,-0.064,0.899,-5.511,-0.748,18.779,29,139
29720,-0.588,-0.043,0.898,-3.137,-3.313,23.023,29,0
29770,-0.612,-0.043,0.867,-4.489,3.458,24.137,27,139
29819,-0.661,-0.029,0.837,-12.374,11.611,21.16,27,124
29873,-0.709,-0.059,0.817,-21.969,12.656,20.588,28,0
29937,-0.704,-0.086,0.812,-20.252,0.031,21.405,161,0
29995,-0.666,-0.093,0.74,-13.947,-1.191,20.977,77,0
30056,-0.684,-0.082,0.702,-13.931,3.885,15.298,175,0
30118,-0.748,-0.073,0.702,-13.687,-3.275,3.718,176,0
30173,-0.741,-0.065,0.7,-8.443,-2.031,1.237,33,0
30230,-0.679,-0.025,0.732,-3.389,5.321,5.656,83,0
30287,-0.645,-0.031,0.762,0.084,0.809,3.267,91,0
30341,-0.651,-0.032,0.745,2.863,4.427,-5.534,29,0
30395,-0.696,-0.014,0.767,3.038,12.023,-8.748,29,0
30455,-0.715,-0.006,0.808,2.656,4.55,-11.641,87,0
30509,-0.705,0.02,0.788,2.931,-4.26,-12.282,92,123
30564,-0.695,0.035,0.79,1.557,-3.863,-10.641,90,164
30619,-0.701,0.03,0.809,1.885,-8.496,-8.069,87,164
30674,-0.69,-0.003,0.85,6.649,-10.702,-9.321,87,163
30730,-0.666,-0.038,0.817,11.008,-6.198,-16.206,87,164
30785,-0.684,-0.05,0.812,7.595,8.092,-18.985,90,167
30839,-0.679,-0.046,0.823,-2.427,6.511,-12.336,31,0
30894,-0.66,-0.128,0.812,-5.771,-13.817,-11.427,30,0
30950,-0.579,-0.186,0.765,0.313,-21.55,-19.855,30,0
31004,-0.64,-0.267,0.794,12.603,-2.389,-22.26,27,0
31058,-0.624,-0.291,0.791,25.015,-2.809,-22.008,30,0
31116,-0.551,-0.26,0.748,27.672,18.687,-16.504,85,0
31173,-0.585,-0.194,0.748,15.092,31.916,-13.931,85,0
31227,-0.595,-0.104,0.791,-4.496,10.687,-10.481,29,0
31285,-0.554,-0.085,0.808,-8.87,-14.573,-9.977,89,0
31342,-0.515,-0.071,0.784,-3.786,-4.962,-2.099,90,0
31399,-0.569,-0.078,0.847,-1.206,7.611,14.885,92,0
31460,-0.605,-0.117,0.914,-1.916,-10.969,27.588,92,0
31518,-0.579,-0.149,0.86,3.221,-18.023,32.42,93,0
31572,-0.637,-0.137,0.835,3.695,4.107,29.084,29,0
31630,-0.774,-0.118,0.895,-3.092,8.496,20.542,98,0
31731,-0.703,-0.021,0.813,-19.206,-6.527,32.771,102,0
31790,-0.654,-0.042,0.702,-21.779,-14.55,35.168,104,0
31844,-0.673,-0.056,0.639,-12.756,-9.931,23.863,31,0
31898,-0.717,-0.037,0.623,-5.076,1.847,13.282,28,0
31952,-0.677,-0.002,0.668,2.069,10.275,13.763,29,0
32008,-0.664,0.031,0.747,4,10.847,12.366,30,0
32062,-0.699,0.001,0.778,1.305,6.511,7.824,29,0
32116,-0.747,-0.015,0.776,3.092,7.382,-1.611,29,0
32169,-0.738,0.034,0.771,2.42,10.443,-7.832,29,0
32224,-0.7,0.074,0.784,-2.153,8.824,-8.076,30,0
32278,-0.673,0.081,0.794,-6.229,0.504,-8.802,29,0
32332,-0.657,0.057,0.792,-4.221,-5.275,-10.725,28,0
32387,-0.69,0.062,0.79,-1.542,-0.13,-10.282,30,0
32441,-0.706,0.067,0.81,0.053,0.13,-6.786,30,0
32498,-0.698,0.085,0.808,-1.275,-5.351,-6.809,37,0
32552,-0.676,0.068,0.804,-2.015,-5.565,-6.985,30,0
32616,-0.696,0.032,0.83,-4.031,-6.145,-14.557,0,0
32675,-0.664,0.014,0.832,-11,-3,-15.397,0,120
32735,-0.639,-0.078,0.86,-13.328,-8.702,-17.137,118,0
32790,-0.647,-0.135,0.837,0.252,-16.763,-11.473,116,117
32844,-0.592,-0.147,0.77,16.573,-5.641,-11.763,29,0
32899,-0.618,-0.164,0.732,24.389,14.015,-8.557,28,0
32948,-0.69,-0.158,0.746,22.55,10.26,-8.092,30,109
32999,-0.665,-0.169,0.745,14.756,-4.321,-8.122,30,109
33048,-0.589,-0.194,0.722,6.573,-3.756,-9.527,26,108
33108,-0.588,-0.178,0.774,-1.931,6.221,-13.13,26,0
33156,-0.612,-0.131,0.841,-8.313,4.679,-11.374,26,105
33204,-0.565,-0.058,0.833,-11.115,-1.756,-4.282,27,104
33252,-0.538,-0.033,0.824,-11.351,-4.603,2.252,26,104
33305,-0.532,-0.025,0.809,-10.397,-1.023,9.122,30,0
33358,-0.557,-0.043,0.812,-10.695,2.023,17.947,27,0
33415,-0.582,-0.09,0.841,-13.382,-0.366,25.511,28,0
33468,-0.626,-0.138,0.879,-14.809,-6.198,26.817,27,0
33521,-0.61,-0.143,0.86,-12.008,-2.382,27.702,30,0
33568,-0.683,-0.148,0.895,-14.573,7.45,21.542,30,93
33624,-0.704,-0.124,0.872,-16.71,4.328,20.42,161,91
33670,-0.733,-0.114,0.82,-20.443,-0.595,21.023,29,71
33715,-0.679,-0.105,0.775,-21.504,-4.931,23.595,28,67
33761,-0.647,-0.113,0.741,-18.527,-9.198,22.679,29,66
33806,-0.643,-0.093,0.667,-12.786,-7.26,20.84,26,65
33855,-0.724,-0.086,0.642,-10,-2.237,13.695,28,63
33900,-0.764,-0.081,0.64,-7.939,-1.313,6.153,29,63
33948,-0.729,-0.04,0.678,-3.878,1.29,5.206,29,99
34000,-0.713,-0.039,0.739,0.008,2.206,7.198,147,62
34044,-0.676,-0.049,0.744,2.687,-0.534,5.427,16,61
34092,-0.686,-0.052,0.744,2.718,2.931,-1.267,38,68
34137,-0.715,-0.035,0.773,3.267,1.481,-7.214,30,62
34184,-0.71,-0.006,0.767,0.611,3.542,-9.29,30,84
34229,-0.71,-0.009,0.793,-2.519,2.282,-8.252,30,68
34278,-0.675,-0.01,0.794,-0.687,-5.725,-10.198,30,63
34368,-0.661,0.002,0.777,5.321,-3.733,-11.962,28,87
34413,-0.679,0.003,0.814,5.397,-6.435,-13.458,30,57
34466,-0.69,-0.005,0.818,6.198,-10.183,-16.313,162,57
34520,-0.672,-0.015,0.84,8.687,-11.84,-20.962,163,63
34571,-0.666,-0.042,0.871,8.924,-11.863,-24.702,133,62
34617,-0.645,-0.058,0.885,6.908,-0.427,-22.58,30,60
34663,-0.634,-0.074,0.893,5.672,-6.168,-17.756,16,76
34707,-0.563,-0.08,0.834,10.214,-15.458,-14.481,16,63
34756,-0.562,-0.111,0.764,13.351,5.634,-4.649,30,60
34802,-0.583,-0.152,0.776,20.985,13.137,-0.809,30,66
34857,-0.585,-0.136,0.755,22.664,24.58,-1.374,0,60
34903,-0.685,-0.176,0.793,20.534,6.832,-6.931,27,63
34948,-0.62,-0.212,0.783,17.947,-7.695,-10.382,28,60
34994,-0.557,-0.207,0.78,12.176,3.969,-10.725,26,60
35039,-0.59,-0.184,0.842,2.427,11.122,-12.611,29,60
35085,-0.597,-0.16,0.858,-5.45,0.931,-15.252,27,61
35130,-0.516,-0.112,0.845,-7.084,-8.427,-14.275,26,62
35179,-0.475,-0.067,0.814,-7.183,-3.809,-13.153,27,61
35224,-0.513,-0.047,0.827,-5.901,4.183,-7.718,30,60
35269,-0.566,-0.037,0.839,-5.84,5.916,1.221,27,60
35315,-0.569,-0.06,0.839,-5.901,0.626,9.244,27,59
35360,-0.542,-0.081,0.846,-5.412,-1.038,15.595,29,58
35405,-0.549,-0.089,0.886,-4.305,1.206,19.282,26,58
35450,-0.565,-0.086,0.888,-3.107,3.626,20.992,26,57
35496,-0.596,-0.095,0.919,-1.611,2.038,23.695,28,53
35542,-0.601,-0.09,0.901,-4.29,1.84,23.771,30,50
35589,-0.66,-0.11,0.863,-12.679,7.489,20.244,28,47
35634,-0.755,-0.173,0.892,-18.351,5.466,12.206,30,45
35679,-0.676,-0.161,0.823,-12.015,-5.908,13.13,30,43
35723,-0.584,-0.09,0.755,-10.74,1.046,14.656,30,41
35767,-0.674,-0.097,0.758,-11.847,-0.458,13.282,16,39
35811,-0.708,-0.103,0.717,-9.023,-9.87,7.473,30,37
35855,-0.703,-0.1,0.669,-5.527,-4.809,-0.275,30,35
35900,-0.741,-0.055,0.66,-2.855,6.977,-1.145,37,35
35951,-0.718,-0.028,0.712,0.496,8.626,5.023,149,36
35998,-0.698,-0.05,0.729,0.893,1.145,6.733,28,32
36042,-0.674,-0.085,0.736,1.397,-0.908,2.641,28,31
36086,-0.645,-0.099,0.754,4.481,-0.779,-5.344,30,33
36130,-0.648,-0.103,0.803,8.847,-4.687,-18.824,30,36
36182,-0.637,-0.112,0.821,15.267,-15.26,-30.275,162,30
36235,-0.677,-0.103,0.833,22.985,-12.55,-37.046,9,0
36291,-0.731,-0.068,0.917,32.695,-29.458,-45.84,10,0
36343,-0.65,-0.064,0.858,40.725,-30.969,-44.107,9,0
36400,-0.659,-0.01,0.871,41.611,-11.496,-40.969,9,0
36463,-0.726,-0.034,0.931,35.351,-44.16,-59.969,0,0
36527,-0.491,0.001,0.89,21.74,-18.069,-45.672,0,0
36580,-0.435,-0.051,0.907,19.534,-30.084,-38.084,17,0
36633,-0.364,-0.085,0.806,23.053,-24.832,-40.008,16,0
36697,-0.42,-0.148,0.851,22.603,1.008,-33.847,0,0
36753,-0.436,-0.17,0.901,17.55,0.412,-29.893,9,0
36849,-0.399,-0.157,0.969,2.153,-1.71,-21.084,16,0
36913,-0.338,-0.13,0.937,-2.443,-4.817,-16.924,0,0
36969,-0.335,-0.124,0.931,-1.191,-8.794,-14.672,9,0
37022,-0.321,-0.137,0.899,0.359,1.397,-12.885,19,0
37075,-0.389,-0.135,0.949,2.496,6.947,-7.748,16,0
37139,-0.346,-0.115,0.928,1.748,-0.267,-3.84,0,0
37192,-0.331,-0.105,0.944,1.382,11.878,2.031,16,0
37256,-0.384,-0.105,0.963,2.916,17.618,7.733,0,0
37319,-0.4,-0.094,0.949,2.038,24.13,17.802,0,0
37376,-0.4,-0.157,0.955,0.901,34.611,32.053,9,0
37429,-0.442,-0.156,1.024,17.099,28.802,25.191,27,0
37493,-0.477,-0.136,0.936,27.519,32.099,13.58,0,0
37550,-0.634,-0.059,0.934,22.611,49.069,-0.45,26,0
37604,-0.683,-0.042,0.932,19.374,16.427,0.702,26,0
37657,-0.59,-0.053,0.809,23.496,-0.137,3.656,30,0
37711,-0.6,-0.064,0.794,26.107,9.733,-3.565,27,0
37766,-0.66,-0.065,0.771,31.969,7.435,-12.992,28,0
37826,-0.756,-0.009,0.733,38.206,16.405,-18.374,147,0
37890,-0.761,0.07,0.708,37.824,4.275,-21.74,0,0
37954,-0.681,0.1,0.695,30.779,-8.771,-32.847,0,0
38016,-0.657,0.095,0.694,22.771,2.969,-40.366,175,0
38080,-0.696,0.092,0.768,19.168,9.588,-42.412,147,0
38140,-0.695,0.118,0.781,18.229,0.565,-45.466,147,0
38205,-0.662,0.136,0.761,16.336,3.863,-41.664,0,0
38258,-0.697,0.154,0.825,13.832,1.092,-38.779,26,0
38312,-0.67,0.151,0.821,13.809,-7.45,-31.924,28,0
38367,-0.676,0.125,0.822,14.924,-7.779,-27.672,28,0
38420,-0.656,0.127,0.817,17.351,-7.809,-26.702,28,0
38474,-0.655,0.121,0.842,19.069,-9.947,-27.092,30,0
38529,-0.631,0.089,0.876,18.863,-20.282,-29.603,29,0
38586,-0.641,0.041,0.855,18.519,-21.015,-35.168,31,0
38640,-0.651,0.018,0.872,10.618,0.473,-39.626,29,0
38694,-0.695,-0.086,0.934,5.191,-3.908,-27.817,30,0
38749,-0.583,-0.14,0.853,5.565,-26.275,-24.58,32,0
38806,-0.449,-0.219,0.733,11.542,-30.153,-27.641,88,0
38860,-0.513,-0.189,0.836,16.977,10.076,-26.855,30,0
38915,-0.531,-0.17,0.952,16.771,-15.458,-30.13,28,0
38968,-0.466,-0.14,0.891,9.328,-22.275,-24.198,16,0
39022,-0.36,-0.16,0.927,7.634,-19.145,-17.16,30,0
39089,-0.306,-0.166,0.865,20.107,6.962,-16.557,194,0
39143,-0.372,-0.176,0.85,31.031,36.58,-21.74,30,0
39197,-0.458,-0.162,0.894,31.099,8.229,-33.649,29,0
39251,-0.352,-0.028,0.786,9.977,-14.595,-41.191,29,0
39306,-0.569,-0.179,0.77,-6.42,51.458,-30.969,30,0
39360,-0.393,-0.094,0.871,26.802,64.863,-19.321,26,0
39414,0.014,0.103,0.583,-5.534,15.176,-91.473,27,0
39469,-0.913,-0.229,0.448,-27.84,131.168,-55.427,30,0
39522,-1.041,0.122,0.63,-42.504,48.084,-40.389,30,121
39571,-0.708,-0.739,0.504,-101.695,4.069,-83.145,31,117
39621,-0.756,-1.221,0.623,-44.626,28.733,-103.26,33,114
39711,-1.814,-0.438,0.286,-75.183,93.412,-91.618,84,30
39761,-1.708,-1.265,0.716,-13.611,-39.931,7.733,43,109
39820,0.617,-0.378,0.237,36.542,-52.595,-54.366,82,111
39868,-0.29,0.152,0.373,-36.26,135.992,-55.519,37,109
39917,-1.991,-0.317,0.58,-17.481,95.13,28.634,46,106
39965,-0.84,-1.095,0.536,-13.656,-72.397,41.031,36,104
40016,0.123,-1.443,0.571,-9.16,-6.542,-17.298,37,105
40071,-0.659,-0.908,0.753,19.092,29.939,-53.397,36,0
40119,-0.668,0.029,0.088,11.42,3.374,-38.908,37,109
40168,-0.604,-0.269,0.134,-32.527,17.481,-4.786,36,107
40216,-0.53,-1.002,0.553,-28.977,7.702,-0.214,37,106
40264,-0.694,-1.033,0.671,6.695,34.863,1.679,38,106
40312,-0.945,-0.74,0.609,43.733,13.527,14.42,37,107
40361,-0.913,-0.749,0.572,52.275,5.71,40,36,108
40410,-0.613,-0.805,0.692,70.473,-32.786,47.702,36,111
40462,-0.604,-0.445,0.362,84.794,8.565,49.603,34,110
40510,-1.044,-0.426,0.473,82.969,1.534,87.779,34,114
40558,-0.245,-0.265,0.081,55.206,-33.969,85.366,31,111
40602,0.517,-0.362,-0.381,-46.977,-20.496,-22.947,30,33
40651,-0.491,-0.792,0.201,-87.489,93.626,-62.931,31,111
40699,-1.273,-0.357,1.073,-56.542,14.504,-58.305,31,111
40748,-0.974,-0.544,0.893,-36.901,-25.595,-23.985,30,109
40797,-1.195,-1.024,1.103,25.176,7.58,24.191,30,109
40848,-1.056,-0.534,0.791,81.458,-51.473,48.893,30,111
40892,-0.988,-0.527,0.487,79.504,-30.55,84.969,30,31
40936,-0.835,-0.478,0.542,81.305,-38.405,103.359,29,32
40980,-0.699,-0.22,0.471,78.695,-34.725,105.137,28,35
41024,-0.494,-0.385,0.573,69.321,-53.115,84.298,27,36
41068,-0.636,-0.428,0.695,83.878,-14.443,68.863,28,38
41112,-0.6,-0.042,0.678,91.786,-17.389,65.748,28,40
41157,-0.393,-0.026,0.511,48.55,-48.847,30.061,28,43
41201,-0.622,-0.315,0.978,75.427,-0.542,33.756,28,43
41259,-0.298,0.055,0.867,117.099,-40.29,-10.45,30,0
41304,-0.643,0.907,-0.016,62.198,31.42,-24.649,28,50
41349,-1.342,0.581,0.601,-40.802,5.29,36.214,28,44
41394,0.008,-0.43,1.225,7.443,-57.191,9.626,27,50
41447,-0.516,0.148,1.167,70.992,54.45,-20.466,28,0
41500,-0.97,1.125,-0.118,27.656,-20.641,20.702,29,0
41554,-0.53,-0.098,1.135,8.565,-9.557,44.87,29,0
41609,-0.724,0.576,0.878,71.863,10.275,40.924,28,0
41662,-0.598,0.25,0.641,47.908,-43.046,46.809,28,0
41719,-0.525,0.6,0.625,37.527,9.153,36.618,28,0
41773,-0.37,0.171,1.007,21.198,-72.718,-11.802,27,0
41827,-0.638,0.482,0.695,28.84,-6.252,-35.534,29,0
41880,-0.538,0.846,0.194,-24.092,-64.733,-43.893,28,0
41933,-0.526,0.783,0.705,-13.015,9.26,-2.87,17,0
41987,-0.516,0.423,0.645,-3.008,1.282,10.969,16,0
42041,-0.699,0.384,0.872,22.076,11.008,24.771,27,0
42094,-0.647,0.561,0.908,54.214,4.771,39.87,27,0
42147,-0.582,0.584,0.803,66.901,-1.748,66.695,17,0
42247,-0.511,0.649,0.677,72.321,-8.908,55.74,17,0
42301,-0.147,0.785,0.327,63.626,-19.298,36.832,26,0
42354,-0.467,0.873,0.643,26.87,-2.863,30.229,27,0
42407,-0.162,0.845,0.25,32.656,-23.626,7.511,17,0
42461,-0.36,0.917,0.698,-7.802,-6.023,1.015,16,0
42514,-0.222,0.747,0.313,15.405,-22.435,-7.458,16,0
42567,-0.298,1.039,0.302,-35.504,-3.328,-6.489,16,0
42620,-0.38,0.674,0.965,-26.969,-1.351,2.71,16,0
42675,-0.29,0.716,0.639,49.015,-13.534,14.481,26,0
42731,-0.16,0.825,0.282,-13.031,-3.603,-0.634,16,0
42784,-0.43,0.857,0.575,37.84,6.534,21.718,18,0
42838,0.019,0.979,0.077,2.977,-3.992,1.771,26,0
42892,-0.387,0.941,0.804,-29.595,29.374,-11.71,28,0
42945,-0.314,0.892,0.63,8.527,-27.023,-13.45,16,0
42998,-0.249,1.099,0.229,-56.779,15.443,-19.595,16,0
43053,-0.304,0.61,0.536,-44.695,-5.656,-7.664,26,0
43106,-0.294,0.682,0.801,-3.053,1.092,-9.687,26,0
43159,-0.429,0.782,0.694,7.985,-11.718,-4.305,17,0
43216,-0.315,0.838,0.508,25.389,7.794,12.145,25,0
43270,-0.267,0.657,0.602,32.13,-5.244,2.061,25,0
43324,-0.397,0.912,0.468,49.893,4.16,14.626,26,0
43378,-0.214,0.965,0.235,3.885,15.389,7.427,26,0
43431,-0.32,0.829,0.388,-4.985,15.313,-5.687,25,0
43486,-0.341,0.983,0.562,-29.595,4.069,-20.458,25,0
43539,-0.462,0.91,0.894,-33.542,-22.298,-17.603,25,0
43593,-0.283,0.882,0.221,-22,2.031,-2.466,25,0
43646,-0.286,0.602,0.516,-41.672,-8.885,-5.71,17,0
43703,-0.442,0.696,0.861,-0.656,12.282,-7.565,17,0
43756,-0.37,0.828,0.66,20.008,0.183,12.672,17,0
43810,-0.246,0.757,0.464,21.634,-14.725,3.069,17,0
43864,-0.483,0.813,0.558,20.244,9.725,14.748,26,0
43917,-0.253,0.737,0.621,16.061,-14.298,10.832,16,0
43971,-0.368,0.902,0.607,32.656,8.878,3.809,26,0
44025,-0.357,0.884,0.451,26.206,-15.298,15.809,25,0
44080,-0.158,0.82,0.225,31.908,0.702,-2.832,29,0
44133,-0.451,1.101,0.293,-20.069,25.672,11.359,26,0
44190,-0.164,0.635,0.871,-7.221,-17.183,-3.588,26,0
44244,-0.327,1.175,0.079,-6.603,15.359,-15.702,29,0
44299,-0.274,0.665,0.617,-43.153,-9.672,2.069,30,0
44353,-0.283,0.781,0.576,15,10.626,-9.702,27,0
44406,-0.458,0.833,0.626,-21.397,-11.687,2.321,26,0
44461,-0.325,0.726,0.635,28.679,-1.527,0.649,16,0
44514,-0.381,1.047,0.348,-11.336,-3.473,2.847,16,0
44568,-0.296,0.68,0.714,12.611,2.977,5.901,30,0
44622,-0.49,0.97,0.546,34.649,-12.351,12.389,28,0
44680,-0.164,0.851,0.357,13.389,-14.603,10.183,28,0
44733,-0.354,1.008,0.296,19.695,2.588,10.427,26,0
44787,-0.214,0.792,0.529,-12.214,-14.748,13.313,25,0
44841,-0.26,0.874,0.508,22.908,7.809,3.824,27,0
44896,-0.156,0.983,0.249,-33.527,-4.29,-2.435,27,0
44993,-0.157,1.095,0.154,15.443,1.252,-10.137,29,0
45047,-0.292,0.807,0.474,-40.565,10.511,0.099,27,0
45102,-0.28,0.831,0.666,38.901,1.084,3.122,26,0
45155,-0.268,0.946,0.177,-8.55,-8.771,-2.939,16,0
45209,-0.351,0.882,0.652,20.374,-0.74,12.779,30,0
45266,-0.252,0.981,0.357,8.656,5.588,1.397,25,0
45320,-0.257,0.942,0.422,17.252,-10.809,9.198,25,0
45374,-0.171,0.842,0.33,28.672,-28.863,-8.733,25,0
45428,-0.321,1.083,0.048,-49.809,22.519,-16.031,26,0
45483,-0.039,0.699,0.438,-66.87,-23.168,-58.916,26,0
45537,-0.046,0.871,0.098,-94.145,67.527,-81.58,26,0
45591,-0.679,0.51,0.857,-129.061,36.763,-83.534,28,0
45645,-0.303,0.558,0.47,-117.061,-3.443,-90.366,28,0
45700,-0.654,0.425,0.809,-141.71,51.389,-90.641,30,0
45758,-0.736,0.171,0.703,-78.687,18.786,-82.763,33,0
45812,-0.862,0.591,0.8,-110.809,22.58,-63.443,35,0
45868,-0.783,-0.204,0.8,-77.153,-28.107,-50.687,36,0
45919,-0.312,0.461,0.526,-52.176,18.557,-64.473,39,131
45964,-0.966,-0.418,0.935,-127.053,-4.214,-69.481,44,36
46010,-0.649,-0.439,0.728,-27.092,-10.076,-69.084,39,36
46056,-0.659,0.336,0.625,-68.206,39.931,-52.534,41,35
46101,-0.954,-0.659,0.923,-102.939,-50.328,-69.389,42,33
46155,-0.332,-0.264,0.502,-12.374,10.908,-57.183,44,119
46205,-0.833,-0.164,0.859,-105.29,25.13,-51.84,51,119
46267,-0.544,-0.759,0.646,-25.84,-62.107,-52.832,48,0
46312,-0.606,-0.164,0.589,-47.573,93.321,-20.626,48,31
46357,-1.12,-0.813,0.997,-71.901,-66.008,-34.992,50,30
46402,-0.233,-0.629,0.44,11.55,-21.076,-24,50,30
46447,-0.642,-0.259,0.682,-28.885,81.557,-2.481,50,30
46502,-0.912,-0.889,0.839,-52.038,-81.908,-23.878,51,0
46557,-0.054,-0.489,0.295,33.015,46.565,-12.481,51,0
46615,-1.106,-0.644,1.026,-61.527,-10.412,-13.542,51,0
46670,0.009,-0.735,0.201,7.992,-45.374,-31.771,59,0
46726,-0.816,-0.422,0.638,-39.611,108.878,-0.664,61,0
46782,-0.487,-0.865,0.501,-22.328,-104.305,-35.183,60,0
46837,-0.193,-0.446,0.265,-6.611,110.733,-12.74,61,0
46893,-1.055,-1,0.906,-49.069,-82.336,-35.107,61,0
46948,0.222,-0.682,0.006,7.092,32.45,-29.695,58,0
47004,-1.18,-0.875,1.025,-42.168,27.458,-11.412,60,0
47063,0.035,-0.695,0.137,2.214,-31.351,-16.87,59,0
47120,-0.693,-0.604,0.675,-31.519,61.145,-10.13,91,0
47175,-0.447,-1.05,0.219,-24.908,-60.069,-5.046,62,0
47230,-0.085,-0.277,0.38,-0.344,84.977,-14.221,61,0
47287,-0.827,-1.059,0.609,-44.992,-48.557,-39.015,58,0
47342,-0.094,-0.832,0.182,17.687,26.58,14.588,58,0
47399,-0.578,-0.714,0.698,-29.756,46.985,-27.267,90,0
47457,-0.505,-1.384,0.143,6.756,-48.824,22.947,90,0
47513,-0.065,-0.346,0.365,-7.878,62.878,-25.237,90,0
47574,-0.873,-1.41,0.281,3.458,-26.824,27.115,90,0
47631,0.154,-0.307,0.28,0.588,-2.008,-32.198,90,0
47731,-0.012,-0.439,0.428,12.939,-57.107,-26.221,90,0
47787,-0.731,-1.216,0.267,-2.015,55.939,36.038,58,0
47844,-0.098,-0.486,0.406,10.885,-63.328,-32.405,90,0
47900,-0.664,-1.182,0.229,-5.244,48.267,32.748,59,0
47955,0.036,-0.45,0.268,13.191,-20.496,-33.832,59,0
48013,-0.827,-1.307,0.435,-17.702,30.084,19.191,91,0
48070,-0.1,-0.52,0.378,-0.13,-13.389,-3.924,91,0
48131,-0.926,-0.978,0.745,-19.679,-62.046,5.527,90,0
48186,0.414,-1.024,-0.019,15.87,-142.344,-19.145,58,0
48243,-0.505,-0.435,0.103,-5.008,250.13,56.13,90,0
48301,-0.922,-1.123,0.489,-7.55,-250.137,-35.908,90,0
48358,0.731,-0.464,-0.541,19.969,206.038,25.542,89,0
48415,-1.736,-1.316,1.375,-10.611,-155.115,-10.008,90,0
48473,1.053,-0.448,-0.657,38.565,48.229,-1.527,89,0
48530,-1.909,-1.232,1.451,-21.679,-6.664,13.603,90,0
48586,0.798,-0.593,-0.432,41.87,-80.924,-21.313,58,0
48647,-1.593,-0.976,1.259,-25.099,111.748,37.412,91,0
48702,0.33,-0.799,-0.076,29.107,-175.313,-29.794,56,0
48757,-0.578,-0.521,0.436,-7.092,229.221,51.763,57,0
48805,-0.763,-1.065,0.532,-0.763,-246.275,-25.115,88,24
48861,0.825,-0.517,-0.5,33.977,92.305,13.977,54,0
48918,-1.894,-1.153,1.557,-23.802,-5.74,21.931,89,0
48973,0.671,-0.6,-0.292,34.069,-82.519,-5.847,52,0
49031,-1.305,-0.762,1.126,-8.802,137.779,55.305,90,0
49089,0.01,-0.791,0.149,20.168,-158.412,-2.931,51,0
49144,-0.349,-0.589,0.578,38.244,125.26,46.649,57,0
49200,-0.892,-0.942,0.709,-4.901,-109.107,7.137,52,0
49255,0.202,-0.647,0.099,36.282,11.214,19.901,52,0
49310,-1.373,-0.594,1.12,-5.733,38.962,45.832,53,0
49356,-0.03,-0.837,0.26,15.656,-188.611,2.763,51,30
49401,0.098,-0.361,0.028,46.763,184.473,52.885,51,30
49448,-1.845,-0.872,1.495,-20.565,-26.557,39.046,88,29
49495,0.21,-0.766,0.203,24.466,-189.412,-4.527,51,30
49545,-0.195,-0.247,0.249,23.115,206.962,55.84,86,30
49592,-1.565,-0.884,1.34,-20.863,-134.527,12.618,85,29
49640,0.506,-0.508,-0.002,34.031,-76.573,7.519,84,32
49687,-0.924,-0.26,0.915,2.649,165.916,63.519,83,32
49734,-1.006,-0.728,0.918,-11.084,-178.046,11.573,82,33
49780,0.351,-0.445,0.156,36.656,10.885,26.298,44,35
49827,-1.108,-0.349,1.098,4.695,82.718,52.924,82,36
49875,-0.7,-0.716,0.787,-3.756,-171.229,19.252,80,39
49932,0.329,-0.252,0.164,45.214,60.687,30.214,78,0
49992,-1.406,-0.575,1.28,-15.023,-57.504,35.588,80,0
50049,0.336,-0.39,0.313,29.16,-34.084,18.977,76,0
50104,-1.246,-0.249,1.122,1.229,87.786,56.435,44,0
50159,-0.151,-0.503,0.571,6.595,-123,10.023,44,0
50213,-0.518,-0.029,0.714,30.145,150.038,52.664,44,0
50269,-1.05,-0.462,1.012,-27.443,-129.122,23.405,43,0
50323,0.159,-0.091,0.402,36.099,51.221,31.374,37,0
50378,-1.428,-0.305,1.29,-18.206,-1.206,45.389,39,0
50476,-0.541,0.035,0.772,28.71,105.496,51.542,38,0
50534,-0.829,-0.226,0.9,-19.366,-95.176,39.031,38,0
50588,-0.136,-0.15,0.625,26.435,32.962,40.863,36,0
50642,-0.978,-0.033,1.099,-8.725,-2.115,43.45,36,0
50697,-0.292,-0.238,0.751,11.702,-42.733,26.969,32,0
50751,-0.705,0.181,0.929,17.13,46.282,36.718,30,0
50805,-0.542,-0.161,0.801,-32.794,-95.458,17.527,28,0
50860,-0.26,-0.009,0.793,42.641,49.817,23.885,30,0
50914,-0.936,0.159,1.015,-33.573,-41.282,23.122,27,0
50968,-0.126,-0.21,0.744,-5.863,-46.863,21.069,29,0
51025,-0.673,0.315,0.939,19.366,72.313,32.321,26,0
51079,-0.612,-0.053,0.949,-45.176,-99.115,15.519,27,0
51134,-0.114,0.006,0.777,35.779,53.695,21.008,30,0
51187,-0.972,0.128,1.038,-30.916,-25.092,21.679,24,0
51241,-0.078,-0.118,0.728,-10.718,-24.504,15.42,27,0
51296,-0.71,0.241,1.027,19.504,51.74,29.031,26,0
51349,-0.407,0.008,0.883,-49.115,-92.573,4.405,23,0
51403,-0.382,-0.017,0.939,31.664,68.527,27.298,23,0
51458,-0.683,0.207,1.007,-17.84,-63.366,12.275,23,0
51515,-0.156,-0.078,0.798,-2.977,24.931,27.618,26,0
51568,-0.424,0.221,1.059,13.321,-24.191,0.122,22,0
51622,-0.568,-0.138,0.817,-26.679,32.511,16.679,27,0
51677,-0.237,0.278,1.019,18.969,-39.405,1.298,23,0
51730,-0.715,-0.244,0.8,-28.794,67.45,18.29,24,0
51784,-0.247,0.25,1.16,31.947,-72.947,7.969,25,0
51838,-0.463,-0.257,0.685,-26.977,66.305,2.916,24,0
51893,-0.531,0.26,1.176,15.519,-76.565,13.321,22,0
51946,-0.198,-0.199,0.587,-31.26,66.115,-1.74,23,0
52003,-0.613,0.293,1.239,6.427,-78.26,10.947,23,0
52058,-0.307,-0.311,0.702,-23.115,65.252,8.351,25,0
52112,-0.526,0.235,1.218,11.252,-64.191,6,25,0
52166,-0.376,-0.151,0.713,-16.168,41.626,2.802,28,0
52230,-0.485,0.232,1.159,17.198,-54.191,6.267,0,0
52294,-0.762,-0.3,0.855,-22.557,74.725,11.832,0,0
52359,0.157,0.342,0.758,1.58,-86.168,-27.573,0,0
52422,-1.153,-0.033,1.396,7.542,54.244,32.573,0,0
52487,0.067,-0.009,0.46,-23.237,15.588,-14.687,0,0
52553,-0.313,0.256,1.067,10.725,-78.649,-12.969,0,0
52618,-0.982,-0.202,1.197,1.099,73.969,33.168,0,0
52682,0.295,0.31,0.55,-9.687,-46.008,-22.137,0,0
52737,-1.096,0.092,1.385,15.466,11.069,29.153,28,0
52791,0.253,0.191,0.505,-19.962,-24.099,-22.427,26,0
52845,-0.956,-0.005,1.341,2.611,23.244,13.336,26,0
52898,0.047,0.14,0.625,-5.969,-20.008,-21.092,26,0
52959,-0.684,0.004,1.221,9.405,-29.74,-10.802,26,0
53012,-0.286,0.114,0.827,4.87,21.634,-3.939,30,0
53069,-0.487,0.056,0.96,4.328,-12.427,-13.023,29,0
53133,-0.396,0.044,0.991,3.908,-0.87,-3.863,0,0
53195,-0.455,0.062,0.95,7.893,-2.672,-4.534,0,0
53250,-0.397,-0.03,1.001,31.687,12.939,5.038,25,0
53346,-0.344,0.001,0.682,-43.26,-35.267,-8.046,23,0
53399,-0.591,0.155,1.11,31.382,44.29,25.679,21,0
53452,-0.071,0.282,0.85,-20.168,-31.725,-17.336,23,0
53506,-0.861,-0.056,1.102,-3.634,47.855,21.191,23,0
53559,-0.137,0.325,0.814,-2.756,-33.344,-6.092,21,0
53615,-0.755,-0.019,0.999,-33.618,28.183,19.374,27,0
53671,-0.148,0.135,0.913,-7.183,-31.466,-9.191,74,0
53728,-0.717,-0.047,1.208,-3.725,26.718,2.534,77,0
53782,-0.397,0.093,1.055,32.618,-3.267,21.153,30,0
53835,-0.138,0.039,0.841,4.466,-17.87,-27.313,25,0
53889,-0.788,-0.034,0.962,10.359,31.55,-5.084,22,0
53945,-0.115,0.339,0.791,11.328,-36.405,-27.031,73,0
54008,-0.815,-0.094,1.097,-6.588,37.176,-3.954,0,0
54062,0.142,0.247,0.781,29.687,-29.618,-41.176,26,0
54128,-0.984,-0.176,1.103,-16.794,39.656,-18.817,0,0
54184,0.085,0.205,0.729,34.718,-30.573,-44.725,74,0
54239,-1,-0.016,1.106,3.656,40.802,-13.527,31,0
54293,0.031,0.072,0.772,19.863,-65.84,-46.534,33,0
54346,-0.78,0.15,0.912,7.107,77.847,-21.527,30,0
54401,-0.503,0.048,0.907,3.55,-67.565,-28.137,27,0
54454,-0.219,0.119,0.737,16.84,51.832,-32.649,29,0
54508,-0.941,0.039,1.076,-14.603,-24.87,-14.038,29,0
54561,-0.061,0.003,0.71,7.603,15.855,-26.702,29,0
54619,-0.846,0.21,0.99,2.435,16.55,-16.42,30,0
54672,-0.331,-0.128,0.816,-16.824,-24.634,-11.939,30,0
54719,-0.487,0.26,0.905,43.527,67.886,-14.809,29,72
54766,-0.948,0.162,0.857,-57.313,-17.29,4.817,31,77
54812,-0.125,-0.237,0.928,-4.565,-47.153,-11.824,31,76
54859,-0.48,0.204,0.813,38.588,120.298,-3.771,33,76
54914,-1.139,-0.006,1.119,-46.672,-59.939,-0.725,34,0
54968,0.123,-0.168,0.577,12.198,30.954,-9.176,34,0
55021,-1.004,0.108,1.097,11.664,28.947,-8.244,30,0
55078,-0.401,-0.247,0.696,-40.893,-19,-2.557,30,0
55133,-0.497,0.02,0.928,36,62.275,-11.328,30,0
55186,-0.839,0.037,0.853,-38.725,-21.42,-6.038,31,0
55240,-0.291,-0.298,0.781,13.832,16.954,-14.26,32,0
55294,-1.136,0.377,1.074,15.847,60.992,20.321,30,0
55349,-0.262,-0.252,0.638,-40.733,-86.298,-17.763,30,0
55403,-0.605,-0.135,0.824,41.107,115.466,12.733,39,0
55457,-0.739,0.136,0.815,-32.282,-69.847,-25.359,34,0
55512,-0.432,-0.334,0.821,-5.466,28.863,-1.496,31,0
55567,-0.604,0.119,0.814,32.176,34.26,-23.061,32,0
55621,-0.808,-0.228,0.796,-51.206,-25.519,-10.344,32,0
55675,-0.286,-0.201,0.688,24.176,36.908,-22.626,32,0
55730,-0.845,-0.035,0.81,-14.947,17.511,-32.641,33,0
55775,-0.586,-0.318,0.743,-38.282,-10.832,-33.626,35,44
55820,-0.725,-0.3,0.813,26.756,56.634,-21.573,35,41
55866,-0.802,0.058,0.741,-2.748,15.977,-29.985,44,41
55911,-0.555,-0.262,0.709,-50.588,-35.061,-35.42,44,40
55960,-0.574,-0.431,0.656,29.336,69.458,-18.237,44,39
56048,-0.534,-0.218,0.623,-62.779,-53.344,-46.458,38,39
56098,-0.532,-0.613,0.655,11.176,49.412,-25.55,38,126
56143,-0.882,-0.001,0.811,14.427,46.779,-29.366,38,37
56188,-0.625,-0.301,0.672,-71.008,-81.939,-48.206,41,36
56237,-0.478,-0.652,0.619,-3.489,19.557,-29.588,84,38
56294,-0.855,-0.119,0.824,15.427,60.634,-20.885,85,0
56351,-0.52,-0.448,0.618,-63.878,-115.573,-56.221,86,0
56409,-0.445,-0.533,0.557,16.176,85.145,-24.489,85,0
56460,-0.915,-0.348,0.843,-43.511,-79.809,-47.855,86,33
56507,-0.293,-0.949,0.381,-24.298,-27.45,-22.076,86,32
56564,-0.489,-0.314,0.609,17.282,86.649,-13.481,86,0
56622,-0.687,-0.648,0.689,-57.382,-71.221,-33.015,85,0
56679,-0.276,-0.712,0.523,7.649,30.542,-6.565,83,0
56734,-0.746,-0.437,0.847,-28.649,-7.725,-22.962,51,0
56792,-0.28,-0.928,0.44,-19,-46.672,-17.664,83,0
56849,-0.483,-0.365,0.672,1.115,80.221,-14.099,83,0
56916,-0.531,-0.926,0.563,-46.969,-100.008,-30.443,49,0
56964,-0.112,-0.529,0.296,22.313,119.519,-8.359,43,30
57022,-1.107,-0.569,1.084,-44.977,8.802,-19.336,48,0
57079,0.162,-0.999,0.167,-8.214,-57.947,-29.611,47,0
57137,-0.692,-0.561,0.622,-1.076,182.557,1.534,49,0
57195,-0.514,-0.926,0.501,-35.702,-120.916,-39.168,50,0
57253,-0.052,-0.628,0.18,6.321,139.656,-7.45,52,0
57313,-0.935,-0.817,0.829,-37.115,-84.031,-37.74,84,0
57373,0.172,-0.875,0.035,3.969,42.198,-12.267,84,0
57437,-0.961,-0.819,0.891,-25.282,-6.252,-23.519,85,0
57496,0.01,-0.999,0.101,-1.16,-15.183,-1.893,85,0
57556,-0.723,-0.699,0.739,-6.069,70.695,-8.145,86,0
57617,-0.176,-1.019,0.219,-6.527,-76.824,-4.076,85,0
57676,-0.231,-0.672,0.326,5.244,106.832,-5.267,85,0
57737,-0.584,-0.99,0.503,-22.702,-103.672,-17.779,85,0
57797,0.155,-0.828,0.108,19.756,60.55,-7.779,85,0
57857,-1.1,-0.892,0.852,-19.214,17.427,-0.733,86,0
57907,0.309,-0.809,-0.042,-6.069,-73.366,-17.962,86,25
57971,-0.507,-0.815,0.29,7.687,175.763,23.534,87,0
58030,-0.248,-0.912,0.339,-13.679,-135.542,-21.603,86,30
58090,0.281,-0.895,-0.056,0.748,91.321,0.695,86,0
58137,-0.899,-0.976,0.85,-16.221,-62.061,-22.786,51,30
58194,0.247,-0.927,-0.097,-2.985,-53.626,-25.26,51,0
58245,-0.803,-0.73,0.686,3.42,102.832,14.504,88,27
58294,-0.352,-0.841,0.316,-16.687,-130.458,-34.015,88,25
58342,0.016,-1.055,-0.032,13.336,65.145,33.382,51,24
58401,-0.623,-0.593,0.73,-8.366,28.45,-14.061,88,0
58452,-0.049,-1.157,0.038,-1.649,-42.809,20.687,51,23
58512,0.032,-0.559,0.327,18.336,81.328,-3.947,88,0
58562,-0.795,-1.134,0.653,-22.13,-89.053,-9.634,88,27
58611,0.262,-0.866,-0.024,7.679,-36.198,-3.84,87,24
58661,-0.409,-0.769,0.336,4.527,120.634,-0.656,89,24
58711,-0.862,-1.051,0.663,-26.656,-130.473,-5.779,88,24
58770,0.61,-0.852,-0.239,20.183,-7.481,-6.809,87,0