Timestamp(ms),AccelX(g),AccelY(g),AccelZ(g),GyroX(deg/s),GyroY(deg/s),GyroZ(deg/s),DistanceLeft(cm),DistanceRight(cm)
35719,-0.681,-0.053,0.749,2.076,0.534,0.603,30,0
35782,-0.704,-0.056,0.763,5.664,-1.939,-5.656,0,0
35846,-0.607,0.005,0.793,8.275,-0.344,-0.733,0,0
35899,-0.599,-0.001,0.83,8.832,-13,-4.015,31,0
35944,-0.547,-0.029,0.819,11.771,3.168,-0.947,26,57
35990,-0.596,-0.013,0.808,16.656,22.931,-0.794,29,64
36043,-0.638,0.04,0.851,19.298,21.435,-3.924,30,0
36097,-0.639,0.101,0.853,17.985,-2.168,-8.496,30,0
36163,-0.591,0.137,0.845,9.366,-10.847,-10.832,0,0
36226,-0.612,0.133,0.867,-0.786,-6.42,-12.198,0,0
36289,-0.654,0.106,0.922,0.626,-9.863,-10.435,0,0
36353,-0.598,0.067,0.897,1.969,-15.16,-13.26,0,0
36409,-0.592,0.041,0.904,-6.397,-4.29,-16.145,16,0
36457,-0.612,-0.002,0.927,-11.145,-4.511,-11.725,16,120
36507,-0.56,-0.04,0.899,-2.954,-20.74,-7.962,16,151
36570,-0.49,-0.065,0.814,2.542,-26.779,-7.412,0,0
36628,-0.519,-0.175,0.79,0.366,-9.321,-10.023,0,113
36691,-0.537,-0.226,0.821,-0.748,-1.771,-4.565,0,141
36750,-0.521,-0.155,0.854,-10.611,6.038,-4.458,0,120
36797,-0.486,-0.136,0.896,-15.198,-4.779,-4.832,9,99
36844,-0.429,-0.066,0.897,-15.153,-3.092,2.534,30,101
36902,-0.428,-0.081,0.866,-12.771,7.794,12.588,0,114
36953,-0.511,-0.105,0.912,-5.756,15.832,13.031,30,135
37013,-0.524,-0.101,0.893,-0.863,6.153,13.649,0,138
37072,-0.472,-0.084,0.88,-2.382,4.679,17.87,0,138
37135,-0.479,-0.048,0.911,-4.924,2.878,20.115,0,139
37198,-0.483,-0.063,0.921,-3.397,-0.634,16.473,0,0
37249,-0.523,-0.09,0.933,0.496,5.382,20.29,30,136
37312,-0.511,-0.066,0.947,2.496,2.382,25.252,0,0
37361,-0.459,-0.005,0.928,-0.45,-1.641,27.58,30,131
37414,-0.524,-0.03,0.903,-5.779,8.649,18.557,29,0
37464,-0.671,-0.091,0.921,-6,15.198,10.885,26,126
37518,-0.655,-0.04,0.874,-0.206,4.916,16.038,26,0
37571,-0.581,-0.008,0.823,-0.878,-0.267,16.481,30,0
37627,-0.607,-0.008,0.757,-4.244,-0.511,10.405,27,0
37691,-0.668,0.015,0.728,-9.71,7.885,5.763,0,0
37754,-0.708,-0.017,0.765,-7.305,9.458,0.763,0,0
37818,-0.592,0.014,0.765,1.389,7.275,0.099,0,0
37871,-0.597,-0.005,0.824,3.053,7.305,-6.908,29,0
37924,-0.603,-0.015,0.833,6.595,6.878,-15.557,29,0
37978,-0.644,0.016,0.866,12.015,3.45,-23.45,27,0
38029,-0.663,0.036,0.879,16.336,-2.763,-24.351,28,145
38079,-0.641,0.099,0.877,17.916,-7.931,-23.901,27,144
38129,-0.603,0.131,0.896,14.947,-14.679,-22.153,29,145
38193,-0.602,0.11,0.874,10.748,-18.588,-21.901,0,144
38253,-0.657,0.06,0.846,4.992,-5.298,-24.145,0,145
38302,-0.651,0.049,0.901,-4.443,3.908,-15.611,16,145
38363,-0.644,-0.057,0.892,-7.023,-12.137,-9.229,0,146
38413,-0.546,-0.172,0.787,-1.458,-24.443,-7.473,16,147
38473,-0.49,-0.204,0.733,3.695,-8.153,-7.687,0,148
38566,-0.584,-0.178,0.884,3.473,3.344,-18.405,27,149
38628,-0.497,-0.091,0.908,3.137,-4.626,-11.878,0,149
38680,-0.411,-0.014,0.87,3.489,-6.885,-11.153,9,147
38740,-0.446,-0.007,0.869,-0.779,-3.313,-7.16,0,147
38790,-0.47,-0.042,0.87,-7.359,-5.748,0.664,9,144
38839,-0.466,-0.061,0.884,-10.489,-9.244,5.618,7,144
38888,-0.429,-0.067,0.912,-13.511,-10.817,7.084,7,148
38937,-0.399,-0.083,0.948,-15.71,-16.023,6.863,6,146
38998,-0.426,-0.053,0.971,-9.718,4.573,15.534,0,145
39058,-0.522,-0.093,1.011,-1.351,2.076,19.038,0,145
39118,-0.515,-0.096,0.947,1.038,-10.092,16.252,0,144
39182,-0.559,-0.093,0.944,-6.763,10.802,21.649,0,143
39232,-0.627,-0.116,1.021,-4.061,8.985,25.153,16,144
39282,-0.549,-0.052,0.884,2.924,-9.359,27.427,16,147
39346,-0.531,-0.023,0.778,1.191,-7.641,20.519,0,0
39409,-0.704,-0.071,0.797,-2.58,-3.267,6.252,0,0
39473,-0.565,-0.015,0.778,2.863,-15.191,7.679,0,0
39529,-0.529,0,0.848,-5.679,-14.718,4.122,16,0
39582,-0.565,-0.089,0.913,-4.603,-41.405,-3.366,18,0
39646,-0.41,-0.037,0.862,-1.611,-42.557,-10.473,0,0
39702,-0.388,0.01,0.909,-2.649,-19.893,-16.382,17,0
39766,-0.448,-0.016,0.979,-3.092,-18.84,-24.397,0,0
39829,-0.417,-0.008,1.051,3.519,-14.328,-23.481,0,0
39894,-0.399,0.023,1.018,7.382,-10.031,-18.183,0,0
39939,-0.433,-0.054,1.033,-2.038,-9.023,-23.634,16,74
39992,-0.393,-0.118,1.023,-11.092,-5.954,-20.26,9,0
40045,-0.337,-0.16,1.03,-7.008,-10.557,-6.611,16,0
40098,-0.303,-0.232,0.935,2.099,-13.824,-8.527,17,0
40162,-0.26,-0.216,0.887,5.824,1.214,-16.779,0,0
40218,-0.315,-0.221,0.986,1.008,14.695,-17.023,16,0
40274,-0.277,-0.158,0.972,-1.351,-2.863,-11.153,0,77
40332,-0.237,-0.119,0.923,-4.779,0.313,-2.985,0,78
40378,-0.271,-0.126,0.935,-4.702,1.145,-1.916,16,78
40441,-0.246,-0.136,0.953,-4.321,8.977,-1.542,0,0
40498,-0.289,-0.168,1.036,1.13,10.557,3.42,9,0
40550,-0.232,-0.114,1.022,7.679,3.053,8.71,9,0
40613,-0.182,-0.062,0.981,10.702,11.252,8.702,0,0
40678,-0.277,-0.03,0.99,14.366,29.031,6.298,0,0
40734,-0.398,-0.02,1.016,15.481,31.336,17.565,16,0
40791,-0.505,-0.024,1.006,8.588,24.489,22.351,10,0
40854,-0.536,-0.059,0.982,-2.893,16.031,19.168,0,194
40904,-0.505,-0.063,0.973,-12.832,4.389,30.008,16,151
40965,-0.468,-0.094,0.925,-12.519,-12,27.122,0,147
41028,-0.532,-0.232,0.809,-7.168,-14.389,13.977,0,184
41081,-0.635,-0.175,0.868,-6.344,12.344,13.542,18,0
41134,-0.494,-0.061,0.852,-4.847,0.145,16.992,17,181
41197,-0.424,-0.077,0.865,-5.527,8.71,16.435,0,180
41251,-0.457,-0.065,0.952,13.672,9.901,1.786,16,178
41314,-0.461,0.015,0.891,23.542,7.275,-12.008,0,177
41373,-0.501,0.094,0.892,17.725,5.321,-15.45,0,123
41464,-0.504,0.142,0.956,1.137,-4.466,-7.817,9,118
41513,-0.486,0.157,0.996,-6.878,-12.305,-2.847,16,116
41562,-0.466,0.114,1,-11.008,-23.206,-5.412,9,113
41609,-0.449,0.05,0.97,-15,-15.008,-12.977,9,111
41657,-0.463,0.035,0.957,-24.374,6.992,-9.565,7,109
41704,-0.519,-0.079,1.01,-32.931,7.954,4.313,16,108
41758,-0.472,-0.224,0.918,-17.679,-18.954,2.16,6,163
41817,-0.407,-0.199,0.79,-5.313,-4.031,-12.489,0,117
41867,-0.475,-0.239,0.848,-2.832,18.687,-16.74,6,136
41915,-0.532,-0.271,0.955,-1.55,3.863,-21.939,6,136
41964,-0.405,-0.168,0.966,-2.313,-13.374,-18.985,7,136
42013,-0.308,-0.143,0.948,-0.954,-16.008,-17.344,4,135
42072,-0.293,-0.114,0.927,6.092,-2.305,-14.962,0,107
42120,-0.397,-0.108,0.982,13.718,-0.504,-8.992,16,108
42168,-0.423,-0.146,0.983,20.802,-11.672,0.954,16,93
42217,-0.318,-0.097,0.907,22.229,1.511,12.496,17,90
42275,-0.368,-0.079,0.951,17.42,6.221,14.26,0,94
42333,-0.374,-0.049,0.934,12.992,-8.458,13.954,0,86
42383,-0.368,0.012,0.945,3.092,7.031,25.137,74,84
42430,-0.418,0.01,1.01,-5.84,10.687,34.481,16,99
42488,-0.443,-0.04,1.019,-11.656,4.13,28.42,0,104
42541,-0.46,-0.109,1.009,-6.664,2.786,12.809,88,106
42592,-0.482,-0.026,0.916,-1.16,12.534,19.389,90,89
42643,-0.552,0.021,0.811,-9.954,26.748,29.137,91,81
42694,-0.672,-0.026,0.769,-22.137,21.511,25.405,30,102
42750,-0.672,-0.044,0.819,-25.779,12.328,17.87,30,117
42802,-0.543,-0.021,0.817,-18.473,0.595,20.29,91,112
42863,-0.521,-0.043,0.862,-15.412,0.328,10.725,0,172
42916,-0.515,-0.05,0.915,-4.55,-1.252,2.771,16,0
42980,-0.511,-0.007,0.893,5.389,-0.237,-4.198,0,0
43035,-0.524,0.051,0.92,7.176,-8.489,-8.382,9,0
43081,-0.535,0.023,0.941,4.756,-9.939,-14.656,6,102
43131,-0.542,0.008,0.995,4.939,-14.649,-14.084,6,162
43184,-0.549,-0.033,1.008,0.275,-15.45,-25.504,9,152
43238,-0.572,-0.134,1.081,3.481,8.405,-28.802,84,157
43284,-0.497,-0.152,1.073,18.977,-11.031,-32.611,6,98
43336,-0.387,-0.114,0.931,31.863,-27.695,-31.061,72,147
43386,-0.36,-0.124,0.786,34.061,-7.588,-27.122,71,85
43437,-0.451,-0.163,0.801,31.573,16.45,-25.809,71,103
43484,-0.523,-0.13,0.905,22.626,11.038,-23.702,27,94
43533,-0.472,-0.106,0.927,7.298,-10.893,-23.405,70,87
43585,-0.316,-0.041,0.873,-3.359,-12.641,-14.313,67,84
43634,-0.313,-0.048,0.86,-5.87,1.206,-12.282,68,87
43683,-0.375,-0.056,0.886,-5.557,8.275,-11.282,67,90
43732,-0.4,-0.046,0.92,-9.443,10.603,-3.076,67,92
43782,-0.399,-0.068,0.98,-11.656,4.29,2.695,68,89
43831,-0.346,-0.067,0.975,-8.756,-1.023,9.885,68,92
43880,-0.32,-0.054,0.994,-7.053,2.756,13.412,68,88
43929,-0.365,-0.067,0.975,-5.359,3.42,15.198,68,89
43975,-0.394,-0.076,0.987,-6.344,8.489,21.191,16,86
44072,-0.435,-0.057,1.004,-10.664,3.725,23.901,72,111
44130,-0.476,-0.065,0.948,-17.527,8.679,23.313,0,100
44176,-0.553,-0.138,0.974,-19.038,6.137,20.771,9,80
44238,-0.555,-0.169,0.936,-8.656,-9.443,13.634,0,0
44295,-0.535,-0.175,0.815,-0.962,-0.771,-1.374,8,0
44341,-0.611,-0.221,0.829,7.061,-4.351,-17.229,7,103
44387,-0.626,-0.218,0.812,14.779,-1.588,-31.573,9,86
44444,-0.58,-0.212,0.838,22,-2.382,-38.397,0,94
44489,-0.555,-0.169,0.835,29.786,10.221,-44.672,9,72
44537,-0.596,-0.178,0.876,37.229,4.115,-52.58,9,75
44582,-0.573,-0.142,0.857,42.595,-3.542,-60.489,9,68
44638,-0.572,-0.128,0.854,44.344,0.817,-70.351,0,65
44683,-0.601,-0.082,0.879,49.198,-0.695,-77.969,16,61
44728,-0.613,-0.072,0.908,51.489,0.206,-80.115,16,59
44772,-0.647,-0.062,0.958,58.733,-9.878,-80.534,16,58
44816,-0.523,-0.055,0.834,64.435,-7.275,-84.611,9,57
44871,-0.5,0.027,0.861,63.038,23.282,-85.786,0,57
44926,-0.595,0.042,0.886,54.366,15.351,-80.855,0,57
44985,-0.519,0.044,0.855,40.611,-7.168,-72.405,0,58
45040,-0.419,0.033,0.819,27.069,2.656,-62.275,0,59
45095,-0.445,-0.031,0.862,19.557,11.901,-61.939,0,60
45151,-0.48,-0.078,0.921,14.153,8.71,-65.656,0,61
45207,-0.468,-0.092,0.963,10.763,5.374,-58.137,0,63
45262,-0.394,-0.049,0.965,10.763,0.267,-52.947,0,65
45319,-0.41,-0.058,0.954,11.168,0.588,-51,0,66
45374,-0.477,-0.096,0.996,16.015,5.336,-44.023,0,67
45430,-0.452,-0.116,0.958,23.031,0.901,-38.534,0,76
45490,-0.386,-0.084,0.925,25.198,1.573,-39.695,0,72
45546,-0.403,-0.094,0.925,23.695,0.366,-43.122,0,72
45602,-0.408,-0.107,0.955,21.145,7.519,-41.397,0,71
45659,-0.465,-0.107,0.99,19.13,1.069,-39.985,0,72
45705,-0.413,-0.111,0.958,16.527,-12.229,-36.901,19,77
45753,-0.376,-0.105,0.944,15.962,-15.183,-37.076,30,99
45809,-0.372,-0.111,0.942,14.389,-12.275,-35.573,0,84
45872,-0.383,-0.125,0.961,14.29,-9.58,-33.817,0,178
45919,-0.351,-0.109,0.98,16.229,-16.29,-34.275,9,93
45972,-0.328,-0.103,0.97,17.45,-10.649,-31.458,9,178
46029,-0.316,-0.067,0.975,15.779,-5.115,-26.519,0,89
46093,-0.307,-0.046,0.991,9.527,1.099,-17.481,0,186
46150,-0.338,-0.051,1.007,7.046,2.626,-8.656,0,93
46208,-0.315,-0.067,0.996,5.908,-1.771,-5.046,0,91
46270,-0.329,-0.077,1.003,4.534,4.817,0.046,0,184
46332,-0.332,-0.099,1,4.344,-2.885,-0.023,0,181
46385,-0.337,-0.11,0.973,3.427,-0.298,-0.542,16,179
46446,-0.347,-0.115,0.959,3.931,1.145,-0.985,0,177
46512,-0.367,-0.13,0.953,5.481,2.84,-8.824,0,173
46573,-0.379,-0.134,0.952,6.87,8.092,-15.939,0,172
46636,-0.401,-0.11,0.996,9.359,7.176,-19.656,0,170
46697,-0.39,-0.087,0.99,11.771,3.855,-19.924,0,169
46755,-0.42,-0.094,0.953,16.45,6.053,-23.992,96,0
46856,-0.43,-0.051,0.898,21.16,1.733,-29.359,99,0
46914,-0.458,-0.014,0.914,19.771,11.099,-38.397,99,0
46978,-0.455,0.008,0.949,21.588,13.145,-37.557,0,0
47041,-0.401,0.005,0.969,24.947,5.023,-35.908,0,0
47108,-0.392,0.015,0.935,34.351,34.771,-44.962,0,0
47164,-0.497,0.048,0.97,39.626,20.198,-58.313,6,0
47221,-0.464,0.096,0.935,37.924,7.519,-62.771,100,0
47275,-0.472,0.116,0.922,30.809,8.908,-63.366,16,0
47328,-0.496,0.131,0.947,23.855,2.252,-62.321,16,0
47392,-0.496,0.142,0.965,19.794,-6.244,-57.321,0,0
47449,-0.503,0.107,0.983,20.084,-11.435,-50.634,9,0
47501,-0.5,0.03,0.959,17.908,0.603,-52.206,9,0
47564,-0.536,-0.064,1.056,13.626,7.962,-50.511,0,0
47631,-0.409,-0.072,0.955,15.542,-8.656,-45.901,0,0
47695,-0.364,-0.058,0.849,14.412,2.137,-33.649,0,0
47759,-0.426,-0.106,0.854,14.305,2.87,-33.802,0,0
47822,-0.434,-0.159,0.915,10.031,2.275,-31.176,0,0
47884,-0.414,-0.168,0.986,6.145,3.817,-23.588,159,0
47947,-0.324,-0.092,0.948,7.328,-3.321,-20.58,0,0
48011,-0.32,-0.115,0.925,9.427,2.473,-21.183,0,0
48075,-0.369,-0.111,0.933,7.634,12.45,-18.038,0,0
48139,-0.369,-0.108,0.967,7.496,7.496,-10.489,0,0
48205,-0.316,-0.055,0.948,7.076,7.313,-5.351,0,0
48269,-0.378,-0.064,0.981,6.687,11.397,0.084,0,0
48331,-0.417,-0.066,1.002,9.779,6.115,4.084,0,167
48395,-0.387,-0.06,0.991,7.351,6.305,9.13,0,0
48456,-0.445,-0.073,1,0.382,3.298,7.916,0,162
48518,-0.478,-0.097,0.988,-0.489,5.336,3.962,0,159
48579,-0.529,-0.085,0.94,1.13,6.298,0.863,0,155
48637,-0.538,-0.066,0.892,2.458,4.023,4.275,152,154
48699,-0.552,-0.068,0.85,5.389,0.038,3.763,0,152
48759,-0.57,-0.037,0.784,8.649,7.863,1.924,152,151
48821,-0.613,-0.033,0.828,11.748,12.969,0.481,200,150
48881,-0.611,0.016,0.828,13.855,4.496,-8.985,199,149
48943,-0.557,0.04,0.854,11.198,0.397,-13.053,200,147
48994,-0.525,0.076,0.871,9.282,2.962,-11.298,29,147
49045,-0.531,0.069,0.886,6.053,3.626,-15.321,29,147
49103,-0.539,0.072,0.859,3.771,2.443,-18.008,173,146
49163,-0.554,0.091,0.86,-1.985,6.023,-17.191,174,143
49222,-0.556,0.091,0.865,-4.511,-0.198,-13.13,174,142
49289,-0.525,0.094,0.884,-8.435,-3.351,-9.74,0,0
49340,-0.579,0.067,0.942,-9.321,-3.481,-4.802,30,139
49400,-0.567,0.044,0.987,-6.565,-12.229,-3.985,0,139
49451,-0.5,0.023,0.971,-1.595,-23.061,-8.55,17,141
49503,-0.491,-0.006,0.977,-3.214,-14.695,-17.168,9,0
49560,-0.514,-0.049,0.997,-5.603,-13.489,-16.405,9,0
49616,-0.494,-0.088,0.973,-2.061,-2.061,-2.695,69,0
49673,-0.469,-0.139,0.92,3.786,-24.939,-7.794,65,0
49729,-0.396,-0.166,0.817,7.412,-13.137,-8.191,64,0
49785,-0.449,-0.204,0.907,9.969,1.069,-7.771,16,0
49883,-0.392,-0.18,0.941,3.626,-18.099,-14.321,30,0
49939,-0.319,-0.142,0.914,0.351,-16.985,-16.244,62,0
49998,-0.328,-0.138,0.898,1.244,2.634,-8.756,9,0
50054,-0.375,-0.107,0.952,0.053,0.847,-7.115,62,0
50109,-0.355,-0.104,0.961,2.099,-11.466,-5.641,62,0
50164,-0.312,-0.068,0.948,-0.489,-2.366,3.557,64,0
50220,-0.277,-0.052,1,-4.061,-4.748,17.45,64,0
50275,-0.25,-0.17,0.996,0.55,5.794,21.763,65,0
50333,-0.219,-0.148,1.013,14.305,8.519,9.122,67,0
50388,-0.241,-0.15,1.044,21.779,16.389,0.733,69,0
50445,-0.145,-0.248,1.001,30.214,11.466,-23,72,0
50499,-0.163,-0.194,0.701,21.389,47.107,-64.962,76,172
50550,-0.514,0.447,0.253,10.489,160.145,-97.076,16,166
50601,-1.071,-0.102,0.71,-51.847,111.58,-56.573,30,162
50656,-0.737,-0.57,0.83,-54.435,26.992,-55.405,87,159
50707,-0.754,-0.076,0.655,-59.977,61.863,-92.504,33,157
50758,-1.358,-0.459,0.642,-87.427,40.641,-35.718,34,153
50816,-0.785,-0.761,0.545,-31.832,-2.779,-35.229,93,151
50867,-0.458,-1,0.772,-7.656,29.16,-62.87,37,150
50917,-1.074,-0.465,0.503,10.374,46.878,-71.198,37,127
50967,-1.461,-0.388,0.496,16.908,-5.427,-14.382,37,149
51021,0.017,-0.637,0.704,42.137,-65.206,-21.061,94,151
51074,0.298,0.224,0.388,11.412,58.473,-49.252,96,93
51123,-1.312,0.213,0.545,-55.611,118.916,20.656,99,73
51173,-0.986,-0.904,0.615,-50.962,-57.733,38.557,37,124
51225,-0.001,-1.307,0.422,-53.473,19.466,-5,37,122
51272,-0.841,-0.939,0.6,-33.969,42.237,-43.687,43,71
51318,-1.139,-0.246,0.573,-12.328,19.847,-24.435,39,70
51367,-0.78,-0.632,0.662,10,-33.076,9.55,35,104
51417,-0.638,-0.58,0.449,32.092,18.244,22.557,36,120
51464,-1.133,-0.348,0.626,34.214,12.84,49.985,38,70
51510,-1.05,-0.65,0.769,35.664,-21.901,68.336,37,71
51559,-0.884,-0.732,0.8,51.313,-20.618,80.26,31,126
51612,-0.628,-0.632,0.678,64.168,-41.992,62.397,60,149
51666,-0.478,-0.537,0.414,60.588,-46.588,55.443,29,155
51717,0.09,-0.353,0.064,40.885,-24.672,2.153,29,155
51768,-0.105,-0.375,0.125,-21.137,36.153,-83.137,29,154
51819,-1.093,-0.229,0.809,-20.168,55.13,-73.947,30,150
51870,-1.04,-0.258,0.932,-12.977,1.595,-56.298,30,148
51919,-1.369,-0.403,1.309,30.504,29.427,11.534,30,125
51966,-1.108,-0.22,1.018,80.046,-49.496,44.634,28,76
52017,-1.073,-0.398,1.032,105.458,-40.885,93.168,27,150
52074,-0.837,-0.378,0.922,130.458,-55.809,97.084,30,0
52128,-0.917,-0.187,1.016,154.053,-60.786,125.427,26,0
52182,-0.239,-0.317,0.441,194.023,-57.603,101.252,26,0
52236,-0.203,0.146,-0.253,154.87,-27.046,70.763,27,0
52289,-0.073,0.303,0.052,-19.13,16.908,0.634,27,0
52343,-0.755,0.263,1.192,2.992,8.725,-23.008,28,0
52397,-0.35,0.534,0.775,-25.145,3.626,-53.229,29,0
52451,-0.714,0.363,0.543,-39.74,5.382,-68.26,27,0
52548,-0.767,0.177,0.984,-41.168,13.687,-19.71,28,0
52604,-0.853,0.306,1.037,5.557,6.29,12.046,28,0
52659,-0.999,0.183,1.269,51.687,-11.137,54.855,28,0
52712,-0.646,0.437,0.846,79.603,-23.275,76.809,26,0
52766,-0.412,0.2,0.524,88.382,-25.802,73.74,26,0
52819,-0.3,0.295,0.54,64.58,-31.954,24.595,26,0
52874,-0.558,0.611,0.504,39.878,-1.763,30.168,30,0
52928,-0.332,0.839,0.546,25.641,-5.885,29.298,27,0
52981,-0.445,0.461,1.197,2.42,-13.855,6.863,26,0
53035,-0.438,0.904,0.853,53.832,-40.084,2.542,16,0
53092,-0.5,0.78,0.164,15.565,-9.015,21.069,26,0
53145,-0.325,0.647,0.496,10.542,-7.397,27.931,25,0
53198,-0.509,0.55,1.226,56.168,-12.389,44.099,16,0
53253,-0.243,0.854,0.461,83.275,-4.42,43.42,27,0
53306,-0.245,0.739,0.37,59.031,-23.107,38.023,26,0
53360,-0.309,0.658,0.772,67.679,-4.794,33.115,29,0
53408,-0.187,0.828,0.689,81.115,-49.779,28.198,30,92
53455,-0.08,0.735,0.044,83.855,-31.802,6.901,28,90
53500,-0.167,1.125,0.16,40.649,-17,-5.664,16,66
53552,-0.144,1.286,-0.131,1.16,5.084,-7.588,27,88
53597,-0.226,0.961,0.617,-14.573,-2.458,2.595,26,58
53644,-0.218,0.907,0.209,5.145,6.534,-1.565,16,88
53689,-0.137,0.895,0.21,-15.122,4.58,-4.634,16,66
53735,-0.237,0.818,0.451,-11.947,18.435,-11.519,28,54
53780,-0.439,0.968,0.765,16.244,-0.405,10.153,29,54
53826,-0.046,1.006,0.112,7.832,-7.511,6.092,31,52
53871,-0.363,0.845,0.676,-1.656,-6.267,13.374,32,51
53917,-0.111,0.971,0.444,24.618,-20.527,8.298,30,53
53971,-0.244,1.05,0.694,27.26,-7.443,8.061,100,88
54022,-0.455,0.842,1.257,59.481,-60.405,40.977,65,86
54079,-0.003,0.828,-0.628,83.183,-130.908,-1.725,0,86
54124,-0.031,1.178,-0.618,-13.809,-23.87,-0.29,26,53
54170,0.246,1.096,-0.249,-27.389,18.863,-20.328,26,53
54215,-0.279,1.059,0.351,-31.924,52.198,-7.107,29,51
54261,-0.346,0.794,0.673,-5.947,4.802,11.916,28,52
54318,0.053,0.865,0.308,33,7.244,4.969,0,86
54366,-0.216,0.884,0.322,22.618,12.71,3.733,30,86
54414,-0.105,0.911,0.274,29.282,3.389,1.107,29,53
54460,-0.177,0.979,0.39,40.481,4.473,1.931,28,54
54505,-0.186,1.04,0.303,41.977,-9.458,8.061,29,52
54552,-0.117,0.993,0.147,41.542,-20.412,9.443,28,86
54609,-0.153,1.004,0.144,42.626,-6.832,7.626,28,86
54654,0.047,1.106,-0.531,50.695,-10.382,-3.618,28,57
54700,-0.015,1.248,-0.27,-32.099,26.466,-12.145,30,53
54745,-0.136,1.134,0.494,-51.496,3.511,-14.313,27,55
54790,-0.31,1.217,0.536,21.244,-20.71,5.786,27,55
54838,0.069,1.118,-0.525,7.26,-24.481,14.237,27,55
54883,0.175,0.875,-0.942,-45.786,52.58,-4.511,29,53
54928,-0.391,0.836,0.515,-76.374,65.573,-17.527,26,56
54973,-0.082,1.034,0.635,-48.153,13.305,-14.718,16,65
55061,-0.248,1.205,0.012,-54.176,-0.405,-22.611,26,56
55107,-0.273,1.026,0.499,-40.573,-14.794,-2.489,16,65
55152,0.021,0.76,0.335,-29.901,-25.244,-4.214,28,56
55197,-0.321,0.662,0.39,-8.405,0.458,2.954,26,57
55242,-0.216,0.717,0.516,21.458,-31.878,16.107,29,54
55290,-0.03,0.797,0.479,50.137,-25.031,13.626,26,57
55335,-0.143,0.862,0.289,66.298,-6.611,11.954,27,55
55382,-0.133,0.897,0.153,58.053,-25,14.351,26,57
55427,0.103,1.143,-0.311,43.939,-1.183,-8.405,25,58
55472,-0.215,1.398,0.064,1.458,13.656,-1.611,26,57
55517,-0.106,1.23,0.382,-22.267,-6.992,0.153,27,57
55562,-0.029,1.081,-0.044,6.42,2.504,-2.588,27,57
55607,-0.127,1.053,0.062,-25.183,2.595,-8.969,26,58
55654,-0.201,0.883,0.449,-23.115,0.237,-0.275,30,87
55704,-0.056,1.02,0.155,20.603,0.916,-1.649,29,87
55749,-0.331,0.813,0.285,1.611,11.183,13.626,28,54
55795,-0.006,0.717,0.268,32.634,-7.718,1.489,30,52
55840,-0.209,1.023,0.123,44.74,13.71,2.321,29,53
55885,-0.15,1.092,0.145,12.649,-5.214,7.931,28,57
55932,-0.083,1.009,0.217,20.076,-5.496,-0.748,28,87
55980,-0.151,1.307,-0.164,18.55,-7.237,-12.198,28,86
56026,-0.223,1.245,0.003,-23.748,4.298,11.359,27,64
56073,0.022,0.996,0.206,-19.626,-10.229,3.863,29,87
56125,-0.154,1.004,0.325,-11.061,-19.573,-4.664,70,87
56172,-0.163,1.036,-0.054,14.221,-9.344,11,30,87
56217,0.027,0.902,-0.185,-3.702,3.084,9.344,27,55
56262,0.036,0.891,0.044,-13.893,7.305,-5.061,27,55
56308,-0.251,0.938,0.468,18.252,19.282,6.855,27,55
56353,-0.092,0.917,0.284,41.779,-18.397,16.519,27,55
56398,-0.17,0.787,-0.028,43.939,7.931,20.687,30,52
56443,0.105,0.871,-0.2,24.389,-11.58,-3.603,30,52
56499,-0.126,1.318,0.138,13.679,7.382,-11.466,157,88
56547,-0.116,1.321,0.038,-1.809,-15.076,4.061,30,53
56601,-0.071,1.132,-0.244,0.626,-10.496,3.435,156,88
56656,-0.01,1.113,-0.114,-26.458,-4.137,1.641,158,88
56702,-0.102,0.97,0.177,-21.527,3.55,0.198,31,53
56748,-0.1,0.897,0.084,-12.962,-3.092,4.046,30,52
56793,-0.002,0.932,-0.005,-19.885,-4.794,-6.573,29,54
56838,-0.133,0.995,0.204,-16.061,0.053,-7.458,30,53
56884,-0.044,1.032,0.108,-2.328,-2.542,-4.893,30,53
56929,-0.086,1.051,0.141,-6.649,-6.733,-3.405,30,54
56987,-0.046,0.997,0.128,-8.603,-7.008,-2.756,157,89
57043,-0.128,1.054,0.103,-7.053,-1.611,-6.275,182,88
57089,-0.141,0.993,0.282,-11.939,5.275,5.496,30,53
57135,-0.1,0.863,0.336,14.473,-7.115,7.313,30,52
57191,-0.13,0.894,0.01,23.168,5.573,6.16,182,89
57245,-0.045,1.022,0.137,1.748,-0.824,-1.168,156,89
57302,-0.102,1.119,0.185,10.534,-0.908,-1.038,183,89
57358,-0.047,1.188,-0.016,-0.115,4.885,3.237,182,89
57413,-0.124,0.934,0.201,-8.382,-7.16,-1.771,156,89
57516,-0.099,1.014,0.1,-8.718,4.527,-3.687,180,89
57572,-0.147,0.955,0.262,11.397,-1.328,6.099,179,89
57617,-0.018,0.996,-0.029,21.305,-4.618,0.229,30,53
57663,-0.103,1.058,0.013,1.542,-0.71,-2.412,26,57
57708,-0.109,1.118,0.037,5.168,-1.313,-6.985,26,57
57754,-0.086,1.291,-0.024,-21.443,-8.756,-5.137,27,56
57799,-0.086,1.061,0.135,-31.252,1.015,0.885,28,57
57845,-0.132,1.03,0.243,0.328,-10.466,3.733,28,57
57890,-0.051,0.964,0.081,-8.504,-6.076,10.55,28,58
57939,-0.064,0.795,0.062,4.74,-6.794,8.321,28,57
57986,-0.106,0.86,0.137,22.435,8.099,12.366,30,57
58031,0.051,0.9,0.146,11.267,-0.031,7.481,27,59
58077,-0.109,1.007,0.172,33.443,-4.481,2.382,28,57
58123,-0.025,1.213,-0.127,20.626,-6.985,-2.519,30,57
58168,-0.085,1.153,0.02,2.985,-5.427,3.336,30,57
58214,-0.031,1.134,0.009,10.427,1.55,-0.26,31,57
58268,-0.061,1.078,-0.006,4.595,-12.305,1.237,156,90
58323,-0.018,1.083,-0.197,-18.282,-5.191,-4.511,158,90
58374,0.035,0.975,-0.256,-53.611,-0.641,-22.649,31,57
58419,-0.033,0.974,0.086,-73.412,22.962,-47.649,28,58
58465,-0.114,1.07,0.125,-77.397,1.71,-58.885,30,56
58511,-0.18,0.963,0.156,-129.504,51.939,-47.55,28,57
58557,-0.173,0.674,0.472,-106.954,-3.137,-59.947,28,57
58604,-0.126,0.745,0.251,-101.443,20.969,-74.855,29,89
58650,-0.391,0.666,0.609,-117.473,41.847,-77.573,30,57
58696,-0.583,0.601,0.668,-95.374,10.779,-80.58,30,57
58744,-0.414,0.668,0.442,-102.26,1.611,-84.679,30,89
58796,-0.388,0.529,0.567,-140.092,22.214,-85.939,33,90
58847,-0.351,0.166,0.456,-141.183,44.817,-110.176,34,159
58899,-0.658,0.173,0.651,-127.115,77.992,-123.328,36,152
58947,-1.027,-0.074,0.969,-99.519,14.038,-100.84,37,85
58995,-0.623,0.111,0.867,-33.153,-14.038,-127.695,39,81
59043,-0.877,0.168,0.714,-141.153,53.992,-82.214,43,80
59091,-0.953,-0.614,0.96,-69.29,4.473,-65.26,43,77
59139,-0.611,0.285,0.646,3.588,1.252,-86.527,44,75
59190,-1.176,-0.343,0.815,-120.466,17.527,-28.71,45,74
59238,-0.516,-0.52,0.64,-16.802,-79.725,-63.847,46,73
59286,-0.576,-0.025,0.314,-57.519,73.229,-25.069,51,72
59334,-1.195,-0.827,0.957,-69.893,-43.313,-36.145,51,71
59382,-0.295,-0.31,0.292,-19.786,-55.71,-56.13,58,71
59430,-0.833,-0.482,0.645,-97.763,44.542,-14.687,58,71
59486,-0.592,-0.662,0.772,-30.489,-84.198,-53.435,173,70
59542,-0.439,-0.426,0.379,-53.885,45.374,-25.405,175,78
59597,-0.731,-0.813,0.823,-33.176,-91,-40.565,176,77
59655,-0.224,-0.437,0.197,-49.321,34.321,-22.992,141,76
59708,-1.003,-1.037,1.008,-38.153,-77.824,-14.908,137,76
59757,0.191,-0.351,0.069,-14.405,-25.336,-48.679,59,76
59806,-1.024,-1.033,0.845,-54.626,73.023,31.565,60,75
59854,-0.015,-0.618,0.424,17.397,-130.366,-66.611,57,75
59904,-0.423,-0.818,0.191,-43.947,107.886,10.557,59,75
59996,0.459,-0.494,-0.149,-7.023,-52.863,-60.26,58,75
60045,-1.063,-0.979,0.737,-65.313,79.718,33.313,58,76
60096,0.005,-0.84,0.363,-0.626,-204.794,-68.718,57,74
60145,0.277,-0.595,-0.256,-13.557,172,-6.176,58,73
60193,-1.666,-1.262,1.49,-62.015,-71.321,3.374,58,76
60242,0.775,-0.973,-0.33,32.267,-135.214,-55.473,58,74
60292,-0.696,-0.177,0.429,-42.687,250.13,63.237,58,74
60340,-0.935,-1.34,0.779,-19.183,-250.137,-35.756,58,73
60389,1.274,-0.467,-0.707,42.87,108.725,-8.153,57,74
60437,-1.848,-1.194,1.548,-56.275,73.305,17.176,58,72
60486,0.36,-1.143,-0.207,21.282,-238.069,-39.542,57,74
60544,-0.61,-0.21,0.416,-17.794,250.13,54.603,58,73
60592,-1.1,-1.362,0.804,-18.809,-244.611,-33.763,58,74
60640,1.115,-0.68,-0.576,50.328,55.641,-3.412,57,74
60688,-1.473,-0.783,1.312,-48.191,142.542,36.13,58,75
60736,-0.086,-1.209,0.025,6.931,-244.55,-33.962,58,74
60784,0.641,-0.341,-0.359,31.618,193.046,17.328,57,75
60832,-1.704,-1.303,1.505,-48,-63.817,-6.939,58,74
60880,0.724,-0.975,-0.292,32.42,-142.779,-20.779,57,74
60931,-0.552,-0.364,0.465,-16.588,229.626,39.084,58,73
60979,-0.944,-1.212,0.694,-16.55,-213.183,-19.611,60,74
61028,0.984,-0.695,-0.449,38.489,45.595,-4.023,57,75
61075,-1.369,-0.975,1.09,-31.718,117.351,31.626,58,76
61124,0.012,-1.111,0.097,15.458,-188.351,-21.756,59,75
61179,0.312,-0.43,0.008,16.092,164.725,21.084,0,74
61229,-1.057,-1.342,0.864,-11.542,-129.542,-4.458,59,75
61277,0.587,-0.563,-0.108,43.053,15.298,10.29,58,75
61325,-0.889,-0.813,0.927,-9.26,64.679,8.328,61,75
61380,-0.078,-1.122,0.197,18.45,-93.221,9.26,136,76
61432,-0.121,-0.557,0.428,3.298,80.985,3,135,76
61486,-0.684,-1.27,0.577,6.023,-80.718,19.557,135,76
61534,0.283,-0.257,0.234,26.351,39.031,-3.664,59,76
61582,-0.919,-1.256,0.726,-8.115,-11.374,16.573,61,76
61631,-0.008,-0.739,0.359,37.954,-41.191,22.832,60,77
61683,-0.315,-0.595,0.49,6.748,56.305,2.344,134,77
61731,-0.805,-0.967,0.812,10.244,-102.282,45.267,58,78
61785,0.689,-0.32,0.144,60.55,-6.183,-13.115,132,79
61836,-1.651,-1,1.174,-6.008,89.649,65.969,57,79
61884,0.023,-0.934,0.388,32.191,-226.267,0.771,52,81
61936,0.41,-0.403,-0.191,62.786,212.786,37.008,117,82
61984,-2,-0.873,1.679,-26.305,-141.893,35.321,55,83
62033,0.838,-0.801,-0.14,63.366,-140.282,12.26,51,86
62082,-0.94,-0.089,0.763,10.359,245.313,89.992,58,86
62131,-1.128,-1.075,0.836,4.855,-249.901,24.481,49,93
62185,0.681,-0.172,-0.011,65.786,70.427,45.947,48,0
62243,-1.62,-0.852,1.394,-19.756,-55.809,47.053,45,0
62301,0.315,-0.429,0.384,66.176,-46.092,39.389,98,0
62357,-1.311,-0.291,1.202,-13.328,20.198,60.237,70,0
62411,0.042,-0.736,0.595,30.55,-106.893,41.466,40,0
62470,-0.6,0.167,0.768,36.756,125.221,53.824,95,0
62567,0.636,-0.219,0.348,80.145,23.305,27.641,38,0
62624,-1.56,-0.162,1.254,-21.55,43.29,59.023,92,0
62679,0.317,-0.456,0.595,25.244,-129.74,14.771,36,0
62733,-0.875,0.177,0.919,32.641,181.206,64.069,33,0
62790,-0.573,-0.398,0.854,-21.542,-177.26,26.534,32,0
62843,0.03,-0.036,0.6,63.076,119.374,41.924,32,0
62898,-1.285,-0.086,1.311,-17.695,-80.023,45.977,30,0
62955,0.332,-0.036,0.531,37.145,-16.695,31,85,0
63009,-1.135,0.136,1.165,4.305,12.916,50.015,30,0
63063,-0.017,-0.273,0.681,1.756,-74.542,24.458,29,0
63120,-0.659,0.292,1.008,33.473,69.855,43.748,83,0
63176,-0.26,-0.207,0.873,-18.824,-94.809,14.267,82,0
63230,-0.604,0.269,1.16,48.046,59.71,43.656,28,0
63291,-0.319,-0.086,0.616,-62.87,-93.695,7.344,81,0
63344,-0.323,0.186,1.184,68.252,30.679,23.58,26,0
63398,-0.636,0.107,0.687,-48.45,-15.458,12.382,28,0
63452,-0.285,-0.018,1.296,33.641,-39.038,25.191,24,0
63506,-0.25,0.282,0.659,-12.305,63.168,3.672,26,0
63562,-0.813,0.082,1.381,7.588,-75.931,34.573,80,0
63620,-0.005,0.232,0.675,3.153,65.023,7.046,80,0
63681,-0.926,0.219,1.512,-5.626,-71.718,39.359,160,0
63734,-0.186,0.001,0.633,8.214,99.84,27.344,20,0
63792,-0.45,0.314,1.155,-6.298,-134.618,9.863,26,0
63845,-0.222,0.035,0.668,11.466,111.672,28.16,20,0
63898,-0.634,0.435,1.15,-12.198,-117.389,8.427,22,0
63952,-0.024,-0.175,0.666,-1.046,75.366,26.733,21,0
64006,-0.54,0.396,1.11,1.939,-63.504,13.58,19,0
64059,-0.114,-0.155,0.843,-37.389,34.053,21.763,17,0
64112,-0.293,0.49,1.181,48.153,-31.038,10.588,20,0
64166,-0.427,-0.23,0.806,-57.733,28.534,11.74,22,0
64220,0.009,0.408,1.173,53.901,-53.695,7.076,17,0
64276,-0.638,-0.114,0.798,-46.779,57.412,7.29,17,0
64329,-0.119,0.289,1.293,36.092,-99.733,13.397,16,0
64382,-0.089,0.096,0.688,-7.58,80.985,-1.153,17,0
64436,-0.831,0.376,1.436,-7.847,-108.466,30.031,18,0
64489,0.694,-0.179,0.583,14.542,50.298,-13.374,16,0
64546,-1.329,0.622,1.481,22.137,-9.863,33.695,80,0
64600,0.675,-0.277,0.457,-68.786,-29.794,-3.038,16,0
64653,-0.742,0.624,1.666,65.573,55.389,21.611,16,0
64706,0.191,0.017,0.442,-79.046,-53.366,-18.611,17,0
64763,-0.481,0.282,1.533,58.198,1.55,12.947,16,0
64817,0.14,0.3,0.456,-60.107,11.336,-20.58,16,0
64870,-0.759,0.148,1.64,17.366,-51.718,21.008,24,0
64923,0.572,0.323,0.402,-20.313,37.756,-21.725,16,0
64977,-1.19,0.083,1.648,-13.099,-43,18.328,16,0
65031,0.704,0.332,0.425,-23.374,-7.511,-13.74,16,0
65084,-1.071,-0.046,1.621,-1.008,25.336,19.076,17,0
65137,0.532,0.432,0.544,-4.656,-40.427,-13.893,16,0
65190,-0.916,-0.104,1.673,-10.046,31.634,30.061,16,0
65248,0.604,0.401,0.501,16.84,-18.542,-22.786,15,0
65344,0.389,0.283,0.78,-7.031,-80.679,-9.176,16,0
65397,-0.417,-0.109,1.159,-12.282,79.374,8.58,16,0
65451,0.034,0.283,1.057,7.191,-65.351,-19.458,16,0
65504,-0.223,0.034,0.993,-12.977,50.023,-4.092,17,0
65558,-0.043,0.315,1.038,18.969,-55.29,-11.076,16,0
65611,-0.326,-0.185,0.982,1.45,50.397,-2.695,17,0
65665,-0.012,0.327,1.062,-1.519,-60.137,-17.855,16,0
65718,-0.408,-0.205,1.375,33.672,34.122,-8.351,16,0
65775,-0.247,0.243,0.979,58.374,7.466,10.191,17,0
65828,0.007,0.393,0.634,3.931,-18.626,-20.878,24,0
65883,-0.447,0.068,0.969,-7.588,27.26,4.832,18,0
65936,-0.195,0.356,1.083,6.061,3.939,3.443,17,0
65989,-0.115,0.11,1.022,-20.137,6.069,-8.145,17,0
66042,-0.128,0.164,1.315,60.229,-8.649,-15.489,17,0
66097,-0.397,0.427,0.697,-10.817,27.076,-0.023,19,0
66150,-0.218,-0.044,1.12,-29.13,-85.595,-1.947,17,0
66204,0.353,0.37,0.721,56.466,77.336,-30.099,17,0
66270,-0.796,0.201,1.214,-39.534,-82.031,0.405,18,0
66325,0.436,0.148,0.764,35.42,29.878,-16.405,16,0
66381,-0.836,0.474,1.156,-11.42,22.366,6.718,20,0
66437,0.294,-0.079,0.929,-9.244,-70.672,-20.168,19,0
66493,-0.36,0.499,1.051,54.053,107.794,-9.672,22,0
66549,-0.371,0.127,0.859,-56.511,-101.74,-18.618,19,0
66606,0.135,0.14,0.969,49.214,64.603,-21.985,20,0
66661,-0.671,0.541,1.02,-24.099,-19.977,-13.443,23,0
66717,0.182,-0.121,0.975,-3.191,-16.924,-22.672,25,0
66777,-0.492,0.602,1.041,24.038,38.397,-22.977,24,0
66833,-0.359,-0.042,0.965,-41.58,-34.038,-3.496,23,0
66889,0.098,0.478,0.949,46.87,31.893,-32.344,24,0
66946,-0.747,0.121,0.996,-45.573,10.344,2.053,21,0
67002,0.234,-0.025,0.95,35.183,-27.992,-41.427,25,0
67064,-0.838,0.445,1.062,-42.466,39.756,-12.672,23,0
67120,0.171,-0.123,1.081,7.366,-82.405,-36.26,28,0
67175,-0.514,0.601,0.927,34.321,140.802,-17.496,23,0
67231,-0.548,-0.029,0.983,-60.763,-113.71,-22.435,26,0
67290,0.159,0.201,0.782,54.534,94.198,-32.863,24,0
67345,-1.01,0.382,1.073,-42.687,-37.046,-15.977,25,0
67404,0.371,-0.133,0.859,8.74,-15.588,-29.26,85,0
67460,-0.913,0.437,1.002,1.733,64.618,-26.26,27,0
67515,-0.264,-0.126,1.071,-37.817,-86.397,-11.092,30,0
67571,0.073,0.38,0.675,37.176,105.008,-45.366,29,0
67628,-1.16,0.035,1.238,-52.481,-69.695,-4.496,30,0
67683,0.415,0.049,0.67,13.603,31.366,-30.351,30,0
67739,-0.85,0.14,1.056,-19.763,16.069,-23.802,31,0
67798,-0.143,-0.133,0.951,-20.496,-15.458,-24.069,32,0
67854,-0.471,0.202,0.722,2.924,94.87,-30.748,33,0
67910,-0.747,-0.114,1.146,-49.374,-61.321,-15.977,33,0
67970,0.129,-0.069,0.577,23.687,100.061,-32.099,91,0
68029,-1.168,0.127,1.182,-53.092,-32.366,-16.366,92,0
68085,0.16,-0.441,0.709,-1.885,40.695,-22.397,32,0