Timestamp(ms),AccelX(g),AccelY(g),AccelZ(g),GyroX(deg/s),GyroY(deg/s),GyroZ(deg/s),DistanceLeft(cm),DistanceRight(cm)
65381,-0.196,-0.850,0.678,3.618,21.366,-33.145,0.0,83.0
65427,-0.043,-0.983,0.511,-4.115,39.137,-40.458,16.0,82.0
65483,-0.127,-0.931,0.541,-2.771,55.977,-43.542,0.0,79.0
65540,-0.153,-0.780,0.544,3.496,35.733,-31.885,0.0,77.0
65589,-0.033,-0.793,0.393,10.618,22.794,-29.992,75.0,76.0
65638,0.046,-0.810,0.295,2.748,62.809,-32.771,76.0,73.0
65693,-0.007,-0.792,0.316,-8.473,98.626,-33.023,0.0,72.0
65752,-0.151,-0.756,0.428,-21.870,90.824,-31.481,0.0,71.0
65808,-0.087,-0.764,0.395,-29.947,68.519,-26.885,0.0,71.0
65864,-0.038,-0.754,0.361,-40.809,85.763,-25.366,0.0,70.0
65920,-0.163,-0.803,0.477,-46.153,93.817,-20.031,0.0,72.0
65976,-0.201,-0.876,0.496,-35.870,71.344,-11.481,0.0,69.0
66035,-0.236,-0.985,0.494,-28.618,57.931,-17.618,0.0,132.0
66095,-0.165,-1.056,0.401,-25.992,48.198,-10.435,0.0,126.0
66154,-0.236,-1.193,0.354,-33.748,51.588,-19.305,0.0,134.0
66213,-0.280,-1.100,0.344,-24.687,37.115,-24.450,0.0,137.0
66277,-0.281,-0.925,0.296,-3.779,-10.229,-4.450,0.0,143.0
66336,-0.323,-1.025,0.196,7.672,-50.962,21.206,0.0,147.0
66393,-0.365,-0.980,0.139,9.634,-71.206,50.641,0.0,71.0
66448,-0.368,-0.898,0.079,12.748,-90.221,84.649,0.0,60.0
66503,-0.417,-0.823,0.068,4.626,-67.489,111.351,0.0,60.0
66553,-0.667,-0.817,0.219,-7.641,-88.412,133.595,99.0,64.0
66603,-0.662,-0.797,0.126,-12.206,-80.481,150.275,95.0,65.0
66653,-0.819,-0.874,0.189,-13.214,-65.954,157.267,93.0,68.0
66705,-0.860,-0.891,0.125,-14.359,-51.794,162.802,92.0,121.0
66767,-0.833,-0.833,0.205,-17.473,-42.794,149.702,0.0,124.0
66816,-0.728,-0.759,0.177,-37.450,-29.191,92.229,41.0,107.0
66865,-0.721,-0.565,0.371,-78.977,-34.931,72.962,39.0,110.0
66914,-0.723,-0.456,0.321,-103.748,-87.122,68.763,36.0,111.0
66963,-0.689,-0.455,0.151,-93.626,-124.824,66.275,38.0,115.0
67013,-0.681,-0.405,0.044,-67.603,-93.748,68.702,33.0,139.0
67062,-0.660,-0.338,0.085,-51.313,-38.885,87.374,31.0,118.0
67111,-0.743,-0.313,0.300,-62.947,-3.031,84.939,29.0,117.0
67163,-0.791,-0.304,0.365,-94.611,-10.649,71.969,29.0,116.0
67212,-0.896,-0.312,0.406,-114.198,-47.282,70.290,30.0,117.0
67261,-0.885,-0.339,0.413,-108.656,-86.740,74.679,28.0,117.0
67309,-0.728,-0.282,0.363,-92.962,-74.221,82.252,26.0,117.0
67363,-0.789,-0.292,0.363,-88.321,-16.321,84.412,27.0,0.0
67412,-1.067,-0.271,0.456,-88.115,-2.985,85.168,30.0,116.0
67461,-1.138,-0.213,0.405,-86.359,-19.985,87.664,29.0,116.0
67510,-0.933,-0.132,0.339,-68.733,-24.985,77.374,29.0,117.0
67562,-0.884,-0.027,0.323,-47.046,-1.443,59.137,38.0,118.0
67611,-0.929,0.096,0.274,-50.267,24.901,55.176,28.0,117.0
67659,-0.985,0.142,0.355,-61.962,32.504,74.084,27.0,118.0
67708,-1.005,0.137,0.378,-72.542,16.099,74.695,28.0,118.0
67758,-1.034,0.082,0.395,-81.511,-3.130,67.031,28.0,119.0
67807,-1.069,0.150,0.550,-64.550,-17.985,63.214,27.0,120.0
67856,-1.125,0.171,0.544,-65.122,-9.679,71.809,30.0,121.0
67905,-1.176,0.190,0.677,-82.084,-24.023,94.023,29.0,124.0
67954,-1.125,0.083,0.709,-73.595,-84.962,106.672,23.0,128.0
68050,-0.755,-0.063,0.500,2.802,-91.893,119.824,19.0,155.0
68104,-0.437,-0.054,0.457,46.038,-42.702,106.695,16.0,0.0
68157,-0.283,0.233,0.465,45.466,-1.473,67.969,17.0,0.0
68213,-0.505,0.603,0.637,0.969,24.099,38.389,16.0,0.0
68267,-0.654,0.482,0.732,-10.595,-10.351,15.534,16.0,0.0
68319,-0.581,0.385,0.753,-3.183,-27.153,12.275,16.0,0.0
68376,-0.456,0.274,0.719,15.542,-40.031,5.687,15.0,0.0
68422,-0.281,0.421,0.635,36.229,-19.366,-10.733,17.0,81.0
68468,-0.375,0.718,0.578,26.595,33.809,-16.115,17.0,81.0
68517,-0.819,0.975,0.641,-2.977,57.313,5.550,17.0,82.0
68563,-0.955,0.848,0.592,-40.733,-19.534,31.405,17.0,83.0
68610,-0.608,0.604,0.677,-58.046,-57.702,51.267,15.0,84.0
68663,-0.322,0.544,0.886,-44.817,-38.321,64.176,16.0,0.0
68716,-0.311,0.447,1.043,-16.565,0.855,63.771,17.0,0.0
68774,-0.325,0.472,1.000,6.176,4.840,46.580,112.0,0.0
68833,-0.341,0.494,0.880,16.939,-9.481,23.695,111.0,0.0
68889,-0.333,0.344,0.749,32.695,-28.916,4.908,9.0,0.0
68941,-0.218,0.327,0.563,52.962,-30.649,-17.115,9.0,0.0
68998,-0.224,0.577,0.565,53.450,-11.351,-38.046,13.0,0.0
69054,-0.289,0.592,0.564,47.885,-2.511,-54.802,12.0,0.0
69100,-0.286,0.620,0.397,37.374,23.824,-70.336,13.0,79.0
69146,-0.413,0.759,0.272,5.046,76.176,-66.061,15.0,79.0
69199,-0.759,0.766,0.344,-38.275,81.008,-52.802,16.0,0.0
69253,-0.920,0.792,0.538,-74.046,41.466,-35.473,17.0,0.0
69306,-0.931,0.744,0.856,-76.840,6.206,-4.603,17.0,0.0
69359,-0.810,0.493,0.944,-52.458,-15.450,26.153,17.0,0.0
69412,-0.637,0.375,0.906,-23.855,-8.802,35.534,16.0,0.0
69469,-0.504,0.240,0.774,6.053,-5.183,24.076,16.0,0.0
69525,-0.377,0.308,0.572,27.481,-19.321,-6.198,14.0,0.0
69578,-0.391,0.459,0.489,11.489,1.237,-28.824,13.0,0.0
69630,-0.544,0.517,0.445,-17.687,25.954,-37.374,15.0,0.0
69684,-0.747,0.395,0.647,-22.336,32.389,-36.496,15.0,0.0
69737,-0.673,0.448,0.529,-13.412,17.427,-40.153,15.0,0.0
69790,-0.868,0.527,0.793,-46.000,8.267,-31.710,15.0,0.0
69843,-0.843,0.232,0.814,-28.496,-30.641,-15.336,17.0,0.0
69895,-0.534,0.107,0.809,8.962,-18.328,-7.931,19.0,164.0
69949,-0.354,-0.209,0.667,42.229,5.893,-36.275,16.0,161.0
70000,-0.463,-0.227,0.586,71.588,14.252,-99.573,18.0,158.0
70053,-0.840,0.418,0.406,73.863,96.527,-136.832,19.0,0.0
70103,-1.564,0.449,0.568,80.160,127.305,-64.672,22.0,129.0
70152,-1.394,0.517,0.695,87.214,8.145,-6.603,23.0,127.0
70204,-0.907,0.274,0.570,85.595,-86.427,-1.229,34.0,150.0
70254,-0.627,0.179,0.395,88.756,-104.557,-39.511,22.0,151.0
70305,-0.498,0.264,0.276,82.870,3.321,-61.740,30.0,150.0
70358,-0.898,0.189,0.487,73.389,68.145,-50.878,23.0,126.0
70407,-0.987,0.187,0.506,58.198,-33.641,-74.702,25.0,123.0
70457,-0.784,0.368,0.251,29.076,-64.069,-96.389,24.0,123.0
70506,-0.783,0.392,0.239,9.412,-13.366,-100.557,30.0,121.0
70555,-0.960,0.306,0.409,24.298,35.328,-89.740,26.0,119.0
70604,-1.137,0.091,0.681,61.351,34.389,-59.855,24.0,117.0
70696,-0.689,-0.313,0.732,77.595,-85.916,-129.931,29.0,116.0
70747,-0.558,-0.574,0.597,74.550,-78.069,-187.252,37.0,117.0
70810,-0.447,-0.675,0.320,66.481,-18.603,-214.107,0.0,0.0
70872,-0.618,-0.823,0.202,67.908,118.649,-203.153,0.0,112.0
70930,-0.867,-0.893,0.131,76.695,175.939,-195.061,0.0,102.0
70986,-0.888,-0.887,0.073,86.832,138.137,-195.725,0.0,59.0
71035,-0.830,-0.911,0.045,77.695,128.924,-190.748,94.0,53.0
71086,-0.784,-0.858,0.071,55.916,111.855,-175.435,98.0,48.0
71135,-0.692,-0.850,0.093,20.489,103.489,-156.664,102.0,44.0
71184,-0.608,-0.830,0.119,-11.649,96.412,-148.168,105.0,42.0
71233,-0.502,-0.753,0.170,-33.427,83.137,-141.504,107.0,40.0
71286,-0.426,-0.852,0.195,-48.275,65.221,-137.313,110.0,42.0
71337,-0.387,-0.915,0.255,-56.771,55.947,-129.427,126.0,43.0
71388,-0.303,-0.961,0.355,-49.992,42.374,-97.084,129.0,44.0
71439,-0.250,-0.964,0.452,-51.412,57.542,-52.359,128.0,43.0
71494,-0.309,-1.022,0.525,-44.649,56.305,-9.740,128.0,122.0
71553,-0.284,-0.911,0.509,-29.786,33.061,23.397,181.0,124.0
71607,-0.264,-1.117,0.426,-14.779,22.473,34.389,177.0,49.0
71661,-0.263,-1.080,0.404,-1.290,12.748,39.847,173.0,50.0
71714,-0.236,-0.896,0.357,9.008,-11.809,60.794,169.0,52.0
71772,-0.226,-0.974,0.271,20.573,-38.878,84.863,156.0,57.0
71825,-0.131,-1.222,0.098,48.389,-44.977,88.748,160.0,62.0
71879,-0.039,-1.228,-0.047,64.374,1.954,79.504,157.0,68.0
71933,-0.140,-1.063,-0.010,51.206,48.191,68.115,154.0,74.0
71988,-0.232,-0.797,0.107,27.191,38.725,74.962,151.0,80.0
72049,-0.311,-0.838,0.128,8.443,-13.573,78.038,151.0,86.0
72112,-0.285,-0.792,0.071,1.977,-45.412,64.305,0.0,0.0
72175,-0.269,-0.842,-0.012,-5.603,-10.031,33.344,0.0,0.0
72241,-0.397,-0.841,0.134,-20.473,35.908,7.794,0.0,0.0
72304,-0.572,-0.967,0.276,-23.992,28.298,-17.748,0.0,0.0
72368,-0.625,-1.025,0.348,-23.458,10.786,-33.809,0.0,0.0
72431,-0.605,-1.092,0.346,-12.702,2.710,-51.344,0.0,0.0
72494,-0.516,-0.810,0.359,8.298,1.252,-43.344,0.0,0.0
72557,-0.410,-0.700,0.270,33.534,-3.374,-5.328,0.0,0.0
72621,-0.360,-0.845,0.162,40.282,12.809,12.198,0.0,0.0
72674,-0.337,-0.863,0.118,34.115,25.023,9.366,0.0,40.0
72730,-0.310,-0.717,0.148,19.145,34.313,9.366,0.0,74.0
72787,-0.292,-0.614,0.244,-4.229,32.519,5.412,0.0,46.0
72842,-0.365,-0.673,0.337,-18.519,18.351,-21.260,0.0,46.0
72896,-0.411,-0.740,0.400,-26.740,-10.679,-49.191,0.0,44.0
72950,-0.455,-0.863,0.406,-23.092,-23.397,-48.748,0.0,46.0
73005,-0.407,-1.104,0.322,-8.878,-25.847,-54.893,0.0,40.0
73059,-0.227,-1.001,0.211,-4.779,1.969,-40.191,0.0,33.0
73112,-0.402,-1.202,0.312,-18.794,31.405,-35.160,0.0,26.0
73165,-0.490,-1.187,0.388,-12.160,-17.496,-48.076,0.0,25.0
73219,-0.307,-0.729,0.297,-3.328,-83.611,-26.405,0.0,24.0
73275,-0.224,-0.860,0.153,-0.489,-83.802,2.893,0.0,30.0
73329,-0.300,-1.253,0.126,18.252,-76.374,-4.786,0.0,34.0
73383,-0.117,-0.985,-0.030,37.038,-45.214,-4.237,0.0,42.0
73438,-0.068,-0.728,0.001,25.985,17.542,28.214,0.0,48.0
73536,-0.241,-0.770,0.119,15.229,29.855,56.389,0.0,57.0
73592,-0.214,-0.877,0.088,15.649,6.672,49.992,0.0,81.0
73650,-0.171,-1.140,0.067,12.382,3.214,29.443,0.0,87.0
73712,-0.125,-1.177,0.102,-1.771,12.931,-3.679,0.0,182.0
73769,-0.165,-1.231,0.145,-19.588,38.244,-34.084,0.0,94.0
73830,-0.228,-1.088,0.297,-28.847,43.427,-68.580,0.0,95.0
73886,-0.237,-0.698,0.391,-20.397,26.313,-70.786,0.0,80.0
73943,-0.179,-0.817,0.296,0.046,12.977,-50.198,0.0,82.0
74000,-0.058,-1.021,0.150,10.229,44.901,-24.939,0.0,84.0
74056,-0.147,-0.941,0.127,1.168,88.748,-4.145,0.0,87.0
74114,-0.289,-0.779,0.271,-12.718,71.107,4.237,0.0,89.0
74171,-0.292,-0.786,0.285,-9.519,17.420,-3.183,0.0,93.0
74228,-0.236,-0.792,0.253,-11.603,-1.481,-13.809,0.0,99.0
74287,-0.230,-0.844,0.332,-15.763,-5.695,-16.107,0.0,107.0
74348,-0.301,-0.981,0.431,-13.061,-22.305,-10.534,0.0,112.0
74406,-0.247,-1.064,0.364,6.427,-48.702,4.779,0.0,119.0
74466,-0.109,-1.223,0.165,18.137,-24.534,25.458,0.0,129.0
74526,-0.125,-1.034,0.237,28.870,33.061,28.916,0.0,133.0
74586,-0.217,-0.912,0.332,36.985,54.832,52.626,0.0,144.0
74646,-0.305,-1.155,0.333,52.420,31.344,61.893,0.0,146.0
74707,-0.282,-1.215,0.258,71.336,25.611,73.817,0.0,155.0
74771,-0.318,-0.879,0.333,78.038,51.176,120.740,0.0,0.0
74834,-0.479,-0.888,0.366,79.969,51.992,141.214,0.0,0.0
74901,-0.636,-0.817,0.342,88.008,7.748,148.641,0.0,0.0
74961,-0.670,-0.737,0.326,101.687,3.519,156.206,154.0,0.0
75017,-0.708,-0.525,0.350,93.878,27.313,140.595,148.0,114.0
75068,-0.849,-0.285,0.459,72.847,20.504,98.931,57.0,117.0
75118,-0.872,-0.281,0.403,76.496,-17.878,51.962,49.0,120.0
75168,-0.802,-0.070,0.360,61.359,-14.947,21.878,50.0,121.0
75218,-0.982,0.044,0.507,52.557,10.191,38.237,46.0,124.0
75269,-0.949,0.172,0.625,66.565,-23.473,63.664,43.0,126.0
75325,-0.645,0.280,0.531,64.008,-56.351,51.206,40.0,177.0
75378,-0.434,0.348,0.574,31.893,-59.336,11.321,39.0,180.0
75431,-0.623,0.156,0.597,10.634,-10.511,-11.763,39.0,181.0
75485,-0.734,0.204,0.617,19.931,20.863,10.641,41.0,182.0
75538,-0.644,0.382,0.574,16.527,15.435,12.489,39.0,182.0
75591,-0.628,0.431,0.448,9.061,7.824,-5.809,40.0,182.0
75644,-0.974,0.218,0.445,6.504,29.786,18.565,39.0,182.0
75699,-0.859,0.439,0.562,15.756,3.099,49.588,40.0,183.0
75752,-0.582,0.571,0.569,16.420,-24.771,20.298,38.0,183.0
75808,-0.769,0.442,0.353,-2.405,48.840,11.672,39.0,183.0
75862,-1.003,0.434,0.545,-7.702,57.885,72.145,38.0,178.0
75915,-0.828,0.483,0.623,12.542,-10.145,64.977,38.0,178.0
75967,-0.674,0.623,0.526,16.519,-34.183,22.153,36.0,175.0
76017,-0.595,0.673,0.490,2.191,-20.756,13.634,35.0,122.0
76069,-0.660,0.577,0.418,-5.802,4.298,18.679,36.0,167.0
76122,-0.865,0.414,0.457,-18.282,25.962,16.832,36.0,165.0
76174,-0.978,0.330,0.573,-22.962,-1.977,17.664,36.0,163.0
76224,-0.930,0.354,0.632,-20.511,-28.641,12.740,37.0,121.0
76276,-0.775,0.374,0.693,-14.107,-50.916,18.038,37.0,121.0
76369,-0.719,0.416,0.679,-27.924,-33.008,21.061,35.0,123.0
76420,-0.844,0.534,0.642,-42.656,-66.000,23.687,36.0,126.0
76470,-0.836,0.379,0.789,-52.137,-107.427,28.603,31.0,129.0
76519,-0.578,0.374,0.951,-20.664,-150.359,15.000,31.0,131.0
76569,-0.319,0.331,0.897,8.992,-144.710,-3.160,30.0,133.0
76620,-0.147,0.361,0.830,22.412,-95.282,-24.191,30.0,138.0
76680,-0.085,0.431,0.852,25.802,-41.405,-19.458,0.0,139.0
76731,-0.239,0.469,0.989,33.641,-64.832,-8.527,31.0,142.0
76779,-0.134,0.500,0.894,33.557,-91.397,-9.817,30.0,144.0
76830,0.048,0.574,0.803,35.588,-81.557,-10.878,30.0,147.0
76891,0.016,0.581,0.867,37.260,-75.069,-16.817,0.0,151.0
76952,0.159,0.637,0.702,39.260,-71.954,-36.740,0.0,155.0
77014,0.134,0.901,0.449,16.137,5.344,-38.954,0.0,156.0
77075,-0.184,0.803,0.724,-10.145,-13.183,-7.580,0.0,159.0
77136,0.003,0.700,0.679,-4.557,-2.672,4.076,0.0,161.0
77198,0.085,0.777,0.672,-0.099,8.573,8.672,0.0,162.0
77262,-0.007,0.743,0.785,1.000,10.939,10.305,0.0,163.0
77314,0.241,0.815,0.557,-14.053,5.977,-12.443,29.0,163.0
77376,0.208,0.705,0.638,-58.275,102.511,-1.771,0.0,163.0
77427,-0.002,0.689,0.961,-58.763,48.565,-62.969,31.0,161.0
77479,-0.101,0.702,0.879,-57.611,42.168,-81.695,36.0,159.0
77541,-0.431,0.395,0.806,-49.244,123.290,-28.420,0.0,157.0
77593,-1.044,0.214,1.035,2.557,100.611,59.450,36.0,156.0
77644,-0.569,0.597,0.934,25.344,-28.611,77.092,34.0,157.0
77706,0.134,0.871,0.665,2.824,-73.015,35.771,0.0,157.0
77770,0.114,0.409,0.610,-17.015,22.595,-20.771,0.0,156.0
77832,-0.423,0.255,0.666,-4.527,89.786,-3.824,0.0,154.0
77892,-0.708,0.595,0.594,-52.344,85.412,38.779,0.0,152.0
77944,-0.707,0.403,0.769,-84.534,11.000,54.786,37.0,153.0
78006,-0.453,0.320,0.913,-55.580,-42.542,43.672,0.0,153.0
78057,-0.259,0.015,1.219,-7.550,-46.412,25.687,36.0,154.0
78109,0.010,-0.034,1.134,57.573,-77.160,-18.702,33.0,154.0
78160,0.286,0.361,0.645,59.038,-40.221,-61.969,30.0,153.0
78212,-0.312,0.364,1.032,34.084,-17.206,-73.046,38.0,154.0
78267,-0.391,0.938,0.125,-11.893,38.916,-68.832,35.0,152.0
78318,-0.941,0.808,0.198,-67.565,130.397,-4.366,37.0,149.0
78370,-1.122,0.433,0.185,-126.847,116.641,35.649,39.0,150.0
78423,-0.771,0.201,0.107,-184.145,95.435,31.832,39.0,152.0
78475,-0.753,-0.173,0.283,-232.061,123.405,-1.908,42.0,156.0
78529,-0.889,-0.552,0.372,-244.405,112.344,-49.145,40.0,0.0
78585,-1.103,-0.708,0.614,-250.137,101.504,-68.069,58.0,0.0
78642,-1.094,-0.671,0.615,-238.863,17.855,-90.374,60.0,0.0
78708,-1.043,-0.834,0.566,-233.649,-28.748,-92.092,0.0,0.0
78773,-0.890,-0.962,0.598,-171.634,-111.084,-105.305,0.0,0.0
78836,-0.494,-0.924,0.458,-123.267,-147.504,-134.519,0.0,0.0
78901,-0.325,-1.112,0.345,-108.832,-149.893,-123.473,0.0,0.0
78965,-0.168,-1.451,0.132,-28.992,-171.725,-96.679,0.0,0.0
79029,0.192,-0.816,0.039,-3.924,-44.985,-59.977,0.0,0.0
79093,-0.115,-0.853,0.211,-3.504,62.908,-13.206,0.0,0.0
79157,-0.418,-1.030,0.425,8.588,1.298,-2.847,0.0,0.0
79264,-0.164,-0.838,0.234,-7.046,-104.550,31.290,0.0,0.0
79323,-0.158,-0.887,0.221,-6.427,-94.740,51.885,68.0,188.0
79385,-0.130,-0.821,0.207,-0.374,-96.237,53.130,62.0,192.0
79438,-0.126,-0.798,0.214,-0.107,-83.534,48.214,59.0,167.0
79491,-0.148,-0.859,0.246,2.679,-85.382,47.344,57.0,153.0
79541,-0.154,-0.982,0.186,7.740,-78.275,43.229,58.0,120.0
79594,-0.063,-1.023,0.135,9.344,-47.542,42.733,57.0,161.0
79641,-0.130,-1.215,0.141,-8.427,4.779,35.382,56.0,60.0
79696,-0.251,-1.116,0.241,-20.137,28.282,19.817,0.0,64.0
79751,-0.392,-0.938,0.326,-13.374,-31.061,28.969,186.0,65.0
79809,-0.361,-1.057,0.181,-17.863,-69.939,5.435,189.0,65.0
79863,-0.304,-1.019,0.130,-20.924,-75.000,-15.908,0.0,57.0
79920,-0.216,-0.794,0.155,-19.435,-62.931,3.496,0.0,71.0
79975,-0.380,-0.856,0.369,-6.061,-81.260,25.214,0.0,54.0
80029,-0.211,-0.729,0.328,13.176,-105.397,20.282,0.0,53.0
80084,-0.150,-0.726,0.332,21.626,-73.031,28.985,0.0,50.0
80139,-0.290,-1.021,0.453,42.771,-51.802,27.412,0.0,50.0
80193,-0.383,-1.155,0.569,49.664,-48.137,6.290,0.0,48.0
80251,-0.276,-1.178,0.479,54.412,-79.832,-7.198,0.0,50.0
80306,-0.104,-0.951,0.483,35.786,-32.893,-5.290,0.0,50.0
80362,-0.266,-0.783,0.633,41.023,-27.550,20.443,0.0,64.0
80407,-0.141,-0.787,0.468,60.809,-68.214,29.763,16.0,66.0
80454,-0.003,-0.718,0.365,49.405,-25.115,26.779,58.0,69.0
80500,-0.155,-0.758,0.553,37.153,-5.969,29.534,18.0,69.0
80547,-0.143,-0.664,0.664,38.092,-15.481,25.023,54.0,67.0
80592,-0.041,-0.512,0.625,31.771,-29.870,20.595,13.0,76.0
80638,-0.008,-0.435,0.673,17.420,-1.588,23.237,9.0,86.0
80692,-0.103,-0.468,0.801,13.015,-17.137,21.458,84.0,85.0
80738,-0.057,-0.404,0.802,10.466,-22.084,26.351,19.0,82.0
80784,-0.147,-0.514,0.913,2.519,-38.313,30.908,17.0,81.0
80830,-0.126,-0.648,0.887,3.771,-33.359,29.191,10.0,81.0
80876,-0.165,-0.638,0.911,12.687,-11.092,34.321,9.0,84.0
80922,-0.308,-0.677,0.968,13.252,7.290,31.023,16.0,86.0
80968,-0.403,-0.707,0.956,16.015,-9.977,32.405,9.0,85.0
81014,-0.287,-0.603,0.806,11.115,-3.092,35.427,9.0,83.0
81059,-0.416,-0.611,0.868,4.275,-9.656,34.695,11.0,82.0
81108,-0.302,-0.601,0.676,-1.473,-25.084,18.519,10.0,81.0
81155,-0.316,-0.527,0.723,-3.290,5.145,24.351,11.0,80.0
81201,-0.359,-0.495,0.729,0.443,-26.710,20.580,17.0,80.0
81247,-0.172,-0.455,0.594,-4.023,-15.687,10.336,11.0,79.0
81297,-0.300,-0.503,0.723,-4.244,-1.000,6.092,98.0,79.0
81348,-0.188,-0.437,0.690,-5.405,-8.618,-3.473,99.0,77.0
81398,-0.160,-0.491,0.676,-17.786,18.542,-20.939,102.0,73.0
81444,-0.203,-0.668,0.696,-32.664,32.908,-46.221,16.0,74.0
81489,-0.139,-0.803,0.615,-48.038,80.443,-67.832,17.0,69.0
81543,-0.144,-0.903,0.572,-49.092,100.511,-100.389,85.0,66.0
81591,-0.223,-1.024,0.466,-55.504,166.000,-119.603,82.0,60.0
81641,-0.327,-0.977,0.442,-62.954,184.748,-131.504,86.0,67.0
81691,-0.329,-0.811,0.421,-72.290,190.168,-107.855,110.0,67.0
81743,-0.408,-1.008,0.419,-59.481,149.099,-97.649,130.0,67.0
81839,-0.265,-0.950,0.280,-22.893,49.656,-85.183,132.0,67.0
81893,-0.210,-0.809,0.246,-28.931,61.603,-65.260,131.0,97.0
81947,-0.251,-0.802,0.381,-31.458,52.466,-41.771,132.0,99.0
82008,-0.288,-0.825,0.439,-27.969,21.359,-23.511,179.0,101.0
82064,-0.224,-0.857,0.440,-27.282,-9.763,-11.145,176.0,103.0
82121,-0.190,-0.914,0.436,-24.405,-19.603,1.397,174.0,102.0
82178,-0.184,-1.054,0.442,-6.893,-24.664,9.168,168.0,113.0
82232,-0.060,-0.958,0.334,3.069,-16.519,33.901,162.0,58.0
82285,-0.107,-1.119,0.289,-0.031,16.229,36.794,157.0,58.0
82338,-0.146,-1.198,0.247,3.282,27.252,28.023,154.0,57.0
82391,-0.164,-0.967,0.242,7.580,7.710,34.779,149.0,59.0
82444,-0.203,-0.991,0.191,8.427,-26.023,47.542,160.0,62.0
82501,-0.127,-1.175,0.040,19.992,-52.321,37.573,156.0,67.0
82554,-0.025,-0.910,-0.010,20.855,-21.397,30.214,152.0,70.0
82609,-0.068,-0.772,0.093,20.328,5.405,40.267,153.0,74.0
82662,-0.116,-0.807,0.125,21.038,17.420,33.305,132.0,78.0
82716,-0.133,-0.820,0.125,18.557,25.298,11.855,146.0,81.0
82770,-0.305,-0.692,0.130,16.718,66.160,-0.817,142.0,84.0
82824,-0.739,-1.115,0.303,18.664,89.771,16.870,139.0,89.0
82879,-0.836,-1.205,0.330,26.275,41.466,86.573,146.0,95.0
82937,0.100,-0.173,0.491,4.046,-104.519,-88.626,142.0,100.0
82992,0.031,-1.678,-0.228,28.542,-12.695,-0.122,127.0,104.0
83046,-0.268,-0.271,0.526,10.313,118.878,27.099,139.0,108.0
83102,-0.475,-1.041,0.247,-14.466,-19.489,-52.397,142.0,111.0
83159,-0.126,-0.885,0.139,-13.122,-13.359,-0.969,154.0,114.0
83215,-0.337,-0.847,0.481,-35.084,-26.214,-36.160,152.0,117.0
83272,-0.386,-0.686,0.403,-38.481,-76.626,-29.847,150.0,121.0
83328,-0.303,-0.810,0.221,-24.115,-47.947,6.878,134.0,124.0
83384,-0.315,-0.768,0.360,-27.817,-51.733,30.069,137.0,130.0
83447,-0.143,-1.146,-0.108,-28.992,-58.473,10.084,131.0,0.0
83500,-0.078,-1.190,-0.109,-33.481,-15.794,25.084,136.0,49.0
83550,-0.150,-1.217,0.086,-20.031,-34.420,-3.931,109.0,50.0
83599,-0.176,-1.138,0.002,-2.374,10.023,1.282,107.0,50.0
83651,-0.376,-0.907,0.110,9.458,-7.267,6.038,142.0,50.0
83703,-0.097,-0.368,-0.308,0.405,17.931,4.740,141.0,49.0
83755,-0.330,-1.095,-0.029,-22.282,38.153,-2.374,134.0,50.0
83806,-0.229,-1.172,0.219,-32.679,-26.229,-23.511,132.0,51.0
83861,-0.344,-0.960,0.303,-17.870,19.664,-9.557,133.0,52.0
83911,-0.578,-1.024,0.258,7.901,24.679,16.275,108.0,54.0
83962,-0.313,-1.012,0.238,22.916,-30.221,10.885,135.0,53.0
84013,0.021,-0.811,0.024,21.290,-35.000,-6.031,105.0,52.0
84063,-0.136,-0.895,0.019,9.481,-11.672,-19.702,105.0,52.0
84114,-0.244,-0.937,0.221,-12.649,2.718,-23.802,129.0,50.0
84165,-0.303,-0.829,0.253,-13.702,34.351,-7.779,133.0,50.0
84217,-0.572,-0.996,0.458,6.466,-5.328,12.802,146.0,50.0
84270,-0.353,-0.860,0.101,8.244,1.656,13.061,145.0,51.0
84323,-0.275,-0.946,0.057,-1.947,-11.489,21.122,106.0,52.0
84375,-0.332,-1.002,0.200,-2.191,14.000,26.466,131.0,59.0
84427,-0.379,-0.793,0.241,1.099,-12.985,21.389,132.0,54.0
84476,-0.066,-0.919,0.052,-3.695,-41.336,1.099,102.0,53.0
84570,-0.775,-0.933,0.342,2.679,54.679,27.382,103.0,55.0
84622,-1.014,-1.067,0.552,41.122,-18.786,69.000,130.0,54.0
84673,-0.381,-0.846,0.228,62.901,-73.695,93.435,128.0,57.0
84725,-0.122,-0.836,-0.044,66.122,-1.328,88.183,127.0,57.0
84781,-0.308,-0.840,0.154,21.611,-4.870,58.389,126.0,64.0
84833,-0.144,-0.905,0.053,23.015,-11.550,22.634,137.0,57.0
84884,-0.844,-0.708,0.524,13.878,57.725,29.069,125.0,59.0
84935,-1.232,-0.547,0.789,38.435,-33.511,62.282,58.0,117.0
84987,-0.560,-0.401,0.298,25.641,-64.786,61.344,125.0,60.0
85039,-0.595,-0.644,0.444,33.160,-5.351,59.244,58.0,119.0
85093,-0.810,-0.473,0.579,35.489,-47.382,54.977,126.0,121.0
85149,-0.457,-0.535,0.371,30.145,-25.618,38.893,123.0,122.0
85202,-0.771,-0.496,0.553,30.137,13.763,44.748,121.0,100.0
85260,-0.772,-0.393,0.515,34.336,-7.802,53.092,121.0,101.0
85315,-0.593,-0.254,0.406,26.145,7.389,50.511,129.0,111.0
85365,-1.009,-0.426,0.751,27.221,0.366,58.069,48.0,103.0
85415,-0.654,-0.272,0.600,33.282,-4.305,48.565,46.0,112.0
85466,-0.841,-0.154,0.681,30.718,9.634,47.496,44.0,113.0
85516,-0.774,-0.115,0.589,28.916,-6.389,37.359,44.0,114.0
85566,-0.763,-0.119,0.577,18.038,16.893,33.229,44.0,115.0
85617,-0.822,-0.056,0.649,25.206,-22.786,36.260,44.0,131.0
85668,-0.751,-0.090,0.607,21.702,2.412,37.908,49.0,132.0
85723,-0.769,0.069,0.601,18.847,-13.198,26.351,39.0,133.0
85780,-0.767,0.048,0.552,12.427,-1.351,25.611,39.0,134.0
85831,-0.831,-0.002,0.688,13.832,-5.809,34.580,39.0,135.0
85881,-0.678,0.074,0.637,26.473,-21.885,34.084,39.0,136.0
85932,-0.742,0.207,0.562,26.282,10.802,44.641,39.0,137.0
85982,-0.630,0.237,0.542,20.618,-12.939,26.427,38.0,136.0
86032,-0.690,0.086,0.566,-12.786,27.130,-9.573,38.0,135.0
86083,-0.939,0.127,0.836,-16.908,-1.702,-16.061,38.0,135.0
86136,-0.697,0.095,0.686,-11.695,-14.771,-42.137,37.0,134.0
86185,-0.870,0.200,0.746,-12.008,6.603,-40.229,39.0,119.0
86235,-0.890,0.276,0.680,13.359,-0.924,-7.191,38.0,119.0
86285,-0.808,0.230,0.588,15.405,-9.740,12.786,37.0,119.0
86334,-0.759,0.260,0.458,15.344,11.366,30.786,37.0,120.0
86384,-0.926,0.223,0.704,5.870,-10.817,41.931,37.0,135.0
86434,-0.752,0.177,0.637,10.275,-13.267,47.099,39.0,137.0
86487,-0.704,0.191,0.657,17.038,3.427,48.260,45.0,151.0
86538,-0.636,0.090,0.558,11.412,-11.000,26.237,36.0,151.0
86592,-0.777,0.116,0.662,-5.351,26.565,9.618,37.0,151.0
86643,-0.838,0.178,0.798,-14.489,-32.237,-20.511,37.0,151.0
86694,-0.705,0.344,0.750,-17.718,-13.748,-31.771,37.0,151.0
86746,-0.931,0.313,0.810,12.817,13.771,-2.977,37.0,151.0
86794,-0.766,0.303,0.615,35.122,-34.305,16.496,35.0,93.0
86845,-0.601,0.416,0.351,24.038,4.527,31.908,36.0,152.0
86893,-0.843,0.340,0.609,11.901,-1.824,42.740,36.0,93.0
86940,-0.627,0.386,0.593,7.466,0.748,43.008,35.0,96.0
86988,-0.639,0.146,0.787,12.618,0.885,31.008,35.0,94.0
87040,-0.595,0.382,0.537,16.908,11.351,15.107,34.0,94.0
87088,-0.834,0.326,0.708,-0.618,18.405,8.603,34.0,95.0
87178,-0.757,0.419,0.710,-23.221,21.214,-16.122,35.0,95.0
87226,-0.807,0.365,0.748,-4.122,-5.084,-13.695,34.0,95.0
87278,-0.724,0.409,0.627,4.435,-2.092,6.710,34.0,154.0
87325,-0.686,0.317,0.596,11.527,1.214,12.076,35.0,97.0
87373,-0.743,0.392,0.674,12.855,-2.267,14.466,35.0,96.0
87421,-0.704,0.429,0.603,13.603,2.863,20.382,34.0,94.0
87470,-0.622,0.427,0.583,11.969,5.168,16.229,34.0,95.0
87524,-0.757,0.390,0.644,6.573,0.176,11.137,35.0,155.0
87575,-0.627,0.458,0.617,4.298,-11.924,7.550,33.0,155.0
87626,-0.674,0.422,0.657,4.160,10.191,0.924,35.0,155.0
87677,-0.660,0.531,0.600,1.595,-9.031,-6.725,34.0,155.0
87730,-0.781,0.431,0.609,4.221,13.924,2.939,35.0,155.0
87781,-0.696,0.400,0.589,8.618,-13.809,11.092,34.0,155.0
87832,-0.580,0.411,0.561,9.069,10.427,8.382,35.0,155.0
87880,-0.743,0.517,0.638,15.496,-6.802,-0.985,34.0,94.0
87928,-0.748,0.623,0.552,8.389,9.359,4.969,34.0,93.0
87983,-0.752,0.623,0.604,7.160,3.206,16.160,34.0,155.0
88031,-0.675,0.390,0.543,10.626,-2.450,17.649,33.0,92.0
88078,-0.529,0.459,0.474,-5.901,-4.718,-2.458,33.0,92.0
88126,-0.748,0.587,0.613,-18.962,10.336,-11.786,33.0,91.0
88174,-0.772,0.521,0.706,-8.687,-7.008,-5.313,33.0,91.0
88221,-0.717,0.569,0.678,4.267,-7.489,7.779,33.0,91.0
88269,-0.575,0.351,0.487,13.748,-3.939,10.351,33.0,93.0
88316,-0.648,0.538,0.481,11.573,4.099,10.084,32.0,91.0
88365,-0.758,0.571,0.587,3.344,6.916,14.504,33.0,93.0
88416,-0.705,0.573,0.649,8.183,-6.611,24.542,32.0,92.0
88463,-0.641,0.477,0.676,12.634,-6.198,23.588,32.0,91.0
88511,-0.530,0.545,0.479,14.496,-2.947,13.160,32.0,88.0
88558,-0.760,0.563,0.604,8.038,3.099,11.611,32.0,88.0
88606,-0.603,0.619,0.487,8.427,-2.046,15.565,31.0,88.0
88653,-0.668,0.496,0.598,11.328,5.107,22.321,31.0,88.0
88700,-0.557,0.601,0.535,12.221,-11.137,14.504,31.0,89.0
88749,-0.541,0.607,0.514,12.702,7.641,9.664,31.0,89.0
88797,-0.762,0.674,0.589,15.267,6.031,15.756,32.0,91.0
88847,-0.538,0.684,0.498,14.466,-17.351,14.992,32.0,89.0
88895,-0.525,0.677,0.462,11.779,7.420,11.031,31.0,89.0
88941,-0.617,0.707,0.585,-2.359,7.885,9.206,31.0,60.0
88986,-0.562,0.680,0.599,6.053,-20.328,2.328,32.0,59.0
89034,-0.484,0.697,0.531,11.832,7.893,-0.794,31.0,89.0
89081,-0.627,0.644,0.542,17.908,-12.511,-1.878,32.0,89.0
89129,-0.318,0.810,0.375,-7.710,-7.901,-29.473,31.0,89.0
89178,-0.539,0.605,0.551,-28.069,-6.328,-65.473,32.0,94.0
89226,-0.713,0.583,0.742,-27.229,-9.015,-67.313,32.0,93.0
89277,-0.446,0.669,0.262,-39.061,-10.504,-87.420,33.0,91.0
89325,-0.667,0.543,0.350,-67.573,-6.351,-96.351,34.0,94.0
89376,-0.618,0.176,0.514,-94.985,42.405,-85.412,37.0,155.0
89427,-0.721,0.170,0.667,-71.466,12.015,-93.687,37.0,139.0
89479,-0.766,0.287,0.543,-93.252,10.107,-112.099,40.0,136.0
89530,-0.882,-0.229,0.616,-94.115,-8.916,-111.427,44.0,134.0
89579,-1.014,-0.194,0.639,-38.802,24.626,-78.305,43.0,106.0
89672,-0.906,-0.217,0.632,-34.763,-67.672,-41.893,44.0,105.0
89723,-0.536,-0.198,0.529,-21.756,-1.107,-26.435,51.0,129.0
89777,-0.933,-0.485,0.802,-32.695,0.573,-18.206,51.0,104.0
89826,-0.549,-0.202,0.427,-14.092,-50.450,-47.969,51.0,103.0
89881,-0.801,-0.291,0.612,-49.954,5.779,-19.771,129.0,104.0
89932,-0.754,-0.624,0.583,-27.496,-65.534,-39.458,124.0,62.0
89984,-0.282,-0.218,0.585,-30.107,10.282,-43.855,118.0,61.0
90035,-0.950,-0.845,0.900,-70.389,-19.595,-27.557,109.0,61.0
90085,-0.341,-0.461,0.318,-15.679,-54.641,-54.527,96.0,61.0
90136,-0.549,-0.351,0.615,-49.069,56.634,-21.557,110.0,62.0
90188,-0.840,-0.778,0.756,-23.962,-65.847,-47.427,94.0,61.0
90238,-0.195,-0.412,0.416,-12.000,-21.641,-39.626,93.0,60.0
90289,-0.666,-0.703,0.890,-77.954,2.832,-30.374,93.0,59.0
90338,-0.456,-0.879,0.377,-9.389,-104.244,-64.603,92.0,59.0
90388,-0.239,-0.454,0.446,-42.481,72.145,5.855,92.0,59.0
90437,-0.766,-0.940,0.937,-33.260,-103.992,-52.481,92.0,59.0
90487,0.217,-0.716,-0.006,-0.641,7.634,-23.382,91.0,59.0
90536,-0.906,-0.833,1.004,-57.435,41.802,4.458,92.0,59.0
90590,-0.043,-0.909,0.216,8.962,-170.176,-54.740,91.0,59.0
90639,-0.003,-0.382,0.185,-11.061,189.771,14.260,91.0,59.0
90689,-1.380,-1.290,1.283,-25.977,-85.099,-14.252,92.0,58.0
90738,0.750,-0.682,-0.231,25.664,-85.664,-24.008,91.0,58.0
90788,-0.667,-0.640,0.822,-39.298,167.206,31.099,92.0,58.0
90838,-0.624,-1.013,0.678,0.977,-190.397,-34.397,91.0,58.0
90888,0.416,-0.580,-0.131,-0.198,88.886,9.107,91.0,57.0
90937,-1.272,-1.070,1.198,-36.901,-27.878,9.634,92.0,58.0
90987,0.555,-0.858,-0.081,12.504,-131.214,-27.053,91.0,57.0
91039,-0.533,-0.650,0.672,-23.679,165.656,32.252,92.0,57.0
91089,-0.691,-1.097,0.827,-17.489,-180.489,-30.847,92.0,58.0
91139,0.660,-0.790,-0.369,19.550,64.450,5.496,92.0,57.0
91189,-1.086,-0.819,1.226,-40.855,46.718,10.328,93.0,57.0
91239,0.182,-1.052,0.063,9.641,-180.076,-28.573,93.0,57.0
91288,0.087,-0.378,0.066,0.489,214.046,21.527,93.0,57.0
91338,-1.482,-1.270,1.322,-48.969,-148.366,-17.237,93.0,57.0
91387,1.233,-0.944,-0.702,32.344,-91.008,-29.137,93.0,57.0
91438,-0.882,-0.292,0.579,-33.221,250.130,61.099,94.0,55.0
91491,-0.873,-1.170,0.755,-0.687,-250.137,-39.038,93.0,58.0
91540,1.128,-0.375,-0.717,8.305,138.496,13.153,93.0,58.0
91590,-1.658,-1.129,1.578,-38.588,66.298,21.824,94.0,56.0
91640,0.293,-0.975,-0.056,14.252,-224.527,-37.443,93.0,58.0
91689,0.153,-0.474,0.011,-4.496,225.725,28.542,93.0,57.0
91740,-1.458,-1.280,1.283,-22.244,-95.031,-9.565,93.0,56.0
91789,0.737,-0.819,-0.353,25.443,-115.084,-26.824,92.0,57.0
91839,-0.424,-0.598,0.411,-23.649,216.305,35.817,93.0,57.0
91897,-0.566,-1.061,0.570,-2.382,-206.527,-27.611,92.0,57.0
91947,0.798,-0.605,-0.487,13.366,89.992,1.427,92.0,57.0
91996,-1.258,-0.975,1.165,-42.130,96.313,23.206,93.0,57.0
92045,-0.122,-1.069,0.237,7.122,-219.481,-30.046,92.0,58.0
92094,0.499,-0.550,-0.240,2.931,166.176,14.344,92.0,57.0
92142,-1.443,-1.196,1.424,-34.924,-5.107,7.130,92.0,57.0
92234,0.583,-0.391,-0.455,13.344,199.267,15.382,91.0,58.0
92283,-1.542,-1.208,1.378,-28.336,6.733,6.206,92.0,57.0
92333,0.431,-0.961,-0.159,27.534,-167.427,-25.718,91.0,57.0
92385,-0.159,-0.608,0.218,-11.260,219.672,28.504,91.0,57.0
92434,-1.068,-1.217,1.069,-6.885,-117.450,-11.840,91.0,58.0
92483,0.807,-0.710,-0.406,34.313,-36.092,-16.084,91.0,58.0
92532,-0.665,-0.831,0.613,-20.519,187.740,28.046,91.0,58.0
92581,-0.682,-1.092,0.658,-0.832,-162.847,-22.725,91.0,58.0
92631,0.760,-0.595,-0.418,24.427,39.618,-9.954,91.0,58.0
92679,-0.897,-0.764,0.756,-23.420,193.969,37.321,92.0,57.0
92728,-0.676,-1.127,0.608,-0.809,-203.962,-21.824,91.0,58.0
92780,0.772,-0.621,-0.483,22.252,93.443,7.710,91.0,58.0
92829,-1.150,-0.961,0.985,-22.305,161.977,39.153,92.0,57.0
92878,-0.475,-0.985,0.475,8.336,-204.893,-28.214,91.0,58.0
92928,0.708,-0.649,-0.408,23.000,92.664,4.267,91.0,58.0
92977,-1.172,-0.995,1.026,-25.061,139.359,31.550,92.0,57.0
93026,-0.412,-1.025,0.463,11.695,-226.191,-32.794,92.0,58.0
93075,0.629,-0.644,-0.337,17.565,79.496,7.931,91.0,58.0
93124,-1.113,-0.932,1.120,-19.748,95.588,23.626,92.0,58.0
93173,-0.310,-1.044,0.290,17.504,-215.901,-39.962,91.0,58.0
93225,0.425,-0.559,-0.264,27.565,181.786,25.985,91.0,59.0
93275,-1.427,-0.950,1.354,-11.176,67.908,25.489,92.0,57.0
93324,-0.096,-0.952,0.190,23.214,-219.779,-34.069,91.0,58.0
93373,0.432,-0.613,-0.211,8.702,173.237,22.466,91.0,58.0
93422,-1.364,-1.062,1.326,-21.641,38.137,14.511,92.0,58.0
93471,-0.006,-0.888,0.133,3.641,-215.405,-37.985,91.0,59.0
93520,0.502,-0.667,-0.144,-0.618,131.992,5.198,91.0,58.0
93570,-1.222,-0.918,1.239,-31.855,70.344,10.634,92.0,57.0
93619,-0.143,-0.947,0.217,-2.160,-223.137,-47.786,91.0,58.0
93671,0.506,-0.618,-0.353,-3.916,220.840,11.702,92.0,58.0
93720,-1.799,-1.152,1.653,-35.336,53.473,17.374,93.0,57.0
93769,0.155,-0.971,-0.021,18.519,-250.137,-42.191,91.0,58.0
93818,0.467,-0.586,-0.343,2.855,249.084,31.420,91.0,57.0
93868,-1.858,-1.209,1.630,-18.443,10.611,16.382,93.0,57.0
93918,0.203,-0.921,-0.110,22.313,-250.137,-34.427,91.0,58.0
93967,0.426,-0.647,-0.227,5.137,204.733,29.252,92.0,58.0
94016,-1.697,-1.207,1.511,-11.733,0.916,15.595,93.0,57.0
94068,0.441,-0.844,-0.231,25.145,-180.130,-29.450,91.0,57.0
94117,-0.042,-0.621,0.061,3.992,243.237,44.313,92.0,59.0
94167,-1.362,-1.080,1.301,2.611,-95.809,-3.832,92.0,58.0
94216,0.653,-0.781,-0.243,23.595,-103.725,-28.183,91.0,58.0
94266,-0.490,-0.711,0.394,-8.847,231.275,38.313,93.0,57.0
94315,-1.064,-0.974,0.993,-6.008,-171.588,-22.183,93.0,58.0
94364,0.865,-0.648,-0.465,13.771,-36.809,-23.771,92.0,57.0
94413,-0.920,-0.769,0.803,-27.115,203.954,36.130,93.0,57.0
94462,-0.713,-0.948,0.560,-10.206,-250.137,-39.824,93.0,57.0
94516,0.944,-0.580,-0.599,1.664,133.733,3.450,92.0,57.0
94565,-1.467,-0.974,1.358,-24.832,173.198,29.527,94.0,56.0
94614,-0.380,-0.958,0.296,-1.527,-250.137,-43.176,93.0,57.0
94663,0.799,-0.557,-0.474,-2.321,164.901,10.107,93.0,56.0
94755,-0.405,-0.949,0.241,-1.420,-244.504,-30.481,94.0,58.0
94806,0.699,-0.623,-0.375,6.595,125.351,14.443,93.0,56.0
94855,-1.348,-1.043,1.252,-21.710,91.397,26.511,94.0,56.0
94904,-0.146,-0.980,0.208,7.321,-215.321,-26.473,93.0,58.0
94953,0.521,-0.692,-0.219,17.817,157.626,15.351,93.0,56.0
95014,-1.330,-1.092,1.188,-6.107,-89.374,-3.641,93.0,56.0
95067,0.692,-0.745,-0.365,15.794,-86.191,-21.000,93.0,56.0
95119,-0.652,-0.779,0.583,-0.336,214.115,34.580,93.0,56.0
95171,-0.783,-0.978,0.688,-3.359,-175.947,-22.664,93.0,57.0
95222,0.740,-0.676,-0.360,5.252,17.534,-13.664,93.0,56.0
95275,-0.818,-0.958,0.798,0.282,157.649,16.809,94.0,56.0
95327,-0.550,-0.954,0.478,-8.046,-171.137,-28.382,93.0,56.0
95379,0.569,-0.698,-0.246,4.435,77.137,-3.412,93.0,56.0
95434,-1.020,-0.764,1.018,-1.298,117.977,20.305,95.0,56.0
95486,-0.401,-0.999,0.386,-9.130,-191.886,-28.000,93.0,56.0
95539,0.488,-0.774,-0.186,7.626,112.504,6.771,93.0,56.0
95590,-1.187,-1.019,1.174,-9.969,58.473,15.893,94.0,55.0
95642,0.033,-0.881,0.092,10.046,-165.580,-28.710,93.0,56.0
95694,0.091,-0.760,0.066,9.046,150.160,15.977,94.0,56.0
95747,-1.178,-1.011,1.109,-8.786,-19.962,8.008,95.0,55.0
95799,0.287,-0.818,-0.013,17.252,-123.702,-21.366,93.0,55.0
95851,-0.203,-0.743,0.276,4.931,174.565,25.168,94.0,56.0
95906,-0.863,-0.965,0.858,-1.863,-120.206,-8.160,94.0,56.0
95959,0.581,-0.685,-0.241,20.099,-16.634,-4.603,93.0,56.0
96011,-0.646,-0.765,0.639,1.336,175.802,38.870,94.0,56.0
96063,-0.705,-0.946,0.684,3.336,-152.084,-9.160,94.0,57.0
96115,0.580,-0.708,-0.196,18.153,33.267,-0.786,93.0,56.0
96167,-0.902,-0.861,0.900,1.718,139.565,31.107,94.0,57.0
96220,-0.599,-0.913,0.542,7.351,-169.053,-11.817,94.0,56.0
96272,0.409,-0.609,-0.121,16.962,58.786,13.458,93.0,56.0
96324,-1.107,-0.889,1.088,-0.969,75.298,35.221,94.0,57.0
96379,-0.103,-0.887,0.263,20.427,-159.412,-12.305,93.0,57.0
96432,0.185,-0.652,0.037,17.450,161.382,19.397,93.0,57.0
96484,-1.244,-0.957,1.169,0.771,-4.962,9.229,94.0,57.0
96536,0.178,-0.744,0.040,13.756,-104.794,-19.466,93.0,57.0
96589,-0.348,-0.710,0.379,-2.992,152.191,18.443,94.0,57.0
96642,-0.950,-0.863,0.871,1.420,-78.656,-6.115,94.0,57.0
96694,0.202,-0.658,0.062,12.122,-32.672,-1.649,93.0,57.0
96746,-0.579,-0.621,0.665,-2.809,122.672,26.282,94.0,57.0
96801,-0.757,-0.933,0.786,1.763,-155.947,-5.198,93.0,58.0
96854,0.429,-0.589,-0.057,19.496,52.603,4.763,93.0,57.0
96907,-1.156,-0.950,1.118,-16.840,68.145,15.168,94.0,57.0
96959,-0.137,-0.746,0.211,-6.817,-176.504,-35.817,93.0,59.0
97011,0.145,-0.634,0.092,-14.664,144.656,-2.740,93.0,57.0
97063,-1.331,-0.935,1.236,-25.840,12.649,-8.595,94.0,57.0
97116,0.096,-0.665,0.136,-2.275,-136.412,-25.969,93.0,57.0
97168,-0.103,-0.675,0.282,-13.244,154.542,6.687,93.0,57.0
97220,-1.104,-1.055,1.012,-20.130,-55.397,-12.389,94.0,57.0
97276,0.406,-0.708,-0.114,5.481,-34.603,-12.267,93.0,57.0
97329,-0.663,-0.724,0.714,-6.107,137.489,27.817,94.0,57.0
