Timestamp(ms),AccelX(g),AccelY(g),AccelZ(g),GyroX(deg/s),GyroY(deg/s),GyroZ(deg/s),DistanceLeft(cm),DistanceRight(cm)
37975,-0.106,-0.977,0.189,1.366,-6.305,8.046,0.0,92.0
38028,-0.107,-0.983,0.188,1.282,-3.290,3.977,0.0,92.0
38082,-0.127,-0.980,0.199,0.885,-1.779,-0.458,0.0,91.0
38135,-0.122,-0.974,0.189,0.344,-2.595,-2.160,0.0,91.0
38190,-0.133,-0.979,0.192,-0.267,-2.542,-3.954,0.0,91.0
38244,-0.134,-0.973,0.186,-0.756,-2.473,-5.802,0.0,92.0
38297,-0.139,-0.978,0.196,-1.198,-2.183,-5.992,0.0,91.0
38351,-0.137,-0.979,0.200,-0.282,-2.656,-5.038,0.0,91.0
38403,-0.136,-0.975,0.189,-0.206,-0.916,-3.664,0.0,91.0
38457,-0.136,-0.970,0.199,0.282,-0.160,-1.710,0.0,91.0
38511,-0.144,-0.978,0.199,0.588,-3.015,-0.603,0.0,93.0
38564,-0.131,-0.963,0.181,1.389,-2.702,1.412,0.0,91.0
38619,-0.144,-0.985,0.186,1.603,0.397,5.649,0.0,93.0
38673,-0.180,-0.995,0.184,1.122,6.359,11.992,0.0,93.0
38726,-0.446,-1.066,0.307,4.878,19.214,21.908,0.0,74.0
38781,-1.036,-0.609,0.415,5.389,35.840,47.198,0.0,125.0
38835,-1.209,-1.148,0.240,26.412,10.122,166.519,0.0,83.0
38893,-0.975,-1.634,0.240,11.053,-34.504,250.130,0.0,108.0
38946,-0.234,-1.437,0.143,39.992,-133.588,218.267,0.0,81.0
39002,0.424,-0.835,-0.139,57.901,-171.168,107.168,0.0,107.0
39055,0.496,-0.639,-0.209,-44.214,-94.718,-4.107,0.0,80.0
39109,-0.118,-0.689,0.328,-95.061,65.611,-94.565,0.0,80.0
39162,-0.874,-0.802,0.678,-40.924,49.046,-82.206,0.0,78.0
39217,-0.878,-0.709,0.552,-31.336,-9.954,-50.954,0.0,92.0
39271,-0.631,-0.771,0.414,-21.649,-2.466,-16.863,0.0,100.0
39327,-0.447,-0.861,0.386,-6.305,-2.183,-5.122,0.0,80.0
39380,-0.369,-0.745,0.331,2.099,6.122,-24.901,0.0,78.0
39434,-0.525,-0.781,0.331,4.992,38.015,-14.733,0.0,81.0
39490,-0.638,-0.773,0.438,6.794,12.977,-3.878,0.0,120.0
39545,-0.528,-0.723,0.364,5.458,2.237,3.702,0.0,119.0
39600,-0.467,-0.768,0.292,8.588,5.382,3.664,0.0,86.0
39653,-0.499,-0.788,0.359,3.534,5.496,3.969,0.0,79.0
39706,-0.470,-0.825,0.310,2.168,-1.038,-4.885,0.0,79.0
39760,-0.476,-0.861,0.337,-2.145,3.809,-5.115,0.0,97.0
39818,-0.520,-0.769,0.368,0.908,9.084,-4.924,0.0,94.0
39872,-0.525,-0.784,0.369,5.122,-3.176,-1.603,0.0,90.0
39926,-0.483,-0.806,0.318,8.298,-5.366,-1.198,0.0,96.0
39980,-0.502,-0.822,0.324,6.015,2.405,-1.359,0.0,78.0
40033,-0.518,-0.769,0.356,3.511,-8.076,0.542,0.0,78.0
40087,-0.510,-0.736,0.368,3.458,-11.931,3.786,0.0,93.0
40140,-0.516,-0.800,0.433,1.947,-14.740,2.718,0.0,79.0
40195,-0.900,-0.808,0.825,11.679,-22.466,13.115,0.0,96.0
40249,-1.303,-0.819,0.952,80.863,-37.519,72.466,0.0,81.0
40302,-1.143,-1.026,0.684,108.260,-94.069,107.855,0.0,81.0
40359,-0.424,-0.860,0.203,97.725,-95.901,126.664,0.0,85.0
40414,-0.115,-0.618,0.264,52.832,-100.656,97.076,0.0,85.0
40467,-0.046,-0.497,0.179,43.969,-50.603,59.504,0.0,86.0
40521,-0.278,-0.214,0.662,7.328,-12.542,37.710,0.0,91.0
40576,-0.443,-0.339,0.838,8.542,-18.405,22.214,0.0,87.0
40630,-0.507,-0.269,0.861,16.687,-35.565,17.473,0.0,89.0
40727,-0.426,-0.183,0.648,-5.069,12.679,10.947,0.0,84.0
40780,-0.357,-0.244,0.793,-17.168,-19.794,19.756,0.0,84.0
40838,-0.300,-0.314,0.840,-22.565,-1.359,-2.802,0.0,85.0
40892,-0.465,-0.305,0.930,-5.611,22.481,-0.351,0.0,84.0
40945,-0.529,-0.323,0.876,0.885,-5.504,4.840,0.0,85.0
40999,-0.336,-0.267,0.762,0.618,6.229,7.901,0.0,84.0
41053,-0.382,-0.291,0.799,-1.725,18.603,-4.321,0.0,84.0
41107,-0.397,-0.247,0.783,-3.695,14.084,-13.168,0.0,84.0
41161,-0.490,-0.241,0.801,-5.489,26.687,-14.168,0.0,83.0
41216,-0.604,-0.275,0.844,-5.672,16.840,-3.366,0.0,87.0
41270,-0.592,-0.242,0.828,-3.389,9.420,1.427,0.0,91.0
41327,-0.535,-0.248,0.781,-2.290,10.023,10.405,0.0,98.0
41381,-0.554,-0.275,0.808,-2.443,2.565,16.168,0.0,87.0
41436,-0.484,-0.264,0.728,-1.214,10.267,13.687,0.0,87.0
41490,-0.593,-0.242,0.750,-4.053,17.298,13.534,0.0,88.0
41544,-0.647,-0.170,0.783,-1.573,1.817,23.099,0.0,87.0
41597,-0.606,-0.197,0.700,-9.397,-3.863,26.664,0.0,84.0
41652,-0.616,-0.199,0.724,-13.695,1.924,33.305,0.0,83.0
41706,-0.620,-0.249,0.785,-14.191,6.282,36.206,0.0,83.0
41763,-0.647,-0.239,0.781,-2.916,6.084,36.366,0.0,139.0
41821,-0.746,-0.003,0.645,-5.756,20.137,52.695,0.0,83.0
41874,-1.046,0.243,0.676,-20.870,39.824,86.145,0.0,84.0
41928,-1.271,0.112,0.671,-35.756,25.695,127.145,0.0,83.0
41980,-1.362,-0.190,0.818,-21.061,4.527,179.595,0.0,57.0
42037,-0.750,-0.237,0.550,-38.496,-67.672,202.000,0.0,59.0
42087,-0.342,-0.307,0.481,-19.351,-6.137,176.939,138.0,63.0
42136,-0.477,-0.162,0.824,1.450,19.863,146.695,139.0,68.0
42180,-0.268,-0.021,0.745,0.153,-4.382,102.267,39.0,70.0
42224,-0.271,0.206,0.609,9.382,23.458,73.053,37.0,71.0
42271,-0.424,0.330,0.741,6.656,28.794,47.573,38.0,74.0
42315,-0.505,0.370,0.683,9.344,22.565,20.473,36.0,72.0
42359,-0.590,0.436,0.731,6.748,34.664,19.649,36.0,73.0
42403,-0.726,0.405,0.817,9.641,5.740,21.008,37.0,74.0
42447,-0.518,0.428,0.738,21.053,-29.099,11.893,37.0,74.0
42493,-0.408,0.391,0.610,22.061,-16.160,0.878,37.0,101.0
42537,-0.409,0.448,0.575,29.885,4.191,-15.901,37.0,74.0
42582,-0.478,0.477,0.576,27.832,8.664,-26.885,36.0,73.0
42626,-0.565,0.579,0.606,27.672,8.107,-28.435,36.0,72.0
42673,-0.654,0.644,0.638,22.466,-2.641,-29.595,37.0,70.0
42717,-0.694,0.528,0.608,17.069,-15.046,-22.412,36.0,70.0
42761,-0.632,0.593,0.631,17.977,-20.901,-24.282,36.0,70.0
42805,-0.601,0.461,0.608,15.000,-28.389,-22.916,36.0,70.0
42849,-0.547,0.453,0.595,18.145,-25.122,-27.847,36.0,70.0
42892,-0.534,0.468,0.592,19.763,-22.450,-36.649,35.0,69.0
42936,-0.509,0.422,0.582,19.160,-18.573,-45.130,36.0,69.0
42980,-0.567,0.464,0.606,19.397,-13.511,-57.313,35.0,69.0
43024,-0.596,0.424,0.595,17.183,-12.885,-61.115,35.0,67.0
43071,-0.680,0.430,0.615,21.198,-6.992,-60.038,36.0,67.0
43115,-0.702,0.394,0.628,25.092,-14.366,-58.107,36.0,74.0
43159,-0.675,0.396,0.608,25.611,-15.168,-54.382,36.0,62.0
43246,-0.651,0.385,0.602,32.779,-15.092,-54.954,37.0,73.0
43291,-0.636,0.353,0.557,32.748,-9.794,-55.992,36.0,76.0
43334,-0.686,0.343,0.620,37.260,1.618,-53.794,36.0,69.0
43378,-0.779,0.277,0.707,48.237,-9.580,-53.618,36.0,67.0
43422,-0.718,0.326,0.660,59.305,-17.031,-50.641,36.0,65.0
43475,-0.762,0.250,0.678,72.489,-16.015,-48.542,0.0,64.0
43522,-0.820,-0.034,0.901,111.321,-26.000,-41.664,24.0,64.0
43566,-0.941,-0.364,0.916,160.115,-44.855,-44.153,24.0,66.0
43610,-1.035,-0.073,0.487,210.275,-48.122,-61.267,23.0,91.0
43655,-1.036,0.419,0.214,228.420,-47.168,-45.931,23.0,89.0
43699,-1.083,0.606,0.117,195.534,-112.389,-49.130,23.0,85.0
43745,-0.894,0.716,-0.192,159.473,-140.969,-50.198,23.0,109.0
43789,-0.735,0.835,-0.281,116.397,-99.153,-41.672,25.0,85.0
43843,-0.802,0.874,0.121,64.603,-76.809,-38.344,0.0,87.0
43901,-0.667,0.869,0.111,5.336,-37.496,-28.634,0.0,86.0
43956,-0.742,0.903,0.201,-38.458,-25.015,-2.076,0.0,89.0
44011,-0.599,0.351,0.576,-67.580,-55.977,32.061,0.0,92.0
44056,-0.456,0.114,0.823,-14.076,-49.336,17.595,29.0,93.0
44101,-0.346,0.203,0.839,5.160,-59.435,-0.985,29.0,95.0
44147,-0.409,0.340,0.709,33.321,-48.756,-30.198,38.0,101.0
44193,-0.452,0.406,0.670,24.198,-56.481,-37.855,30.0,100.0
44238,-0.417,0.475,0.592,29.611,-44.565,-43.702,29.0,103.0
44284,-0.498,0.471,0.685,32.321,-41.008,-45.466,29.0,105.0
44334,-0.491,0.465,0.729,42.588,-47.069,-42.290,29.0,109.0
44381,-0.454,0.535,0.666,49.885,-46.885,-44.595,29.0,114.0
44432,-0.414,0.565,0.487,49.969,-28.511,-43.298,29.0,108.0
44477,-0.485,0.580,0.535,44.885,-20.214,-39.687,29.0,108.0
44523,-0.490,0.581,0.635,36.740,-29.458,-37.046,36.0,110.0
44568,-0.416,0.590,0.547,40.977,-28.221,-42.191,36.0,109.0
44614,-0.470,0.628,0.588,30.634,-15.855,-47.260,36.0,116.0
44661,-0.497,0.648,0.552,30.771,-13.435,-43.176,36.0,139.0
44710,-0.518,0.661,0.484,21.794,-15.527,-40.656,36.0,117.0
44758,-0.512,0.627,0.608,11.824,-8.947,-36.527,36.0,139.0
44804,-0.503,0.608,0.602,11.298,1.450,-30.130,37.0,116.0
44850,-0.571,0.647,0.605,17.031,-6.824,-27.763,38.0,126.0
44907,-0.543,0.594,0.583,13.206,-2.939,-17.015,0.0,139.0
44954,-0.581,0.575,0.581,8.786,-4.985,-13.679,36.0,138.0
45001,-0.508,0.633,0.496,3.756,-5.214,-18.008,36.0,138.0
45048,-0.571,0.521,0.604,-8.786,1.321,-15.229,36.0,138.0
45095,-0.650,0.436,0.826,-4.847,-4.107,-12.321,30.0,137.0
45155,-0.775,0.325,1.277,-4.672,-45.992,-9.244,0.0,138.0
45201,-0.742,0.152,1.361,22.489,-128.420,-26.779,25.0,139.0
45251,-0.826,0.261,1.305,12.870,-199.038,-61.290,26.0,0.0
45288,-0.590,0.186,0.736,50.595,-196.443,-77.061,27.0,0.0
45338,-0.535,0.216,0.351,84.924,-148.099,-86.053,29.0,0.0
45389,-0.556,0.465,0.009,107.588,-84.603,-95.840,31.0,0.0
45440,-0.528,0.801,-0.019,85.656,-80.534,-90.573,31.0,188.0
45490,-0.252,1.479,0.265,22.084,-80.336,-29.985,39.0,195.0
45541,-0.128,0.975,0.592,-25.626,-44.969,28.641,37.0,195.0
45595,-0.092,0.529,0.796,0.122,26.458,37.962,38.0,0.0
45688,-0.231,0.496,0.992,-6.763,6.794,26.160,36.0,0.0
45740,-0.168,0.548,0.917,-13.786,-36.168,16.908,36.0,0.0
45791,-0.112,0.552,0.848,-4.565,-42.458,4.290,36.0,0.0
45841,-0.093,0.659,0.811,13.595,-3.817,17.206,36.0,0.0
45892,-0.171,0.530,0.796,25.817,-10.344,35.527,36.0,0.0
45943,-0.021,0.530,0.668,22.496,-24.550,30.641,37.0,0.0
45995,0.082,0.538,0.639,9.168,-25.344,15.366,37.0,0.0
46046,0.112,0.532,0.664,11.000,-3.878,12.779,37.0,0.0
46099,0.139,0.594,0.612,24.176,-8.725,0.687,38.0,0.0
46150,0.152,0.720,0.628,16.420,5.321,-11.282,37.0,0.0
46201,0.122,0.754,0.642,6.260,26.168,1.466,37.0,0.0
46252,-0.042,0.745,0.743,11.763,60.092,23.336,37.0,0.0
46303,-0.023,0.762,0.753,8.023,40.855,39.527,38.0,0.0
46354,0.015,0.738,0.629,16.702,24.718,51.588,36.0,0.0
46405,0.035,0.729,0.616,26.260,11.550,40.008,29.0,0.0
46455,0.041,0.811,0.698,12.603,27.481,30.969,28.0,0.0
46505,-0.046,0.848,0.885,12.290,25.817,35.649,27.0,0.0
46560,0.013,0.780,0.733,31.656,0.397,47.427,28.0,0.0
46610,0.112,0.821,0.468,51.466,10.351,43.718,30.0,0.0
46660,0.136,0.875,0.344,38.924,32.046,42.122,27.0,0.0
46697,0.090,0.826,0.394,23.847,35.626,43.130,27.0,0.0
46747,0.052,0.738,0.475,8.260,32.336,38.939,26.0,0.0
46798,0.079,0.628,0.528,4.412,31.496,35.137,30.0,0.0
46835,0.160,0.620,0.549,10.405,36.649,20.092,30.0,0.0
46885,0.154,0.719,0.531,5.847,46.076,6.321,28.0,0.0
46936,0.129,0.853,0.521,-8.473,48.000,-9.458,27.0,0.0
46987,0.087,0.927,0.535,-24.115,58.527,-15.954,27.0,0.0
47027,-0.073,0.931,0.646,-22.046,49.122,0.702,27.0,0.0
47077,-0.081,0.895,0.633,-18.275,47.511,13.099,26.0,0.0
47114,-0.084,0.815,0.630,-9.191,50.366,31.214,23.0,0.0
47164,-0.083,0.749,0.633,-7.321,46.443,33.290,24.0,0.0
47214,-0.043,0.710,0.578,-11.069,39.336,27.305,23.0,0.0
47265,-0.020,0.735,0.604,-16.458,42.298,19.183,27.0,0.0
47315,-0.044,0.711,0.594,-22.969,54.168,13.267,23.0,0.0
47366,-0.154,0.663,0.695,-22.168,53.618,10.344,24.0,0.0
47412,-0.187,0.656,0.750,-13.756,44.542,8.145,23.0,113.0
47465,-0.155,0.697,0.727,-11.374,39.115,6.802,23.0,199.0
47515,-0.206,0.708,0.732,-12.115,35.237,3.099,22.0,199.0
47565,-0.185,0.681,0.697,-10.733,28.145,4.725,24.0,198.0
47611,-0.201,0.667,0.716,-4.092,29.527,5.931,22.0,110.0
47662,-0.226,0.648,0.756,5.443,26.298,5.908,24.0,196.0
47710,-0.227,0.683,0.740,11.710,18.290,4.771,23.0,161.0
47758,-0.210,0.693,0.686,13.374,13.290,2.649,23.0,165.0
47808,-0.205,0.755,0.639,9.023,18.664,1.084,23.0,194.0
47853,-0.250,0.695,0.690,3.351,10.985,0.366,22.0,105.0
47900,-0.248,0.668,0.702,10.710,1.710,-1.870,22.0,105.0
47945,-0.220,0.688,0.681,16.870,2.611,-2.618,22.0,108.0
47990,-0.197,0.699,0.603,15.969,-0.214,-6.321,22.0,104.0
48035,-0.100,0.683,0.335,7.947,10.214,-12.519,22.0,99.0
48080,0.066,0.640,-0.071,-30.969,41.763,-34.191,22.0,102.0
48167,-0.192,0.121,0.039,-128.061,147.366,-156.214,25.0,97.0
48214,-0.735,0.028,0.477,-123.740,149.321,-181.000,29.0,96.0
48257,-0.907,-0.013,0.611,-94.481,121.198,-195.229,29.0,65.0
48314,-0.980,-0.091,0.632,-80.672,129.038,-198.046,0.0,94.0
48365,-1.254,-0.311,0.854,-80.794,97.573,-191.191,133.0,101.0
48417,-1.149,-0.436,0.738,-61.015,30.603,-183.122,138.0,99.0
48473,-1.350,-0.472,0.731,-41.298,18.672,-147.550,0.0,102.0
48529,-1.049,-0.501,0.519,-23.214,-20.702,-107.840,0.0,117.0
48586,-0.975,-0.403,0.419,-8.611,-0.023,-56.237,0.0,147.0
48645,-0.922,-0.594,0.346,13.908,7.969,-33.786,0.0,144.0
48703,-0.808,-0.580,0.269,-3.885,-6.901,-15.061,0.0,169.0
48763,-0.748,-0.583,0.297,-10.672,-25.687,-12.725,0.0,185.0
48825,-0.650,-0.656,0.265,-11.336,-27.809,-0.939,0.0,147.0
48882,-0.565,-0.706,0.323,-12.733,-26.763,-6.756,0.0,148.0
48942,-0.485,-0.746,0.325,-9.885,-22.534,-21.137,0.0,163.0
48999,-0.423,-0.864,0.382,-9.794,-29.076,-52.374,0.0,144.0
49058,-0.312,-0.889,0.391,-5.977,-35.145,-76.901,0.0,168.0
49117,-0.219,-0.943,0.358,1.115,-26.702,-107.878,181.0,181.0
49174,-0.206,-1.045,0.302,9.221,2.366,-119.740,162.0,177.0
49229,-0.235,-0.982,0.370,10.947,22.702,-115.863,165.0,138.0
49282,-0.287,-1.160,0.375,9.870,41.740,-123.908,98.0,87.0
49331,-0.442,-0.642,0.968,-4.374,-20.336,-143.336,101.0,86.0
49384,-0.044,-0.932,0.343,50.252,-54.977,-109.435,95.0,174.0
49438,-0.030,-0.819,0.323,2.756,38.565,-91.145,106.0,179.0
49494,-0.170,-0.855,0.442,7.351,75.504,-23.878,99.0,0.0
49550,-0.246,-0.804,0.588,-12.985,26.985,-22.076,137.0,174.0
49603,-0.027,-0.746,0.529,-6.870,-28.344,-16.863,101.0,175.0
49652,0.047,-0.781,0.558,-10.710,-8.229,-5.992,98.0,84.0
49708,0.203,-0.851,0.430,-5.046,-0.450,-8.313,98.0,0.0
49765,0.189,-0.943,0.441,-13.282,-15.237,-5.229,97.0,0.0
49820,0.260,-0.959,0.470,-17.031,-17.191,12.855,97.0,0.0
49869,0.306,-0.920,0.348,-6.802,12.252,5.832,97.0,85.0
49923,0.111,-0.915,0.399,-5.122,31.740,-18.153,72.0,0.0
49975,0.069,-0.884,0.343,2.298,-13.092,-11.931,74.0,177.0
50030,0.141,-0.951,0.337,-3.603,-41.122,-7.160,96.0,0.0
50085,0.310,-0.925,0.351,-10.771,-16.031,-6.382,95.0,0.0
50139,0.234,-1.002,0.377,1.809,-0.939,-8.863,94.0,181.0
50193,0.231,-0.946,0.411,-1.504,-18.687,-6.763,93.0,180.0
50250,0.356,-0.952,0.339,9.359,-12.656,-9.496,85.0,0.0
50305,0.280,-0.889,0.375,10.740,-8.374,-14.015,85.0,0.0
50359,0.282,-0.872,0.303,11.977,-2.267,-8.427,65.0,0.0
50412,0.268,-0.886,0.299,4.397,-0.099,-1.725,65.0,0.0
50468,0.299,-0.834,0.288,-1.168,-18.427,-1.252,133.0,0.0
50523,0.318,-0.915,0.374,-0.962,-23.817,-1.695,82.0,0.0
50578,0.299,-0.952,0.453,-2.443,-14.824,2.962,88.0,0.0
50635,0.352,-0.883,0.404,5.771,-15.748,2.168,130.0,0.0
50692,0.455,-0.866,0.305,10.244,-12.198,1.130,129.0,0.0
50750,0.392,-0.932,0.270,5.534,-4.443,-3.252,82.0,0.0
50804,0.299,-0.854,0.435,-11.237,13.244,-8.450,81.0,0.0
50859,0.442,-0.885,0.350,-3.443,7.481,-3.809,81.0,0.0
50956,0.361,-0.902,0.451,-2.450,24.565,-16.931,85.0,0.0
51010,0.317,-0.885,0.440,3.527,13.832,-15.481,85.0,0.0
51070,0.316,-0.836,0.363,1.832,22.053,-13.656,85.0,0.0
51124,0.387,-0.792,0.273,0.969,23.885,-6.885,83.0,0.0
51177,0.305,-0.898,0.386,-1.496,5.527,-4.656,84.0,0.0
51230,0.325,-0.918,0.463,-1.115,-1.382,-12.267,84.0,0.0
51287,0.460,-0.884,0.321,-0.489,9.298,-5.527,82.0,0.0
51339,0.360,-0.785,0.413,3.542,12.771,-7.786,64.0,0.0
51391,0.385,-0.901,0.353,7.084,2.061,-10.496,66.0,0.0
51444,0.344,-0.812,0.411,-1.618,17.176,-13.786,66.0,0.0
51496,0.344,-0.774,0.421,-3.573,10.420,-11.473,65.0,0.0
51549,0.263,-0.846,0.483,1.008,9.191,-10.099,66.0,0.0
51601,0.381,-0.854,0.411,3.740,-17.664,-3.092,65.0,0.0
51653,0.432,-0.844,0.412,2.328,-2.015,-7.542,68.0,0.0
51706,0.491,-0.811,0.365,-3.763,12.473,-9.870,67.0,0.0
51762,0.380,-0.808,0.478,0.046,18.947,-6.435,66.0,0.0
51814,0.312,-0.863,0.505,-2.443,-3.679,-15.351,66.0,0.0
51866,0.483,-0.876,0.414,-0.405,8.130,-11.305,67.0,0.0
51919,0.441,-0.770,0.462,10.496,-1.870,-5.924,67.0,0.0
51973,0.521,-0.847,0.341,2.763,20.496,-12.672,89.0,0.0
52026,0.378,-0.861,0.574,4.649,18.641,-7.580,71.0,0.0
52078,0.442,-0.789,0.434,12.198,16.260,-10.282,71.0,0.0
52132,0.372,-0.792,0.444,9.305,23.847,-17.420,90.0,0.0
52172,0.230,-0.907,0.397,5.473,32.046,-18.634,86.0,0.0
52228,-0.010,-0.699,0.360,11.977,50.771,0.252,70.0,0.0
52282,0.045,-0.850,0.400,-0.794,-24.588,42.565,91.0,0.0
52334,0.258,-0.697,0.122,-9.481,-32.786,20.817,65.0,0.0
52388,-0.171,-0.781,0.643,-6.969,-79.107,42.977,82.0,0.0
52443,0.164,-0.751,0.338,11.061,-193.122,55.466,102.0,0.0
52497,0.206,-0.867,0.146,14.664,-194.092,92.710,91.0,0.0
52551,0.560,-1.106,-0.053,1.824,-197.656,135.084,88.0,0.0
52604,0.563,-1.030,0.014,-2.061,-83.863,126.046,82.0,0.0
52644,0.514,-1.281,0.180,5.153,-73.687,90.771,79.0,0.0
52701,0.244,-0.760,0.272,-4.656,-88.931,63.504,77.0,0.0
52754,0.414,-1.127,-0.051,0.618,-85.298,67.336,76.0,0.0
52793,0.276,-1.024,0.021,-2.855,-20.244,58.221,75.0,0.0
52846,0.177,-1.113,0.106,-11.786,-3.672,59.855,75.0,0.0
52886,0.036,-1.034,0.189,-6.252,0.458,42.725,75.0,0.0
52938,0.016,-0.992,0.180,-14.069,-8.160,25.969,75.0,0.0
52978,-0.025,-0.978,0.171,-18.893,-0.137,18.115,74.0,0.0
53031,-0.064,-1.043,0.189,-19.069,-8.183,21.573,74.0,0.0
53070,-0.068,-1.013,0.194,-9.405,-17.000,19.687,74.0,0.0
53127,-0.052,-1.084,0.159,-11.557,-29.145,15.870,74.0,0.0
53179,0.058,-0.986,0.075,-2.832,-12.832,12.221,73.0,191.0
53228,-0.017,-1.052,0.138,-7.252,5.069,3.076,73.0,120.0
53281,-0.037,-0.994,0.128,-3.427,4.069,-0.061,73.0,0.0
53320,-0.120,-1.037,0.177,-6.107,-12.924,-8.420,73.0,0.0
53373,-0.023,-1.015,0.079,-1.351,-16.779,-11.931,73.0,0.0
53427,-0.064,-1.044,0.120,-6.748,-4.885,-5.679,73.0,0.0
53480,-0.029,-0.991,0.112,2.992,-4.031,-0.397,73.0,0.0
53576,-0.054,-1.000,0.094,-0.435,-6.679,-7.015,73.0,0.0
53619,-0.041,-0.997,0.093,-2.092,-7.733,-4.672,73.0,0.0
53667,-0.038,-0.991,0.106,-1.748,-9.344,-0.924,73.0,120.0
53715,-0.040,-0.997,0.087,3.160,-5.099,-3.916,73.0,120.0
53765,-0.035,-0.998,0.096,0.794,-3.450,-6.282,74.0,123.0
53814,-0.020,-0.996,0.059,1.160,7.565,-5.824,74.0,123.0
53866,-0.078,-0.995,0.101,-0.443,5.023,-2.885,73.0,0.0
53919,-0.042,-0.992,0.052,-1.351,-1.641,0.763,73.0,0.0
53972,-0.068,-1.054,0.096,-3.427,-4.206,4.702,74.0,0.0
54022,-0.036,-0.989,0.093,-1.069,-9.511,6.565,73.0,122.0
54074,-0.022,-1.022,0.077,-0.908,-0.374,6.183,73.0,123.0
54127,-0.059,-1.008,0.115,-0.305,-1.992,4.534,73.0,0.0
54180,-0.046,-1.006,0.089,0.771,-2.756,4.366,72.0,0.0
54234,-0.030,-1.046,0.082,2.962,-5.038,3.603,72.0,0.0
54286,-0.016,-1.003,0.073,6.496,15.481,4.458,72.0,0.0
54339,-0.113,-1.040,0.130,3.802,11.130,3.947,72.0,0.0
54379,-0.114,-1.065,0.130,8.366,1.664,1.290,72.0,0.0
54432,-0.188,-1.084,0.166,7.809,-0.824,3.519,71.0,0.0
54471,-0.187,-1.195,0.119,16.435,-0.008,11.198,71.0,0.0
54525,-0.270,-1.000,0.216,30.771,46.031,42.221,70.0,167.0
54582,-0.564,-1.074,0.479,34.931,26.122,75.725,0.0,118.0
54638,-0.361,-1.087,0.343,62.374,4.359,83.450,0.0,120.0
54692,-0.460,-1.188,0.381,65.557,1.519,92.046,0.0,96.0
54748,-0.313,-1.001,0.268,71.725,-2.382,97.733,0.0,101.0
54803,-0.372,-0.900,0.246,64.573,-16.092,88.954,0.0,103.0
54856,-0.289,-0.799,0.213,57.977,-11.344,90.229,0.0,77.0
54910,-0.262,-0.664,0.223,46.840,10.214,78.084,0.0,79.0
54964,-0.373,-0.641,0.476,27.718,-15.687,57.321,0.0,80.0
55021,-0.391,-0.504,0.424,34.397,1.588,33.832,0.0,81.0
55075,-0.496,-0.576,0.418,21.504,-5.031,14.649,0.0,83.0
55130,-0.562,-0.444,0.388,20.901,16.183,7.710,0.0,83.0
55183,-0.678,-0.449,0.467,9.763,9.099,14.183,0.0,78.0
55236,-0.689,-0.446,0.558,4.809,-15.725,12.466,0.0,76.0
55290,-0.550,-0.455,0.479,6.863,-9.405,6.565,0.0,74.0
55344,-0.603,-0.480,0.543,3.740,-0.588,5.985,0.0,74.0
55397,-0.601,-0.461,0.570,1.489,-9.191,-4.733,0.0,74.0
55451,-0.610,-0.480,0.575,1.565,-11.664,-10.008,0.0,74.0
55507,-0.629,-0.464,0.570,2.969,-3.779,-12.634,0.0,74.0
55561,-0.688,-0.450,0.592,4.473,1.137,-13.229,0.0,73.0
55615,-0.690,-0.482,0.568,6.374,-0.168,-5.779,0.0,72.0
55668,-0.661,-0.479,0.556,5.137,-3.198,0.359,0.0,72.0
55721,-0.656,-0.474,0.619,4.237,-8.962,3.504,0.0,70.0
55775,-0.592,-0.467,0.599,8.870,-0.046,6.695,0.0,71.0
55828,-0.640,-0.425,0.505,9.893,3.504,4.672,0.0,73.0
55881,-0.730,-0.486,0.492,-0.069,-4.641,11.496,0.0,73.0
55936,-0.654,-0.472,0.779,-2.000,13.718,48.061,0.0,73.0
55992,-0.654,-0.789,1.173,29.481,12.214,102.420,0.0,72.0
56045,-0.612,-0.832,1.118,70.000,3.542,121.588,0.0,70.0
56099,-0.964,-0.810,0.872,94.504,37.122,156.260,0.0,73.0
56153,-1.170,-0.404,0.692,106.618,-36.092,108.305,0.0,73.0
56250,-0.501,0.347,-0.240,141.626,-75.443,20.618,0.0,78.0
56304,-0.557,0.803,-0.246,84.908,2.458,7.076,0.0,79.0
56358,-0.717,0.615,0.336,29.290,-1.305,44.779,0.0,86.0
56412,-0.582,0.427,0.651,-7.153,-47.015,26.786,0.0,75.0
56467,-0.353,0.333,0.591,11.931,-30.099,12.191,0.0,90.0
56525,-0.496,0.353,0.583,17.076,3.786,-1.511,0.0,98.0
56580,-0.613,0.508,0.578,1.855,14.992,-4.427,0.0,92.0
56634,-0.552,0.526,0.449,-4.374,-0.863,-3.290,0.0,92.0
56688,-0.595,0.448,0.587,-3.924,1.855,-0.511,0.0,81.0
56742,-0.595,0.578,0.618,-7.427,14.885,-0.893,0.0,80.0
56797,-0.590,0.468,0.595,-19.458,-7.344,-1.221,0.0,75.0
56851,-0.572,0.469,0.631,-19.603,-3.573,-5.885,0.0,88.0
56905,-0.644,0.340,0.843,-21.809,3.008,-1.573,0.0,73.0
56960,-0.647,0.182,0.963,-17.840,-16.427,-9.153,0.0,91.0
57008,-0.859,0.042,1.357,-9.786,-45.336,-13.969,43.0,81.0
57053,-0.752,-0.148,1.130,29.115,-76.405,-7.550,43.0,78.0
57100,-0.608,0.146,0.684,99.679,-70.290,-13.672,43.0,100.0
57155,-0.432,0.659,-0.091,128.168,-27.863,-5.870,0.0,105.0
57201,-0.431,0.929,0.081,36.779,-20.153,19.962,43.0,103.0
57248,-0.349,0.694,0.422,-9.519,-0.763,21.855,41.0,103.0
57294,-0.437,0.559,0.759,3.344,2.321,23.885,44.0,98.0
57350,-0.369,0.464,0.652,33.435,7.725,22.237,0.0,110.0
57397,-0.501,0.585,0.725,35.786,21.992,11.695,44.0,106.0
57446,-0.419,0.635,0.504,34.718,12.840,12.046,39.0,105.0
57492,-0.459,0.687,0.566,9.595,11.939,1.893,39.0,97.0
57538,-0.492,0.637,0.608,5.183,-6.878,-8.534,39.0,101.0
57585,-0.474,0.665,0.623,8.198,-20.031,-11.435,44.0,107.0
57631,-0.473,0.669,0.640,6.786,-15.565,-10.023,41.0,99.0
57677,-0.500,0.649,0.573,9.969,-14.038,-7.000,41.0,107.0
57730,-0.510,0.619,0.632,8.519,-20.565,-5.802,41.0,110.0
57776,-0.383,0.614,0.542,21.000,-20.527,-2.733,42.0,106.0
57821,-0.344,0.679,0.444,20.802,-6.252,-3.695,38.0,108.0
57869,-0.391,0.711,0.485,6.359,3.977,-8.008,44.0,105.0
57924,-0.503,0.677,0.640,-9.046,1.084,-15.130,0.0,107.0
57978,-0.755,0.658,1.152,-6.244,-28.336,-14.198,0.0,107.0
58034,-0.938,0.571,1.385,49.527,-51.466,29.863,0.0,116.0
58089,-0.709,0.581,0.701,118.473,-117.718,64.305,0.0,104.0
58139,-0.234,0.572,-0.130,116.076,-114.824,70.740,38.0,0.0
58190,0.032,0.581,-0.243,72.244,-92.336,54.939,35.0,0.0
58241,0.271,0.759,-0.071,32.893,-68.740,26.962,33.0,0.0
58292,0.236,0.897,0.246,7.954,-18.702,7.618,31.0,0.0
58345,0.006,1.047,0.600,-7.382,-5.878,-27.137,31.0,0.0
58394,-0.225,0.960,0.667,-0.397,-14.466,-15.786,31.0,175.0
58444,-0.155,0.830,0.408,28.954,-37.229,-1.809,32.0,0.0
58493,-0.063,0.844,0.237,30.221,-19.527,9.450,31.0,173.0
58544,-0.015,0.888,0.270,17.397,-12.160,7.198,30.0,0.0
58595,-0.021,1.018,0.394,2.344,-29.618,-6.779,30.0,0.0
58645,0.081,1.001,0.303,2.237,-21.756,-3.450,30.0,0.0
58695,0.052,0.952,0.277,7.763,-2.809,-5.870,30.0,0.0
58745,-0.042,0.988,0.282,1.771,7.725,-7.672,30.0,0.0
58843,-0.085,0.982,0.392,-13.412,2.931,-3.863,32.0,0.0
58893,-0.088,0.992,0.431,-10.015,-8.366,0.282,31.0,0.0
58943,-0.072,0.968,0.442,0.916,-17.176,9.794,31.0,0.0
58994,-0.146,0.922,0.576,10.336,-20.023,19.519,32.0,0.0
59044,-0.153,0.764,0.585,24.809,-33.305,25.710,31.0,0.0
59095,-0.112,0.604,0.479,24.412,-35.595,17.229,29.0,0.0
59146,-0.010,0.621,0.412,16.496,-47.718,1.130,29.0,0.0
59196,-0.014,0.711,0.391,10.573,-52.985,-17.649,29.0,0.0
59247,0.035,0.880,0.314,13.771,-65.282,-36.565,29.0,0.0
59300,0.075,1.118,0.262,8.290,-46.779,-43.931,29.0,0.0
59351,-0.019,1.112,0.320,-8.046,-42.466,-38.611,29.0,0.0
59402,-0.047,1.038,0.311,-3.130,-60.702,-35.679,27.0,0.0
59452,-0.024,0.993,0.174,10.649,-47.672,-31.870,28.0,0.0
59502,-0.058,1.041,0.174,8.496,-31.435,-28.832,27.0,0.0
59553,-0.056,1.046,0.193,-2.832,-39.931,-21.748,30.0,0.0
59603,-0.037,1.052,0.241,-6.481,-36.878,-20.656,27.0,0.0
59655,-0.005,1.009,0.218,-3.237,-26.725,-12.023,29.0,0.0
59705,-0.004,1.004,0.218,-0.198,-18.351,-10.099,27.0,0.0
59758,-0.026,0.951,0.218,-4.809,-13.794,-6.771,27.0,0.0
59808,-0.029,0.987,0.250,-6.290,-9.664,-5.481,29.0,184.0
59857,-0.034,0.966,0.294,-6.366,-6.405,-3.740,27.0,186.0
59909,-0.021,0.947,0.284,-5.214,-3.595,-1.198,29.0,0.0
59959,-0.023,0.921,0.256,-6.008,1.046,-1.275,29.0,0.0
60009,-0.015,0.940,0.315,-7.557,3.069,-4.985,28.0,191.0
60059,-0.023,0.974,0.332,-6.168,5.176,-3.031,29.0,188.0
60109,-0.070,0.907,0.322,-7.733,7.466,-2.443,28.0,0.0
60160,-0.110,0.732,0.310,-10.893,2.947,-11.374,29.0,188.0
60213,-0.121,0.762,0.342,-7.748,-2.382,-25.511,29.0,196.0
60264,-0.155,0.996,0.453,15.893,-22.733,-22.031,29.0,0.0
60314,-0.052,1.251,0.293,20.382,-9.420,-13.695,28.0,191.0
60364,-0.167,1.267,0.251,-12.267,14.282,4.954,29.0,182.0
60413,-0.208,1.146,0.229,-25.137,9.427,35.931,28.0,181.0
60464,-0.191,0.977,0.278,-27.351,0.710,50.969,27.0,183.0
60514,-0.071,0.984,0.358,-21.198,0.527,53.847,27.0,196.0
60564,0.004,0.994,0.395,-28.595,15.748,58.130,27.0,192.0
60614,-0.003,0.941,0.379,-27.702,25.878,63.985,29.0,0.0
60668,-0.015,0.828,0.370,-30.405,28.344,67.008,28.0,0.0
60720,0.042,0.724,0.454,-38.198,30.588,75.168,37.0,0.0
60771,0.124,0.524,0.591,-29.481,23.634,67.748,30.0,0.0
60821,0.251,0.554,0.689,-7.794,20.008,51.855,27.0,0.0
60872,0.305,0.695,0.683,1.977,25.756,34.374,30.0,0.0
60922,0.259,0.753,0.669,-0.504,26.107,25.351,30.0,0.0
60959,0.197,0.751,0.634,-5.023,18.664,18.977,24.0,0.0
61009,0.313,0.789,0.390,-4.450,28.344,18.069,25.0,0.0
61061,0.309,0.953,-0.008,-52.092,107.382,17.221,24.0,0.0
61114,0.191,0.842,-0.041,-153.168,85.000,-8.244,28.0,0.0
61165,0.281,0.335,-0.107,-239.244,146.542,-37.382,25.0,0.0
61220,-0.092,-0.048,0.028,-250.137,237.931,-60.038,0.0,117.0
61277,-0.734,-0.398,0.414,-250.137,216.695,-81.420,0.0,109.0
61331,-0.923,-0.837,0.831,-250.137,131.702,-101.573,0.0,92.0
61421,-0.625,-0.917,0.881,-195.244,23.397,-67.053,40.0,110.0
61467,-0.552,-1.029,0.694,-165.260,26.298,-71.061,40.0,107.0
61512,-0.556,-1.093,0.462,-141.015,38.817,-62.267,41.0,93.0
61562,-0.570,-1.104,0.433,-96.733,18.099,-68.969,41.0,104.0
61608,-0.490,-1.048,0.363,-72.573,-11.137,-66.489,41.0,104.0
61655,-0.403,-1.010,0.305,-57.344,-13.359,-51.420,41.0,104.0
61710,-0.351,-1.033,0.260,-39.733,-2.756,-49.557,0.0,105.0
61765,-0.320,-1.005,0.226,-13.969,0.252,-40.626,0.0,104.0
61811,-0.314,-0.995,0.164,-2.344,0.466,-35.901,44.0,104.0
61867,-0.251,-0.950,0.169,1.359,-8.290,-30.573,0.0,103.0
61919,-0.202,-0.926,0.122,-3.649,-3.145,-26.359,144.0,102.0
61974,-0.166,-0.959,0.139,-4.802,-2.221,-21.481,0.0,102.0
62032,-0.172,-0.987,0.121,-9.595,-5.611,-20.931,0.0,102.0
62088,-0.115,-0.972,0.141,-7.924,-3.550,-19.405,0.0,104.0
62143,-0.096,-0.934,0.147,-7.626,0.924,-20.305,0.0,107.0
62198,-0.058,-0.994,0.114,-4.466,1.145,-24.947,0.0,101.0
62254,-0.074,-1.030,0.096,-4.336,1.931,-30.298,0.0,100.0
62309,-0.091,-0.998,0.070,-6.359,4.954,-24.122,0.0,100.0
62364,-0.082,-1.022,0.070,-8.527,2.076,-18.267,0.0,102.0
62415,-0.035,-1.019,0.059,-10.748,-2.160,-12.290,141.0,101.0
62471,0.054,-0.984,0.060,-6.832,3.366,-10.954,141.0,101.0
62523,0.217,-1.047,-0.035,-5.420,11.260,-26.679,141.0,100.0
62575,0.292,-0.876,-0.030,-3.588,22.092,-44.481,142.0,101.0
62626,0.269,-1.104,-0.024,-9.824,15.580,-84.229,144.0,98.0
62685,0.294,-1.142,-0.070,-7.450,28.015,-104.214,146.0,0.0
62732,0.264,-1.005,0.046,-33.107,33.321,-103.260,0.0,0.0
62792,0.175,-0.904,0.232,-43.427,-15.321,-115.603,0.0,0.0
62836,0.283,-1.023,0.020,-45.450,-82.634,-137.344,131.0,0.0
62886,0.378,-1.010,-0.108,-24.046,-50.527,-98.466,132.0,96.0
62942,0.368,-0.867,-0.117,-5.031,-10.412,-37.656,133.0,98.0
62999,0.450,-0.734,-0.094,1.939,0.656,1.870,132.0,0.0
63055,0.613,-0.894,-0.237,16.618,-3.855,4.069,132.0,0.0
63107,0.672,-0.886,-0.220,2.985,0.687,21.519,130.0,100.0
63164,0.720,-0.809,-0.186,-7.824,0.725,10.588,130.0,0.0
63220,0.678,-0.830,-0.159,-13.947,2.397,0.763,129.0,0.0
63272,0.673,-0.826,-0.125,-6.336,16.359,-4.771,129.0,102.0
63324,0.635,-0.949,-0.085,-9.237,9.779,-4.977,129.0,100.0
63375,0.680,-0.829,-0.040,-2.275,-0.664,-13.748,130.0,99.0
63435,0.672,-0.799,-0.098,0.099,-6.550,-22.725,130.0,0.0
63492,0.634,-0.837,-0.127,7.473,6.641,-19.176,131.0,0.0
63536,0.553,-0.831,-0.111,9.443,8.756,-9.084,131.0,0.0
63592,0.536,-0.689,-0.085,11.412,10.389,3.931,131.0,0.0
63649,0.378,-0.746,-0.041,8.534,-7.756,11.664,130.0,0.0
63692,0.190,-0.684,0.070,9.275,-39.305,19.511,129.0,0.0
63744,0.157,-0.820,-0.013,15.000,-57.145,35.412,128.0,100.0
63796,0.175,-0.823,0.107,27.435,-59.061,68.878,127.0,105.0
63851,0.259,-1.140,-0.065,53.374,-41.656,81.718,0.0,106.0
63910,0.250,-1.421,0.001,55.382,-70.824,97.076,0.0,115.0
63966,0.714,-1.393,-0.493,102.183,-108.908,59.794,0.0,84.0
64018,0.896,-0.856,-0.491,51.244,-1.565,106.588,156.0,87.0
64114,0.231,-0.966,0.126,30.695,26.145,42.550,174.0,91.0
64172,0.273,-0.949,0.005,17.099,-27.267,35.481,156.0,170.0
64223,0.280,-1.101,-0.062,11.435,-6.985,7.779,172.0,69.0
64275,0.247,-1.010,-0.030,1.763,38.580,5.588,173.0,69.0
64331,0.098,-0.959,0.089,0.290,59.641,4.756,176.0,127.0
64392,-0.038,-0.962,0.178,7.198,21.252,-6.260,176.0,167.0
64457,0.035,-0.968,0.086,5.504,-21.473,-7.794,176.0,0.0
64516,0.107,-1.091,0.016,2.466,-4.107,-14.198,178.0,195.0
64574,0.063,-1.051,0.112,0.725,7.069,-9.809,177.0,191.0
64632,0.023,-0.987,0.168,-0.206,16.824,-5.756,178.0,191.0
64689,-0.126,-1.138,0.178,4.603,6.870,-8.656,158.0,164.0
64745,-0.695,-0.969,0.451,8.748,7.290,-55.779,158.0,190.0
64796,-0.632,-0.935,0.185,44.137,-110.313,97.679,177.0,64.0
64847,0.094,-1.184,-0.438,17.458,-25.458,103.496,173.0,65.0
64904,0.006,-0.846,-0.117,-3.626,58.824,116.527,0.0,74.0
64957,-0.235,-1.021,0.325,-42.290,-81.832,98.695,0.0,72.0
65009,0.053,-1.036,0.106,-14.931,-202.756,92.176,0.0,76.0
65061,0.317,-1.023,-0.117,-14.382,-103.511,70.901,0.0,57.0
65114,-0.108,-0.931,0.060,0.893,2.595,54.511,0.0,58.0
65166,-0.363,-1.036,0.198,-25.313,9.863,35.221,0.0,59.0
65218,-0.301,-0.900,0.277,-23.443,-27.924,24.015,0.0,59.0
65270,-0.238,-1.074,0.142,-16.855,-18.565,-2.229,0.0,60.0
65323,-0.310,-0.885,0.149,-13.885,15.191,-13.679,0.0,60.0
65378,-0.458,-0.906,0.150,-4.992,2.504,-16.313,0.0,60.0
65430,-0.427,-0.918,0.106,-9.427,-11.557,-6.534,0.0,59.0
65482,-0.382,-0.917,0.139,-7.405,-18.298,1.092,0.0,60.0
65534,-0.332,-0.951,0.113,-2.046,-11.023,3.672,0.0,59.0
65587,-0.348,-0.978,0.105,-1.252,0.053,6.046,0.0,61.0
65639,-0.520,-0.895,0.190,-4.786,-3.473,12.122,0.0,60.0
65691,-0.692,-0.906,0.172,4.641,-12.382,18.969,0.0,61.0
65744,-0.848,-0.950,0.236,6.160,-12.618,50.466,0.0,64.0
65800,-0.850,-0.970,0.249,17.725,-14.931,76.229,0.0,117.0
65858,-0.697,-0.902,0.242,23.557,-33.405,106.588,0.0,106.0
65912,-0.386,-0.971,-0.079,33.328,-6.076,113.336,0.0,107.0
65967,-0.408,-0.870,-0.033,11.137,41.992,88.595,0.0,92.0
66022,-0.446,-0.636,0.181,-12.061,-11.359,38.863,0.0,112.0
66078,-0.378,-0.654,0.146,-8.901,-41.901,23.893,0.0,114.0
66134,-0.510,-0.686,0.229,0.702,-10.351,8.664,0.0,116.0
66189,-0.666,-0.664,0.239,9.954,-4.389,-9.664,0.0,115.0
66244,-0.684,-0.591,0.233,10.634,-19.344,-17.840,0.0,117.0
66304,-0.660,-0.591,0.254,9.359,-3.282,-1.718,0.0,116.0
66359,-0.682,-0.674,0.255,9.779,6.863,-10.733,0.0,116.0
66414,-0.663,-0.727,0.280,10.519,-5.275,-10.550,0.0,115.0
66470,-0.563,-0.619,0.253,15.618,6.473,-19.527,0.0,116.0
66526,-0.621,-0.671,0.221,16.420,25.962,-19.802,0.0,115.0
66581,-0.571,-0.731,0.177,13.977,62.359,-5.656,0.0,114.0
66636,-0.591,-0.837,0.566,15.198,79.252,26.985,0.0,112.0
66691,-0.751,-1.055,0.755,69.702,87.580,92.649,0.0,92.0
66745,-0.849,-1.024,0.575,106.359,27.641,83.275,0.0,93.0
66799,-0.966,-0.750,0.174,143.344,13.756,66.664,143.0,94.0
66892,-0.938,0.070,-0.566,128.817,-66.450,29.969,137.0,76.0
66942,-0.730,0.077,-0.520,52.802,1.924,4.221,135.0,76.0
66994,-0.836,0.003,0.170,6.115,30.649,5.443,134.0,102.0
67043,-0.856,-0.339,0.546,-0.672,-25.748,-21.420,133.0,78.0
67093,-0.727,-0.314,0.537,22.282,-34.878,-46.206,133.0,77.0
67142,-0.857,-0.353,0.535,40.298,-23.443,-56.878,134.0,73.0
67195,-0.887,-0.226,0.479,50.901,-22.756,-53.527,0.0,75.0
67250,-0.859,-0.281,0.372,51.924,-29.962,-45.267,0.0,74.0
67305,-0.854,-0.300,0.455,46.130,-20.229,-20.397,0.0,68.0
67358,-0.754,-0.276,0.442,45.634,-9.870,-9.061,0.0,72.0
67412,-0.767,-0.341,0.566,38.160,-3.053,-4.626,0.0,80.0
67466,-0.755,-0.409,0.747,34.420,2.985,4.168,0.0,70.0
67522,-0.925,-0.726,1.160,44.611,-5.885,19.397,0.0,69.0
67575,-1.043,-0.866,1.160,91.847,-37.420,27.496,0.0,69.0
67629,-0.882,-0.498,0.731,163.298,-62.687,26.969,0.0,74.0
67673,-1.012,-0.179,0.333,191.908,-79.000,24.275,37.0,79.0
67717,-0.863,0.104,0.095,170.473,-121.740,12.924,36.0,76.0
67783,-0.510,0.493,-0.210,124.954,-128.641,-24.115,0.0,99.0
67832,-0.180,0.726,0.024,55.916,-44.496,-13.450,36.0,112.0
67880,-0.243,0.564,0.536,11.954,-6.076,-11.099,37.0,103.0
67929,-0.491,0.431,0.892,-10.481,-7.084,-25.305,37.0,100.0
67986,-0.543,0.301,0.878,-0.977,-12.336,-24.397,0.0,98.0
68043,-0.446,0.363,0.768,15.565,-33.092,-15.992,0.0,103.0
68101,-0.344,0.385,0.747,15.786,-19.672,-12.405,0.0,103.0
68149,-0.363,0.338,0.772,11.046,-20.076,-9.405,37.0,100.0
68210,-0.369,0.344,0.822,5.557,-21.153,-12.389,0.0,110.0
68268,-0.353,0.406,0.868,13.718,-13.802,-19.229,0.0,101.0
68325,-0.422,0.405,0.870,15.290,-9.611,-13.366,0.0,99.0
68382,-0.369,0.421,0.790,29.664,-13.038,-2.565,0.0,98.0
68440,-0.338,0.458,0.664,27.779,1.458,3.939,0.0,105.0
68497,-0.411,0.469,0.768,17.046,10.534,5.992,0.0,99.0
68554,-0.388,0.478,0.788,11.924,-3.298,7.527,0.0,98.0
68617,-0.393,0.445,0.821,15.458,0.527,8.618,0.0,197.0
68674,-0.358,0.529,0.754,35.977,0.496,9.969,0.0,95.0
68740,-0.481,0.469,0.920,21.000,-2.420,15.939,0.0,197.0
68794,-0.536,0.264,1.021,18.908,-3.145,23.298,36.0,197.0
68852,-0.495,0.183,0.875,59.099,-36.802,31.641,0.0,124.0
68900,-0.153,0.386,0.316,65.298,-41.733,28.901,36.0,103.0
68954,-0.116,0.540,0.226,43.420,-18.954,1.656,34.0,0.0
69002,-0.159,0.739,0.391,33.511,-24.405,-27.832,33.0,104.0
69050,-0.127,0.940,0.564,34.038,3.809,-26.527,32.0,106.0
69098,-0.310,0.967,0.785,40.939,3.519,-17.137,32.0,102.0
69146,-0.325,1.005,0.734,46.420,-10.679,-13.672,32.0,102.0
69197,-0.300,1.034,0.624,30.985,-6.038,-0.481,32.0,102.0
69245,-0.373,0.903,0.574,13.000,-2.229,11.870,32.0,102.0
69293,-0.400,0.773,0.637,2.924,-14.176,19.000,31.0,103.0
69341,-0.266,0.721,0.596,8.519,-23.038,21.695,31.0,106.0
69395,-0.237,0.738,0.595,11.336,-16.031,17.122,30.0,0.0
69448,-0.213,0.778,0.535,8.168,-16.603,10.985,29.0,0.0
69496,-0.209,0.792,0.482,3.382,-16.817,10.176,29.0,110.0
