Timestamp(ms),AccelX(g),AccelY(g),AccelZ(g),GyroX(deg/s),GyroY(deg/s),GyroZ(deg/s),DistanceLeft(cm),DistanceRight(cm)
233223,-0.292,0.537,0.813,-31.443,20.099,55.084,39.0,51.0
233309,-0.482,0.515,0.829,-17.756,24.244,33.763,0.0,49.0
233394,-0.259,0.451,0.763,-14.206,13.504,31.832,0.0,47.0
233470,-0.246,0.434,0.828,-12.710,18.122,17.557,44.0,46.0
233555,-0.282,0.415,0.906,-13.733,10.275,11.954,0.0,45.0
233640,-0.264,0.404,0.893,-6.237,4.183,7.290,0.0,43.0
233725,-0.304,0.456,0.986,-1.328,12.588,-0.702,0.0,44.0
233814,-0.280,0.447,0.843,-8.542,6.214,11.954,0.0,44.0
233889,-0.436,0.443,0.837,-6.275,7.092,9.053,43.0,44.0
233966,-0.437,0.376,0.811,-8.565,-3.885,10.641,41.0,44.0
234048,-0.440,0.293,0.770,3.466,-5.084,1.824,39.0,43.0
234123,-0.393,0.192,0.729,42.122,4.534,-21.458,42.0,44.0
234207,-0.372,-0.000,0.630,100.763,30.069,-57.794,0.0,42.0
234291,-0.422,0.250,0.381,196.374,68.038,-108.748,0.0,39.0
234379,-1.051,0.884,0.116,189.107,91.557,-130.527,0.0,102.0
234469,-0.967,0.985,0.113,6.893,75.687,-136.672,0.0,145.0
234561,-1.220,0.148,0.265,137.542,64.573,-76.855,0.0,143.0
234646,-0.910,0.595,-0.171,111.595,21.153,-22.237,0.0,62.0
234731,-1.002,0.456,-0.215,-42.466,19.756,4.885,0.0,57.0
234817,-0.998,0.177,-0.142,-31.061,4.168,10.969,0.0,57.0
234907,-0.835,0.314,-0.115,34.313,7.985,28.817,0.0,152.0
234992,-0.911,0.399,-0.141,-12.534,-6.954,-12.908,0.0,63.0
235083,-0.992,0.325,-0.120,5.198,-17.550,-15.221,0.0,158.0
235174,-0.957,0.410,-0.127,-13.969,-18.084,-7.015,0.0,163.0
235266,-1.131,0.312,-0.057,-20.878,-22.542,5.405,0.0,168.0
235361,-1.039,0.349,-0.043,22.481,-23.137,32.115,0.0,175.0
235453,-0.870,0.344,-0.021,-34.840,-7.748,53.924,0.0,181.0
235546,-0.881,0.268,0.017,-51.763,-0.687,44.939,0.0,188.0
235632,-0.822,0.212,0.065,-32.687,11.374,19.809,0.0,75.0
235724,-0.754,0.260,0.085,-16.061,29.405,-36.252,0.0,195.0
235819,-0.855,0.262,0.095,-3.802,35.672,-71.275,0.0,197.0
235912,-0.940,0.224,0.166,25.603,31.740,-77.038,0.0,198.0
235997,-1.013,0.363,0.048,-31.130,19.557,-57.229,0.0,61.0
236093,-1.002,0.211,0.126,-37.214,8.542,-20.557,0.0,0.0
236186,-1.336,0.294,0.015,26.328,-11.458,1.153,0.0,0.0
236271,-0.936,0.278,-0.003,-5.092,-22.389,90.153,0.0,60.0
236356,-0.934,0.239,-0.130,-26.290,-22.115,107.878,0.0,50.0
236442,-0.896,0.227,-0.281,2.977,-21.145,87.817,0.0,70.0
236531,-0.704,0.253,-0.171,35.588,-14.924,49.214,0.0,134.0
236625,-0.747,0.450,-0.168,45.947,1.924,-25.412,0.0,0.0
236719,-0.974,0.408,-0.102,-20.656,22.565,-78.817,0.0,0.0
236812,-1.222,0.299,-0.044,4.824,20.809,-75.397,0.0,0.0
236908,-1.123,0.252,-0.027,50.962,-1.725,-21.504,0.0,0.0
237000,-1.034,0.475,-0.130,88.908,-15.191,-38.618,187.0,0.0
237088,-0.840,0.475,-0.014,-2.992,3.153,-8.214,96.0,0.0
237175,-0.966,0.430,-0.048,-38.298,-5.282,1.595,91.0,0.0
237254,-0.745,0.377,0.012,-29.878,-0.969,42.176,86.0,60.0
237340,-0.719,0.469,-0.035,-40.237,14.145,17.000,76.0,0.0
237426,-0.694,0.491,-0.161,-128.542,36.405,2.069,66.0,0.0
237503,-1.178,0.679,-0.633,-171.802,38.305,-31.046,57.0,47.0
237588,-1.098,0.244,-0.595,-187.496,26.000,11.298,0.0,51.0
237676,-0.940,0.339,-0.370,-45.565,51.481,77.206,0.0,60.0
237762,-0.855,0.435,-0.291,-64.947,44.336,69.962,0.0,69.0
237849,-0.793,0.469,-0.175,-70.603,34.176,39.252,0.0,79.0
237936,-0.860,0.457,-0.126,-70.153,24.191,7.840,0.0,87.0
238023,-0.885,0.475,-0.086,-45.885,25.527,-33.069,0.0,94.0
238111,-0.954,0.489,-0.053,-38.763,15.344,-52.908,0.0,99.0
238199,-0.921,0.419,-0.060,-7.863,0.618,-50.046,0.0,104.0
238287,-0.937,0.408,-0.087,-14.328,-2.397,-24.542,0.0,109.0
238379,-0.920,0.289,-0.030,-9.023,-3.397,-2.046,0.0,115.0
238468,-0.740,0.588,0.041,45.672,8.664,31.718,0.0,122.0
238552,-0.775,0.664,0.010,-145.481,28.069,-10.802,0.0,33.0
238638,-0.924,0.512,0.164,-198.008,32.351,-19.542,0.0,57.0
238724,-1.208,0.372,0.233,-138.443,-5.763,-18.321,0.0,63.0
238811,-0.901,0.426,0.247,-95.092,-42.992,21.489,0.0,87.0
238898,-1.328,0.146,0.375,60.153,-160.603,7.557,0.0,90.0
238985,-0.031,1.839,-0.706,240.969,-95.939,109.733,0.0,94.0
239072,-1.296,-1.777,1.112,-194.779,-79.137,-3.435,0.0,79.0
239162,-0.550,1.084,-0.075,-182.740,-21.824,-10.191,0.0,80.0
239249,-0.334,0.763,0.443,37.053,-30.985,20.611,0.0,83.0
239336,-0.531,0.325,0.723,61.870,-32.901,22.527,0.0,85.0
239423,-0.740,-0.454,1.055,-16.672,-18.328,14.947,0.0,90.0
239510,-0.437,0.406,0.639,-77.122,7.244,-4.298,0.0,89.0
239597,-0.504,0.222,0.808,19.641,3.145,-8.786,0.0,92.0
239684,-0.527,0.158,0.882,18.901,-1.718,-23.397,0.0,92.0
239772,-0.544,0.071,0.930,-16.809,7.595,3.038,0.0,95.0
239859,-0.441,0.643,0.767,-27.962,-7.947,28.313,0.0,96.0
239950,-0.317,0.575,0.805,-0.977,-19.916,27.137,0.0,99.0
240038,-0.472,0.323,0.881,28.168,-33.519,53.374,0.0,103.0
240128,-0.595,0.171,1.055,-43.550,-2.618,51.626,0.0,109.0
240216,-0.291,0.935,0.398,-93.794,32.634,21.695,0.0,113.0
240305,-0.221,1.017,0.515,27.412,2.504,33.534,0.0,117.0
240394,-0.346,0.489,0.792,60.534,-12.603,34.397,0.0,122.0
240483,-0.481,0.049,1.061,35.466,-35.420,21.779,0.0,126.0
240573,-0.466,0.205,0.929,-124.557,-5.099,-12.053,0.0,131.0
240663,0.047,1.431,0.362,-106.481,8.206,1.458,0.0,137.0
240758,0.045,1.471,0.467,50.634,-16.847,22.611,166.0,0.0
240851,-0.013,0.280,0.897,121.824,-31.069,43.756,0.0,0.0
240941,-0.223,-0.531,1.275,83.008,-36.359,25.168,150.0,153.0
241032,-0.087,0.097,1.024,-100.924,28.229,-4.824,0.0,159.0
241124,0.172,1.275,0.500,-62.321,27.794,2.687,0.0,163.0
241215,0.158,0.467,0.885,119.985,-21.870,34.435,0.0,170.0
241309,-0.073,-0.302,1.343,-20.290,-10.634,14.290,0.0,0.0
241403,0.243,0.633,0.822,7.008,7.008,39.000,0.0,0.0
241500,0.143,0.556,0.863,32.237,-0.893,43.565,0.0,0.0
241594,-0.128,0.223,0.781,9.229,24.489,35.061,0.0,0.0
241681,-0.491,0.268,1.003,-169.718,50.053,6.679,87.0,0.0
241771,0.025,1.483,0.359,-78.214,36.573,15.298,147.0,0.0
241873,0.066,0.861,0.872,91.069,-31.344,46.649,0.0,0.0
241956,0.254,0.733,1.034,21.733,-19.252,26.076,87.0,133.0
242045,-0.265,0.002,1.082,25.092,-26.076,24.565,0.0,133.0
242129,-0.008,0.250,0.692,-128.389,24.748,-11.962,87.0,135.0
242220,0.412,1.001,0.451,86.275,-12.687,19.954,0.0,138.0
242310,0.140,-0.281,1.183,91.504,-7.985,27.634,149.0,141.0
242400,-0.249,-0.442,1.308,-95.427,10.053,11.962,0.0,146.0
242490,0.001,0.853,0.686,-116.763,32.389,7.603,0.0,151.0
242577,0.427,0.810,0.729,105.290,-9.893,58.740,0.0,80.0
242657,-0.298,-0.602,1.385,67.176,-23.687,46.176,86.0,78.0
242737,-0.117,0.808,0.638,-212.710,54.267,-17.252,87.0,74.0
242820,0.288,0.927,0.495,154.458,-2.985,62.214,141.0,72.0
242898,-0.498,-0.658,1.350,-52.763,-5.122,28.924,84.0,71.0
242985,0.003,1.405,0.354,-89.504,34.458,-7.992,0.0,70.0
243067,0.316,0.913,0.628,126.756,-6.672,42.870,86.0,70.0
243146,-0.145,-0.596,1.512,13.611,-33.817,25.412,84.0,71.0
243226,0.201,0.819,0.653,-130.664,10.344,-14.374,85.0,71.0
243312,0.190,-0.187,1.075,137.137,-30.450,5.740,0.0,72.0
243392,-0.117,-0.630,1.347,-101.763,10.031,-5.397,85.0,74.0
243478,0.340,1.098,0.551,-69.817,37.840,-16.336,0.0,75.0
243558,0.270,0.353,0.885,140.031,-18.542,55.786,85.0,77.0
243638,-0.036,-0.453,1.228,-130.443,12.679,-4.733,84.0,78.0
243725,0.236,1.233,0.429,-38.527,4.076,18.740,0.0,80.0
243814,0.281,0.196,0.895,149.855,-24.550,63.504,0.0,81.0
243895,-0.057,-0.606,1.383,-35.382,-0.061,38.992,83.0,84.0
243982,0.035,1.454,0.500,-106.298,21.466,29.710,0.0,87.0
244069,0.406,0.592,0.632,181.107,-10.092,85.153,0.0,91.0
244150,-0.356,-0.936,1.443,-13.519,-1.954,67.221,80.0,97.0
244238,0.134,1.260,0.430,-91.527,28.840,31.099,0.0,102.0
244326,0.503,0.473,0.754,203.481,-15.740,62.626,0.0,108.0
244415,-0.274,-0.954,1.565,28.634,-38.649,44.008,0.0,114.0
244507,-0.138,0.217,0.952,-192.237,37.176,-3.763,0.0,123.0
244596,0.602,1.048,0.637,-0.725,25.031,43.962,0.0,130.0
244686,0.357,-0.685,1.208,180.321,-39.115,74.084,0.0,134.0
244776,-0.216,-0.627,1.336,-111.534,23.244,18.695,0.0,142.0
244867,0.260,0.754,0.718,-109.435,41.504,10.160,0.0,126.0
244957,0.369,0.449,0.814,107.168,-21.809,61.611,0.0,133.0
245047,-0.028,-0.830,1.369,24.519,-28.504,57.985,0.0,138.0
245139,-0.088,0.009,0.805,-235.412,58.473,33.557,0.0,175.0
245228,0.394,1.276,0.444,95.695,1.840,77.962,0.0,131.0
245321,-0.031,-0.358,1.274,227.687,-21.489,115.214,0.0,134.0
245414,-0.464,-0.185,1.081,-168.733,39.267,33.771,0.0,0.0
245509,-0.015,1.237,0.449,-112.794,27.069,48.954,0.0,0.0
245602,0.210,0.167,0.948,137.466,-29.908,71.176,0.0,0.0
245696,-0.039,-0.500,1.399,30.183,0.244,50.924,0.0,0.0
245789,0.116,0.207,1.047,15.244,1.206,17.443,0.0,0.0
245883,0.018,-0.019,0.992,44.924,-14.695,57.229,0.0,0.0
245977,0.072,0.156,0.969,-3.908,14.916,46.344,0.0,0.0
246070,0.354,0.198,0.860,13.389,0.275,54.069,0.0,0.0
246167,0.146,0.186,0.875,-25.992,14.550,44.405,0.0,0.0
246252,0.110,0.200,0.911,7.931,2.183,56.962,63.0,0.0
246338,0.135,0.221,0.806,-13.107,1.206,77.725,64.0,0.0
246424,0.129,0.012,0.732,23.038,25.427,81.191,0.0,57.0
246509,-0.120,0.222,0.454,110.427,32.046,86.573,0.0,44.0
246586,-0.155,0.422,0.496,109.252,104.878,45.809,71.0,39.0
246672,-0.387,0.549,0.659,61.313,169.160,-26.038,0.0,66.0
246762,-0.820,0.893,0.749,3.435,164.802,-61.260,0.0,129.0
246848,-0.978,0.140,1.027,81.931,125.779,-59.565,0.0,72.0
246941,-0.959,0.578,0.498,124.847,93.359,-80.901,0.0,120.0
247030,-1.149,0.584,0.298,1.710,97.908,-83.351,0.0,119.0
247119,-1.179,0.110,0.382,81.206,58.809,-67.855,0.0,121.0
247209,-1.004,0.499,0.106,117.573,48.977,-25.740,0.0,137.0
247300,-1.060,0.350,0.085,-78.305,19.244,3.489,0.0,128.0
247390,-0.822,0.019,0.283,27.366,-7.580,40.863,0.0,132.0
247480,-0.633,0.391,0.045,57.298,6.870,20.046,0.0,136.0
247570,-0.831,0.305,0.152,8.076,23.244,-12.901,0.0,132.0
247660,-1.381,0.517,-0.270,5.649,31.595,-46.344,0.0,143.0
247753,-0.900,0.248,-0.319,-132.359,22.969,40.939,0.0,128.0
247843,-0.934,0.081,-0.213,-39.221,21.427,55.626,0.0,135.0
247933,-0.781,0.264,-0.239,27.160,8.260,47.756,0.0,134.0
248024,-0.785,0.331,-0.207,33.145,-7.534,5.328,0.0,139.0
248110,-1.017,0.443,-0.262,61.023,-10.412,-34.176,0.0,57.0
248201,-0.954,0.568,-0.262,8.443,-1.427,-39.725,0.0,144.0
248292,-1.006,0.258,-0.181,-16.771,-8.595,-10.611,0.0,149.0
248383,-1.026,0.386,-0.237,77.450,-18.168,16.748,200.0,156.0
248477,-0.795,0.602,-0.294,3.893,-8.282,20.603,193.0,149.0
248568,-0.930,0.375,-0.253,7.389,10.710,27.321,186.0,167.0
248659,-0.712,0.398,-0.176,0.618,11.832,47.397,177.0,174.0
248751,-0.636,0.493,-0.127,21.664,17.282,49.115,169.0,183.0
248845,-0.484,1.093,-0.401,60.344,19.962,51.336,0.0,0.0
248929,-1.216,1.710,-1.694,129.237,98.771,172.908,0.0,16.0
249014,-1.637,1.917,-1.799,-38.084,250.130,250.130,145.0,102.0
249104,-0.945,0.332,-0.263,81.817,131.069,62.588,133.0,0.0
249194,0.258,0.459,-0.173,-12.336,13.885,8.443,129.0,0.0
249287,0.496,0.361,-0.576,20.160,10.366,-19.321,132.0,0.0
249377,0.564,0.941,-0.622,8.588,-5.977,-32.939,133.0,0.0
249468,0.498,0.756,-0.813,-38.115,-14.168,-29.740,134.0,0.0
249559,0.379,0.508,-0.475,-28.885,-1.458,-26.389,134.0,0.0
249649,0.304,0.513,-0.580,23.740,-6.496,-26.458,134.0,0.0
249739,0.337,1.156,-0.716,9.092,-5.412,-13.817,131.0,0.0
249829,0.446,0.559,-0.399,-71.489,28.275,-16.084,132.0,0.0
249914,0.525,0.078,-0.118,-37.115,19.053,-12.397,132.0,112.0
250003,0.388,0.427,-0.414,26.947,15.504,-10.985,132.0,111.0
250093,0.395,0.490,-0.511,38.641,31.389,-2.008,133.0,0.0
250184,0.394,0.742,-0.762,70.145,19.893,-4.496,145.0,0.0
250275,0.373,0.954,-0.719,36.405,41.153,-29.076,150.0,0.0
250366,0.251,1.002,-0.987,42.405,30.221,4.893,153.0,0.0
250459,0.321,0.727,-0.722,-2.153,23.198,-18.565,156.0,0.0
250550,0.364,0.405,-0.527,0.542,9.702,-9.763,153.0,0.0
250642,0.384,0.563,-0.720,24.183,4.359,10.740,156.0,0.0
250732,0.499,0.798,-0.800,5.504,18.855,1.824,142.0,0.0
250826,0.544,0.753,-0.650,-0.008,16.191,13.313,140.0,0.0
250918,0.570,0.794,-0.666,-39.588,14.344,1.863,158.0,0.0
251010,0.497,0.557,-0.591,-40.092,18.924,-8.802,150.0,0.0
251101,0.434,0.605,-0.486,-8.939,9.710,-9.985,138.0,0.0
251191,0.411,0.798,-0.615,1.695,27.336,4.053,134.0,0.0
251281,0.530,0.690,-0.377,14.840,19.740,-5.779,124.0,0.0
251372,0.536,0.705,-0.490,6.511,23.519,-5.290,151.0,0.0
251462,0.589,0.674,-0.387,22.351,25.466,-7.198,125.0,199.0
251554,0.662,0.734,-0.457,15.748,25.031,-5.878,161.0,197.0
251648,0.599,0.652,-0.485,6.206,29.053,-2.992,127.0,193.0
251739,0.658,0.888,-0.674,40.107,30.267,-8.313,149.0,191.0
251829,0.625,0.885,-0.567,42.489,35.435,-7.137,134.0,0.0
251921,0.500,0.673,-0.748,34.427,29.328,4.702,152.0,0.0
252012,0.586,0.402,-0.299,4.382,16.550,-21.130,147.0,0.0
252102,0.617,0.680,-0.622,21.832,11.504,-8.489,137.0,0.0
252193,0.737,0.793,-0.644,6.206,22.656,4.076,143.0,0.0
252284,0.765,0.681,-0.535,-5.763,26.466,-4.084,134.0,0.0
252375,0.720,0.637,-0.548,19.237,15.802,14.122,134.0,0.0
252469,0.739,0.622,-0.444,-2.496,30.954,-6.931,133.0,0.0
252559,0.588,0.614,-0.479,9.023,25.336,14.176,125.0,0.0
252650,0.709,0.713,-0.509,15.122,28.000,-8.237,150.0,0.0
252741,0.720,0.327,-0.217,37.107,25.794,-15.962,139.0,0.0
252832,0.729,0.573,-0.329,47.107,32.069,-7.664,143.0,0.0
252922,0.695,0.553,-0.415,40.809,33.282,-11.298,135.0,0.0
253014,0.760,0.585,-0.304,29.924,32.710,-7.893,142.0,0.0
253105,0.815,0.667,-0.324,24.901,31.221,-2.702,135.0,0.0
253200,0.831,0.655,-0.295,-0.802,33.275,-1.740,130.0,0.0
253292,0.692,0.605,-0.405,17.511,9.244,-6.107,129.0,0.0
253382,0.845,0.457,-0.303,-15.748,36.557,6.321,137.0,0.0
253471,0.744,0.722,-0.512,-3.031,31.359,-4.817,130.0,0.0
253560,0.709,0.965,-0.525,14.847,23.878,-22.450,130.0,0.0
253650,0.737,1.033,-0.480,4.748,20.534,-16.924,130.0,0.0
253740,0.823,1.030,-0.447,-5.427,8.168,6.840,139.0,0.0
253829,0.695,0.521,-0.258,-12.786,4.473,10.695,126.0,0.0
253920,0.692,0.697,-0.485,32.870,-24.260,-26.557,147.0,0.0
254012,0.573,0.583,-0.126,14.313,-0.252,-5.359,137.0,0.0
254102,0.729,0.569,-0.075,-5.664,-10.359,-15.328,132.0,0.0
254194,0.726,0.026,0.081,26.824,-23.351,-30.344,175.0,0.0
254284,0.730,-0.016,0.098,23.351,6.832,-13.115,142.0,0.0
254373,0.839,0.301,-0.104,22.290,22.855,-2.313,134.0,0.0
254464,0.844,0.256,-0.240,46.244,13.855,-10.298,132.0,0.0
254554,0.621,0.243,-0.309,45.832,18.191,-25.908,143.0,0.0
254643,0.673,0.181,-0.146,42.885,14.473,-34.656,126.0,0.0
254733,0.619,0.019,-0.070,-10.634,25.427,-21.679,136.0,0.0
254825,0.716,-0.202,0.026,4.069,-8.282,-12.496,130.0,0.0
254915,0.722,0.241,-0.231,-18.695,13.397,-6.725,131.0,0.0
255004,0.733,0.623,-0.306,-39.252,22.664,-1.084,134.0,0.0
255094,0.986,0.712,-0.177,-10.435,10.458,8.435,138.0,0.0
255184,0.671,0.918,-0.403,3.969,19.802,11.527,131.0,0.0
255273,0.578,0.903,-0.408,33.740,1.763,-0.763,120.0,0.0
255363,0.646,0.616,-0.139,16.427,3.588,-27.008,136.0,0.0
255453,0.725,0.600,-0.173,21.252,9.702,-7.573,128.0,0.0
255542,0.860,0.444,-0.181,19.771,17.870,-5.061,125.0,0.0
255635,0.785,0.422,-0.235,31.420,34.206,-5.557,134.0,0.0
255728,0.756,0.900,-0.531,62.969,12.000,-6.038,0.0,0.0
255821,0.705,0.423,-0.293,-15.542,12.672,-16.893,0.0,0.0
255913,0.691,0.501,-0.461,-13.031,21.992,-9.427,169.0,0.0
256005,0.673,0.735,-0.507,-10.389,12.275,-27.550,157.0,0.0
256096,0.763,0.596,-0.349,18.084,14.145,2.534,153.0,0.0
256186,0.823,0.759,-0.570,63.275,-4.214,-0.511,149.0,0.0
256276,0.749,0.605,-0.307,36.122,9.023,-34.290,133.0,0.0
256368,0.656,0.618,-0.558,100.656,11.802,12.137,176.0,0.0
256462,0.491,0.595,-0.274,99.305,-3.153,-11.458,146.0,198.0
256551,0.629,0.661,-0.215,25.260,10.328,-3.786,138.0,193.0
256641,0.655,0.645,-0.334,19.992,13.298,-0.824,131.0,188.0
256731,0.776,0.569,-0.241,-25.092,22.924,-29.191,141.0,183.0
256819,0.779,0.666,-0.308,-27.687,44.374,-6.634,121.0,179.0
256908,0.829,0.799,-0.396,32.450,40.145,-3.382,124.0,0.0
256998,0.805,0.716,-0.452,53.435,41.718,-3.702,138.0,0.0
257088,0.605,0.525,-0.463,-8.458,48.252,-9.046,129.0,0.0
257184,0.591,0.661,-0.323,16.481,36.237,-23.244,0.0,0.0
257274,0.672,0.562,-0.212,-14.298,27.802,-17.832,130.0,0.0
257364,0.893,0.456,-0.196,-44.763,43.275,-54.481,141.0,0.0
257452,0.743,0.781,-0.327,-17.847,-20.450,9.710,129.0,147.0
257538,0.773,0.476,-0.072,-1.565,8.618,-32.771,117.0,145.0
257624,0.902,0.751,-0.349,-9.130,31.519,-14.679,118.0,141.0
257708,0.418,0.686,-0.008,-20.954,4.153,-1.137,101.0,138.0
257793,0.601,0.898,-0.307,-36.573,42.244,-33.260,99.0,138.0
257878,0.731,0.698,-0.143,24.183,-20.641,27.389,100.0,150.0
257965,0.577,0.696,-0.222,33.328,48.992,-27.916,101.0,133.0
258050,0.790,0.405,-0.181,69.863,8.924,23.710,103.0,141.0
258135,0.831,0.382,0.079,44.908,56.015,-14.809,106.0,130.0
258224,0.813,0.611,-0.249,76.382,47.634,21.840,116.0,0.0
258314,0.619,0.853,-0.346,27.336,64.580,13.840,142.0,0.0
258403,0.694,0.812,-0.441,44.237,33.420,-0.916,117.0,0.0
258492,0.551,0.609,-0.061,17.626,30.267,-31.084,116.0,0.0
258582,0.684,0.651,-0.293,19.290,11.985,6.824,136.0,0.0
258671,0.769,0.531,-0.031,-14.275,15.908,-8.718,122.0,195.0
258764,0.760,0.957,-0.390,-23.504,4.542,-11.779,137.0,189.0
258853,0.822,1.073,-0.477,23.084,11.679,2.969,136.0,183.0
258942,0.568,1.092,-0.369,48.733,13.924,-12.817,137.0,179.0
259032,0.669,0.524,0.021,58.305,0.954,-16.458,128.0,175.0
259120,0.708,0.544,-0.034,40.328,10.954,-8.939,127.0,171.0
259207,0.740,0.268,0.090,-12.389,25.550,0.794,127.0,167.0
259297,0.660,1.124,-0.442,7.893,37.618,12.076,117.0,0.0
259384,0.609,1.234,-0.415,73.702,34.840,-4.878,125.0,157.0
259476,0.652,0.334,0.042,105.183,22.985,-31.855,117.0,0.0
259566,0.818,-0.033,0.365,19.588,36.718,-37.901,130.0,0.0
259656,0.840,0.594,-0.111,-28.336,47.740,5.389,132.0,0.0
259745,0.584,1.286,-0.771,21.809,28.550,9.046,123.0,0.0
259835,0.362,1.400,-0.653,71.275,32.313,-0.473,127.0,0.0
259926,0.434,0.490,-0.260,169.718,-13.344,-34.710,126.0,0.0
260015,0.877,-0.277,0.341,-11.473,15.244,-21.176,125.0,0.0
260106,0.807,0.830,-0.260,-78.779,21.435,13.565,134.0,0.0
260195,0.722,1.418,-0.546,1.344,8.618,4.382,122.0,0.0
260287,0.651,1.228,-0.494,32.458,4.794,-0.450,119.0,0.0
260372,0.428,0.714,-0.151,49.252,14.389,-19.237,118.0,124.0
260458,0.606,0.098,0.226,15.328,11.840,-15.405,126.0,132.0
260543,0.721,0.608,-0.074,-42.435,41.893,10.511,118.0,125.0
260629,0.576,1.573,-0.567,67.595,29.321,-0.145,118.0,125.0
260714,0.626,0.333,0.152,83.069,10.107,-7.916,118.0,124.0
260799,0.836,0.346,0.024,9.786,36.534,3.168,119.0,123.0
260888,0.737,1.042,-0.339,-11.649,43.702,7.702,120.0,0.0
260973,0.679,1.338,-0.573,42.511,32.023,-9.427,120.0,123.0
261066,0.552,0.693,-0.398,45.412,39.977,-1.351,119.0,0.0
261155,0.576,0.637,-0.147,17.458,37.282,-13.794,119.0,0.0
261242,0.523,0.981,-0.422,33.130,5.634,9.328,77.0,0.0
261332,0.641,0.620,-0.242,-0.557,12.977,-6.260,119.0,0.0
261422,0.679,0.920,-0.318,3.290,15.031,-10.824,123.0,0.0
261512,0.771,0.292,0.185,0.023,1.122,1.847,124.0,0.0
261601,0.803,0.548,-0.070,-90.695,19.290,22.168,121.0,0.0
261690,0.688,1.002,-0.291,-42.084,-19.191,11.053,118.0,0.0
261783,0.591,0.789,-0.188,-30.664,1.412,-21.550,117.0,0.0
261872,0.437,0.848,-0.151,29.756,-10.840,-14.611,121.0,0.0
261962,0.511,1.125,-0.253,41.580,2.504,-6.015,122.0,0.0
262047,0.646,0.915,-0.170,49.748,-5.031,-7.725,119.0,124.0
262133,0.788,0.856,-0.179,27.718,14.878,-1.985,121.0,122.0
262218,0.647,1.045,-0.335,54.450,14.412,-8.763,127.0,119.0
262304,0.633,0.891,-0.255,33.053,23.435,-20.687,128.0,118.0
262389,0.461,0.900,-0.405,32.466,19.412,-38.977,125.0,116.0
262474,0.307,0.711,-0.452,13.374,10.374,-48.618,126.0,115.0
262562,0.251,0.847,-0.402,0.901,2.763,-68.137,127.0,112.0
262647,0.280,0.835,-0.281,-26.237,-6.107,-78.107,130.0,108.0
262731,0.268,0.927,-0.201,-61.298,-13.412,-126.916,133.0,74.0
262814,-0.025,0.803,-0.188,-125.099,17.160,-232.908,138.0,67.0
262899,-0.838,0.932,-0.137,-70.802,69.069,-250.137,147.0,89.0
262990,-1.164,0.552,0.002,-25.511,68.725,-250.137,0.0,137.0
263085,-1.353,0.189,0.061,96.550,-10.023,-223.053,0.0,0.0
263175,-1.122,0.406,-0.132,199.115,-15.427,-60.061,135.0,0.0
263269,-0.804,0.334,-0.055,-19.878,-9.038,-8.305,133.0,0.0
263363,-0.825,0.236,-0.007,-38.863,17.206,22.130,0.0,0.0
263457,-0.893,0.401,0.034,-64.084,34.099,35.092,0.0,0.0
263552,-1.067,0.380,0.097,-145.847,25.122,19.824,0.0,0.0
263638,-1.000,0.230,0.125,-109.366,-6.580,4.206,0.0,48.0
263724,-1.091,0.473,-0.090,-110.206,-4.099,-13.947,0.0,49.0
263810,-1.067,0.261,-0.283,-152.305,-17.366,56.420,0.0,53.0
263896,-0.990,0.301,-0.368,-139.573,-22.489,64.130,0.0,59.0
263983,-0.751,0.235,-0.172,-37.969,-15.740,62.931,0.0,67.0
264073,-0.774,0.256,0.012,22.511,-2.099,16.756,0.0,74.0
264161,-0.986,0.487,0.009,-6.855,27.023,-12.519,0.0,79.0
264249,-1.075,0.259,0.151,-23.847,19.366,-11.817,0.0,85.0
264337,-1.089,0.253,0.130,31.763,1.092,-25.954,0.0,89.0
264425,-0.904,0.299,0.070,86.137,-5.687,-48.756,0.0,91.0
264519,-0.896,0.281,0.021,22.664,-8.672,-44.771,0.0,95.0
264606,-1.052,0.219,-0.075,27.794,4.687,-21.824,0.0,98.0
264694,-0.807,0.106,-0.005,-41.794,16.221,-29.122,0.0,102.0
264782,-0.892,0.187,0.012,-37.412,26.450,-42.985,0.0,107.0
264873,-0.956,0.324,0.172,-94.321,28.603,-23.275,0.0,112.0
264957,-1.083,0.460,0.184,-124.115,2.275,-29.725,0.0,30.0
265041,-1.015,0.322,0.117,-130.336,-29.611,-2.969,0.0,36.0
265126,-1.040,0.373,-0.109,-76.603,-64.481,41.008,0.0,48.0
265212,-1.336,0.533,-0.361,-154.397,-65.351,69.542,0.0,63.0
265299,-1.216,0.360,-0.177,-190.527,-79.069,150.977,0.0,95.0
265388,-1.174,0.700,-0.070,-141.542,-101.092,201.275,0.0,97.0
265476,-0.907,0.447,0.327,-232.771,-70.817,153.061,0.0,104.0
265567,-0.583,0.168,0.592,-170.137,-74.863,107.145,0.0,115.0
265656,-0.445,-0.062,0.745,-85.855,-50.840,65.122,0.0,123.0
265738,-0.406,0.093,0.707,-63.382,-31.626,52.427,51.0,130.0
265823,-0.270,0.010,0.788,-46.534,-17.076,48.977,51.0,0.0
265908,-0.345,-0.051,0.936,-17.214,-2.305,34.481,51.0,0.0
265992,-0.288,-0.019,0.895,-16.000,-0.924,35.550,46.0,0.0
266077,-0.201,-0.113,0.943,-6.901,2.947,31.947,45.0,0.0
266162,-0.205,-0.167,0.967,-4.992,2.168,31.214,43.0,0.0
266246,-0.165,0.003,0.944,1.359,3.534,31.023,43.0,0.0
266333,-0.189,-0.101,1.001,11.206,3.160,32.321,45.0,0.0
266418,-0.182,-0.080,1.018,12.237,4.901,28.603,45.0,0.0
266503,-0.215,0.189,0.725,92.893,23.061,18.359,51.0,0.0
266588,-0.236,0.388,0.636,76.420,81.832,17.901,51.0,0.0
266681,-0.619,0.561,0.561,87.870,130.252,4.130,0.0,0.0
266774,-0.667,0.302,0.658,49.664,111.656,-29.031,0.0,0.0
266868,-0.773,0.509,0.542,33.893,95.374,-62.176,0.0,0.0
266961,-1.061,0.361,0.350,91.321,76.626,-75.084,0.0,0.0
267054,-1.256,0.322,0.166,65.702,42.031,-92.084,0.0,178.0
267149,-1.065,0.365,-0.069,171.733,20.679,-52.702,0.0,174.0
267241,-0.931,0.251,0.048,31.916,-4.863,-37.267,0.0,180.0
267334,-0.878,0.227,0.023,50.321,-11.550,-15.824,0.0,178.0
267426,-0.830,0.333,-0.050,27.702,3.237,-6.206,0.0,183.0
267520,-0.962,0.229,-0.012,-38.473,15.160,-4.443,0.0,188.0
267613,-1.046,0.076,0.189,-31.191,10.473,4.313,0.0,194.0
267707,-0.950,0.305,0.060,23.656,2.687,3.618,0.0,0.0
267793,-1.133,0.384,-0.027,-55.595,10.565,-24.496,0.0,69.0
267882,-1.073,0.180,-0.002,-77.893,-17.427,47.947,0.0,77.0
267970,-1.117,0.236,-0.135,-76.496,-40.802,58.458,0.0,88.0
268063,-0.805,0.264,-0.084,-63.313,-34.779,83.153,0.0,0.0
268155,-0.861,0.319,-0.049,-28.809,-16.435,41.389,0.0,163.0
268246,-0.999,0.185,0.000,2.710,-6.069,3.115,0.0,147.0
268337,-1.191,0.243,-0.003,41.351,12.511,-30.924,0.0,152.0
268429,-0.840,0.268,0.094,30.092,29.893,-47.206,0.0,175.0
268522,-1.018,0.141,0.157,-4.328,12.496,-48.977,0.0,178.0
268614,-0.925,0.156,0.085,33.626,12.924,-30.412,0.0,180.0
268710,-0.860,0.249,0.028,10.336,30.496,-38.450,0.0,183.0
268803,-0.925,0.268,0.085,-61.313,32.191,-35.290,197.0,186.0
268896,-1.030,0.187,0.185,-29.985,15.611,-17.107,198.0,191.0
268990,-0.970,0.354,0.094,13.282,3.008,-16.977,198.0,198.0
269082,-1.030,0.340,-0.075,-56.221,-22.534,7.718,179.0,0.0
269175,-1.352,0.138,-0.201,-56.817,-40.351,98.733,175.0,0.0
269262,-0.980,0.242,-0.206,-38.733,-26.718,157.153,0.0,84.0
269348,-0.785,0.280,-0.161,-66.511,-15.237,111.229,191.0,73.0
269437,-0.823,0.238,-0.114,-21.191,-6.519,36.305,0.0,64.0
269523,-0.908,0.301,-0.069,18.176,3.824,-25.977,0.0,67.0
269612,-1.009,0.376,-0.020,17.473,31.389,-91.290,0.0,88.0
269704,-0.923,0.317,0.075,-25.397,51.076,-111.809,170.0,0.0
269798,-1.118,0.183,0.160,-19.718,38.969,-78.443,0.0,0.0
269891,-0.919,0.281,0.101,6.313,19.046,-27.939,0.0,0.0
269985,-0.895,0.307,0.077,-40.885,13.916,-18.183,0.0,0.0
270078,-0.926,0.271,0.079,-57.191,-0.260,-3.473,0.0,0.0
270173,-0.920,0.401,-0.027,-48.931,-12.573,-1.977,0.0,0.0
270267,-1.257,0.530,-0.245,-73.382,18.443,-0.527,0.0,147.0
270357,-1.019,0.229,-0.314,-212.359,11.168,75.496,0.0,134.0
270443,-1.098,0.179,-0.294,-100.298,-14.565,80.947,187.0,88.0
270535,-0.803,0.251,-0.194,-34.260,-6.962,93.710,176.0,179.0
270623,-0.846,0.371,-0.163,-38.824,-3.473,36.344,0.0,93.0
270709,-1.062,0.290,-0.086,-42.969,-14.511,-17.595,0.0,71.0
270796,-1.024,0.159,0.000,34.954,-12.641,-6.878,0.0,74.0
270880,-0.916,0.424,-0.085,54.885,10.206,-44.985,144.0,79.0
270965,-0.745,0.398,-0.016,-46.954,39.099,-75.969,140.0,100.0
271053,-1.111,0.156,0.056,-83.038,36.466,-79.382,138.0,102.0
271143,-0.945,0.063,0.152,19.931,24.947,-37.221,135.0,0.0
271234,-0.891,0.319,0.057,-0.313,20.992,-32.679,131.0,0.0
271324,-0.953,0.278,0.094,-76.489,25.397,-34.130,127.0,0.0
271418,-1.097,0.191,0.087,-56.435,-11.954,-14.771,0.0,0.0
271511,-0.906,0.309,0.007,5.130,-25.496,22.053,0.0,0.0
271598,-1.042,0.583,-0.203,-72.092,4.313,9.969,0.0,74.0
271687,-1.116,0.328,-0.429,-249.786,8.069,33.183,0.0,116.0
271780,-1.114,-0.008,-0.312,-201.221,-18.603,75.588,0.0,120.0
271868,-0.766,0.247,-0.197,-0.664,-14.206,95.725,0.0,101.0
271958,-0.869,0.403,-0.191,-54.519,-14.695,30.702,0.0,105.0
272047,-1.116,0.180,-0.027,2.542,-16.595,5.427,0.0,111.0
272135,-1.109,0.323,-0.022,49.656,0.740,35.160,0.0,105.0
272224,-1.019,0.336,0.016,-25.740,12.748,-3.260,0.0,108.0
272313,-0.748,0.226,0.107,1.939,27.053,-54.885,0.0,111.0
272403,-0.928,0.223,0.092,-1.275,18.351,-70.977,0.0,124.0
272493,-0.977,0.226,0.031,52.191,9.954,-66.214,0.0,127.0
272585,-0.958,0.372,-0.087,-2.389,21.916,-71.565,0.0,127.0
272676,-0.899,0.265,0.009,-67.901,27.802,-53.840,0.0,131.0
272766,-1.037,0.219,0.093,-42.229,9.634,-26.382,0.0,136.0
272858,-0.956,0.361,0.002,1.237,-0.840,7.962,0.0,144.0
272949,-1.046,0.484,-0.224,-109.687,1.237,17.412,0.0,146.0
273040,-1.213,0.110,-0.167,-134.214,-26.985,84.840,0.0,159.0
273132,-1.057,0.211,-0.184,-62.313,-48.305,128.260,0.0,166.0
273222,-0.938,0.297,-0.153,-37.344,-45.817,102.351,0.0,129.0
273312,-0.990,0.297,-0.099,-50.099,-30.290,58.580,0.0,57.0
273398,-1.022,0.196,-0.036,-44.176,-15.023,25.855,0.0,58.0
273489,-0.897,0.186,0.021,35.687,19.336,-36.947,0.0,142.0
273583,-0.801,0.246,0.004,10.817,52.405,-102.702,0.0,181.0
273677,-1.040,0.104,0.106,9.626,54.092,-101.687,0.0,0.0
273763,-0.965,0.177,0.118,80.710,46.397,-72.038,0.0,59.0
273850,-0.962,0.382,0.088,31.924,45.145,-72.366,0.0,72.0
273944,-1.001,0.238,0.176,-25.344,28.153,-48.069,0.0,0.0
274038,-1.034,0.214,0.187,36.420,-2.992,-3.794,0.0,0.0
274136,-1.183,0.457,-0.015,2.443,-13.809,11.198,0.0,0.0
274230,-1.021,0.164,-0.006,-50.588,-45.573,87.382,0.0,0.0
274324,-1.312,0.215,-0.146,-4.321,-51.969,158.473,0.0,0.0
274418,-0.985,0.260,-0.193,-30.771,-35.511,153.069,0.0,0.0
274512,-0.635,0.309,-0.125,-54.550,-2.198,86.412,0.0,0.0
274608,-0.744,0.301,-0.069,-38.733,18.252,-10.458,0.0,0.0
274702,-1.029,0.279,-0.026,-13.397,31.458,-78.305,0.0,0.0
274796,-1.161,0.248,0.012,46.214,41.466,-111.809,0.0,0.0
274890,-0.935,0.291,0.023,56.015,38.092,-122.069,0.0,0.0
274981,-1.127,0.313,0.042,10.107,32.595,-86.031,93.0,0.0
275069,-0.887,0.222,0.097,19.084,2.504,-30.427,90.0,0.0
275158,-0.874,0.349,0.025,22.588,1.969,0.573,88.0,0.0
275245,-0.994,0.351,0.026,-48.420,-4.489,14.534,78.0,0.0
275332,-0.929,0.375,0.006,-48.573,-3.863,16.252,67.0,0.0
275419,-1.286,0.521,-0.303,-105.840,14.756,2.931,0.0,66.0
275506,-0.890,0.220,-0.355,-194.221,17.282,67.015,0.0,71.0
275593,-1.053,0.176,-0.357,-153.931,0.878,75.771,0.0,81.0
275681,-0.915,0.272,-0.348,-86.053,1.870,51.061,0.0,91.0
275773,-0.921,0.215,-0.173,-35.023,-18.229,59.053,0.0,101.0
275863,-0.932,0.343,-0.183,3.885,-21.481,30.603,0.0,116.0
275957,-1.006,0.329,-0.138,-0.374,-9.550,-8.061,0.0,119.0
276046,-0.925,0.367,-0.057,-2.130,9.939,-33.382,0.0,123.0
276140,-0.920,0.217,0.167,27.679,-9.000,-72.351,0.0,0.0
276229,-0.819,0.442,0.104,59.947,5.542,-83.977,0.0,127.0
276313,-1.019,0.565,-0.147,-196.366,15.802,-94.496,0.0,30.0
276397,-0.896,-0.271,0.134,-167.336,31.702,-82.550,0.0,37.0
276488,-0.985,0.183,-0.061,-56.198,17.336,-50.939,151.0,144.0
276577,-0.953,0.098,0.108,-29.458,-1.389,0.573,0.0,123.0
276667,-0.911,0.502,-0.003,-55.443,-10.679,12.962,0.0,142.0
276754,-1.143,0.454,-0.012,-121.527,-11.847,26.328,0.0,85.0
276841,-1.181,0.378,-0.136,-157.679,-51.031,93.038,0.0,91.0
276928,-1.419,0.634,-0.317,-146.107,-63.748,130.985,0.0,91.0
277016,-1.558,0.640,-0.533,-250.137,-98.534,181.565,0.0,101.0
277105,-0.942,0.081,0.181,-211.573,-154.496,195.084,0.0,117.0
277198,-0.628,0.291,0.342,-180.840,-87.939,134.863,0.0,0.0
277296,-0.565,0.137,0.702,-106.267,-57.947,75.603,0.0,0.0
277381,-0.372,-0.087,0.881,-55.817,-38.214,46.244,52.0,0.0
277466,-0.237,0.032,0.790,-24.267,-14.435,23.832,49.0,0.0
277551,-0.259,0.027,0.849,-9.092,-1.718,12.595,47.0,0.0
277635,-0.258,0.054,0.895,2.969,18.015,5.901,40.0,0.0
277719,-0.122,0.017,0.939,-18.870,19.000,20.053,42.0,0.0
277804,-0.225,-0.064,0.938,-0.198,7.496,27.916,39.0,0.0
277886,-0.295,0.030,0.944,-17.733,-0.145,38.954,24.0,0.0
277971,-0.278,-0.083,1.004,-8.137,-12.580,31.336,39.0,0.0
278057,-0.173,-0.076,1.014,-1.664,-16.305,28.275,23.0,199.0
278141,-0.203,0.031,1.149,13.061,-14.733,30.595,40.0,194.0
278225,-0.194,0.127,0.944,-15.115,-18.687,43.931,44.0,190.0
278309,-0.173,0.164,0.942,15.466,1.893,28.519,44.0,185.0
278393,-0.185,0.085,0.923,-0.672,5.901,32.504,45.0,182.0
278475,-0.069,0.021,0.927,-6.985,2.420,22.031,44.0,139.0
278558,-0.104,0.057,1.002,-7.718,3.458,3.962,43.0,176.0
278639,-0.105,0.061,1.021,-4.053,-2.595,0.901,43.0,130.0
278722,-0.239,0.156,1.065,10.252,6.779,5.145,40.0,126.0
278802,-0.365,0.002,1.057,13.634,0.359,2.412,42.0,124.0
278885,-0.311,0.061,0.793,13.252,-4.473,-12.015,40.0,163.0
278964,-0.449,0.068,0.705,58.679,18.137,-31.107,39.0,117.0
279044,-0.343,0.241,0.665,88.115,53.511,-40.313,40.0,114.0
279123,-0.360,0.154,1.051,11.924,64.969,-20.305,41.0,109.0
279212,-0.479,-0.059,1.200,142.427,-19.641,1.160,0.0,105.0
279299,-0.413,0.739,0.781,250.130,-55.588,98.229,0.0,74.0
279375,0.251,1.137,0.312,192.153,27.214,188.656,35.0,73.0
279455,0.289,0.793,0.154,122.534,67.267,100.931,34.0,74.0
279539,0.182,0.730,-0.042,171.450,48.954,34.076,37.0,0.0
279629,0.500,1.719,-0.750,-42.771,119.504,140.481,122.0,0.0
279718,0.438,0.879,-0.145,26.069,34.344,43.779,119.0,0.0
279808,0.634,0.735,-0.137,-7.679,60.053,32.397,118.0,0.0
279897,0.681,1.160,-0.335,-35.122,29.466,8.710,118.0,0.0
279985,0.819,1.077,-0.171,-72.305,96.969,1.588,116.0,0.0
280074,0.603,1.697,-0.410,-63.496,81.069,-7.382,115.0,0.0
280163,0.459,1.587,-0.303,-63.534,23.893,33.397,113.0,0.0
280255,0.602,1.325,-0.285,-90.718,33.145,21.771,113.0,0.0
280344,0.512,1.667,-0.331,-7.511,40.267,13.282,114.0,0.0
280432,0.461,1.729,-0.377,52.061,7.656,11.550,115.0,0.0
280521,0.236,0.741,0.113,67.939,9.015,-20.229,114.0,0.0
280610,0.453,-0.072,0.594,-5.099,31.534,-13.756,121.0,0.0
280700,0.614,0.262,0.351,-35.733,49.412,27.687,121.0,0.0
280790,0.760,0.994,0.051,-8.107,55.511,41.481,128.0,0.0
280879,0.826,1.031,-0.206,-28.374,69.282,34.550,120.0,0.0
280972,0.545,1.033,-0.136,7.618,29.450,-0.939,119.0,0.0
281061,0.482,0.736,0.192,27.557,24.565,7.130,132.0,0.0
281151,0.658,1.034,0.067,4.160,5.672,0.931,122.0,0.0
281240,0.756,0.867,0.030,-55.588,15.191,2.053,121.0,0.0
281329,0.593,0.850,0.173,-16.588,0.489,-5.901,117.0,0.0
281419,0.761,0.872,0.131,6.168,4.351,15.443,132.0,0.0
281502,0.592,0.628,0.204,28.130,3.038,-19.924,17.0,0.0
281585,0.539,0.464,0.311,33.718,5.061,-9.122,16.0,0.0
281675,0.525,0.695,0.107,17.634,13.496,18.924,139.0,0.0
281765,0.646,0.699,0.168,0.504,13.221,27.328,123.0,0.0
281851,0.772,1.056,0.095,-21.893,37.603,17.214,16.0,0.0
281942,0.566,1.522,-0.141,13.504,22.794,16.786,132.0,0.0
282032,0.512,1.313,-0.062,52.336,-1.954,2.939,132.0,0.0
282122,0.294,0.719,0.192,66.229,14.206,-4.328,131.0,0.0
282213,0.282,0.023,0.607,60.107,2.366,-8.206,144.0,0.0
282303,0.636,0.477,0.285,42.573,23.168,21.038,147.0,0.0
282394,0.733,1.036,0.040,61.321,18.702,14.237,142.0,0.0
282478,0.705,0.585,0.133,25.840,18.351,-2.687,18.0,0.0
282561,0.666,0.481,0.215,39.214,-8.901,8.160,14.0,0.0
282656,0.748,0.752,0.106,19.748,14.069,7.527,13.0,0.0
282742,0.797,0.554,0.169,-29.221,3.214,6.084,17.0,0.0
282835,0.746,0.550,0.204,1.168,7.954,-8.382,152.0,0.0
282921,0.630,0.706,0.223,38.267,10.183,-2.573,13.0,0.0
283008,0.699,0.810,0.186,22.954,16.618,2.580,12.0,0.0
283094,0.725,0.648,0.221,26.450,9.832,-10.519,16.0,0.0
283179,0.677,0.389,0.222,-16.160,16.832,-28.840,12.0,0.0
283265,0.729,0.658,0.103,-1.901,5.092,2.992,13.0,0.0
283351,0.716,0.788,0.094,19.031,26.282,-2.038,16.0,0.0
283440,0.619,0.645,0.203,-4.519,38.672,-9.702,13.0,0.0
283525,0.603,0.761,0.192,-18.672,24.947,-15.458,12.0,0.0
283611,0.600,0.933,0.149,15.847,43.168,7.267,13.0,0.0
283697,0.588,0.665,0.276,28.557,41.802,13.351,17.0,0.0
283791,0.579,0.821,0.236,33.679,63.992,36.046,154.0,0.0
283877,0.776,0.998,0.177,69.855,48.092,45.748,17.0,0.0
283963,0.438,0.648,0.208,41.168,35.107,39.718,16.0,0.0
284049,0.726,0.658,0.116,24.031,15.031,2.176,16.0,0.0
284141,0.810,0.774,0.149,-1.763,11.718,14.366,138.0,0.0
284230,0.748,0.464,0.272,19.969,7.389,-4.840,17.0,0.0
284316,0.638,0.143,0.431,-35.191,-1.000,-23.321,16.0,0.0
284409,0.783,0.823,0.179,26.244,-0.702,-4.809,137.0,0.0
284495,0.668,0.526,0.356,4.977,16.046,-3.275,16.0,0.0
284581,0.700,0.684,0.324,-32.237,14.244,-0.191,16.0,0.0
284667,0.703,0.760,0.279,-19.527,-15.794,-21.282,16.0,0.0
284753,0.743,0.577,0.334,-33.870,-0.206,-0.649,17.0,0.0
284839,0.712,1.309,-0.051,12.603,1.786,5.191,17.0,0.0
284925,0.517,0.874,0.142,34.397,8.458,4.748,17.0,0.0
285021,0.492,1.075,0.147,57.466,25.069,12.939,124.0,0.0
285107,0.599,0.769,0.238,44.618,9.511,16.832,17.0,0.0
285193,0.658,0.567,0.348,22.916,36.893,15.947,16.0,0.0
285279,0.570,0.380,0.479,0.580,31.573,13.832,17.0,0.0
285365,0.692,0.618,0.451,31.557,30.534,36.802,16.0,0.0
285458,0.684,0.534,0.452,53.405,30.435,52.053,128.0,0.0
285551,0.693,0.623,0.223,70.191,24.924,41.443,139.0,0.0
285644,0.573,0.251,0.271,72.878,26.542,3.901,139.0,0.0
285737,0.692,0.883,0.138,38.855,9.588,18.137,140.0,0.0
285834,0.656,0.738,0.186,34.985,14.901,-9.740,140.0,0.0
285927,0.618,0.796,0.195,20.893,2.130,7.794,143.0,0.0
286020,0.754,0.647,0.273,12.336,20.550,-16.015,145.0,0.0
286114,0.771,0.840,0.244,14.443,7.214,-9.733,144.0,0.0
286206,0.671,0.846,0.191,-2.565,23.863,-17.969,129.0,0.0
286301,0.660,0.850,0.083,-15.809,10.634,18.244,150.0,0.0
286394,0.757,0.307,0.376,-0.695,13.115,-8.351,138.0,0.0
286487,0.631,0.581,0.302,17.901,19.473,11.351,149.0,0.0
286580,0.716,0.625,0.319,12.725,29.092,15.855,136.0,0.0
