Timestamp(ms),AccelX(g),AccelY(g),AccelZ(g),GyroX(deg/s),GyroY(deg/s),GyroZ(deg/s),DistanceLeft(cm),DistanceRight(cm)
117039,-0.469,0.243,0.837,-3.313,-3.221,10.244,67.0,0.0
117126,-0.472,0.249,0.868,2.916,2.511,14.649,67.0,0.0
117211,-0.530,0.277,0.881,-4.519,4.435,21.008,66.0,0.0
117296,-0.497,0.300,0.765,-2.817,-5.481,22.771,46.0,0.0
117382,-0.506,0.304,0.745,12.626,-4.573,7.359,66.0,0.0
117468,-0.632,0.294,0.713,39.626,8.107,-24.374,66.0,0.0
117554,-0.472,0.138,0.605,92.229,23.099,-43.710,67.0,0.0
117644,-0.813,0.217,0.509,232.275,15.191,-47.252,70.0,0.0
117731,-0.703,0.573,0.111,250.130,-15.031,-72.206,77.0,0.0
117824,-1.002,0.843,-0.077,209.916,-59.740,-109.046,0.0,0.0
117918,-0.861,0.787,-0.027,123.649,-40.160,-104.000,0.0,0.0
118012,-0.782,0.503,0.008,19.153,-11.511,-83.221,0.0,0.0
118107,-0.947,0.275,0.077,47.634,-10.931,-61.473,0.0,0.0
118201,-0.900,0.346,0.012,91.641,1.939,-36.336,0.0,0.0
118294,-0.838,0.372,0.078,26.344,16.061,-27.649,0.0,0.0
118388,-0.942,0.303,0.179,20.313,16.504,-23.389,0.0,0.0
118486,-1.083,0.329,0.133,34.672,5.328,-10.176,0.0,0.0
118580,-1.211,0.280,0.026,18.458,-14.626,31.771,0.0,0.0
118674,-1.015,0.157,-0.083,-34.198,-37.366,122.153,0.0,0.0
118768,-1.044,0.042,-0.225,70.924,-86.649,114.603,0.0,0.0
118862,-0.701,0.210,-0.211,165.656,-64.832,69.718,0.0,0.0
118953,-0.715,0.442,-0.268,97.855,-46.855,-19.641,0.0,147.0
119044,-1.097,0.271,-0.183,65.878,-73.191,-75.908,0.0,141.0
119139,-1.266,0.109,-0.172,178.870,-84.603,-39.221,0.0,100.0
119226,-1.082,0.399,-0.197,235.756,-106.389,-39.435,0.0,88.0
119314,-0.952,0.376,-0.188,197.672,-112.282,-41.176,0.0,76.0
119400,-0.768,0.448,-0.192,128.252,-79.221,-27.611,0.0,66.0
119485,-0.834,0.408,-0.097,65.725,-46.679,-38.008,0.0,60.0
119574,-0.732,0.496,0.021,73.336,-5.740,-18.099,0.0,141.0
119661,-0.761,0.485,0.071,56.206,11.298,1.588,0.0,85.0
119750,-1.060,0.436,-0.062,65.756,13.969,2.908,0.0,126.0
119839,-1.047,0.342,-0.117,40.985,17.634,33.069,0.0,136.0
119928,-0.842,0.363,-0.124,1.130,29.672,26.939,0.0,135.0
120017,-0.763,0.237,-0.123,-2.641,19.435,-3.550,0.0,76.0
120107,-0.954,0.377,-0.213,21.145,1.237,-4.893,0.0,137.0
120197,-0.972,0.423,-0.187,41.985,-4.221,4.702,0.0,137.0
120286,-0.934,0.476,-0.158,35.573,-7.847,4.427,0.0,139.0
120376,-0.857,0.486,-0.101,11.084,-3.779,-2.366,0.0,141.0
120465,-0.828,0.493,-0.070,-11.763,-1.031,-15.282,0.0,145.0
120556,-1.047,0.510,-0.083,-35.924,-0.252,-14.557,0.0,149.0
120645,-1.055,0.380,-0.026,-7.374,-18.061,5.824,0.0,133.0
120730,-1.072,0.441,-0.113,-0.298,-29.733,13.603,0.0,57.0
120822,-0.883,0.359,-0.074,-11.046,-16.832,39.534,0.0,142.0
120908,-0.778,0.329,-0.065,-33.618,-3.679,16.740,0.0,60.0
120993,-0.680,0.348,-0.017,-37.763,13.679,-8.573,0.0,66.0
121084,-0.861,0.428,0.047,-51.069,18.336,-27.931,0.0,159.0
121176,-0.896,0.428,0.075,-40.290,28.481,-22.344,0.0,166.0
121269,-1.193,0.529,-0.087,-36.053,26.298,-23.496,0.0,0.0
121362,-0.841,0.278,-0.074,-101.863,14.351,41.885,0.0,0.0
121446,-0.935,0.380,-0.202,-21.351,3.878,39.008,0.0,44.0
121530,-0.804,0.328,-0.122,-21.107,2.641,37.977,0.0,43.0
121621,-0.785,0.473,-0.070,-9.519,7.153,24.740,0.0,106.0
121709,-0.916,0.512,-0.019,-11.382,-1.237,-1.115,0.0,105.0
121796,-0.918,0.546,-0.002,12.641,-0.519,0.756,0.0,106.0
121881,-0.941,0.535,0.046,-7.603,-6.557,-1.687,0.0,57.0
121969,-0.983,0.513,0.021,51.878,-25.115,-13.458,0.0,110.0
122058,-0.749,0.527,-0.002,36.115,-21.176,20.740,0.0,109.0
122151,-0.781,0.521,0.008,0.481,-7.931,10.313,0.0,0.0
122245,-0.685,0.537,0.022,-17.145,5.344,13.649,0.0,0.0
122333,-0.680,0.536,0.042,19.763,6.374,8.802,0.0,120.0
122425,-0.758,0.608,-0.014,-9.229,20.168,-3.244,0.0,122.0
122514,-0.958,0.659,-0.055,15.802,28.687,-31.389,0.0,124.0
122607,-0.874,0.544,-0.054,-41.244,31.924,22.870,0.0,0.0
122700,-0.741,0.857,-0.177,-20.206,31.641,32.275,0.0,0.0
122787,-0.827,0.682,-0.192,-53.489,28.885,82.504,0.0,86.0
122872,-0.510,0.740,-0.244,-20.504,25.015,88.519,170.0,91.0
122958,-0.547,0.487,-0.167,-9.802,5.336,38.008,170.0,94.0
123043,-0.014,0.562,0.139,70.695,4.672,-35.847,169.0,93.0
123130,0.052,2.000,-1.732,141.359,191.137,250.130,143.0,98.0
123214,-0.857,-0.004,0.277,43.580,90.931,113.863,129.0,110.0
123299,-0.012,1.170,-0.807,-42.153,25.573,13.962,127.0,113.0
123383,0.323,0.532,-0.316,-25.420,17.733,-10.366,126.0,114.0
123467,0.306,0.848,-0.509,40.695,23.031,6.076,126.0,116.0
123552,0.418,1.397,-0.700,3.229,30.542,-5.542,126.0,114.0
123636,0.408,0.722,-0.384,-38.809,33.099,-12.924,126.0,115.0
123720,0.393,0.578,-0.410,23.473,30.565,-6.008,127.0,113.0
123805,0.355,1.097,-0.684,41.351,43.069,-2.847,133.0,114.0
123892,0.451,1.202,-0.600,-7.718,40.550,-6.053,127.0,115.0
123977,0.350,0.717,-0.634,-30.626,29.878,-8.802,127.0,115.0
124061,0.290,0.746,-0.674,6.603,26.313,-16.496,127.0,115.0
124145,0.364,0.902,-0.592,36.992,15.405,-6.130,125.0,116.0
124230,0.478,0.747,-0.552,25.359,28.427,-4.534,126.0,117.0
124314,0.445,0.982,-0.607,-30.366,20.435,-19.221,127.0,116.0
124399,0.450,0.553,-0.406,-20.382,34.305,-6.145,124.0,116.0
124483,0.338,0.888,-0.548,12.405,20.588,-0.634,124.0,117.0
124571,0.320,1.228,-0.682,10.321,30.435,1.565,123.0,117.0
124655,0.330,0.854,-0.294,25.450,10.481,4.802,122.0,118.0
124739,0.469,1.039,-0.454,1.885,15.908,-12.611,122.0,118.0
124824,0.451,0.970,-0.393,-3.603,41.420,-5.130,122.0,118.0
124908,0.559,0.808,-0.238,12.397,36.122,-11.573,121.0,118.0
124993,0.498,0.910,-0.371,24.908,33.115,-10.687,122.0,118.0
125077,0.490,0.825,-0.406,38.305,20.053,-38.008,123.0,116.0
125162,0.432,0.882,-0.439,22.237,48.519,-47.237,123.0,115.0
125246,0.270,0.636,-0.597,20.786,33.710,-8.282,122.0,116.0
125333,0.313,0.903,-0.616,32.664,31.519,-2.427,123.0,116.0
125418,0.379,0.991,-0.519,2.099,18.985,-13.389,123.0,115.0
125502,0.375,0.952,-0.533,-25.611,22.015,6.298,124.0,115.0
125585,0.432,0.974,-0.500,-40.992,22.580,15.069,123.0,85.0
125669,0.418,1.164,-0.558,-26.458,8.710,3.275,122.0,117.0
125753,0.378,1.009,-0.468,-18.107,7.214,-1.275,120.0,118.0
125838,0.292,0.822,-0.389,-5.939,7.580,1.374,119.0,119.0
125923,0.218,0.837,-0.402,15.908,-5.160,-49.977,119.0,119.0
126010,0.377,0.375,-0.010,81.809,-7.901,-27.656,120.0,118.0
126095,0.462,0.677,-0.236,27.565,14.458,-12.183,121.0,116.0
126180,0.416,0.702,-0.305,19.550,24.855,-4.069,122.0,115.0
126264,0.515,0.557,-0.179,2.427,46.084,11.855,122.0,116.0
126349,0.478,0.914,-0.366,-1.221,45.527,6.298,123.0,116.0
126434,0.365,1.025,-0.623,39.290,32.191,-7.435,122.0,117.0
126523,0.328,0.528,-0.425,29.359,45.557,-13.969,122.0,0.0
126613,0.302,0.711,-0.632,39.458,33.656,-16.015,122.0,0.0
126702,0.323,0.705,-0.427,25.954,30.618,-11.115,122.0,0.0
126795,0.399,0.946,-0.695,35.885,27.290,11.504,124.0,0.0
126884,0.513,0.823,-0.499,-10.580,20.382,-1.351,123.0,0.0
126974,0.560,0.895,-0.470,-19.840,14.573,16.504,123.0,0.0
127064,0.504,0.863,-0.533,0.916,-0.603,-1.053,121.0,0.0
127153,0.412,0.735,-0.428,-3.084,-6.496,-9.832,119.0,0.0
127242,0.350,0.804,-0.484,15.565,-12.389,-22.618,119.0,0.0
127332,0.424,0.870,-0.445,5.198,1.489,-18.763,120.0,0.0
127421,0.464,0.861,-0.371,5.664,7.916,0.840,120.0,0.0
127510,0.518,0.852,-0.394,4.916,20.702,-8.351,120.0,0.0
127603,0.657,1.036,-0.425,11.015,26.237,22.534,122.0,0.0
127692,0.603,0.891,-0.496,-7.931,49.252,1.504,121.0,0.0
127781,0.526,0.708,-0.423,13.336,37.885,-10.282,119.0,0.0
127872,0.384,0.665,-0.627,39.290,32.939,-14.252,118.0,0.0
127961,0.490,0.937,-0.486,39.511,45.947,-25.076,118.0,0.0
128051,0.436,0.782,-0.388,-9.107,29.397,-20.580,127.0,0.0
128140,0.476,0.804,-0.368,-10.664,26.092,3.053,125.0,0.0
128230,0.568,1.106,-0.488,-38.855,24.580,9.634,120.0,0.0
128322,0.388,1.265,-0.835,-19.580,3.198,12.168,119.0,0.0
128412,0.208,1.284,-0.665,58.840,-14.718,-9.901,119.0,0.0
128501,0.513,0.560,-0.096,37.397,-12.397,-39.496,119.0,0.0
128590,0.547,0.292,0.056,-0.130,14.962,-4.885,118.0,0.0
128679,0.547,0.796,-0.339,-38.115,57.481,10.107,118.0,0.0
128770,0.490,1.483,-0.911,39.786,12.595,6.664,119.0,0.0
128859,0.567,0.626,-0.235,80.015,32.611,-32.015,120.0,0.0
128949,0.621,0.664,-0.211,30.427,54.366,-23.656,119.0,0.0
129038,0.345,0.754,-0.567,5.924,44.847,-11.198,119.0,0.0
129131,0.316,1.124,-0.526,-13.656,49.420,-31.237,119.0,0.0
129220,0.590,1.441,-0.835,-38.962,31.763,32.282,119.0,0.0
129310,0.450,1.683,-0.724,-1.321,34.992,4.702,118.0,0.0
129397,0.400,0.927,-0.307,15.076,4.183,-7.046,116.0,160.0
129484,0.589,0.546,-0.172,27.893,-1.382,-14.076,115.0,155.0
129570,0.376,0.445,-0.104,-3.931,25.626,-11.916,113.0,152.0
129657,0.453,0.643,-0.118,-3.084,16.580,-13.290,113.0,149.0
129743,0.504,0.859,-0.288,10.092,24.603,-13.298,114.0,146.0
129828,0.579,0.941,-0.299,30.679,41.405,-23.962,99.0,145.0
129917,0.689,1.038,-0.342,32.237,48.962,0.656,99.0,139.0
130001,0.617,0.884,-0.274,20.473,58.702,-10.870,98.0,136.0
130086,0.565,0.697,-0.271,40.389,68.137,9.656,98.0,133.0
130171,0.497,0.671,-0.271,42.718,62.046,3.634,98.0,131.0
130262,0.400,0.746,-0.513,54.779,36.588,-10.519,100.0,141.0
130350,0.432,1.023,-0.550,33.802,47.092,-31.466,103.0,0.0
130433,0.475,1.069,-0.514,36.489,18.099,-13.374,107.0,124.0
130516,0.559,0.847,-0.351,21.389,14.198,-19.084,112.0,121.0
130604,0.607,0.601,-0.127,-14.076,8.618,-8.275,116.0,121.0
130688,0.540,0.899,-0.396,-30.802,11.328,4.069,118.0,121.0
130771,0.485,0.964,-0.548,18.855,-20.069,-18.122,119.0,121.0
130855,0.452,0.687,-0.214,-3.282,23.557,-17.038,117.0,122.0
130939,0.385,0.917,-0.319,19.076,6.099,-21.191,118.0,121.0
131023,0.439,1.109,-0.373,4.229,18.099,-22.260,118.0,121.0
131108,0.477,0.971,-0.334,8.855,33.076,-27.298,118.0,119.0
131192,0.535,1.009,-0.401,-0.573,57.115,-26.718,119.0,119.0
131276,0.669,1.078,-0.346,11.611,65.374,-12.458,120.0,117.0
131363,0.510,0.749,-0.334,23.603,68.237,-0.924,120.0,117.0
131447,0.390,0.727,-0.365,27.252,73.519,-4.885,120.0,118.0
131531,0.230,0.883,-0.720,58.305,40.290,-11.573,122.0,118.0
131615,0.386,0.759,-0.348,52.916,43.130,-40.443,122.0,117.0
131700,0.315,0.807,-0.258,8.015,47.038,-48.702,122.0,115.0
131784,0.346,0.722,-0.263,-15.420,15.031,-30.740,124.0,114.0
131868,0.380,0.812,-0.269,-15.855,9.244,-24.618,125.0,112.0
131951,0.262,1.058,-0.370,-24.137,11.336,-67.863,125.0,91.0
132036,-0.011,0.801,-0.263,-13.702,2.382,-65.954,126.0,79.0
132119,0.068,0.905,-0.356,-47.588,-14.634,-49.779,126.0,87.0
132202,-0.007,1.108,-0.347,20.870,2.298,-45.718,128.0,84.0
132284,-0.010,0.809,-0.100,-45.702,6.458,-59.206,130.0,75.0
132366,0.011,0.845,-0.058,-61.443,21.466,-83.130,133.0,73.0
132451,-0.144,0.790,-0.013,-2.863,47.443,-83.740,137.0,99.0
132530,-0.473,1.269,-0.348,-41.580,54.794,-109.740,58.0,95.0
132615,-0.615,1.004,-0.265,-63.328,69.405,-93.603,153.0,94.0
132701,-0.639,0.770,-0.177,-34.947,42.252,-75.840,177.0,94.0
132792,-0.659,0.676,-0.195,-19.099,3.191,-60.145,0.0,114.0
132881,-0.683,0.646,-0.174,-3.046,-2.031,-45.947,0.0,116.0
132970,-0.855,0.699,-0.184,-52.557,15.405,-67.679,0.0,116.0
133059,-0.950,0.477,-0.076,-40.786,15.023,-85.985,0.0,121.0
133146,-1.050,0.423,-0.074,5.145,6.099,-73.427,0.0,85.0
133235,-0.947,0.335,-0.012,23.588,-0.298,-37.427,0.0,128.0
133324,-1.061,0.351,0.051,21.679,-11.885,11.718,0.0,133.0
133414,-0.870,0.359,-0.026,16.153,-11.137,43.786,0.0,139.0
133508,-0.789,0.418,-0.068,-36.366,7.443,19.870,0.0,138.0
133598,-0.802,0.398,-0.018,-75.458,25.695,-1.115,0.0,132.0
133683,-0.921,0.479,0.024,-96.023,27.931,-14.557,0.0,57.0
133774,-0.989,0.436,0.055,-68.023,17.695,14.313,0.0,146.0
133864,-0.935,0.701,-0.081,-58.954,15.298,31.733,0.0,154.0
133958,-0.778,0.495,0.006,-64.382,5.076,58.221,0.0,0.0
134046,-0.983,0.858,-0.118,-91.588,1.344,48.588,0.0,110.0
134135,-0.904,0.872,0.434,-107.763,-18.206,62.756,0.0,121.0
134225,-1.144,0.942,0.733,-136.298,-85.786,67.916,0.0,135.0
134305,-1.415,0.987,0.998,-135.298,-190.084,96.397,73.0,27.0
134382,-1.437,0.812,1.037,-115.733,-250.137,104.893,81.0,30.0
134469,-0.424,-0.236,0.022,90.542,-250.137,126.313,82.0,0.0
134553,0.136,-0.258,-0.577,-250.137,-34.038,-48.718,0.0,28.0
134630,0.375,0.302,0.244,54.031,-76.916,49.878,74.0,27.0
134706,0.325,0.093,0.478,-114.687,-7.237,-10.672,71.0,26.0
134782,0.460,0.073,0.383,41.382,-49.427,63.336,69.0,25.0
134859,0.512,0.161,0.658,-22.931,-12.992,33.206,69.0,29.0
134938,0.559,-0.181,0.751,-3.557,-29.939,27.855,67.0,29.0
135015,0.866,0.227,0.634,4.137,-14.832,36.237,66.0,29.0
135091,0.828,0.179,0.710,18.939,-14.672,37.534,65.0,29.0
135168,0.594,-0.064,0.666,14.198,-20.863,22.374,64.0,30.0
135247,0.722,0.287,0.585,3.580,-6.160,15.191,64.0,104.0
135328,0.573,0.236,0.556,42.405,-15.336,23.473,64.0,99.0
135408,0.473,0.092,0.527,47.092,-15.542,27.038,60.0,96.0
135487,0.675,-0.006,0.623,1.939,-3.382,4.824,60.0,92.0
135567,0.815,0.064,0.716,-0.267,-11.847,9.496,62.0,88.0
135654,0.815,0.132,0.741,-6.198,-21.740,4.748,0.0,37.0
135739,1.038,0.115,0.558,-10.344,-22.084,18.008,0.0,40.0
135815,1.009,0.066,0.471,1.763,-22.489,7.641,59.0,44.0
135892,0.895,-0.244,0.456,-10.824,14.748,-2.031,59.0,47.0
135969,0.951,-0.247,0.634,8.702,7.344,-1.389,59.0,50.0
136046,0.722,0.021,0.579,-19.168,7.855,18.374,58.0,53.0
136124,0.824,0.086,0.453,31.939,-6.328,17.504,57.0,58.0
136202,0.834,0.044,0.345,-19.672,35.634,16.489,58.0,63.0
136281,0.752,-0.117,0.636,102.573,-20.443,35.115,58.0,81.0
136363,0.822,-0.040,0.661,-16.458,7.000,23.786,57.0,83.0
136442,0.793,0.132,0.486,57.229,-23.718,28.885,58.0,86.0
136531,0.549,0.052,0.292,70.489,-13.351,44.397,0.0,115.0
136611,0.752,0.321,0.466,36.038,25.260,24.015,57.0,112.0
136692,0.670,0.229,0.604,38.328,21.573,15.809,58.0,107.0
136772,0.861,0.324,0.632,38.550,15.763,38.786,58.0,104.0
136853,0.825,0.086,0.791,39.168,-0.870,23.038,62.0,103.0
136933,0.941,-0.372,0.907,13.916,-15.718,25.870,59.0,104.0
137014,1.000,-0.093,0.606,5.962,-9.634,19.565,57.0,104.0
137105,1.014,-0.205,0.628,-22.756,22.031,6.863,0.0,106.0
137186,0.865,0.330,0.586,27.985,2.725,18.969,57.0,102.0
137266,0.750,-0.093,0.552,37.939,-4.557,13.137,59.0,100.0
137346,0.589,0.076,0.592,65.527,8.183,25.466,51.0,98.0
137424,0.451,-0.513,0.880,77.389,20.267,-17.962,50.0,97.0
137504,1.083,-0.146,0.908,-7.084,-1.115,39.351,51.0,96.0
137584,1.052,0.045,0.765,30.153,-25.313,53.122,59.0,97.0
137664,0.943,-0.079,0.583,4.649,-10.527,35.664,58.0,95.0
137744,0.938,0.017,0.539,21.679,-3.527,35.687,58.0,94.0
137827,0.750,-0.033,0.581,39.458,-0.244,31.237,51.0,94.0
137906,0.707,0.178,0.674,-0.389,15.176,20.427,60.0,93.0
137986,0.706,0.214,0.600,56.641,-12.496,35.366,59.0,95.0
138065,0.637,0.280,0.662,-15.870,13.427,8.901,58.0,96.0
138146,0.533,0.055,0.805,-1.115,-1.718,1.038,58.0,99.0
138226,0.563,0.046,0.672,-5.985,-20.931,11.954,57.0,100.0
138306,0.728,0.408,0.443,-2.939,-15.198,6.176,57.0,103.0
138387,0.790,0.018,0.657,-23.824,11.015,-23.908,53.0,106.0
138468,0.825,-0.010,0.635,12.527,-3.168,-2.069,63.0,109.0
138552,0.826,0.057,0.552,-11.626,5.992,8.031,55.0,109.0
138633,0.624,-0.011,0.653,4.183,15.267,10.031,57.0,112.0
138714,0.594,0.077,0.626,10.061,-4.450,27.397,55.0,117.0
138795,0.664,0.168,0.571,11.267,-3.626,24.763,56.0,118.0
138876,0.653,0.076,0.604,29.008,-25.153,39.397,57.0,121.0
138958,0.688,0.052,0.506,80.374,-29.099,44.557,57.0,126.0
139040,0.682,0.338,0.628,76.076,-11.389,58.282,58.0,128.0
139122,0.701,-0.221,0.767,0.092,-23.824,32.908,58.0,132.0
139208,0.841,0.405,0.524,51.656,-20.695,34.076,54.0,142.0
139302,0.575,0.059,0.546,-5.939,-6.122,15.145,0.0,0.0
139387,0.736,0.171,0.538,20.229,-22.504,-12.092,52.0,0.0
139480,0.733,0.158,0.653,6.802,-49.290,-2.588,0.0,153.0
139563,1.260,0.280,0.298,-1.229,-33.046,-10.489,57.0,156.0
139645,0.867,-0.148,0.343,-32.466,-21.885,5.336,57.0,153.0
139731,1.002,-0.041,0.259,-15.847,-16.061,-4.489,52.0,0.0
139817,0.925,-0.157,0.326,8.756,-16.000,-11.519,57.0,0.0
139910,0.969,-0.116,0.298,6.053,-27.366,-9.359,0.0,158.0
139999,0.360,0.373,-0.174,63.824,-7.855,17.015,56.0,0.0
140083,0.838,0.944,0.010,74.076,-19.160,60.412,58.0,160.0
140168,0.864,-0.043,0.277,83.015,-18.916,14.137,60.0,186.0
140255,0.823,-0.094,0.159,-6.649,-1.084,21.702,63.0,0.0
140341,0.732,0.111,0.051,51.473,-3.985,30.344,59.0,0.0
140427,1.069,0.028,0.170,-8.061,22.916,2.992,58.0,0.0
140513,1.012,0.344,0.195,41.504,-3.229,4.450,59.0,0.0
140599,0.997,0.179,0.216,-10.298,10.809,19.481,58.0,0.0
140685,0.921,0.233,0.196,-15.977,10.321,57.412,61.0,0.0
140782,0.866,-0.179,0.269,0.931,-4.847,40.435,0.0,0.0
140871,0.929,-0.304,0.252,6.137,-11.824,19.344,59.0,152.0
140954,1.022,-0.246,0.172,21.985,5.237,-8.603,59.0,151.0
141036,0.984,-0.174,0.076,41.649,27.008,-16.771,64.0,148.0
141118,0.734,-0.109,0.094,43.427,50.008,-9.328,65.0,135.0
141198,0.793,0.037,0.182,59.809,98.702,-27.252,29.0,128.0
141277,0.904,0.165,0.397,3.962,116.771,-44.099,30.0,122.0
141365,0.925,0.004,0.654,22.466,112.939,-39.412,0.0,116.0
141444,0.700,0.159,0.710,103.565,109.351,-22.328,34.0,109.0
141524,0.494,0.379,0.827,167.053,114.618,-8.511,35.0,101.0
141602,0.289,0.489,0.744,130.679,105.893,-45.099,44.0,76.0
141679,-0.058,0.616,0.359,98.863,160.366,-75.771,42.0,66.0
141756,-0.441,1.036,0.348,76.458,185.015,-149.290,51.0,62.0
141841,-0.685,0.772,0.528,103.924,189.504,-140.985,0.0,58.0
141927,-0.925,0.716,0.270,57.565,150.901,-101.855,0.0,63.0
142017,-1.214,0.938,0.067,3.267,119.916,-94.008,0.0,135.0
142102,-1.073,0.316,0.307,-39.489,56.718,-89.527,0.0,64.0
142194,-1.148,0.377,0.131,89.641,11.718,-50.710,0.0,133.0
142288,-1.100,0.449,-0.004,111.405,-17.878,-37.176,0.0,0.0
142382,-0.932,0.574,-0.102,-19.962,-4.229,-2.053,196.0,0.0
142472,-1.105,0.295,-0.051,-79.969,-11.702,30.824,0.0,151.0
142566,-0.802,0.238,0.003,-10.908,-9.832,59.321,0.0,0.0
142659,-0.629,0.440,-0.065,-25.802,20.802,18.229,0.0,0.0
142752,-0.780,0.423,-0.067,-92.382,51.740,-35.359,0.0,0.0
142844,-1.239,0.352,-0.087,-33.893,30.626,-56.794,187.0,0.0
142931,-0.907,0.451,-0.202,-37.771,29.008,-0.458,150.0,130.0
143020,-1.047,0.091,-0.284,-143.000,26.702,-32.496,173.0,69.0
143104,-0.634,0.463,-0.330,-33.405,48.496,-24.901,159.0,74.0
143188,-1.094,-0.260,-0.097,-162.458,25.321,-47.053,0.0,54.0
143273,-0.806,0.847,-0.384,-4.679,-6.015,-10.023,0.0,57.0
143360,-0.921,-0.013,0.038,-45.008,-2.573,4.031,0.0,67.0
143446,-1.297,0.742,-0.051,-96.153,13.870,-1.023,0.0,69.0
143532,-1.788,-0.571,1.203,-95.664,-133.649,26.656,0.0,59.0
143617,-0.997,1.202,-0.250,219.641,-250.137,195.641,0.0,59.0
143706,-1.110,-0.835,0.269,-90.794,-132.290,53.710,0.0,73.0
143794,-0.677,0.205,0.068,-139.580,-52.893,27.145,0.0,88.0
143881,-0.696,0.704,0.235,-24.557,-14.260,45.267,0.0,95.0
143970,-0.511,0.421,0.775,3.817,-15.344,46.069,0.0,117.0
144058,-0.539,0.419,0.808,-32.076,-10.198,42.137,0.0,107.0
144145,-0.579,0.535,0.789,-63.046,-4.359,46.137,0.0,95.0
144233,-0.284,1.146,0.382,-4.084,18.092,36.366,0.0,96.0
144321,-0.469,0.313,0.858,12.183,8.305,38.809,0.0,105.0
144409,-0.539,0.353,0.814,-0.244,6.359,14.405,0.0,102.0
144500,-0.621,0.581,0.732,17.359,-20.466,25.389,0.0,106.0
144585,-0.438,0.348,0.963,-7.565,-28.038,26.954,0.0,57.0
144670,-0.205,0.634,0.857,-29.527,-11.115,22.298,0.0,50.0
144755,-0.003,0.514,0.713,0.916,0.809,30.038,0.0,56.0
144840,-0.347,-0.208,1.095,-0.634,-10.748,25.550,0.0,53.0
144925,-0.264,0.445,0.813,-118.931,20.985,7.084,0.0,43.0
145011,-0.190,0.682,0.689,20.298,-6.763,36.992,0.0,58.0
145096,-0.062,0.548,0.837,-0.328,23.176,41.786,0.0,54.0
145181,-0.009,0.414,0.977,40.656,-8.756,57.901,0.0,46.0
145269,-0.151,0.265,1.019,-24.962,10.382,57.634,0.0,51.0
145355,-0.201,0.571,0.800,-0.313,4.939,74.733,0.0,74.0
145443,-0.418,0.539,0.770,19.771,23.374,72.504,0.0,91.0
145531,-0.478,0.517,0.835,-20.282,42.321,58.115,0.0,100.0
145625,-0.250,0.541,0.819,27.374,1.183,71.267,0.0,0.0
145727,-0.281,0.262,0.988,74.954,-35.450,50.489,0.0,0.0
145820,-0.357,0.061,1.078,-106.481,-3.756,23.603,0.0,0.0
145913,-0.167,0.408,0.960,-127.794,20.244,-15.947,0.0,0.0
146007,0.017,0.661,0.784,-46.656,2.290,22.298,0.0,0.0
146102,0.082,0.593,0.811,1.427,3.496,31.924,0.0,0.0
146195,0.078,0.174,0.847,15.374,-5.702,42.786,0.0,0.0
146282,0.006,-0.052,1.013,-28.298,12.275,30.710,88.0,0.0
146368,-0.084,0.346,0.960,-7.153,-5.374,65.282,0.0,74.0
146461,-0.105,0.400,1.006,9.863,-10.405,73.962,0.0,0.0
146548,0.244,0.149,1.037,-13.779,-16.527,83.137,83.0,0.0
146625,0.138,0.423,0.861,-4.389,8.321,65.450,80.0,36.0
146702,-0.010,0.095,0.916,23.336,8.573,73.565,78.0,32.0
146778,0.010,-0.102,1.092,-4.290,3.740,58.061,77.0,29.0
146857,0.183,0.258,0.947,80.183,-31.702,55.977,76.0,29.0
146933,-0.128,0.013,1.087,-104.389,24.168,26.092,74.0,27.0
147010,0.130,0.431,0.918,43.412,-24.450,36.802,74.0,27.0
147086,0.046,-0.174,1.203,-9.122,-2.939,25.748,74.0,29.0
147163,0.272,0.593,0.905,6.260,9.718,26.870,75.0,28.0
147247,-0.044,-0.233,1.157,73.427,-23.817,18.847,0.0,29.0
147322,0.107,0.101,0.876,-62.511,35.710,13.290,75.0,29.0
147406,0.136,-0.036,1.042,-13.115,-0.099,35.145,0.0,30.0
147490,-0.011,-0.039,0.933,-13.389,-16.924,46.550,0.0,31.0
147576,0.014,0.192,0.941,-29.763,3.893,57.908,0.0,32.0
147660,0.264,0.195,0.941,23.924,-20.145,63.756,0.0,32.0
147737,-0.104,-0.222,1.246,32.412,-20.634,59.939,70.0,34.0
147821,0.341,0.344,0.873,24.756,-5.885,44.458,0.0,34.0
147898,0.089,-0.023,1.087,71.733,-17.962,46.939,69.0,36.0
147974,0.215,0.062,0.958,-67.847,28.115,21.748,67.0,37.0
148059,0.192,0.295,0.793,103.954,-29.664,33.191,0.0,37.0
148134,0.168,-0.726,1.308,-51.908,21.305,-15.626,66.0,39.0
148219,0.364,0.776,0.767,-6.076,3.710,16.038,0.0,39.0
148298,0.171,-0.245,1.208,93.550,-39.611,11.969,66.0,40.0
148383,0.691,0.599,0.875,16.664,-10.267,21.466,0.0,41.0
148467,0.209,-0.265,1.146,118.496,-56.504,18.527,0.0,43.0
148545,0.189,-0.361,0.901,-126.084,29.160,-26.282,69.0,44.0
148629,0.650,0.736,0.560,5.183,14.389,-12.740,0.0,44.0
148714,0.241,-0.129,1.164,49.397,10.420,11.534,0.0,46.0
148791,0.208,0.028,1.070,-18.466,9.214,-8.710,71.0,48.0
148876,0.168,-0.071,1.078,8.809,-14.305,30.389,0.0,50.0
148961,0.254,0.176,0.954,5.382,-18.458,62.824,0.0,53.0
149042,0.365,0.397,0.896,1.573,2.031,57.863,62.0,58.0
149120,0.220,0.176,0.797,14.069,-15.618,44.527,66.0,58.0
149208,0.469,0.245,0.542,-2.908,1.290,37.511,0.0,106.0
149287,0.510,0.423,0.825,-10.534,24.008,37.893,64.0,103.0
149376,0.802,0.064,0.968,51.565,-1.748,32.076,0.0,102.0
149455,0.486,0.408,0.927,-25.435,7.107,-3.489,68.0,101.0
149535,0.451,0.533,1.131,-9.115,-5.573,32.160,64.0,101.0
149623,0.439,0.131,1.133,-9.885,-26.519,11.695,0.0,102.0
149707,0.560,0.155,0.664,-82.122,12.504,-18.481,65.0,101.0
149795,0.434,0.411,0.705,10.527,-21.275,27.374,0.0,100.0
149875,0.698,0.120,0.753,24.672,-1.733,1.321,71.0,101.0
149963,0.392,0.238,0.761,-14.206,-1.260,1.473,0.0,101.0
150044,0.263,0.156,0.657,-28.168,-17.168,54.863,71.0,105.0
150134,0.453,-0.112,0.658,101.298,-57.931,77.374,0.0,133.0
150214,1.041,0.056,0.711,116.931,-10.893,49.221,30.0,129.0
150293,0.626,0.479,0.573,71.313,40.198,29.573,27.0,123.0
150373,0.402,0.196,0.462,87.145,57.656,17.870,26.0,119.0
150455,0.176,0.263,0.026,140.733,118.588,-21.771,27.0,123.0
150536,-0.067,0.591,0.049,204.550,172.160,-152.611,36.0,139.0
150619,-0.743,1.233,0.136,148.198,186.878,-250.137,129.0,82.0
150709,-1.191,0.914,0.533,-25.611,195.817,-250.137,0.0,129.0
150795,-1.523,0.264,0.502,33.382,130.366,-210.397,0.0,51.0
150884,-1.560,0.190,0.094,231.137,16.817,-135.382,0.0,124.0
150973,-1.298,0.607,-0.230,233.611,-18.863,-28.511,0.0,121.0
151063,-0.830,0.689,-0.124,-36.260,-6.405,-14.878,0.0,124.0
151152,-1.026,0.223,0.035,-114.863,-10.435,33.878,0.0,131.0
151246,-1.029,0.129,0.063,7.466,-35.267,110.351,0.0,140.0
151336,-0.771,0.394,-0.009,-0.908,-9.855,104.130,0.0,144.0
151422,-0.648,0.384,-0.006,-79.534,15.092,31.115,0.0,65.0
151510,-0.766,0.423,0.034,-103.107,38.786,-26.863,0.0,71.0
151597,-0.929,0.474,0.023,-115.046,48.481,-60.290,0.0,79.0
151685,-1.041,0.474,0.007,-84.023,43.031,-62.405,0.0,103.0
151775,-0.846,0.419,-0.036,-67.634,29.863,11.809,0.0,137.0
151866,-1.091,0.597,-0.213,-174.061,18.069,10.000,0.0,145.0
151957,-1.240,0.429,-0.227,-250.137,-28.031,61.634,0.0,105.0
152046,-1.137,0.559,0.012,-250.137,-97.267,137.229,0.0,112.0
152136,-0.996,0.351,0.309,-177.038,-133.802,130.847,0.0,124.0
152226,-0.693,0.264,0.498,-128.893,-110.947,87.595,0.0,136.0
152321,-0.551,0.146,0.676,-37.718,-67.076,57.863,0.0,0.0
152415,-0.331,0.184,0.661,-36.817,-30.786,59.382,0.0,0.0
152499,-0.330,0.141,0.834,-23.710,-7.046,38.733,42.0,0.0
152584,-0.276,0.058,0.876,-25.802,-3.924,30.405,41.0,0.0
152669,-0.226,0.083,0.899,-10.412,-0.031,25.084,40.0,0.0
152757,-0.209,0.071,0.919,-4.824,0.031,25.321,44.0,197.0
152841,-0.198,0.045,1.001,-5.664,-5.313,22.695,42.0,191.0
152925,-0.205,0.082,1.015,6.748,-0.374,24.954,39.0,183.0
153008,-0.330,0.262,0.882,48.718,20.679,25.458,41.0,177.0
153097,-0.215,0.228,0.680,61.901,37.557,15.878,0.0,115.0
153186,-0.336,0.395,0.498,101.802,105.824,-52.748,0.0,109.0
153274,-0.761,0.588,0.483,124.824,125.534,-79.206,0.0,104.0
153368,-0.872,0.844,0.447,59.290,87.710,-38.481,0.0,0.0
153465,-0.775,0.625,0.324,99.473,61.542,-56.863,0.0,0.0
153560,-0.963,0.077,0.380,135.725,63.282,-80.870,0.0,0.0
153652,-1.307,0.327,-0.107,241.893,-0.038,-80.015,0.0,180.0
153745,-0.995,0.478,-0.067,93.756,-7.977,-28.466,0.0,182.0
153838,-0.941,0.314,0.071,-13.557,-7.458,7.191,0.0,187.0
153932,-1.002,0.268,0.048,0.794,-19.542,39.099,0.0,193.0
154025,-0.825,0.342,0.051,23.412,-6.321,64.252,0.0,199.0
154120,-0.852,0.503,-0.016,-20.496,9.756,28.885,0.0,0.0
154207,-1.317,0.938,-0.250,38.687,68.863,138.160,0.0,74.0
154296,-0.815,0.751,-0.190,-138.252,147.366,249.954,152.0,99.0
154381,-0.155,0.917,-0.114,-29.061,129.916,169.962,131.0,107.0
154464,-0.335,1.161,-0.309,-94.450,135.733,125.275,124.0,74.0
154546,-0.010,0.588,-0.115,70.840,72.206,15.336,122.0,75.0
154636,-0.016,1.203,-0.279,-18.221,24.679,35.969,121.0,0.0
154719,0.037,1.372,-0.278,-30.092,17.924,47.282,120.0,83.0
154802,0.075,1.182,-0.078,-9.496,-4.061,28.725,120.0,81.0
154884,0.015,1.024,0.015,0.107,16.481,7.725,119.0,75.0
154969,0.255,0.772,0.190,-27.786,25.985,19.435,118.0,71.0
155059,0.355,0.802,0.117,-14.305,18.420,16.008,117.0,0.0
155141,0.383,1.159,0.095,-4.252,21.847,31.405,118.0,73.0
155223,-0.145,1.772,-0.294,40.756,3.313,-18.168,118.0,73.0
155304,0.078,0.395,0.293,-11.298,40.130,-12.015,116.0,73.0
155382,0.104,0.479,0.321,-21.344,31.191,-20.626,36.0,74.0
155464,0.015,1.346,0.083,-46.847,43.305,21.649,116.0,75.0
155546,-0.162,1.982,-0.193,36.901,26.863,10.992,116.0,73.0
155629,0.167,0.155,0.499,37.267,15.435,-20.924,116.0,73.0
155710,0.264,0.427,0.362,-43.489,23.198,26.244,31.0,75.0
155792,0.020,2.000,-0.305,8.389,17.924,63.802,117.0,73.0
155874,0.159,0.843,0.197,55.344,71.237,-13.160,116.0,75.0
155956,0.394,0.559,0.118,-0.076,34.000,26.832,116.0,75.0
156044,0.133,1.244,-0.064,-16.817,44.389,32.786,116.0,167.0
156127,0.144,1.157,-0.005,28.008,31.038,-4.359,116.0,77.0
156212,0.286,0.455,0.341,-2.481,-14.687,-4.695,116.0,123.0
156298,0.367,0.762,0.227,-50.687,-12.267,1.595,115.0,154.0
156385,0.165,1.365,0.080,-21.901,14.397,-3.160,115.0,152.0
156475,-0.094,1.437,0.016,36.802,18.901,-18.206,114.0,147.0
156567,0.164,0.459,0.413,20.275,35.603,-25.626,113.0,144.0
156651,0.233,0.479,0.240,-14.252,31.885,10.870,102.0,141.0
156735,0.133,1.474,-0.072,5.328,57.985,26.962,101.0,137.0
156819,0.190,0.867,0.271,62.580,81.870,-5.282,102.0,132.0
156902,0.417,0.861,0.305,10.802,89.145,19.145,102.0,120.0
156985,0.247,1.205,-0.126,-45.954,91.687,21.550,102.0,121.0
157069,-0.103,1.354,-0.375,12.977,43.725,38.832,101.0,122.0
157155,0.366,0.538,0.167,30.374,50.702,-7.771,102.0,122.0
157237,0.372,0.797,0.208,-15.160,28.679,3.389,103.0,101.0
157319,0.249,1.364,-0.075,-36.962,6.817,12.672,105.0,98.0
157401,0.193,1.005,0.083,41.214,-2.626,-10.214,108.0,97.0
157483,0.407,0.587,0.369,-20.336,15.130,-20.595,112.0,93.0
157564,0.269,1.172,0.166,-1.351,16.969,-5.351,115.0,88.0
157647,0.100,0.768,0.217,33.443,14.282,-7.183,115.0,90.0
157729,0.102,0.947,0.016,-12.664,7.366,-5.527,115.0,89.0
157811,-0.015,0.945,0.087,-7.809,2.901,-17.718,116.0,89.0
157896,0.018,0.828,0.194,12.435,6.504,-22.672,118.0,85.0
157975,-0.017,0.909,0.124,18.878,12.733,-49.214,42.0,96.0
158053,-0.011,0.982,0.182,0.443,19.023,-51.267,30.0,110.0
158130,-0.098,1.073,0.237,-1.191,16.290,-62.420,34.0,75.0
158206,-0.122,0.861,0.291,36.557,15.275,-67.130,45.0,71.0
158284,-0.272,1.324,0.114,48.359,15.611,-76.489,45.0,70.0
158361,-0.233,0.932,0.109,-43.489,18.580,-57.710,44.0,69.0
158439,-0.343,1.295,-0.088,-57.328,36.588,-50.244,55.0,71.0
158517,-0.307,0.704,0.077,-127.351,53.313,-46.763,51.0,72.0
158606,-0.379,0.746,-0.013,-89.740,55.809,-79.595,0.0,79.0
158695,-0.797,0.728,-0.104,-149.107,67.206,-165.244,0.0,123.0
158784,-1.373,0.277,0.140,-161.611,84.153,-144.359,0.0,116.0
158872,-1.176,0.250,0.287,-59.450,24.023,-4.595,0.0,113.0
158960,-1.081,0.153,0.408,-105.603,-26.191,20.756,0.0,110.0
159040,-1.019,0.309,0.423,-76.763,-68.008,55.229,44.0,115.0
159117,-0.807,0.172,0.532,-105.947,-93.527,64.809,39.0,61.0
159194,-0.734,0.177,0.584,-92.786,-102.137,69.634,58.0,55.0
159273,-0.665,0.115,0.687,-91.023,-93.046,63.366,44.0,50.0
159349,-0.576,0.169,0.709,-69.412,-82.183,71.962,43.0,45.0
159424,-0.580,0.315,0.660,-23.733,-45.122,75.344,44.0,41.0
159500,-0.402,0.243,0.742,-64.847,-25.099,74.969,45.0,39.0
159576,-0.479,0.308,0.803,-31.183,-7.130,57.290,49.0,37.0
159651,-0.366,0.182,0.806,-29.023,-7.595,61.382,50.0,37.0
159735,-0.296,0.088,0.890,-31.855,-7.611,47.679,0.0,36.0
159819,-0.324,0.120,0.978,-29.290,0.481,23.740,0.0,36.0
159904,-0.386,0.150,0.981,-21.321,-6.893,14.214,0.0,37.0
159991,-0.422,0.186,0.937,11.206,4.916,15.221,0.0,36.0
160075,-0.428,0.017,0.943,-6.214,7.313,14.878,0.0,37.0
160151,-0.412,-0.009,0.868,-16.931,-1.832,11.992,45.0,38.0
160226,-0.455,0.044,0.829,-8.328,0.725,7.916,45.0,38.0
160302,-0.348,0.040,0.785,4.802,1.954,14.817,41.0,40.0
160376,-0.352,-0.066,0.864,1.122,7.405,18.008,40.0,38.0
160452,-0.338,-0.005,0.875,0.527,7.710,27.931,46.0,39.0
160537,-0.376,-0.002,0.933,-5.206,6.031,30.359,0.0,39.0
160612,-0.338,0.023,0.853,24.107,-0.046,27.168,41.0,38.0
160691,-0.384,-0.000,0.971,26.084,11.214,20.649,42.0,37.0
160775,-0.617,0.243,0.829,75.496,25.038,7.794,0.0,36.0
160849,-0.348,0.325,0.641,100.206,32.832,12.183,48.0,34.0
160934,-0.578,0.834,0.704,-66.870,67.702,-25.237,0.0,31.0
161018,-0.546,0.301,0.863,42.351,35.130,17.641,0.0,31.0
161102,-0.525,0.417,0.770,0.618,27.603,5.282,0.0,31.0
161186,-0.541,0.323,0.771,4.885,8.718,-0.153,0.0,32.0
161270,-0.494,0.410,0.703,18.260,12.595,-12.489,0.0,32.0
161354,-0.605,0.054,0.774,69.771,34.588,-43.863,0.0,30.0
161440,-0.863,0.282,0.508,104.366,34.504,-101.298,0.0,28.0
161524,-1.138,0.601,0.417,45.282,40.557,-40.870,0.0,26.0
161608,-0.827,0.327,0.440,24.435,6.053,-32.137,0.0,30.0
161692,-0.754,0.435,0.324,96.214,13.336,-21.282,0.0,27.0
161776,-0.733,0.314,0.313,23.542,12.107,-20.191,0.0,26.0
161860,-0.773,0.364,0.321,63.481,16.130,-13.962,0.0,26.0
161944,-0.855,0.390,0.440,24.985,20.718,0.198,0.0,28.0
162028,-0.927,0.477,0.422,-14.099,17.305,-1.557,0.0,27.0
162115,-1.119,0.536,0.276,-32.718,16.779,-9.046,0.0,27.0
162199,-0.899,0.277,0.239,-25.443,-18.061,31.779,0.0,30.0
162283,-1.063,0.466,0.081,1.847,-36.649,36.008,0.0,28.0
162367,-0.762,0.609,0.084,19.847,-25.840,117.939,0.0,31.0
162455,-0.720,0.775,0.128,82.031,1.267,181.153,0.0,91.0
162535,-0.665,1.188,-0.082,113.710,14.221,206.176,57.0,96.0
162615,-0.035,0.993,-0.166,85.176,62.183,250.130,51.0,106.0
162698,0.079,0.916,-0.103,-58.176,101.443,165.786,123.0,83.0
162781,0.046,0.430,0.229,44.840,40.847,84.198,118.0,89.0
162869,0.267,0.813,0.021,-23.481,1.122,23.603,116.0,122.0
162952,0.305,1.442,-0.234,5.924,-11.504,4.977,117.0,91.0
163035,0.179,0.852,0.168,21.534,6.344,-37.366,117.0,96.0
163119,0.370,0.450,0.296,6.351,24.603,-4.611,117.0,121.0
163204,0.453,0.667,0.096,-1.573,56.214,38.901,118.0,120.0
163289,0.422,2.000,-0.466,68.641,49.000,32.183,119.0,120.0
163373,0.449,0.483,-0.026,68.008,78.290,-37.733,118.0,120.0
163458,0.540,0.598,-0.131,14.664,59.725,-19.160,118.0,120.0
163543,0.429,0.493,-0.073,-36.939,42.443,27.710,117.0,121.0
163631,0.449,0.857,-0.149,-22.130,28.191,23.023,116.0,122.0
163716,0.527,1.579,-0.356,-12.450,37.237,25.252,116.0,123.0
163801,0.375,0.966,0.162,37.641,23.237,-12.542,116.0,123.0
163885,0.458,0.414,0.324,-58.321,-5.061,-16.153,115.0,124.0
163970,0.716,0.506,0.015,-102.481,-10.229,30.359,115.0,126.0
164055,0.613,1.923,-0.200,45.939,26.183,22.496,113.0,126.0
164140,0.287,0.424,0.294,37.710,42.489,-20.183,112.0,127.0
164225,0.457,0.306,0.262,-5.908,19.840,-16.504,111.0,128.0
164322,0.545,0.584,0.214,-7.511,44.008,-3.122,111.0,128.0
164409,0.494,1.540,-0.086,4.595,85.191,20.573,112.0,128.0
164496,0.291,1.194,0.040,81.046,74.229,-7.870,112.0,128.0
164588,0.349,0.435,0.336,49.802,49.038,-7.824,112.0,0.0
164675,0.574,0.267,0.467,24.130,37.374,-0.733,112.0,129.0
164766,0.675,0.432,0.372,-21.023,59.229,20.336,112.0,0.0
164854,0.512,0.961,0.056,-21.931,70.145,40.519,112.0,128.0
164941,0.502,1.426,-0.234,74.305,59.534,19.351,111.0,127.0
165028,0.347,0.761,0.129,91.519,88.359,-30.237,112.0,125.0
165118,0.409,0.383,0.301,-26.206,56.046,-0.137,112.0,125.0
165207,0.475,0.864,0.079,-49.954,14.031,27.183,113.0,126.0
165294,0.489,1.158,0.159,-4.008,22.656,-7.870,113.0,125.0
165381,0.403,0.902,0.562,-41.786,69.420,-17.969,113.0,125.0
165468,0.358,0.640,0.461,-20.954,13.069,-6.214,111.0,128.0
165556,0.388,0.909,0.244,-8.290,31.122,21.672,111.0,128.0
165643,0.201,0.859,0.151,53.374,15.237,-4.649,110.0,129.0
165730,0.593,0.388,0.430,21.458,51.076,17.733,109.0,128.0
165821,0.187,1.290,0.206,49.710,62.450,23.969,111.0,127.0
165908,0.195,1.131,0.296,31.771,44.542,63.557,111.0,126.0
165999,0.310,0.659,0.500,29.321,31.405,-2.214,112.0,0.0
166090,0.601,0.543,0.699,-20.580,52.282,1.756,113.0,0.0
166182,0.569,0.992,0.333,1.863,37.183,36.908,114.0,0.0
166274,0.547,1.400,-0.094,-2.992,58.649,52.916,112.0,0.0
166365,0.402,1.356,-0.194,87.611,37.053,59.817,111.0,0.0
166457,0.093,0.189,0.521,67.916,54.863,-16.168,111.0,0.0
166548,0.291,0.565,0.346,-44.359,-13.969,-48.947,114.0,0.0
166643,0.228,1.106,0.122,9.160,-69.687,-84.412,116.0,0.0
166726,0.049,1.138,0.118,-29.237,-60.595,-106.244,30.0,118.0
166813,-0.027,0.525,0.247,4.351,-84.649,-218.061,37.0,0.0
166893,-0.524,1.078,0.067,75.725,-35.809,-250.137,45.0,71.0
166983,-0.822,0.959,0.198,-69.374,15.069,-234.275,0.0,71.0
167071,-0.876,0.211,0.425,68.237,28.466,-155.878,0.0,61.0
167174,-0.887,0.552,0.184,-15.504,38.855,-120.840,0.0,194.0
167262,-1.107,0.412,0.228,-149.450,48.328,-50.015,58.0,200.0
167357,-1.225,0.360,0.446,-112.229,-18.779,21.153,0.0,0.0
167453,-1.074,0.393,0.371,-126.420,-102.878,99.649,0.0,156.0
167546,-1.161,0.591,0.278,-138.824,-141.748,99.298,0.0,157.0
167635,-0.795,0.244,0.368,-95.878,-144.756,106.023,0.0,82.0
167725,-0.505,0.363,0.409,-95.031,-101.069,74.496,0.0,84.0
167814,-0.431,0.198,0.720,-60.145,-52.305,43.038,0.0,86.0
167903,-0.328,0.079,0.852,-32.305,-33.435,23.870,0.0,87.0
167994,-0.244,-0.036,0.960,-44.931,-20.885,12.840,0.0,120.0
168083,-0.217,0.027,1.078,-15.344,-7.183,-3.061,0.0,87.0
168169,-0.235,0.108,0.892,-23.641,-7.359,10.550,50.0,118.0
168249,-0.269,0.107,0.919,-12.122,-5.863,9.053,48.0,90.0
168330,-0.275,0.081,0.919,5.137,2.656,10.824,41.0,87.0
168412,-0.225,-0.031,0.974,-2.664,1.176,21.771,42.0,116.0
