Timestamp(ms),AccelX(g),AccelY(g),AccelZ(g),GyroX(deg/s),GyroY(deg/s),GyroZ(deg/s),DistanceLeft(cm),DistanceRight(cm)
33439,-0.534,-0.751,-0.284,-53.244,-84.282,4.046,0.0,134.0
33498,-0.504,-0.874,-0.391,-40.359,-85.847,-4.847,0.0,161.0
33556,-0.493,-0.908,-0.373,-32.870,-79.275,-16.603,0.0,167.0
33607,-0.463,-0.771,-0.250,-38.145,-64.336,-2.931,0.0,23.0
33665,-0.399,-0.726,-0.237,-37.534,-45.985,17.359,0.0,90.0
33718,-0.523,-0.762,-0.142,-40.275,-38.252,9.664,0.0,85.0
33772,-0.548,-0.815,-0.165,-26.695,-43.740,-3.260,0.0,87.0
33836,-0.518,-0.765,-0.126,-20.435,-40.840,-6.725,0.0,0.0
33883,-0.567,-0.846,-0.109,-15.473,-24.740,-7.611,0.0,0.0
33923,-0.657,-0.979,-0.088,-18.855,-33.924,-12.191,0.0,92.0
33977,-0.655,-1.156,-0.154,-6.924,-39.366,-32.053,0.0,96.0
34037,-0.718,-1.263,-0.078,-7.176,-53.252,-48.076,0.0,0.0
34084,-0.511,-0.642,-0.042,2.954,-84.977,-22.618,0.0,0.0
34122,-0.370,-0.567,-0.081,-5.641,-94.893,14.160,0.0,47.0
34171,-0.323,-0.752,-0.153,-4.351,-83.038,21.412,0.0,16.0
34225,-0.289,-1.002,-0.197,12.954,-59.969,8.626,0.0,16.0
34278,-0.146,-1.022,-0.290,39.618,0.557,-11.603,0.0,14.0
34331,-0.123,-0.738,-0.215,41.611,86.099,-15.664,0.0,16.0
34392,-0.387,-0.736,0.013,17.954,120.878,-25.679,0.0,0.0
34439,-0.654,-0.882,0.187,9.580,30.511,-56.809,0.0,0.0
34473,-0.527,-0.831,0.106,-3.947,-44.290,-66.763,0.0,13.0
34524,-0.359,-0.832,-0.013,-11.565,-50.458,-57.588,0.0,11.0
34577,-0.321,-0.943,-0.039,-17.489,-0.939,-35.244,0.0,11.0
34625,-0.443,-1.030,0.044,-20.092,33.763,-10.046,161.0,30.0
34681,-0.566,-1.107,0.129,-7.099,51.275,26.450,88.0,0.0
34722,-0.577,-1.192,0.088,-24.267,28.267,1.840,84.0,0.0
34776,-0.607,-1.283,0.032,-4.519,-0.802,-3.053,83.0,0.0
34816,-0.291,-0.745,-0.107,14.511,-39.870,4.527,78.0,0.0
34865,-0.254,-0.733,-0.136,13.595,-18.450,11.733,75.0,133.0
34907,-0.440,-0.946,-0.095,20.427,-5.084,2.634,73.0,11.0
34949,-0.448,-1.021,-0.104,40.122,-20.962,3.389,71.0,12.0
34991,-0.303,-0.893,-0.156,44.565,-11.626,18.511,70.0,13.0
35034,-0.214,-0.829,-0.153,35.466,28.595,43.221,67.0,17.0
35087,-0.278,-0.845,-0.085,22.534,60.832,56.366,65.0,170.0
35140,-0.337,-0.866,0.007,10.954,55.954,52.382,63.0,0.0
35178,-0.310,-0.858,0.018,3.374,31.405,37.351,61.0,0.0
35231,-0.278,-0.830,0.011,-1.000,18.176,21.191,61.0,0.0
35269,-0.264,-0.968,-0.021,1.954,14.473,-9.710,61.0,0.0
35321,-0.289,-1.151,-0.026,6.969,18.710,-41.504,59.0,0.0
35360,-0.346,-1.344,-0.017,17.206,23.992,-83.534,60.0,0.0
35410,-0.426,-1.427,0.030,25.275,25.985,-116.389,62.0,147.0
35460,-0.483,-1.045,0.141,30.458,-1.305,-126.389,67.0,145.0
35507,-0.233,-0.568,0.130,20.641,-17.802,-53.198,66.0,32.0
35550,-0.077,-0.803,-0.045,9.511,16.176,16.473,65.0,36.0
35593,-0.123,-0.963,-0.086,9.794,70.473,41.099,65.0,31.0
35636,-0.167,-0.926,-0.100,23.634,113.832,48.588,65.0,35.0
35680,-0.281,-0.864,-0.033,33.229,136.031,41.061,68.0,37.0
35731,-0.339,-0.814,0.023,29.015,123.542,13.649,81.0,157.0
35776,-0.471,-0.811,0.134,15.389,74.290,-34.237,83.0,43.0
35827,-0.550,-0.880,0.197,3.603,7.626,-68.603,89.0,157.0
35915,-0.401,-0.977,0.090,-3.710,-67.023,-63.053,82.0,44.0
35962,-0.279,-1.026,0.021,-7.427,-32.588,-32.565,75.0,47.0
36007,-0.302,-1.036,0.062,-13.328,14.519,3.107,72.0,51.0
36052,-0.487,-1.145,0.122,-24.504,18.893,20.397,68.0,55.0
36097,-0.529,-1.227,0.090,-17.389,-26.084,30.504,62.0,61.0
36141,-0.307,-0.976,-0.083,-1.916,-51.107,40.611,57.0,57.0
36186,-0.303,-0.844,-0.062,-16.885,-43.931,49.038,51.0,60.0
36231,-0.382,-0.984,-0.084,-19.221,-50.244,56.809,61.0,70.0
36276,-0.347,-1.043,-0.159,-5.527,-61.305,67.641,57.0,71.0
36332,-0.264,-0.825,-0.166,-13.634,-48.687,78.214,0.0,76.0
36386,-0.288,-0.906,-0.145,-13.153,-22.290,92.527,0.0,81.0
36441,-0.361,-0.906,-0.076,-16.580,-24.794,84.634,0.0,93.0
36495,-0.298,-0.873,-0.096,-16.947,-31.092,62.473,0.0,90.0
36550,-0.271,-0.855,-0.074,-12.733,-18.053,38.405,0.0,93.0
36605,-0.320,-0.984,-0.017,-11.496,-10.802,-1.160,0.0,103.0
36661,-0.351,-1.157,0.002,-4.198,-13.160,-48.237,0.0,113.0
36717,-0.283,-1.232,-0.046,-4.267,3.305,-85.206,0.0,114.0
36772,-0.574,-1.260,0.185,-12.733,-3.328,-124.405,0.0,115.0
36826,-0.418,-0.659,0.182,-4.496,-84.366,-95.504,178.0,31.0
36868,-0.113,-0.719,-0.056,-5.328,-81.603,-35.511,64.0,12.0
36910,-0.032,-0.904,-0.149,1.687,-8.580,-18.511,62.0,11.0
36952,-0.120,-0.990,-0.145,11.603,50.733,-14.710,62.0,11.0
37002,-0.281,-0.978,-0.086,46.725,129.740,36.008,170.0,31.0
37056,-0.409,-0.763,0.087,11.260,146.420,9.153,168.0,134.0
37111,-0.516,-0.907,0.120,1.733,56.786,-4.840,190.0,103.0
37166,-0.381,-0.852,0.092,4.015,-25.466,-21.466,186.0,106.0
37220,-0.297,-0.912,-0.006,-11.267,-36.718,-32.840,125.0,107.0
37273,-0.347,-1.014,0.014,-13.359,-20.901,-23.076,155.0,110.0
37321,-0.365,-1.037,-0.018,-11.305,-12.153,-1.237,116.0,45.0
37374,-0.355,-1.244,-0.104,-20.794,5.069,7.389,111.0,170.0
37429,-0.489,-1.314,0.078,-12.649,26.756,27.557,105.0,173.0
37482,-0.370,-0.836,0.010,-8.099,-0.427,58.321,137.0,131.0
37538,-0.299,-0.719,0.009,-20.916,-6.603,84.962,137.0,174.0
37599,-0.400,-1.101,-0.017,-4.145,-23.939,73.626,0.0,0.0
37661,-0.292,-1.144,-0.137,19.931,-58.122,44.389,0.0,172.0
37719,-0.090,-0.921,-0.202,27.977,-10.382,27.718,128.0,0.0
37769,-0.169,-0.810,-0.123,21.252,46.374,27.260,122.0,91.0
37819,-0.280,-0.865,-0.038,14.985,40.443,12.977,120.0,91.0
37875,-0.243,-0.857,-0.033,13.237,26.626,-7.145,116.0,0.0
37917,-0.241,-0.944,-0.066,12.947,26.687,-32.649,113.0,0.0
37974,-0.255,-1.072,-0.088,18.840,40.977,-51.603,112.0,0.0
38020,-0.379,-1.258,-0.010,16.084,45.580,-80.359,111.0,37.0
38066,-0.427,-1.305,0.010,22.939,30.733,-96.962,111.0,34.0
38114,-0.511,-1.393,0.067,29.137,7.344,-112.771,71.0,35.0
38160,-0.252,-0.769,-0.058,41.779,6.221,-96.504,110.0,34.0
38206,-0.017,-0.566,-0.121,36.221,60.435,-33.473,110.0,35.0
38252,-0.173,-0.861,-0.138,20.412,107.176,5.412,110.0,33.0
38298,-0.271,-0.991,-0.128,24.023,109.214,3.588,110.0,34.0
38343,-0.235,-0.893,-0.116,23.183,100.252,-1.649,86.0,34.0
38388,-0.252,-0.784,-0.054,6.863,99.580,-4.481,84.0,36.0
38476,-0.438,-0.925,0.093,-5.336,45.099,-28.870,79.0,43.0
38521,-0.449,-0.910,0.145,-10.351,0.794,-41.504,77.0,45.0
38569,-0.441,-0.922,0.154,-18.305,-29.473,-42.969,74.0,48.0
38615,-0.413,-1.028,0.141,-20.840,-43.328,-25.916,70.0,50.0
38660,-0.362,-1.155,0.067,-13.008,-34.328,-6.595,66.0,53.0
38705,-0.363,-1.110,0.066,-10.969,-18.664,11.733,61.0,56.0
38750,-0.366,-1.204,0.023,-6.160,-9.580,29.435,56.0,62.0
38794,-0.354,-1.084,-0.027,7.130,-13.679,42.885,50.0,68.0
38842,-0.246,-0.845,-0.037,6.466,-20.275,67.649,89.0,76.0
38888,-0.316,-1.106,-0.132,-10.412,-51.832,65.458,85.0,59.0
38944,-0.272,-0.924,-0.179,-9.733,-32.076,88.359,0.0,67.0
38999,-0.241,-0.983,-0.226,-9.176,-26.221,95.542,0.0,76.0
39055,-0.298,-0.999,-0.153,-9.786,-10.901,95.473,0.0,112.0
39111,-0.264,-0.913,-0.140,-9.321,-4.977,87.954,0.0,120.0
39169,-0.279,-0.906,-0.082,-12.794,-5.053,65.321,0.0,127.0
39227,-0.295,-0.888,-0.054,-8.511,-17.466,27.847,0.0,154.0
39285,-0.307,-0.949,-0.046,-7.863,-29.771,-19.679,0.0,139.0
39344,-0.334,-1.111,-0.060,-0.015,-30.206,-65.702,0.0,163.0
39402,-0.297,-1.174,-0.075,8.542,-4.450,-91.740,0.0,145.0
39462,-0.394,-1.334,-0.013,7.092,22.679,-98.092,0.0,119.0
39519,-0.316,-0.721,0.083,5.122,5.397,-78.076,0.0,120.0
39575,-0.104,-0.789,-0.083,3.550,37.763,-15.435,0.0,120.0
39629,-0.322,-1.117,-0.040,8.183,61.489,-26.061,152.0,121.0
39683,-0.274,-1.019,-0.070,27.206,49.847,-48.611,149.0,122.0
39737,-0.249,-0.814,-0.049,18.511,46.618,-46.878,147.0,122.0
39796,-0.348,-0.907,0.007,4.802,30.344,-47.740,146.0,124.0
39849,-0.418,-0.891,0.087,3.458,-3.786,-52.611,143.0,126.0
39905,-0.336,-0.917,0.028,-2.725,-27.702,-45.008,139.0,129.0
39957,-0.336,-0.987,0.041,-7.794,-21.237,-24.939,128.0,134.0
40007,-0.330,-1.152,0.002,-6.031,-17.687,-4.947,122.0,97.0
40057,-0.285,-1.050,0.001,-0.076,8.145,14.977,129.0,102.0
40110,-0.419,-1.102,0.080,-2.473,8.267,28.664,157.0,107.0
40166,-0.463,-1.056,0.090,3.351,-34.336,40.466,0.0,119.0
40217,-0.338,-0.880,0.004,1.504,-66.947,64.695,0.0,48.0
40272,-0.374,-1.157,-0.118,-4.412,-94.145,76.702,0.0,58.0
40326,-0.237,-1.112,-0.220,1.992,-86.061,85.267,0.0,68.0
40381,-0.195,-1.058,-0.231,8.183,-40.870,82.084,0.0,77.0
40435,-0.255,-0.888,-0.142,1.573,-26.435,84.794,0.0,86.0
40489,-0.247,-0.900,-0.136,-3.481,-23.061,82.473,0.0,98.0
40544,-0.232,-0.917,-0.133,-12.389,-20.061,66.626,0.0,95.0
40597,-0.217,-0.890,-0.115,-19.298,-15.634,41.885,0.0,71.0
40654,-0.234,-0.957,-0.088,-22.450,-12.344,10.756,0.0,97.0
40709,-0.272,-1.067,-0.038,-20.473,-6.557,-24.084,0.0,79.0
40762,-0.246,-1.102,-0.042,-15.664,7.275,-52.527,0.0,79.0
40816,-0.361,-1.178,0.084,-13.771,22.214,-82.282,0.0,100.0
40873,-0.371,-0.984,0.137,-1.840,2.893,-100.817,0.0,101.0
40929,-0.257,-0.790,0.109,5.870,5.008,-71.626,0.0,106.0
40984,-0.352,-0.992,0.105,-2.466,-1.588,-53.794,0.0,105.0
41036,-0.263,-1.064,0.001,0.511,-4.496,-43.733,0.0,68.0
41093,-0.267,-0.880,0.011,5.183,24.634,-23.298,0.0,69.0
41189,-0.341,-0.876,0.035,2.168,-0.763,-26.420,0.0,74.0
41242,-0.354,-0.913,0.020,4.756,-6.954,-33.389,0.0,75.0
41295,-0.359,-0.915,0.023,1.809,-12.099,-29.282,0.0,80.0
41347,-0.408,-1.048,0.047,-4.046,-15.473,-11.672,88.0,86.0
41400,-0.381,-1.100,-0.010,-8.221,-28.802,5.443,0.0,90.0
41454,-0.318,-0.990,-0.041,-21.237,-18.107,25.298,0.0,94.0
41508,-0.421,-1.181,-0.029,-21.496,-19.626,35.847,0.0,90.0
41564,-0.287,-0.963,-0.119,-3.962,-46.534,43.893,0.0,101.0
41619,-0.295,-0.880,-0.107,-20.115,-40.053,56.336,0.0,114.0
41674,-0.368,-1.053,-0.184,-16.229,-67.420,62.359,0.0,106.0
41730,-0.312,-1.005,-0.188,-11.565,-79.779,57.366,0.0,111.0
41786,-0.302,-0.949,-0.188,-12.305,-84.336,58.107,0.0,121.0
41840,-0.241,-0.943,-0.179,-1.969,-84.687,54.985,0.0,34.0
41894,-0.176,-0.928,-0.194,0.817,-67.679,43.336,0.0,101.0
41946,-0.201,-0.999,-0.157,3.168,-46.725,28.061,0.0,34.0
41997,-0.198,-1.022,-0.129,2.504,-29.672,10.275,0.0,36.0
42048,-0.236,-1.059,-0.072,-4.015,-17.427,-5.130,0.0,41.0
42100,-0.306,-1.408,-0.034,-12.565,-11.366,-27.382,0.0,43.0
42152,-0.317,-0.947,0.094,-13.618,-10.855,-54.786,0.0,62.0
42205,-0.267,-0.448,0.222,-19.962,-14.901,-28.153,0.0,52.0
42257,-0.481,-0.896,0.270,-15.924,-58.275,-20.893,0.0,56.0
42312,-0.310,-1.292,0.021,-5.649,-97.450,-31.550,0.0,57.0
42365,-0.032,-1.001,-0.146,-7.160,-25.954,-28.260,0.0,62.0
42418,-0.208,-0.830,-0.006,-22.046,49.763,-14.458,200.0,62.0
42467,-0.476,-0.944,0.143,-27.725,8.092,-31.550,125.0,69.0
42519,-0.627,-0.949,0.209,-24.435,-88.115,-74.802,198.0,68.0
42573,-0.560,-0.954,0.031,-13.435,-171.893,-98.580,0.0,74.0
42627,-0.536,-0.911,-0.003,-2.817,-209.977,-86.511,0.0,70.0
42680,-0.341,-0.825,-0.105,4.382,-215.969,-34.313,0.0,78.0
42739,-0.128,-0.950,-0.190,-1.275,-156.122,31.786,199.0,119.0
42796,-0.137,-0.918,-0.167,-10.115,-89.786,67.656,0.0,126.0
42853,-0.314,-1.225,-0.099,-21.588,-95.466,63.435,0.0,138.0
42909,-0.402,-1.365,-0.254,13.328,-151.756,3.947,0.0,125.0
42967,-0.181,-0.967,-0.308,26.870,-161.137,5.359,0.0,131.0
43023,-0.199,-1.095,-0.337,11.443,-141.443,28.389,0.0,123.0
43076,-0.224,-1.082,-0.324,-1.588,-145.061,64.397,0.0,78.0
43130,-0.237,-1.067,-0.296,-8.427,-147.542,68.817,0.0,87.0
43188,-0.202,-1.120,-0.375,-2.344,-148.168,68.076,0.0,91.0
43243,-0.111,-1.097,-0.420,1.008,-139.061,54.008,0.0,99.0
43298,-0.040,-1.025,-0.398,3.557,-90.565,46.832,0.0,107.0
43355,-0.042,-0.979,-0.321,-3.260,-44.710,55.992,0.0,115.0
43411,-0.107,-0.966,-0.180,-15.954,-11.427,61.183,0.0,124.0
43468,-0.183,-1.211,-0.109,-19.687,2.221,50.260,0.0,134.0
43525,-0.121,-1.157,-0.044,-29.863,6.321,22.702,0.0,139.0
43583,-0.173,-1.094,0.128,-42.351,2.137,-17.031,0.0,142.0
43640,-0.214,-0.636,0.375,-49.809,-52.420,-31.656,200.0,147.0
43702,-0.044,-0.965,0.179,-37.053,-98.382,-23.679,0.0,150.0
43755,0.068,-1.257,-0.018,-16.817,-46.008,-35.000,129.0,153.0
43810,-0.119,-1.033,0.104,-14.664,2.115,-44.985,127.0,158.0
43865,-0.285,-0.921,0.175,-17.557,-18.664,-44.290,123.0,162.0
43962,-0.286,-0.907,0.081,-18.603,-55.931,-29.389,118.0,166.0
44016,-0.208,-0.942,-0.015,-12.397,-43.366,-19.626,114.0,170.0
44076,-0.279,-0.881,0.043,-9.557,-31.336,-9.137,0.0,174.0
44136,-0.325,-0.961,0.038,-11.344,-40.870,1.588,0.0,0.0
44200,-0.289,-1.111,-0.030,-12.802,-56.947,10.878,0.0,0.0
44260,-0.227,-1.113,-0.046,-21.153,-27.626,29.092,181.0,0.0
44306,-0.382,-1.239,0.022,-12.153,-28.267,26.885,174.0,0.0
44364,-0.293,-0.865,-0.005,4.153,-55.718,28.786,168.0,0.0
44423,-0.349,-0.998,0.020,-7.405,-103.649,34.023,160.0,0.0
44468,-0.227,-1.087,-0.220,2.756,-129.191,30.313,150.0,0.0
44518,-0.145,-1.108,-0.221,13.305,-127.893,32.840,145.0,75.0
44568,-0.083,-0.912,-0.213,8.863,-74.130,50.527,140.0,77.0
44618,-0.075,-0.945,-0.214,16.779,-13.748,62.458,131.0,80.0
44672,-0.162,-0.887,-0.118,14.702,16.832,61.015,124.0,84.0
44722,-0.165,-0.911,-0.104,12.649,38.008,50.595,119.0,89.0
44774,-0.231,-0.890,-0.042,5.229,42.519,38.069,114.0,137.0
44828,-0.219,-1.008,-0.034,-1.557,41.084,24.771,109.0,178.0
44880,-0.295,-1.168,0.021,-8.985,42.344,-0.107,105.0,144.0
44933,-0.302,-1.256,0.027,-12.176,28.817,-32.908,101.0,144.0
44985,-0.417,-1.329,0.123,-7.221,24.145,-69.267,99.0,146.0
45037,-0.245,-0.697,0.064,7.824,14.046,-68.069,97.0,147.0
45092,-0.180,-0.636,0.085,3.328,34.695,-18.863,95.0,153.0
45145,-0.262,-1.112,-0.061,12.130,38.504,-15.901,94.0,152.0
45197,-0.236,-1.092,-0.051,15.557,42.000,-29.511,92.0,154.0
45252,-0.153,-0.837,-0.095,8.802,57.779,-14.939,91.0,0.0
45293,-0.282,-0.793,0.005,-4.863,97.771,-4.397,91.0,0.0
45347,-0.446,-0.891,0.088,-5.229,66.901,-13.305,92.0,0.0
45391,-0.367,-0.906,0.020,1.366,12.542,-33.603,138.0,0.0
45449,-0.286,-0.877,-0.077,-3.374,23.130,-32.756,136.0,0.0
45496,-0.393,-1.022,-0.025,-9.229,40.641,-17.840,188.0,0.0
45558,-0.394,-1.036,-0.062,-10.107,30.290,-11.412,184.0,0.0
45604,-0.418,-1.048,-0.015,-11.656,39.290,-0.740,179.0,0.0
45665,-0.552,-1.270,0.035,-4.168,19.893,1.420,175.0,0.0
45710,-0.380,-0.890,0.031,24.519,-18.763,14.794,167.0,0.0
45767,-0.280,-0.734,0.036,11.366,-20.817,42.237,164.0,174.0
45825,-0.399,-1.242,-0.024,10.580,-33.992,56.985,156.0,183.0
45880,-0.178,-1.109,-0.128,28.099,-35.137,68.084,149.0,138.0
45934,-0.097,-0.955,-0.160,25.321,26.511,79.267,143.0,143.0
45992,-0.214,-0.872,-0.079,16.947,61.000,80.886,137.0,160.0
46048,-0.249,-0.842,-0.054,9.130,52.588,67.031,132.0,160.0
46109,-0.264,-0.811,-0.020,1.863,29.176,34.969,0.0,0.0
46156,-0.207,-0.824,-0.059,5.122,24.595,2.229,0.0,0.0
46203,-0.280,-0.968,-0.055,9.191,27.519,-35.977,0.0,0.0
46260,-0.386,-1.193,-0.033,16.084,22.366,-77.679,120.0,0.0
46303,-0.481,-1.345,0.000,26.969,5.603,-116.389,119.0,0.0
46350,-0.579,-1.484,0.086,23.061,-18.206,-136.939,114.0,38.0
46396,-0.406,-1.006,-0.004,41.603,-26.740,-120.802,108.0,36.0
46446,-0.048,-0.485,0.004,28.122,0.817,-23.939,110.0,35.0
46492,-0.103,-0.820,-0.106,4.634,45.527,44.405,109.0,36.0
46539,-0.168,-1.067,-0.191,6.519,73.427,57.595,107.0,38.0
46629,-0.092,-0.838,-0.272,35.931,143.733,38.458,119.0,40.0
46682,-0.201,-0.744,-0.230,38.992,175.298,10.908,0.0,42.0
46748,-0.468,-0.796,-0.012,26.275,129.282,-42.847,0.0,0.0
46809,-0.474,-0.892,-0.032,17.885,32.947,-82.992,0.0,0.0
46869,-0.308,-0.727,-0.077,-4.031,11.366,-69.229,0.0,0.0
46927,-0.220,-0.862,-0.151,-9.618,41.053,-35.878,0.0,169.0
46984,-0.090,-0.754,-0.224,-9.153,86.702,-13.160,124.0,170.0
47038,-0.212,-1.061,-0.199,-3.214,132.916,3.824,121.0,166.0
47096,-0.065,-0.846,-0.245,22.611,158.176,30.672,118.0,125.0
47145,-0.074,-0.810,-0.126,14.115,168.008,48.901,116.0,81.0
47192,-0.142,-0.803,0.009,9.901,143.863,73.435,72.0,79.0
47244,-0.166,-0.764,0.150,-17.305,72.618,92.847,0.0,78.0
47290,-0.181,-1.165,0.344,-35.336,-11.527,77.031,73.0,79.0
47344,-0.173,-1.316,0.114,-30.252,-53.366,39.168,0.0,97.0
47400,-0.083,-1.418,0.072,50.290,-19.672,23.588,0.0,88.0
47455,-0.365,-1.223,0.066,111.267,-0.710,-11.603,0.0,88.0
47508,-0.465,-1.323,-0.057,135.466,12.626,-13.183,0.0,86.0
47561,-0.861,-1.465,0.116,159.420,19.924,-26.580,0.0,78.0
47616,-0.569,-1.114,-0.014,197.061,-0.344,0.580,0.0,79.0
47669,-0.312,-0.437,-0.079,191.603,55.344,62.985,0.0,80.0
47722,-0.502,-0.405,0.425,55.992,40.550,39.237,0.0,83.0
47775,-0.897,-1.302,0.901,-68.534,-18.450,23.176,0.0,86.0
47830,-0.845,-0.760,0.736,-21.191,-190.603,90.206,0.0,91.0
47882,-0.278,-1.045,0.571,53.366,-165.687,64.130,106.0,103.0
47930,-0.120,-1.129,0.366,90.939,-102.802,37.656,88.0,104.0
47979,-0.042,-0.820,0.223,146.794,-33.687,30.260,87.0,106.0
48028,-0.347,-0.755,0.552,159.626,19.870,-32.473,103.0,103.0
48076,-0.336,-0.112,0.848,127.847,19.878,-93.275,87.0,103.0
48124,-0.545,-0.112,0.937,117.099,14.687,-109.687,100.0,102.0
48174,-0.475,-0.465,0.710,90.740,-22.481,-117.656,98.0,103.0
48227,-0.295,-0.565,0.300,84.290,9.328,-117.656,0.0,74.0
48282,-0.481,-0.107,0.770,49.244,88.725,-81.435,0.0,69.0
48335,-0.362,0.054,0.846,44.366,32.489,-19.985,0.0,68.0
48388,-0.675,0.210,0.961,34.130,-59.496,17.511,0.0,66.0
48434,-0.094,0.062,0.599,-9.015,-144.634,46.603,78.0,66.0
48479,-0.280,0.140,1.488,-47.244,-174.756,-22.298,74.0,66.0
48524,0.110,-0.355,0.581,-7.443,-242.794,-66.969,72.0,65.0
48570,0.299,0.288,1.135,-20.634,-223.603,-74.901,73.0,66.0
48622,-0.385,0.004,1.518,-6.328,-250.137,40.695,76.0,193.0
48683,0.631,0.058,0.627,-38.641,-250.137,86.534,0.0,0.0
48737,1.300,-0.374,0.312,76.977,-199.176,161.695,30.0,0.0
48787,1.226,-0.060,-0.013,84.511,-47.244,55.954,30.0,0.0
48837,1.572,0.108,0.177,60.450,93.366,46.336,27.0,0.0
48888,1.140,-0.605,0.707,29.191,33.046,20.145,26.0,0.0
48939,1.021,-0.302,0.386,41.076,61.214,-8.901,28.0,0.0
48989,0.818,-0.201,0.378,32.397,123.809,-8.832,29.0,0.0
49040,0.587,-0.133,0.627,11.725,153.031,-22.878,31.0,0.0
49091,0.340,-0.283,0.934,-5.336,132.710,-22.954,34.0,0.0
49142,0.160,-0.344,1.016,22.748,93.527,-31.076,37.0,0.0
49196,0.147,-0.209,0.991,43.802,42.740,-21.336,36.0,0.0
49291,0.178,0.246,0.867,-4.443,15.420,-11.817,39.0,0.0
49342,0.161,0.133,1.079,-48.237,-36.855,-21.779,39.0,0.0
49393,0.499,-0.187,1.029,-27.252,-69.206,-9.000,38.0,0.0
49444,0.585,-0.406,0.790,5.954,-26.565,-9.290,39.0,0.0
49496,0.467,-0.174,0.859,2.702,41.176,-18.733,39.0,0.0
49545,0.200,0.021,1.004,-6.679,68.573,-23.977,40.0,167.0
49594,0.046,-0.044,1.033,-9.550,56.374,-9.908,41.0,165.0
49643,-0.018,-0.137,1.057,3.366,26.939,14.397,42.0,165.0
49696,0.174,-0.171,1.058,7.756,-24.481,22.015,43.0,168.0
49745,0.328,-0.170,0.980,8.969,-21.290,16.847,41.0,168.0
49795,0.328,-0.178,0.932,2.748,-26.473,20.260,41.0,172.0
49847,0.376,-0.198,0.875,0.840,-29.290,19.992,40.0,0.0
49896,0.369,-0.227,0.912,-1.244,-35.328,18.573,39.0,172.0
49947,0.395,-0.212,0.934,-0.397,-53.756,11.954,39.0,0.0
49998,0.482,-0.179,0.878,0.435,-52.580,5.618,38.0,0.0
50050,0.480,-0.171,0.867,-1.489,-41.649,3.947,37.0,0.0
50101,0.510,-0.165,0.845,-3.458,-33.198,3.962,37.0,0.0
50155,0.561,-0.158,0.826,-2.359,-20.641,2.031,37.0,0.0
50206,0.563,-0.171,0.818,-0.847,-1.466,-0.969,36.0,0.0
50257,0.506,-0.167,0.838,-0.924,8.176,-3.290,37.0,0.0
50309,0.468,-0.170,0.870,-0.481,9.565,-1.412,37.0,0.0
50360,0.461,-0.178,0.892,-0.069,2.298,0.489,37.0,0.0
50411,0.475,-0.195,0.867,1.046,-3.847,2.527,36.0,0.0
50462,0.494,-0.191,0.854,0.435,-4.176,2.550,37.0,0.0
50513,0.511,-0.184,0.844,0.504,-4.031,1.328,36.0,0.0
50565,0.516,-0.181,0.846,0.855,-4.763,0.725,36.0,0.0
50619,0.532,-0.188,0.842,-0.130,-4.557,0.519,38.0,0.0
50671,0.541,-0.193,0.839,0.443,-2.069,-0.740,38.0,0.0
50722,0.507,-0.191,0.843,0.519,1.214,-1.183,36.0,0.0
50774,0.491,-0.174,0.867,0.336,-0.847,-0.611,37.0,0.0
50825,0.494,-0.178,0.873,-0.168,-3.450,0.481,36.0,0.0
50876,0.503,-0.185,0.862,0.885,-4.733,0.695,36.0,0.0
50927,0.518,-0.184,0.856,0.679,-4.794,0.763,37.0,0.0
50978,0.521,-0.179,0.840,0.740,-5.191,0.626,36.0,0.0
51030,0.524,-0.184,0.846,1.008,-5.542,0.443,36.0,0.0
51081,0.543,-0.182,0.847,0.847,-4.908,-0.153,36.0,0.0
51135,0.533,-0.179,0.838,0.374,-1.313,0.389,36.0,0.0
51186,0.528,-0.187,0.845,0.221,0.221,-0.435,36.0,0.0
51237,0.506,-0.179,0.845,1.206,-2.092,-0.290,36.0,0.0
51289,0.516,-0.170,0.843,0.443,-6.206,0.733,37.0,0.0
51341,0.540,-0.185,0.841,0.313,-7.496,1.076,36.0,0.0
51392,0.556,-0.182,0.824,1.122,-4.992,0.710,36.0,0.0
51443,0.549,-0.187,0.829,0.198,-1.191,0.206,36.0,0.0
51494,0.539,-0.181,0.845,0.382,0.153,-0.290,36.0,0.0
51546,0.532,-0.179,0.842,0.649,-2.252,-0.260,36.0,0.0
51600,0.546,-0.179,0.832,0.374,-3.473,0.374,36.0,0.0
51652,0.550,-0.187,0.823,0.351,-2.977,0.305,38.0,0.0
51703,0.558,-0.185,0.831,0.855,-1.450,-0.427,37.0,0.0
51755,0.534,-0.170,0.839,0.695,-0.725,-0.511,38.0,0.0
51806,0.534,-0.174,0.849,0.122,-2.328,0.504,37.0,0.0
51901,0.566,-0.187,0.809,0.221,-2.458,0.092,37.0,0.0
51952,0.558,-0.176,0.830,-0.260,0.870,0.023,37.0,0.0
52003,0.542,-0.184,0.849,-0.511,1.397,-0.084,37.0,0.0
52055,0.540,-0.179,0.840,-0.267,-0.969,0.336,37.0,0.0
52107,0.552,-0.177,0.826,-0.015,-0.466,-0.176,37.0,0.0
52161,0.539,-0.181,0.839,-0.763,1.466,0.351,36.0,0.0
52212,0.539,-0.181,0.837,-0.649,0.962,-0.290,36.0,0.0
52264,0.543,-0.176,0.826,0.023,-0.137,-0.237,36.0,0.0
52316,0.539,-0.186,0.829,-0.634,-0.366,0.145,36.0,0.0
52367,0.548,-0.185,0.833,-0.511,0.962,0.023,36.0,0.0
52418,0.536,-0.187,0.839,-0.466,2.473,-0.382,36.0,0.0
52470,0.530,-0.181,0.841,-0.466,2.244,-0.374,36.0,0.0
52521,0.529,-0.181,0.854,-0.382,0.908,-0.298,36.0,0.0
52573,0.533,-0.184,0.840,-0.351,0.679,-0.137,37.0,0.0
52628,0.531,-0.184,0.836,-0.145,1.229,-0.153,37.0,0.0
52679,0.531,-0.189,0.836,-0.466,1.702,-0.527,36.0,0.0
52731,0.525,-0.176,0.839,-0.290,1.000,0.076,36.0,0.0
52783,0.532,-0.189,0.840,-0.420,0.916,-0.351,36.0,0.0
52834,0.506,-0.193,0.856,0.244,0.947,-0.588,36.0,0.0
52886,0.502,-0.158,0.849,-0.244,-5.450,1.061,36.0,0.0
52937,0.540,-0.199,0.828,-0.679,-5.206,1.626,36.0,0.0
52988,0.516,-0.200,0.847,2.023,-4.397,-1.206,36.0,0.0
53041,0.519,-0.175,0.854,0.206,-5.924,0.313,37.0,0.0
53096,0.442,-0.202,0.872,5.099,-24.397,-1.550,36.0,0.0
53147,0.549,-0.111,0.851,-2.740,-43.076,6.450,36.0,0.0
53199,0.666,-0.216,0.768,-0.740,-33.748,7.992,36.0,0.0
53251,0.712,-0.211,0.689,5.756,-11.298,3.145,36.0,0.0
53302,0.701,-0.169,0.692,1.435,13.473,-2.206,36.0,0.0
53354,0.597,-0.188,0.807,-0.618,28.275,-5.550,36.0,0.0
53405,0.495,-0.186,0.892,0.893,14.481,-3.321,36.0,0.0
53457,0.497,-0.181,0.876,0.588,-7.160,1.305,36.0,0.0
53509,0.573,-0.181,0.827,-0.206,-19.336,1.443,36.0,0.0
53564,0.630,-0.191,0.754,1.000,-13.870,2.344,36.0,0.0
53616,0.645,-0.180,0.763,0.725,-2.786,0.924,36.0,0.0
53667,0.596,-0.182,0.810,0.893,2.290,-0.908,36.0,0.0
53725,0.597,-0.178,0.787,0.389,-0.939,0.084,36.0,0.0
53775,0.593,-0.189,0.802,0.069,-0.733,-0.672,36.0,0.0
53825,0.591,-0.174,0.802,0.595,-2.458,-0.618,36.0,0.0
53876,0.593,-0.181,0.810,-0.107,-4.595,-0.290,36.0,0.0
53926,0.607,-0.175,0.782,0.847,-7.336,1.130,36.0,0.0
53978,0.635,-0.190,0.769,0.366,-1.519,0.725,36.0,0.0
54028,0.621,-0.187,0.783,0.916,1.466,-1.130,36.0,0.0
54082,0.587,-0.186,0.797,0.458,0.603,-0.298,36.0,0.0
54132,0.596,-0.180,0.798,0.069,-1.847,-0.244,36.0,0.0
54183,0.599,-0.177,0.791,0.550,-3.130,-0.359,36.0,0.0
54234,0.606,-0.178,0.793,0.427,-4.267,-0.076,36.0,0.0
54284,0.609,-0.175,0.793,0.183,-4.977,0.214,35.0,0.0
54335,0.620,-0.174,0.790,-0.061,-6.779,0.565,35.0,0.0
54386,0.642,-0.183,0.761,0.176,-4.069,0.061,36.0,0.0
54436,0.643,-0.179,0.768,-0.435,1.679,-0.008,36.0,0.0
54531,0.597,-0.179,0.806,-0.397,3.695,-0.542,36.0,0.0
54584,0.599,-0.176,0.794,-0.153,0.351,-0.763,36.0,0.0
54635,0.606,-0.185,0.797,-0.664,-0.198,0.550,36.0,0.0
54685,0.612,-0.178,0.798,-0.153,-0.008,-0.099,36.0,0.0
54736,0.605,-0.178,0.796,-0.366,0.702,-0.168,36.0,0.0
54787,0.612,-0.186,0.784,0.069,-0.069,-0.336,36.0,0.0
54838,0.599,-0.184,0.796,-0.260,-0.076,-0.443,36.0,0.0
54889,0.586,-0.176,0.808,-0.779,-2.420,-0.443,36.0,0.0
54939,0.614,-0.179,0.778,-0.244,-3.947,0.542,36.0,0.0
54990,0.614,-0.187,0.774,-0.137,-0.641,0.443,36.0,0.0
55044,0.606,-0.176,0.789,0.084,-1.191,-0.580,36.0,0.0
55095,0.616,-0.177,0.782,-0.397,-0.962,-0.137,36.0,0.0
55146,0.605,-0.185,0.781,0.061,1.053,-0.557,36.0,0.0
55196,0.596,-0.182,0.802,-0.511,1.038,0.084,35.0,0.0
55247,0.593,-0.184,0.804,-0.092,-1.817,-0.099,35.0,0.0
55299,0.608,-0.180,0.783,-0.160,-3.733,0.489,36.0,0.0
55349,0.621,-0.184,0.784,0.137,0.076,-0.176,36.0,0.0
55400,0.614,-0.189,0.786,-0.084,2.511,-0.679,35.0,0.0
55451,0.591,-0.184,0.805,0.634,0.130,-0.817,35.0,0.0
55501,0.595,-0.182,0.799,-0.313,-0.145,0.115,35.0,0.0
55556,0.596,-0.181,0.787,0.969,-6.008,-0.374,35.0,0.0
55607,0.626,-0.180,0.794,-0.527,-5.924,1.076,36.0,0.0
55657,0.627,-0.191,0.776,0.817,-1.779,-0.260,36.0,0.0
55708,0.617,-0.184,0.776,0.450,1.718,-0.481,36.0,0.0
55759,0.606,-0.186,0.795,0.305,2.557,-0.282,36.0,0.0
55811,0.591,-0.181,0.818,0.550,-0.931,-0.863,36.0,0.0
55861,0.594,-0.175,0.797,1.046,-4.992,-0.618,36.0,0.0
55912,0.613,-0.178,0.768,0.473,-5.389,0.389,36.0,0.0
55963,0.637,-0.184,0.767,0.481,-2.443,0.374,36.0,0.0
56017,0.631,-0.176,0.779,0.328,0.550,-0.267,36.0,0.0
56068,0.601,-0.190,0.786,1.305,0.679,-1.168,36.0,0.0
56119,0.605,-0.175,0.793,-0.198,-1.588,-0.710,36.0,0.0
56170,0.618,-0.183,0.788,0.466,-3.122,0.542,36.0,0.0
56221,0.617,-0.184,0.782,0.450,-0.740,0.221,36.0,0.0
56272,0.612,-0.176,0.796,0.504,-1.183,-0.687,36.0,0.0
56324,0.619,-0.173,0.787,0.496,-2.992,0.763,36.0,0.0
56374,0.625,-0.177,0.777,0.031,-1.939,0.076,35.0,0.0
56425,0.617,-0.173,0.783,0.328,-1.511,0.824,35.0,0.0
56476,0.640,-0.168,0.772,-0.221,0.084,0.397,35.0,0.0
56530,0.644,-0.180,0.755,0.328,5.878,0.954,36.0,0.0
56581,0.637,-0.194,0.780,-0.603,12.275,-1.420,36.0,0.0
56632,0.584,-0.188,0.807,-0.756,14.076,-3.756,35.0,0.0
56683,0.557,-0.170,0.824,-0.939,8.389,-1.313,36.0,0.0
56734,0.546,-0.175,0.838,-1.305,-0.977,-0.069,37.0,0.0
56785,0.577,-0.179,0.823,-1.015,-3.450,0.504,36.0,0.0
56837,0.596,-0.184,0.804,-0.878,-2.137,0.435,37.0,0.0
56888,0.592,-0.185,0.799,-0.389,0.901,-0.115,36.0,0.0
56939,0.583,-0.175,0.815,-0.443,1.031,-0.366,36.0,0.0
56993,0.590,-0.182,0.802,-0.466,2.626,-0.359,36.0,0.0
57044,0.574,-0.187,0.801,-1.267,4.198,-0.565,36.0,0.0
57139,0.561,-0.180,0.827,-0.214,1.809,-0.710,36.0,0.0
57190,0.572,-0.178,0.814,-0.405,0.588,0.328,36.0,0.0
57241,0.577,-0.191,0.810,-0.878,1.534,-0.031,37.0,0.0
57292,0.576,-0.182,0.817,-0.573,2.939,-0.137,37.0,0.0
57344,0.559,-0.183,0.822,-0.153,1.145,-0.580,36.0,0.0
57395,0.566,-0.180,0.812,-0.137,1.687,-0.229,36.0,0.0
57447,0.559,-0.189,0.832,-0.366,0.145,-0.206,36.0,0.0
57501,0.566,-0.179,0.817,0.053,1.519,-0.038,36.0,0.0
57552,0.562,-0.183,0.821,-0.153,1.412,0.076,36.0,0.0
57604,0.566,-0.189,0.817,-0.023,1.878,-0.458,37.0,0.0
57655,0.549,-0.196,0.833,-0.290,2.511,-0.382,36.0,0.0
57706,0.532,-0.174,0.826,1.336,-2.924,-0.985,36.0,0.0
57757,0.555,-0.171,0.805,-0.672,-4.511,0.931,37.0,0.0
57808,0.573,-0.200,0.817,-0.351,-1.313,0.779,37.0,0.0
57860,0.560,-0.177,0.823,0.908,-2.107,-0.137,37.0,0.0
57912,0.547,-0.183,0.828,0.221,-3.321,0.580,36.0,0.0
57963,0.558,-0.184,0.832,0.733,-6.901,0.519,36.0,0.0
58017,0.587,-0.180,0.806,0.588,-5.351,0.710,37.0,0.0
58068,0.582,-0.193,0.825,0.351,-2.260,0.198,36.0,0.0
58120,0.571,-0.186,0.810,0.947,-1.473,-0.031,36.0,0.0
58171,0.573,-0.178,0.826,0.282,-1.321,0.053,36.0,0.0
58222,0.553,-0.193,0.828,0.885,-3.878,0.244,36.0,0.0
58274,0.571,-0.179,0.817,0.824,-7.618,0.634,38.0,0.0
58326,0.602,-0.188,0.803,0.786,-7.092,0.733,36.0,0.0
58377,0.601,-0.190,0.788,0.611,-1.832,0.443,36.0,0.0
58428,0.590,-0.183,0.808,0.641,1.305,-0.511,36.0,0.0
58482,0.580,-0.183,0.804,0.740,0.107,-0.115,36.0,0.0
58534,0.578,-0.186,0.818,0.756,-2.206,-0.061,37.0,0.0
58586,0.583,-0.182,0.818,0.397,-2.366,0.115,36.0,0.0
58637,0.591,-0.181,0.813,0.336,-2.084,0.496,36.0,0.0
58688,0.600,-0.183,0.798,0.924,-0.649,-0.069,36.0,0.0
58739,0.582,-0.185,0.807,0.718,-0.107,-0.435,36.0,0.0
58791,0.579,-0.172,0.811,0.336,-2.969,-0.183,36.0,0.0
58843,0.599,-0.185,0.802,0.153,-3.962,-0.008,36.0,0.0
58894,0.596,-0.185,0.791,0.244,-1.046,-0.122,36.0,0.0
58949,0.598,-0.181,0.813,-0.023,0.641,-0.191,36.0,0.0
59000,0.578,-0.178,0.819,-0.145,-0.786,0.107,36.0,0.0
59052,0.587,-0.185,0.798,-0.458,-0.855,0.107,36.0,0.0
59103,0.586,-0.184,0.805,0.084,0.061,-0.122,36.0,0.0
59155,0.586,-0.177,0.799,-0.481,2.405,0.237,36.0,0.0
59206,0.590,-0.182,0.802,-0.779,4.260,-0.122,36.0,0.0
59257,0.569,-0.190,0.831,-0.435,3.687,-0.412,36.0,0.0
59310,0.558,-0.171,0.816,-0.214,-1.145,0.031,37.0,0.0
59361,0.592,-0.186,0.798,-0.908,-1.405,0.489,37.0,0.0
59412,0.585,-0.187,0.805,-0.267,2.901,-0.328,36.0,0.0
59467,0.567,-0.179,0.822,-0.618,5.084,-0.336,36.0,0.0
59518,0.563,-0.178,0.828,-0.397,2.374,-0.145,36.0,0.0
59571,0.568,-0.188,0.824,-0.359,-0.435,0.130,36.0,0.0
59622,0.566,-0.189,0.819,-0.229,-0.244,-0.366,36.0,0.0
59674,0.576,-0.180,0.816,-0.519,1.252,-0.176,36.0,0.0
59768,0.569,-0.192,0.828,-0.702,3.863,-0.351,36.0,0.0
59820,0.534,-0.189,0.851,0.031,-0.725,-0.115,36.0,0.0
59872,0.567,-0.178,0.822,-0.405,-3.115,0.290,36.0,0.0
59923,0.567,-0.200,0.813,-0.305,0.336,-0.122,36.0,0.0
59978,0.559,-0.196,0.824,-0.115,3.611,-0.634,36.0,0.0
60030,0.552,-0.181,0.829,-0.351,3.282,-0.267,36.0,0.0
60082,0.541,-0.184,0.842,-0.069,-0.458,-0.305,36.0,0.0
60134,0.558,-0.192,0.820,0.244,-1.290,-0.023,36.0,0.0
60185,0.548,-0.186,0.811,0.695,-1.344,-0.527,36.0,0.0
60237,0.551,-0.182,0.821,-0.008,-0.809,0.000,36.0,0.0
60289,0.542,-0.199,0.842,-0.160,-1.397,0.328,36.0,0.0
60341,0.552,-0.186,0.829,0.985,-6.443,0.298,36.0,0.0
60397,0.575,-0.183,0.813,0.420,-5.695,0.183,36.0,0.0
60450,0.570,-0.189,0.815,0.260,-0.641,-0.145,38.0,0.0
60502,0.559,-0.188,0.823,0.763,-0.611,-0.053,37.0,0.0
60552,0.550,-0.186,0.839,0.679,-3.580,0.328,37.0,0.0
60603,0.567,-0.179,0.812,0.427,-4.504,0.397,36.0,0.0
60653,0.570,-0.186,0.812,0.588,-3.908,0.031,36.0,0.0
60704,0.577,-0.188,0.814,0.702,-3.031,-0.015,36.0,0.0
60754,0.566,-0.182,0.811,0.489,-1.771,0.282,36.0,0.0
60806,0.567,-0.187,0.820,0.481,-1.260,-0.328,36.0,0.0
60856,0.562,-0.176,0.817,0.840,-3.718,-0.122,36.0,0.0
60907,0.572,-0.177,0.819,0.237,-5.626,0.901,36.0,0.0
60960,0.598,-0.186,0.804,0.618,-4.336,0.160,36.0,0.0
61011,0.583,-0.181,0.803,0.779,-1.328,-0.076,36.0,0.0
61062,0.575,-0.179,0.816,0.435,-0.634,0.069,36.0,0.0
61113,0.573,-0.178,0.821,0.565,-2.290,-0.023,36.0,0.0
61163,0.581,-0.184,0.811,0.656,-2.893,0.366,36.0,0.0
61214,0.594,-0.191,0.794,0.458,-1.863,0.000,36.0,0.0
61264,0.583,-0.186,0.809,0.237,-1.015,0.023,36.0,0.0
61316,0.586,-0.187,0.818,0.344,-0.885,0.008,36.0,0.0
61366,0.576,-0.185,0.816,0.260,-1.214,-0.145,36.0,0.0
61420,0.576,-0.172,0.813,0.092,-3.237,-0.069,36.0,0.0
61471,0.601,-0.185,0.807,-0.321,-1.359,0.267,36.0,0.0
61521,0.591,-0.181,0.796,-0.221,2.206,-0.397,36.0,0.0
61573,0.566,-0.177,0.833,-0.435,1.435,0.038,36.0,0.0
61623,0.574,-0.187,0.821,-0.420,-0.939,-0.084,36.0,0.0
61674,0.588,-0.182,0.803,-0.466,-0.176,-0.053,36.0,0.0
61725,0.580,-0.187,0.810,-0.603,1.344,-0.137,36.0,0.0
61775,0.579,-0.177,0.811,-0.298,2.160,-0.053,36.0,0.0
61827,0.583,-0.188,0.809,-0.344,2.366,-0.214,36.0,0.0
61878,0.564,-0.192,0.824,-0.267,2.466,-0.275,36.0,0.0
61931,0.558,-0.179,0.825,-0.298,-1.084,-0.076,36.0,0.0
61982,0.578,-0.190,0.801,-0.763,-1.130,0.244,36.0,0.0
62033,0.581,-0.198,0.809,-0.153,2.069,-0.260,36.0,0.0
62084,0.564,-0.183,0.823,-0.580,3.954,-0.435,36.0,0.0
62135,0.550,-0.184,0.823,-0.443,1.649,-0.145,36.0,0.0
62186,0.559,-0.187,0.814,-0.275,-0.092,-0.191,36.0,0.0
62237,0.570,-0.188,0.822,-0.298,0.450,-0.137,37.0,0.0
62288,0.566,-0.188,0.819,-0.267,1.580,-0.359,37.0,0.0
62382,0.557,-0.191,0.832,-0.595,2.863,-0.588,36.0,0.0
62436,0.543,-0.180,0.831,0.130,-0.153,-0.603,36.0,0.0
62487,0.553,-0.182,0.821,-0.176,-2.214,-0.160,37.0,0.0
62538,0.564,-0.193,0.816,0.084,-0.076,-0.237,36.0,0.0
62588,0.547,-0.184,0.817,0.550,1.160,-0.748,36.0,0.0
62640,0.536,-0.186,0.838,-0.046,-1.397,0.252,36.0,0.0
62691,0.551,-0.188,0.831,0.328,-4.252,0.359,36.0,0.0
62742,0.574,-0.189,0.819,0.603,-3.519,0.229,36.0,0.0
62793,0.564,-0.192,0.814,0.473,-0.718,-0.298,36.0,0.0
62843,0.553,-0.184,0.824,0.374,-1.115,-0.183,36.0,0.0
62898,0.553,-0.191,0.826,0.397,-1.427,-0.160,36.0,0.0
62949,0.543,-0.191,0.829,0.885,-3.122,0.076,37.0,0.0
63000,0.556,-0.168,0.830,0.504,-6.290,0.145,36.0,0.0
63051,0.576,-0.192,0.807,0.435,-4.901,0.435,36.0,0.0
63102,0.585,-0.192,0.809,0.611,-0.878,-0.328,36.0,0.0
63154,0.550,-0.181,0.818,0.687,0.046,-0.237,36.0,0.0
63204,0.551,-0.186,0.834,0.412,-2.756,0.221,36.0,0.0
63255,0.574,-0.185,0.826,0.496,-5.023,0.382,36.0,0.0
63306,0.581,-0.185,0.810,0.786,-4.008,0.061,36.0,0.0
63357,0.581,-0.182,0.817,0.496,-1.260,0.076,36.0,0.0
63420,0.574,-0.188,0.800,0.802,-0.901,-0.191,36.0,0.0
63474,0.561,-0.189,0.818,0.550,-1.748,0.031,37.0,0.0
63527,0.567,-0.172,0.817,0.412,-5.344,0.168,36.0,0.0
63581,0.590,-0.183,0.803,0.534,-5.084,0.397,37.0,0.0
63634,0.592,-0.191,0.801,0.618,-1.756,-0.008,36.0,0.0
63688,0.575,-0.179,0.802,0.397,0.336,-0.389,36.0,0.0
63741,0.574,-0.182,0.810,0.351,-2.038,0.076,36.0,0.0
63795,0.588,-0.181,0.809,0.420,-3.641,0.122,36.0,0.0
63849,0.587,-0.185,0.804,0.130,-2.985,0.008,36.0,0.0
63905,0.580,-0.180,0.808,0.359,-1.267,0.084,36.0,0.0
63959,0.587,-0.187,0.803,0.496,-1.466,0.023,36.0,0.0
64013,0.580,-0.188,0.825,0.130,0.099,-0.122,36.0,0.0
64066,0.583,-0.177,0.813,0.473,-2.557,-0.008,36.0,0.0
64119,0.604,-0.186,0.801,-0.069,-4.771,0.420,37.0,0.0
64174,0.591,-0.178,0.804,0.366,-1.740,0.099,35.0,0.0
64227,0.588,-0.178,0.808,-0.191,0.885,-0.221,35.0,0.0
64280,0.587,-0.181,0.808,-0.076,-0.947,-0.153,35.0,0.0
64334,0.596,-0.181,0.809,-0.282,-1.702,0.412,37.0,0.0
64391,0.595,-0.186,0.800,-0.176,0.687,-0.153,35.0,0.0
64445,0.581,-0.188,0.809,-0.328,1.458,-0.137,36.0,0.0
64498,0.584,-0.181,0.810,-0.214,0.519,0.191,36.0,0.0
64551,0.589,-0.183,0.803,-0.504,1.275,-0.061,36.0,0.0
64606,0.574,-0.181,0.816,0.046,-0.397,-0.290,36.0,0.0
64659,0.590,-0.178,0.808,-0.435,-1.985,0.298,36.0,0.0
64713,0.600,-0.191,0.806,-0.252,1.298,-0.137,36.0,0.0
64766,0.578,-0.191,0.813,-0.221,3.015,-0.458,37.0,0.0
64821,0.568,-0.182,0.824,-0.328,0.389,0.008,37.0,0.0
64874,0.584,-0.184,0.812,-0.160,-0.931,0.168,36.0,0.0
64931,0.589,-0.187,0.810,-0.153,0.359,-0.168,36.0,0.0
64985,0.574,-0.184,0.804,-0.221,1.527,-0.084,37.0,0.0
