Timestamp(ms),AccelX(g),AccelY(g),AccelZ(g),GyroX(deg/s),GyroY(deg/s),GyroZ(deg/s),DistanceLeft(cm),DistanceRight(cm)
50881,0.037,-0.14,1.114,-3.145,-5,-3.679,44,84
50929,0.149,-0.088,1.021,-1.29,-10.061,-12.992,67,83
50977,0.181,-0.103,1.016,-2.519,-20.473,-25.771,41,83
51024,0.208,0.054,0.969,-10.603,-15.084,-35.542,42,82
51073,0.054,0.071,1.05,-27.076,-3.763,-41.038,71,81
51120,-0.131,0.247,1.058,-30.985,-2.382,-36.298,40,80
51176,-0.118,0.184,1.046,-18.008,-8.221,-28.832,0,80
51226,0.008,0.162,1.068,-0.115,-4.519,-9.649,41,80
51272,0.177,0.108,0.906,8.649,-30.626,2.206,38,81
51319,0.305,-0.127,0.99,0.718,-51.099,-16.145,38,89
51366,0.539,-0.127,0.945,-25.137,-46.504,-25.359,35,83
51414,0.323,-0.221,0.967,-27.145,-7.733,-6.458,36,82
51458,0.028,-0.434,1.229,-48.023,-9.023,-26.099,34,37
51502,0.145,-0.575,1.288,-39.046,-4.626,-45.992,33,36
51546,0.227,-0.452,1.153,-33.282,29.817,-46.244,32,35
51590,0.112,-0.396,1.11,-42.84,28.244,-38.832,32,35
51637,0.129,-0.34,0.977,-51.824,5.756,-30.817,32,36
51681,0.145,-0.358,0.896,-54.489,7.366,-21.214,31,36
51725,0.152,-0.42,0.879,-47.359,18.748,-20.702,30,37
51769,0.065,-0.437,0.872,-31.473,3.733,-18.168,37,36
51815,0.086,-0.372,0.858,-5.992,-21.908,-15.084,75,36
51869,0.197,-0.33,0.835,5.305,-14.443,-19.366,0,36
51924,0.085,-0.487,1.155,19.267,-17.855,-28.29,0,72
51972,0.244,-0.675,1.333,26.42,-11.191,-37.153,30,79
52021,0.35,-0.726,1.418,23.557,-3.595,-40.481,71,86
52071,0.416,-0.684,1.461,16.412,-27.489,-46.977,30,88
52127,0.397,-0.728,1.45,20.122,-87.664,-65.443,0,90
52185,0.379,-0.9,1.146,-11.336,-99.412,-115.947,0,93
52233,0.056,-0.952,0.915,-35.908,-49.58,-125.16,40,96
52286,0.114,-0.797,0.65,-30.916,-56.771,-155.466,42,192
52340,0.293,-0.267,0.404,-18.618,-31.053,-184.16,47,191
52395,0.241,0.305,0.51,-26.626,-26.481,-184.511,51,193
52450,0.239,0.648,0.678,-49.664,-43.992,-201.26,54,191
52507,0.355,0.789,0.732,-55.305,-60.206,-220.87,59,183
52557,0.462,0.622,0.491,-57.183,65.511,-194.672,82,101
52609,-0.133,0.194,0.826,-45.229,142.931,-150.206,87,95
52660,-0.187,0.523,0.985,-18.992,85.931,-122.427,94,90
52713,-0.169,0.556,1.083,-19.115,58.115,-82.534,155,87
52770,-0.109,0.2,1.005,-0.992,21.092,-54.115,0,85
52823,-0.179,0.246,1.033,23.427,-2.405,-26.481,115,84
52879,0.133,0.532,1.005,31.985,-25.557,-8.779,0,84
52931,0.241,0.846,1.192,13.779,-6.092,-19.046,122,85
52986,0.194,0.524,1.14,-15.206,-11.206,-36.397,139,74
53040,0.069,0.285,1.154,7.847,-92.13,-49.695,143,72
53096,0.459,0.872,0.83,57.076,-111.504,-36.924,0,87
53153,0.443,0.818,0.706,29.427,-19.206,-45.916,0,87
53210,0.079,0.461,0.75,2.534,57.802,-81.87,0,87
53265,-0.229,0.561,0.764,21.305,64.695,-73.718,175,86
53322,-0.306,0.554,0.465,42.595,76.908,-49.374,0,86
53379,-0.469,0.884,0.545,40.206,120.87,20.992,0,71
53474,-0.152,0.341,0.531,54.313,62.855,109.71,140,73
53529,0.346,0.285,1.24,31.29,-23.183,110.481,119,76
53580,0.754,0.767,1.29,39.595,-167.992,29.496,112,79
53632,1.165,0.885,0.347,10,-172.886,-0.824,106,81
53683,0.739,0.699,0.07,-28.344,-33.359,37.405,112,79
53733,0.15,0.366,-0.016,-12.099,52.229,0.282,106,76
53784,-0.124,1.36,-0.181,32.427,148.763,-51.374,112,72
53835,-0.63,1.334,0.443,-40.977,85.053,-63.008,111,68
53885,-0.33,1.025,0.637,-80.466,24.344,-72.252,113,65
53940,-0.369,0.679,0.725,-51.511,17.756,-23.931,114,62
53990,-0.329,1.046,0.7,-13.847,46.176,6.282,114,62
54040,-0.334,0.887,0.79,-33.588,86.481,39.336,113,62
54091,-0.268,0.558,0.893,-22.802,30.336,54.237,111,61
54141,0.095,0.614,0.784,-6.053,35.366,42.481,125,44
54185,0.094,0.71,0.971,-25.969,53.672,25.282,2,60
54227,0.108,0.606,0.87,-32.84,52.229,9.947,3,39
54270,-0.108,0.688,0.919,-24.359,52.13,-2.779,3,39
54313,-0.232,0.766,0.844,-23.763,28.023,-15.282,4,36
54360,-0.19,0.795,0.709,-35.947,28.611,-19.542,5,36
54402,-0.263,0.624,0.692,-43.969,39.489,-16.618,6,22
54444,-0.378,0.634,0.827,-53.679,38.122,-16.603,8,20
54486,-0.34,0.521,0.896,-55.901,7.542,-22.405,7,18
54528,-0.246,0.515,0.9,-52,-2.267,-30.13,7,17
54569,-0.291,0.425,0.924,-58.221,19.084,-35.718,7,16
54612,-0.418,0.309,0.99,-55.763,16.756,-38.947,8,19
54656,-0.394,0.295,1.03,-45.489,-1.725,-42.481,9,38
54699,-0.27,0.224,0.882,-36.71,10.389,-42.542,10,38
54748,-0.33,0.241,0.896,-41.603,52.603,-36.969,12,72
54792,-0.512,0.134,0.969,-52.084,56.878,-42.473,17,58
54837,-0.685,0.121,1.073,-55.771,5.893,-48.031,17,57
54892,-0.537,0.047,0.958,-58.931,-23.763,-42.214,0,57
54948,-0.471,0.025,0.846,-53.275,14,-25.221,0,70
55005,-0.693,0.137,1.035,-57.496,22.16,-3.16,0,73
55062,-0.647,0.053,1.1,-45.237,-35.336,-7.695,0,73
55118,-0.46,0.014,1.037,-38.26,-31.878,-4.267,0,74
55175,-0.431,-0.117,0.995,-22.924,-2.641,-5.878,0,78
55224,-0.354,-0.246,0.974,7.863,14.626,-6.084,9,71
55269,-0.255,-0.181,0.916,31.588,35.046,-7.466,17,73
55325,-0.312,-0.08,0.905,27.008,70.443,-13.069,0,73
55383,-0.577,-0.054,0.927,10.588,59.092,-21.344,0,74
55439,-0.67,-0.055,0.841,-7.115,24.16,-26.588,0,83
55496,-0.723,-0.076,0.866,-18.328,-19.275,-29.046,0,76
55553,-0.623,-0.118,0.806,-12.076,-35.916,-9.74,0,72
55599,-0.541,-0.111,0.767,-9.458,-14.29,-2.031,21,72
55645,-0.509,-0.125,0.816,-12.344,0.443,-1.412,16,71
55693,-0.47,-0.149,0.831,-17.611,0.122,-7.855,11,71
55739,-0.469,-0.194,0.871,-21.427,-6.115,-20.435,12,75
55785,-0.521,-0.19,0.923,-26.206,-16.595,-22.748,21,73
55831,-0.541,-0.257,0.936,-27.634,-24.908,-24.977,16,73
55877,-0.564,-0.283,0.992,-19.229,-30.092,-21.611,18,72
55966,-0.473,-0.254,0.979,0.214,-28.55,-8.565,16,73
56012,-0.468,-0.279,0.978,2.908,-26.824,-5.954,16,72
56058,-0.482,-0.284,0.993,8.595,-37.672,-2.603,18,72
56108,-0.436,-0.276,0.997,10.305,-46.168,7.473,16,70
56154,-0.406,-0.294,1.01,15.038,-44.878,14.618,17,75
56200,-0.388,-0.308,1.048,29.473,-49.626,24.023,17,73
56245,-0.294,-0.223,1.079,43.985,-38.137,30.168,13,71
56291,-0.239,-0.179,1.079,51.504,-17.466,34.298,17,72
56348,-0.246,-0.163,1.084,56.45,-5.725,37.328,0,73
56404,-0.215,-0.082,1.031,60.786,-9.107,30.252,0,73
56451,-0.212,0.084,0.944,54.405,15.893,24.679,16,73
56496,-0.271,0.114,0.891,37.489,29.115,25.046,11,72
56544,-0.32,0.087,0.867,34.656,24.84,20.061,9,47
56589,-0.352,0.105,0.874,37.618,25.198,21.405,9,73
56633,-0.319,0.118,0.848,35.389,33.313,27.435,9,40
56676,-0.346,0.12,0.871,30.802,38.603,30.748,9,40
56720,-0.302,0.115,0.891,33.168,34.534,26.344,8,40
56764,-0.334,0.217,0.865,25.191,37.977,23.443,9,40
56807,-0.393,0.278,0.896,10.656,37.55,24.084,9,41
56851,-0.454,0.249,0.91,10.55,27.145,14.725,8,41
56895,-0.42,0.281,0.886,9.13,18.916,4.84,7,41
56942,-0.48,0.318,0.935,3.55,23.893,7.145,7,43
56985,-0.504,0.239,0.973,12.634,10.435,9.359,7,42
57029,-0.466,0.272,0.968,22.305,7.237,12.221,9,42
57073,-0.489,0.32,0.992,19.42,10.267,18.412,7,50
57123,-0.534,0.326,1.031,32.481,6.664,25.916,8,44
57166,-0.481,0.355,0.959,47.649,20.649,33.557,9,43
57209,-0.563,0.411,0.949,59.618,51.023,50.252,10,43
57252,-0.657,0.499,0.903,71.084,56.237,66.786,8,50
57296,-0.787,0.496,0.875,78.198,31.672,81.893,10,70
57341,-0.678,0.6,0.752,82.321,-14.878,87.115,9,71
57387,-0.472,0.704,0.578,77.679,-31.87,85.595,8,32
57428,-0.372,0.754,0.532,67.137,-28.45,82.115,7,32
57470,-0.278,0.803,0.483,58.969,-26.038,76.763,6,33
57525,-0.199,0.817,0.392,48.275,-10.756,76.588,0,36
57574,-0.227,0.818,0.468,36.061,-42.206,61.382,134,37
57624,0.079,0.751,0.332,34.473,-137.672,8.794,129,39
57673,0.438,1.029,0.053,21.534,-55.672,2.321,125,41
57722,0.104,1.097,0.16,-18.046,121.092,23.916,111,41
57769,-0.351,0.877,0.486,-32.168,132.809,17.748,46,39
57815,-0.485,0.77,0.689,-18.527,33.809,18.618,44,39
57860,-0.216,0.79,0.544,0.16,-50.878,18.511,42,40
57910,0.033,0.817,0.502,8.756,-46.053,19.038,132,41
57954,0.101,0.841,0.521,9.427,-10.84,9.534,39,41
57999,-0.02,0.95,0.516,2.321,-5.664,0.931,38,41
58043,-0.091,0.901,0.551,-3.023,-16.527,-1.16,40,41
58088,-0.079,0.881,0.544,3.832,-24.634,-3.832,39,41
58133,-0.068,0.926,0.498,5.504,-26.992,-0.42,38,42
58184,-0.014,0.927,0.505,2.321,-15.42,3.863,113,41
58233,-0.071,0.922,0.56,4.824,-20.198,5.611,110,41
58320,-0.099,1.043,0.728,2.756,-60.908,3.779,37,43
58365,0.021,1.125,0.652,1.351,-46.74,8.489,38,45
58416,-0.098,1.156,0.692,-4.603,-23.405,20.534,108,65
58461,-0.26,1.144,0.723,-18.87,-33.183,30.122,37,49
58507,-0.209,1.033,0.552,-20.832,-67.931,37.649,37,67
58554,-0.184,0.99,0.488,-22.458,-83.069,50.359,37,71
58604,-0.089,0.969,0.417,-23.794,-88.519,59.366,102,74
58657,0.068,0.87,0.308,-13.962,-82.55,74.618,101,79
58708,0.245,0.785,0.215,0.473,-60.504,93.328,99,85
58757,0.349,0.786,0.234,6.603,-25.954,104.748,58,91
58814,0.399,0.769,0.22,8.824,-9.87,119.053,105,197
58871,0.52,0.53,0.174,8.122,-2.84,126.198,100,0
58927,0.782,0.453,0.169,8.084,36.672,137.565,99,159
58988,0.883,0.165,0.293,19.534,81.344,126.87,0,161
59044,0.887,0.111,0.402,26.824,104.557,100.611,114,165
59104,0.901,-0.107,0.533,24.16,117.893,85.695,0,138
59167,0.78,-0.044,0.845,-4.504,94.481,66.359,0,138
59227,0.863,-0.175,0.94,-6.916,48.634,26.252,0,139
59277,0.809,0.12,0.856,-14.565,57.519,-11.237,25,140
59329,0.658,0.214,0.75,-40.763,69.672,-39.427,29,188
59383,0.481,0.224,0.835,-62.504,80.901,-37.435,30,0
59436,0.186,0.328,1.043,-69.718,97.573,-39.382,29,178
59488,0.159,0.257,1.185,-75.664,55.725,-34.389,32,176
59549,0.188,-0.057,1.095,-64.458,31.145,-44.641,0,174
59612,0.243,0.025,0.965,-49.573,13.008,-51.595,0,172
59676,0.163,-0.029,1.099,-41.42,27.931,-47.481,0,172
59738,0.077,-0.096,1.162,-33.382,21.771,-29.405,0,171
59793,0.165,-0.129,1.112,-29.328,-3.496,-12.275,73,172
59849,0.275,-0.104,1.056,-22.145,-10.351,2.664,74,0
59904,0.318,0.03,1.033,-14.924,-5.908,-2.084,74,171
59958,0.201,-0.051,1.018,-24.496,11.931,-0.336,73,172
60012,0.112,-0.17,1.04,-23.282,-1.84,9.748,73,171
60067,0.208,-0.176,1.041,-19.275,-17.855,13.969,72,171
60122,0.323,-0.148,1.044,-17.779,-12.427,9.206,74,170
60186,0.32,-0.222,1.009,-13.992,-9.962,5.725,0,170
60249,0.29,-0.247,0.989,-8.397,-4.954,2.809,0,170
60310,0.287,-0.225,0.977,-10.443,-5.527,-1.939,0,170
60371,0.254,-0.249,1.008,-10.885,-6.557,-1.351,0,171
60434,0.282,-0.291,1.006,0.542,-5.191,3.038,0,171
60495,0.31,-0.255,0.988,8.84,-1.099,1.206,0,171
60557,0.29,-0.188,0.952,3.282,-1.58,-4.061,0,171
60618,0.291,-0.18,0.971,-5.817,-4.511,-0.977,0,171
60674,0.298,-0.222,1,-6.443,-3.534,-2.26,73,171
60731,0.305,-0.245,0.976,-3.198,-3.107,-0.412,71,171
60792,0.292,-0.261,0.976,-1.733,-2.939,-0.237,0,171
60855,0.291,-0.285,0.981,-1,-0.947,-1.069,0,171
60909,0.305,-0.234,0.993,2.931,-2.725,-0.748,71,170
60971,0.322,-0.282,1.03,7.313,-0.29,-1.137,0,171
61033,0.297,-0.248,1.009,17.977,0.328,-6.153,0,172
61094,0.312,-0.287,1.118,26.344,-3.672,-6.916,0,171
61193,0.234,-0.239,1.219,28.45,-0.069,-35.092,72,173
61256,0.237,-0.247,1.163,29.366,-17.824,-35.504,0,0
61322,0.308,-0.18,1.107,24.947,-54.809,-40.328,178,0
61385,0.374,-0.136,1.005,13.076,-68.061,-58.366,0,0
61448,0.507,-0.196,0.868,20.786,-70.382,-54.252,0,173
61509,0.617,-0.132,0.796,28.145,-57.359,-52.298,0,174
61569,0.647,-0.011,0.631,39.672,-46.588,-57.305,119,0
61623,0.654,0.086,0.532,46.656,-29.786,-55.198,38,0
61680,0.705,0.203,0.503,53.779,-8.26,-55.076,95,0
61739,0.702,0.263,0.403,62.756,21.244,-52.908,101,0
61787,0.545,0.376,0.544,57.282,44.031,-51.824,30,98
61838,0.497,0.398,0.52,61.542,23.496,-68.351,37,92
61885,0.449,0.614,0.608,55.847,30.229,-83.282,28,87
61932,0.376,0.738,0.536,56.313,67.206,-87.038,27,82
61979,0.088,0.883,0.55,59.901,73.649,-79.13,29,78
62025,-0.009,0.906,0.586,62.267,33.267,-73.809,31,74
62071,0.087,0.99,0.426,42.305,30.496,-60.916,31,56
62116,-0.03,1.016,0.437,15.672,50.275,-48.519,32,52
62167,-0.071,1.028,0.521,-18.45,66.366,-43.076,119,51
62216,-0.134,0.834,0.652,-27.511,76.71,-37.435,37,44
62261,0.155,0.883,0.469,-13.252,145.443,-21.985,37,41
62306,-0.506,0.788,0.877,6.427,137.389,-14.611,40,37
62352,-0.505,0.81,0.8,21.313,93.084,-13.351,43,36
62397,-0.436,0.781,0.664,19.176,53.916,-20.588,43,35
62442,-0.401,0.75,0.612,4.435,39.42,-23.733,46,34
62487,-0.368,0.687,0.564,-5.84,46.695,-24.092,42,32
62532,-0.422,0.66,0.561,-11.023,44.573,-26.947,45,34
62578,-0.492,0.646,0.602,-14.992,29.908,-30.985,51,32
62627,-0.502,0.687,0.608,-23.763,32.679,-30.221,16,78
62673,-0.534,0.685,0.632,-18.58,32.718,-32.328,16,72
62720,-0.565,0.659,0.631,-6.588,45.229,-29.45,17,71
62772,-0.677,0.68,0.645,-2.481,55.901,-21.466,132,68
62823,-0.765,0.745,0.602,-7.588,55.618,-5.107,110,67
62875,-0.867,0.697,0.66,-8.786,25.405,4.458,130,73
62928,-0.733,0.729,0.634,-13.13,-14.687,7.87,144,67
62981,-0.543,0.656,0.533,-12.992,-12.878,8.13,132,68
63034,-0.51,0.654,0.552,-15.328,10.947,5.282,143,80
63089,-0.542,0.613,0.567,-20.573,6.191,-4.214,123,68
63142,-0.526,0.625,0.546,-29.519,1.099,-19.42,142,67
63196,-0.607,0.538,0.565,-30.076,5.74,-25.962,144,67
63248,-0.686,0.539,0.583,-19.618,6.519,-17.908,130,66
63300,-0.718,0.574,0.615,-16.305,5.328,-12.916,127,78
63354,-0.727,0.575,0.638,-19.679,-2.023,-7.275,147,68
63407,-0.739,0.548,0.637,-24.626,-8.038,1.122,144,65
63459,-0.694,0.485,0.755,-25.71,-18.443,-2.931,126,66
63511,-0.544,0.455,0.666,-12.901,-19.977,-3.603,126,66
63566,-0.589,0.488,0.606,-10.26,11.603,-5.214,127,66
63619,-0.676,0.475,0.647,-11.817,3.71,-10.397,128,66
63671,-0.633,0.482,0.589,-11.229,-7.443,-9.733,128,66
63724,-0.65,0.457,0.652,-7.412,5.237,-3.557,145,67
63820,-0.694,0.446,0.694,-0.649,2.435,0.84,145,66
63874,-0.685,0.417,0.703,-0.824,-7.244,1.084,145,68
63933,-0.637,0.454,0.656,-0.046,-5.969,0.58,145,66
63985,-0.647,0.462,0.656,-0.626,-3.359,0.084,145,69
64037,-0.663,0.436,0.675,1.13,-1.389,2.55,144,65
64092,-0.626,0.449,0.655,1.244,-4.107,1.198,145,66
64144,-0.652,0.46,0.673,0.076,1.275,0.718,144,66
64196,-0.664,0.446,0.669,1.649,-0.153,2.046,144,66
64248,-0.639,0.448,0.665,3.237,-0.023,2.214,145,68
64302,-0.634,0.456,0.674,2.099,-0.061,0.16,145,81
64354,-0.649,0.452,0.667,1.931,1.832,0.191,145,66
64406,-0.623,0.42,0.677,4.87,1.16,2.145,144,67
64457,-0.617,0.421,0.7,8.916,5.573,3.565,144,65
64508,-0.642,0.395,0.711,14.099,-1.267,-3.435,129,65
64563,-0.622,0.402,0.669,16.87,-14.382,-12.786,129,66
64614,-0.595,0.393,0.65,17.298,-17.473,-19.191,126,64
64665,-0.604,0.42,0.635,16.664,-17.053,-28.137,134,62
64716,-0.665,0.438,0.683,13.87,-34.031,-42.214,129,61
64768,-0.597,0.469,0.612,2.58,-38.992,-46.435,130,60
64820,-0.647,0.437,0.613,-9.458,-19.771,-48.573,145,59
64874,-0.799,0.415,0.705,-12.878,-20.779,-42.786,0,58
64926,-0.756,0.432,0.708,-12.282,-35.809,-32.198,146,57
64974,-0.694,0.396,0.753,-15.557,-41.763,-25.198,16,57
65027,-0.603,0.337,0.715,-14.206,-32.412,-21.061,164,57
65082,-0.562,0.284,0.765,-14.42,-7.053,-12.969,0,57
65126,-0.6,0.251,0.817,-13.084,12.137,-8.824,16,57
65171,-0.651,0.209,0.858,-8.42,5.786,-9.74,16,57
65215,-0.644,0.209,0.863,-2.504,-1.595,-7.71,16,57
65259,-0.628,0.228,0.849,2.305,0.893,-5.664,16,57
65309,-0.665,0.22,0.879,6.756,5.13,-2.695,109,57
65362,-0.681,0.235,0.863,14.947,6.382,2.588,175,56
65410,-0.671,0.235,0.788,19,2.489,8.053,16,57
65463,-0.637,0.266,0.738,16.198,-4.115,8.748,164,57
65507,-0.596,0.281,0.696,8.046,-6.947,6.565,16,57
65551,-0.591,0.299,0.702,3.573,-2.237,7.366,16,57
65596,-0.635,0.33,0.74,0.931,4.992,6.046,16,57
65648,-0.688,0.32,0.783,-1.313,3.412,9.389,161,57
65693,-0.713,0.302,0.807,3.611,-2.046,19.412,16,58
65745,-0.666,0.324,0.798,6.672,-4.221,23.947,161,58
65790,-0.616,0.366,0.753,3.817,-7.443,22.74,17,58
65846,-0.551,0.366,0.731,-4.084,-4.092,20.779,155,60
65891,-0.539,0.338,0.752,-8.389,-2.237,16.489,16,60
65935,-0.55,0.329,0.768,-8.725,-4.847,11.779,16,60
65986,-0.528,0.322,0.781,-5.817,-3.679,8.191,135,51
66031,-0.517,0.332,0.789,-1.679,5.481,2.71,16,60
66075,-0.572,0.337,0.839,-1,9.191,0.519,16,59
66120,-0.614,0.318,0.869,3.992,7.87,1.962,16,60
66164,-0.638,0.323,0.866,9.374,2.779,2.847,17,60
66209,-0.63,0.354,0.844,13.45,0.466,5.252,16,60
66253,-0.636,0.375,0.808,14.183,0.206,7.87,17,51
66344,-0.575,0.429,0.691,9.679,-11.649,7.374,17,61
66388,-0.546,0.424,0.686,5.107,-9.221,7.656,17,62
66434,-0.528,0.418,0.694,3.588,-3.763,5.924,12,62
66478,-0.541,0.437,0.71,2.237,1.878,4.954,11,63
66523,-0.558,0.438,0.726,0.649,4.42,5.817,13,62
66568,-0.558,0.436,0.749,0.962,4.847,6.046,16,62
66612,-0.559,0.446,0.759,-1.061,7.74,5.305,17,63
66657,-0.588,0.45,0.772,-2.962,5.206,4.634,17,63
66702,-0.599,0.434,0.773,-1.275,0.099,4.802,17,63
66750,-0.574,0.418,0.763,0.214,0.817,6.397,16,62
66795,-0.585,0.421,0.771,1.611,1.45,7.534,16,62
66839,-0.553,0.431,0.788,3.145,-1.534,6.29,17,63
66884,-0.549,0.426,0.767,2.878,-1.168,4.046,17,62
66929,-0.57,0.437,0.764,3.183,0.954,3.397,19,64
66974,-0.572,0.436,0.777,6.252,-1.382,4.611,16,63
67018,-0.571,0.45,0.769,8.931,-1.053,3.977,16,51
67063,-0.556,0.46,0.722,8.832,7.977,4.763,17,51
67107,-0.599,0.467,0.736,7.733,11.122,7.466,16,50
67154,-0.614,0.483,0.742,9.244,0.359,7.947,16,50
67198,-0.58,0.51,0.704,8.763,-7.87,7.649,16,51
67243,-0.541,0.521,0.684,7.252,-3.802,8.679,16,52
67288,-0.541,0.504,0.693,5.931,3.405,8.618,16,66
67334,-0.549,0.505,0.71,4.26,2.718,8.527,18,66
67378,-0.544,0.511,0.703,2.916,0.893,7.206,17,53
67422,-0.534,0.519,0.709,-0.74,-1.557,4.763,17,53
67468,-0.525,0.505,0.709,-1.313,-1.573,3.038,16,65
67512,-0.535,0.519,0.707,-1.947,-0.16,2.16,16,52
67556,-0.539,0.511,0.716,-1.061,1.206,0.947,16,53
67604,-0.565,0.523,0.714,-0.221,1.893,2.13,16,53
67649,-0.564,0.518,0.727,0.771,0.214,3.099,16,65
67694,-0.546,0.518,0.738,1.702,-3.252,2.115,16,66
67738,-0.54,0.511,0.735,3.397,-1.565,-0.069,16,53
67784,-0.55,0.499,0.723,5,0.611,0.55,16,65
67828,-0.563,0.515,0.71,4.466,-0.656,0.565,17,52
67873,-0.559,0.533,0.698,2.359,-6.649,-0.878,17,66
67924,-0.533,0.537,0.687,2.076,-4.992,0.153,122,51
67969,-0.531,0.546,0.696,2.29,0.267,-0.008,17,51
68022,-0.556,0.54,0.703,4.122,1.015,1.931,122,51
68067,-0.564,0.538,0.716,3.87,0.527,4.412,16,51
68111,-0.556,0.548,0.716,3.901,-1.519,4.901,18,51
68156,-0.538,0.542,0.73,4,-2.382,3.916,16,51
68200,-0.533,0.533,0.729,5.412,-0.458,3.58,16,51
68244,-0.539,0.518,0.743,9,-0.824,4.42,16,51
68289,-0.532,0.521,0.75,16.481,-0.351,5.55,17,52
68334,-0.539,0.547,0.821,29.611,4.16,8.473,16,66
68380,-0.559,0.563,0.805,46.588,9.038,10.336,17,68
68428,-0.61,0.585,0.74,59.061,13.092,14.977,17,67
68474,-0.656,0.638,0.731,63.427,0.908,22.519,16,68
68519,-0.626,0.698,0.684,73.557,-10.084,28.702,16,68
68566,-0.659,0.743,0.645,88.237,-21.351,34.87,17,70
68654,-0.545,0.978,0.384,60.13,-28.313,51.374,50,30
68699,-0.55,0.981,0.386,40.496,-17.298,64.115,45,31
68745,-0.544,0.965,0.451,38.099,-25.511,74.588,42,34
68790,-0.468,0.985,0.421,40.611,-44.29,79.313,45,35
68835,-0.393,1.078,0.321,31.427,-53.634,78.969,39,37
68884,-0.271,1.14,0.162,8.351,-49.107,64.313,37,43
68929,-0.221,1.118,0.151,-21.336,-51.122,57.55,36,47
68980,-0.088,1.021,0.097,-33.443,-58.427,43.031,130,51
69026,-0.06,0.929,0.192,-41.832,-52.29,22.718,37,57
69079,0.097,0.869,0.098,-41.832,-40.321,11.099,123,60
69130,0.076,0.859,0.15,-45.962,-18.053,7.252,113,76
69181,0.013,0.802,0.306,-54.443,-31.55,8.313,107,80
69232,0.227,0.72,0.173,-51.679,-38.267,13.176,96,84
69283,0.425,0.822,0.193,-63.962,-2.176,19.099,92,88
69339,0.376,0.601,0.363,-87.298,14.641,19.908,87,91
69390,0.53,0.526,0.371,-67.817,57.618,18.756,89,94
69441,0.326,0.563,0.609,-78.74,92.023,4.069,86,95
69492,0.124,0.447,0.798,-84.076,87.275,-12.534,89,96
69543,0.013,0.472,0.828,-78.985,74.718,-22.71,82,96
69595,-0.15,0.362,1.053,-94.038,23.58,-23.153,87,98
69647,0.034,0.27,0.949,-72.969,32.481,-10.351,89,99
69699,-0.202,0.208,1.168,-94.122,19.153,-10.84,89,116
69747,-0.213,0.024,1.114,-71.031,12.595,-30.183,92,18
69797,-0.316,0.23,1.179,-72.527,-7.603,-33.153,86,19
69844,-0.353,0.105,1.304,-76.26,-51.13,-14.947,90,17
69891,-0.113,0.038,1.161,-44.031,-38.466,-10.168,72,16
69937,-0.066,0.093,1.106,-45.611,2.947,-8.725,72,16
69983,-0.144,0.043,1.081,-48.87,-3.802,-5.031,71,17
70029,-0.014,0.075,1.133,-45.191,-20.519,-6.496,70,16
70081,0.106,-0.034,1.066,-34.718,14.389,-9.481,69,16
70126,-0.103,-0.105,1.09,-28.817,45.954,-4.527,71,17
70173,-0.191,-0.101,1.118,-18.496,35.336,-10.267,70,16
70218,-0.224,-0.092,1.118,-11.954,7.374,-16.267,71,14
70263,-0.155,-0.099,1.075,-6.031,-8.008,-20.527,71,14
70308,-0.236,-0.065,1.038,-2.244,7.351,-19.412,71,12
70353,-0.328,-0.087,1.088,7.099,13.084,-5.336,71,13
70397,-0.293,-0.072,1.079,10.908,-2.046,2.573,71,13
70443,-0.249,-0.021,1.083,8.954,-25.061,0.221,71,13
70488,-0.062,-0.003,0.929,6.771,-26.565,1.733,71,13
70533,-0.081,-0.037,0.989,-0.351,-11.137,2.985,71,15
70580,-0.089,-0.096,1.082,-0.275,-15.87,-0.679,70,14
70625,-0.056,-0.112,1.102,4.221,-15.336,-4.557,70,14
70670,-0.095,-0.122,1.12,15.076,3.794,-0.649,70,16
70715,-0.148,-0.088,1.071,22.985,0.954,-3.687,70,14
70760,-0.132,-0.019,1.041,26.031,-5.481,-1.473,70,15
70805,-0.095,0.024,0.994,19.252,-2.473,-0.069,70,14
70850,-0.117,0.073,0.999,14.756,-12.473,-0.763,71,15
70895,-0.058,0.068,0.993,6.206,-21.641,0.901,70,16
70940,-0.015,0.072,0.993,-2.351,-15.221,2.893,70,16
70987,0.008,0.053,1.006,-6.412,-1.16,5.511,71,16
71075,-0.077,0.021,1.053,-10.771,0.626,-0.557,70,16
71120,-0.073,0.002,1.046,-11.893,1.443,-0.58,70,15
71165,-0.097,-0.012,1.064,-9.786,0.252,-0.443,70,14
71211,-0.053,0.016,1.072,-3.954,-5.802,-4.649,70,14
71256,-0.072,-0.003,1.031,-7.107,7.389,-3.458,71,14
71301,-0.105,-0.004,1.059,-7.076,1.389,-2.916,70,15
71346,-0.089,-0.027,1.083,-8.557,-6.504,-1.985,70,15
71391,-0.05,-0.048,1.031,-9.992,-8.061,-2.527,69,15
71439,-0.094,-0.076,1.076,-6.855,-6.603,-0.824,70,15
71484,-0.104,-0.068,1.07,-4.237,-9.504,2.863,69,14
71529,-0.099,-0.062,1.093,-0.756,-15.794,3.565,69,17
71574,-0.029,-0.042,1.069,2.855,-23.397,1.45,69,15
71619,0.044,-0.025,1.002,1.244,-13,2.237,69,17
71664,0.011,-0.061,1.046,-0.939,-2.87,2.382,69,16
71709,0.005,-0.048,1.049,-0.947,-2.962,1.42,69,16
71754,-0.039,-0.056,1.084,0.252,-2.611,-0.519,69,16
71799,-0.016,-0.04,1.052,0.511,-6.74,0.443,68,17
71847,-0.012,-0.043,1.064,0.595,-8.924,1.214,69,16
71892,0.027,-0.031,1.048,-0.092,-7.947,0.573,68,16
71938,0.033,-0.04,1.046,-0.863,-2.321,1.107,68,16
71983,0.021,-0.05,1.051,-0.954,-0.031,1.351,68,16
72028,0.013,-0.059,1.055,-0.275,0.702,-2.198,68,16
72073,-0.011,-0.039,1.049,0.023,1.092,-0.42,68,16
72118,-0.009,-0.032,1.05,0.489,-4.16,-1.191,68,16
72163,0.002,-0.035,1.055,-0.824,-1.916,0.748,68,16
72208,0.015,-0.048,1.05,-0.275,-4.878,1.496,68,16
72256,0.027,-0.042,1.04,-0.802,-0.847,0.435,69,16
72301,-0.002,-0.064,1.068,-0.603,-1.412,0.504,68,16
72346,-0.004,-0.074,1.079,0.931,-5.298,1.069,68,16
72391,0.01,-0.053,1.055,1.939,-8.756,-0.718,68,17
72436,0.035,-0.034,1.035,1.832,-6.237,-1.206,68,17
72481,0.049,-0.037,1.036,0.504,-1.489,-0.328,69,17
72527,0.022,-0.029,1.05,-0.74,1.954,-0.214,68,17
72572,-0.003,-0.043,1.051,-1.656,-0.763,-0.191,69,17
72617,0.027,-0.056,1.069,-1.618,-4.695,0.947,68,17
72666,0.03,-0.085,1.061,-0.298,-3.557,-0.275,68,17
72711,0.029,-0.039,1.056,1.527,-4.573,0.198,69,16
72756,0.063,-0.019,1.039,0.542,-1.824,1.405,68,16
72801,0.032,-0.051,1.035,-0.649,3.496,0.847,68,16
72847,0.025,-0.062,1.063,-0.992,1.092,1.176,68,17
72892,0.013,-0.078,1.075,1.122,0.656,-0.519,68,17
72937,0.01,-0.032,1.058,1.855,-3.618,0.603,68,17
72982,0.031,-0.041,1.045,0.405,-2.313,2.115,68,16
73027,0.032,-0.032,1.06,1.565,-4.435,2.229,69,16
73072,0.05,-0.034,1.038,-0.038,-2.382,0.687,68,16
73121,0.024,-0.075,1.077,-0.412,0.344,1.328,67,16
73166,0.02,-0.06,1.073,1.916,-2,0.252,67,16
73211,0.032,-0.054,1.054,3,-4.55,1.282,68,17
73256,0.035,-0.063,1.067,1.985,-4.374,0.229,68,17
73302,0.035,-0.047,1.052,4.618,-6.008,1.252,68,17
73391,0.075,-0.01,1.039,2.405,-6.885,2.008,68,16
73436,0.073,-0.029,1.037,-0.168,-1.328,1.183,69,17
73481,0.051,-0.028,1.049,-0.13,-1.374,1.389,68,17
73527,0.048,-0.038,1.069,0.336,-1.672,0.534,69,17
73575,0.047,-0.028,1.078,1.901,-3.229,1.435,68,17
73620,0.066,-0.034,1.036,1.427,-2.733,0.473,68,17
73665,0.054,-0.02,1.048,-0.153,0.015,0.573,68,17
73711,0.057,-0.005,1.043,-0.107,-2.252,0.893,68,18
73756,0.064,-0.032,1.051,-1.519,-0.55,0.282,68,18
73801,0.057,-0.035,1.061,-0.878,-0.198,0.779,68,16
73847,0.052,-0.041,1.067,-0.099,-0.702,0.137,68,18
73892,0.049,-0.036,1.059,0.641,-2.641,0.176,68,16
73937,0.047,-0.048,1.06,1.13,-2.115,0.137,68,16
73987,0.062,-0.029,1.051,2.076,-3.13,0.992,68,16
74032,0.053,-0.009,1.05,0.496,-3.931,0.695,68,16
74077,0.066,-0.021,1.038,0.298,-5.321,0.985,68,16
74123,0.081,-0.032,1.052,-0.183,-3.137,-0.252,68,16
74168,0.07,-0.03,1.058,0.389,-1.107,-0.267,68,16
74213,0.065,-0.036,1.06,-0.076,-2.641,-0.542,67,16
74259,0.066,-0.025,1.055,0.595,-3.328,-0.237,67,16
74304,0.073,-0.019,1.04,0.099,-2.664,-0.206,68,16
74349,0.077,-0.016,1.041,-0.389,-1.389,0.374,68,16
74398,0.079,-0.026,1.055,-0.29,-0.45,0.496,67,16
74443,0.053,-0.045,1.062,0.397,-2.397,-0.267,68,16
74489,0.075,-0.013,1.05,0.977,-4.42,0.031,68,17
74534,0.074,-0.028,1.056,-0.366,-2.244,0.26,68,17
74580,0.066,-0.045,1.063,0.542,-4.168,0.328,67,17
74626,0.077,-0.028,1.066,1.069,-4.489,0.679,67,17
74671,0.094,-0.009,1.047,1.466,-5.427,-0.099,68,16
74717,0.099,-0.014,1.039,0.023,-0.908,-0.282,68,17
74762,0.085,-0.046,1.067,-1.046,-1.992,0.656,67,17
74808,0.099,-0.035,1.069,1.008,-0.015,0.756,67,17
74856,0.088,-0.012,1.04,-0.237,0.527,-0.824,68,17
74902,0.058,-0.032,1.082,-0.947,0.069,0.16,67,17
74947,0.07,-0.044,1.075,1.145,-4.924,-0.45,68,17
74993,0.088,-0.034,1.064,2.802,-4.931,0.611,67,16
75038,0.093,0,1.051,3.351,-4.718,0.756,67,16
75084,0.12,0.002,1.012,1.313,-4.252,0.359,67,16
75129,0.13,-0.001,1.018,-2.969,3.076,0.382,67,16
75175,0.085,-0.033,1.075,-3.611,3.649,-0.519,67,16
75220,0.082,-0.029,1.068,-2.458,2.099,-0.046,67,16
75270,0.068,-0.027,1.076,0.519,-2.427,0.573,67,16
75315,0.101,-0.024,1.044,0.16,-2.107,0.656,67,16
75361,0.096,-0.016,1.038,0.405,-2.351,1.527,67,17
75406,0.106,-0.031,1.03,-1.939,1.855,0.718,67,16
75452,0.074,-0.046,1.074,-2.84,0.618,0.16,67,16
75497,0.086,-0.034,1.06,-1.145,-1.458,0.237,67,16
75543,0.085,-0.021,1.055,-0.206,-1.298,0.008,67,16
75589,0.075,-0.02,1.058,0.29,-2.29,1.153,67,17
75634,0.09,-0.032,1.039,-0.313,-2.473,0.58,67,16
75726,0.089,-0.028,1.047,-1.527,-2.802,0.718,67,17
75772,0.092,-0.038,1.053,-1.901,-3.496,0.061,67,17
75819,0.08,-0.034,1.034,-1.466,-3.687,0.847,67,17
75864,0.077,-0.031,1.053,-1.649,-7.313,1.061,67,17
75910,0.105,-0.013,1.041,-0.557,-8.931,1.374,67,16
75956,0.112,-0.034,1.034,-2.863,-5.702,0.58,68,16
76007,0.115,-0.045,1.052,-3.153,-4.924,1.038,67,17
76052,0.1,-0.056,1.044,-3.359,-6.122,0.573,67,17
76096,0.108,-0.032,1.052,-3.557,-7.58,1.687,66,18
76144,0.13,-0.043,1.034,-3.275,-9.298,2.87,67,17
76188,0.126,-0.056,1.052,-3.183,-8.695,1.672,66,18
76233,0.158,-0.054,1.048,-1.702,-8.878,2.023,65,18
76278,0.16,-0.073,1.044,-2.618,-4.397,1.511,65,21
76322,0.145,-0.061,1.047,-3.031,-3.29,-0.382,66,18
76367,0.136,-0.053,1.051,-2.695,-5.702,-0.122,66,18
76412,0.133,-0.063,1.059,-3.221,-8.603,0.168,66,22
76457,0.142,-0.07,1.06,-1.366,-13.618,1.336,65,18
76503,0.177,-0.068,1.037,-0.809,-15.947,0.405,66,21
76550,0.202,-0.066,1.032,-1.435,-14.405,-0.061,64,20
76601,0.237,-0.077,1.037,-1.374,-10.359,-0.023,64,120
76646,0.238,-0.061,1.021,-0.733,-2.084,-0.023,64,20
76690,0.215,-0.078,1.031,-0.504,-0.519,-0.389,64,20
76735,0.218,-0.057,1.016,-0.427,1.626,0.519,64,20
76780,0.215,-0.076,1.039,0.382,3,0.832,64,22
76825,0.243,-0.072,1.033,2.412,9.71,1.168,64,23
76870,0.213,-0.081,1.03,5.405,19.359,3.527,64,20
76915,0.214,-0.039,1.026,6.595,30.229,12.046,65,19
76962,0.179,0.018,1.027,2.359,27.122,7.527,65,19
77007,0.061,-0.073,1.1,1.664,30.389,-4.427,66,19
77052,0.01,-0.054,1.048,-0.863,13.191,-5.122,66,18
77097,0.008,-0.031,1.015,-4.542,14.366,0.252,77,18
77140,-0.002,-0.02,1.026,-8.55,10.924,8.198,20,18
77189,0.06,-0.064,1.07,-5.817,7.679,15.641,30,117
77238,0.118,-0.092,1.086,-2.733,13.023,15,37,118
77281,0.142,-0.077,1.036,-1.702,23.824,6.534,38,18
77325,0.03,-0.127,1.045,-2.252,39.534,4.031,43,17
77372,-0.098,-0.143,1.106,-1.298,19.786,-1.756,45,19
77417,-0.02,-0.084,1.046,-0.84,1.053,-2.053,67,17
77462,-0.016,-0.083,1.029,-1.137,9.863,-1.511,67,18
77507,-0.088,-0.078,1.076,-0.832,6.817,-4.282,67,17
77552,-0.096,-0.105,1.055,1.084,-5.344,-2.191,67,19
77597,-0.071,-0.094,1.048,1.588,-6.656,1.275,68,18
77642,-0.064,-0.086,1.054,3.87,-13.015,3.115,68,17
77687,-0.025,-0.056,1.057,1.137,-12.344,3.015,67,17
77732,-0.017,-0.083,1.035,4.29,-15.023,2.779,68,18
77780,0.042,-0.073,1.042,4.809,-1.695,2.695,69,17
77826,-0.056,-0.106,1.137,14.374,-0.191,6.954,68,17
77871,-0.063,-0.101,1.204,21.305,-1.634,11.206,67,18
77916,-0.108,-0.123,1.25,36.313,-8.481,14.824,68,18
77962,-0.082,-0.063,1.259,53.466,6.947,21.015,68,30
78057,-0.195,-0.05,1.29,66.672,2.947,49.847,93,120
78105,-0.188,-0.035,1.244,77.023,-32.832,62.511,83,37
78157,-0.038,0.011,1.15,86.191,-48.573,78.809,87,123
78211,0.013,0.036,1.111,91.595,-44.931,77.328,93,125
78264,0.038,0.105,0.948,95.954,-53.275,93.695,39,147
78316,0.087,0.16,0.909,100.313,-58.901,103.473,37,158
78370,0.169,0.222,0.793,104.42,-76.153,106.42,39,0
78425,0.298,0.23,0.572,100.618,-81.42,107.481,36,0
78477,0.554,0.301,0.402,89.748,-88.061,107.359,18,0
78530,0.724,0.334,0.345,73.198,-84.405,99.061,16,0
78583,0.853,0.353,0.316,61.74,-75.038,77.649,18,0
78633,0.842,0.382,0.319,58.519,-78.344,65.504,17,158
78690,0.832,0.382,0.197,61.977,-76.092,59.916,110,161
78748,0.922,0.422,0.089,65.397,-65.962,58.847,97,162
78800,0.987,0.394,-0.01,60.344,-53.061,62.107,42,164
78856,0.96,0.35,-0.012,49.603,-45.237,67.634,89,166
78911,1.003,0.278,-0.033,31.634,-57.824,68.008,86,169
78961,1.078,0.182,-0.101,20.931,-55.702,58.282,37,138
79014,1.144,0.152,-0.109,11.221,-29.45,49.481,82,139
79068,1.11,0.13,-0.075,8.412,-18.733,32.718,80,140
79121,1.065,0.145,-0.11,1.435,-18.992,25.198,79,140
79174,1.029,0.169,-0.121,-4.618,-19.916,27.069,78,141
79240,1.021,0.073,-0.077,-5.435,-14.405,36.252,77,143
79295,1.034,0.028,-0.046,5.702,-23.954,32.969,76,143
79350,1.131,0.024,-0.147,7.878,-8.573,27.443,76,144
79407,1.031,-0.05,-0.11,5.466,3.145,18.618,75,144
79462,1.014,-0.025,-0.125,4.267,-0.313,14.901,74,144
79517,1.027,-0.043,-0.125,-1.176,0.374,13.374,74,144
79574,1.038,-0.081,-0.145,-8.176,9.366,13.198,75,145
79626,0.997,-0.109,-0.13,-11.771,13.733,10.038,16,145
79681,1.033,-0.133,-0.025,-6.969,7.634,5.084,75,145
79739,0.962,-0.132,0.018,1.153,3.748,4.786,74,145
79796,0.996,-0.118,-0.067,2.565,-10.115,6.229,74,145
79851,1.034,-0.114,-0.09,0.595,-2.802,3.435,74,145
79907,0.98,-0.14,-0.036,-0.405,6.634,3.008,74,145
79963,0.963,-0.099,-0.027,1.42,-2.74,2.252,74,145
80018,0.951,-0.135,-0.016,2.252,-7.206,6.107,75,145
80074,1.001,-0.129,-0.088,5.679,-16.611,5.015,74,145
80130,0.982,-0.162,-0.077,4.275,-7.992,7.252,74,145
80185,1.013,-0.154,-0.089,8.206,-11.13,4.176,74,146
80244,0.958,-0.141,-0.083,8.733,-4.718,4.924,73,146
80296,0.999,-0.151,-0.116,5.481,-13.664,2.71,16,146
80349,1.013,-0.17,-0.114,2.145,-5.076,0.84,16,146
80401,0.963,-0.173,-0.109,1.115,-7.344,-1.313,16,146
80457,0.992,-0.14,-0.13,2.779,-8.794,-0.557,73,146
80513,0.958,-0.157,-0.122,4.634,-8.321,3.458,73,146
80569,0.95,-0.15,-0.138,7.802,-13.252,5.901,73,147
80624,0.968,-0.134,-0.114,9.771,-16.435,8.992,72,147
80680,0.97,-0.153,-0.125,8.832,-20.427,8.053,72,147
80739,0.958,-0.151,-0.147,4.702,-20.947,7.13,71,148