Timestamp(ms),AccelX(g),AccelY(g),AccelZ(g),GyroX(deg/s),GyroY(deg/s),GyroZ(deg/s),DistanceLeft(cm),DistanceRight(cm)
60797,0.158,0.646,0.837,2.786,-2.924,1.137,84,64
60845,0.206,0.639,0.821,2.702,-0.13,0.847,58,66
60892,0.178,0.642,0.827,2.634,3.893,0.298,46,66
60939,0.165,0.661,0.821,2.504,-3.695,-0.573,79,57
60986,0.2,0.667,0.81,0.458,-0.359,-0.122,49,63
61032,0.193,0.67,0.794,-1.725,4.847,-0.145,56,58
61079,0.161,0.677,0.813,-3.397,0.924,-1.573,52,65
61126,0.191,0.659,0.815,-6.16,6.802,-2.435,53,65
61178,0.14,0.642,0.843,-7.87,9.901,-1.412,91,65
61228,0.156,0.632,0.836,-7.786,0.702,-2.718,92,65
61278,0.159,0.624,0.857,-6.122,-0.595,-2.954,112,65
61326,0.149,0.628,0.853,-5.443,5.061,-3.038,87,65
61376,0.131,0.633,0.877,-5.267,1.092,-4.076,113,64
61425,0.127,0.637,0.85,-5.977,1.122,-4.893,87,64
61471,0.102,0.628,0.885,-7.45,-4.176,-4.382,44,53
61520,0.128,0.626,0.825,-9.046,3.763,-0.84,97,63
61568,0.081,0.647,0.896,-8.71,6.214,1.893,51,64
61619,0.137,0.632,0.874,-8.641,4.366,3.893,101,54
61668,0.135,0.602,0.861,-10.763,13.061,3.992,101,51
61714,0.062,0.556,0.89,-10.435,10.58,4.336,50,51
61762,0.084,0.564,0.908,-8.496,-2.992,5.237,69,57
61812,0.138,0.588,0.891,-11.443,-5.84,7.969,113,64
61859,0.068,0.57,0.87,-12.557,4.786,10.221,58,63
61906,0.06,0.554,0.904,-7.748,-12.962,9.145,58,63
61955,0.165,0.545,0.892,-0.061,-15.679,9.107,71,65
62002,0.189,0.543,0.876,3.023,-1.122,14.107,61,64
62055,0.159,0.555,0.906,2.634,-0.802,12.046,110,59
62102,0.156,0.575,0.905,-2.588,-1.031,9.756,59,58
62149,0.156,0.598,0.889,-9.183,0.832,7.779,66,61
62196,0.151,0.636,0.888,-13.427,-0.351,7.221,59,68
62245,0.134,0.623,0.857,-25.366,10.069,5.626,74,69
62295,0.14,0.544,0.958,-23.542,5.733,-1.756,108,59
62343,0.106,0.48,1,-8.061,14.969,-0.038,58,62
62391,0.051,0.443,1.035,2.176,-8.588,5.466,69,69
62438,0.14,0.465,0.967,6.26,-18.26,11.802,65,65
62488,0.192,0.469,0.918,9.511,-3.824,16.511,51,72
62539,0.205,0.445,0.918,13.435,-7.649,17.298,107,74
62586,0.225,0.488,0.888,15.664,-10.763,16.802,57,58
62633,0.263,0.517,0.876,12.458,-16.847,12.779,58,57
62681,0.292,0.56,0.846,7.557,-9.046,7.183,57,64
62730,0.311,0.603,0.805,-3.092,-5.649,0.275,72,76
62779,0.32,0.535,0.798,-10.779,-3.046,-1.84,101,58
62826,0.288,0.476,0.838,-11.962,1.527,0.351,56,60
62873,0.26,0.458,0.866,-9.863,-2.397,3.481,51,77
62921,0.272,0.475,0.872,-7.626,-8.908,4.832,55,67
62974,0.298,0.507,0.881,-7.641,-2.244,2.023,100,77
63024,0.282,0.529,0.895,-10.55,3.137,-0.145,98,50
63071,0.259,0.507,0.952,-12.313,0.534,-2.145,58,72
63121,0.279,0.492,0.941,-11.649,-2.664,-3.29,100,69
63172,0.208,0.407,0.972,-7.198,-3.84,-5.588,100,76
63265,0.225,0.469,0.996,10.84,2.099,-5.023,101,76
63311,0.185,0.509,0.954,9.511,-0.252,-4.122,56,45
63360,0.208,0.503,0.897,4.496,-6.573,-1.74,69,65
63408,0.22,0.516,0.885,4.87,-1.71,2.298,67,76
63458,0.259,0.516,0.796,0.252,-5.031,4.229,57,58
63506,0.298,0.479,0.831,1.947,-1.618,2.565,79,59
63553,0.206,0.473,0.959,7.099,8.244,3.908,51,51
63600,0.167,0.493,0.93,5.931,6.473,10.023,54,76
63648,0.154,0.497,0.832,5.244,2.389,17.794,54,76
63696,0.125,0.517,0.839,7.511,8.405,28.672,52,76
63744,0.117,0.542,0.843,3.557,3.527,45.229,52,78
63792,0.2,0.557,0.784,0.481,12.244,60.939,50,78
63839,0.179,0.539,0.874,-8.931,15.344,72.374,48,66
63889,0.222,0.48,0.907,-16.603,14.237,79.977,46,67
63937,0.322,0.41,0.895,-20.237,14.458,80.412,43,83
63984,0.384,0.359,0.945,-22.023,23.55,76.427,43,84
64032,0.417,0.302,0.948,-26.214,35.847,71.954,42,87
64080,0.366,0.248,1.065,-27.771,25.771,62.519,39,88
64129,0.381,0.202,1.044,-27.863,15.756,54.656,38,89
64183,0.367,0.157,1.043,-20.863,7.351,45.672,38,0
64228,0.365,0.222,1.001,-17.061,4.351,33.55,37,52
64282,0.392,0.211,1.014,-18.221,13.298,27.969,38,0
64340,0.336,0.176,0.967,-21.695,15.618,24.687,50,0
64388,0.33,0.146,1.002,-22.924,12.817,17.267,50,58
64443,0.335,0.127,1.063,-23.878,14.168,11.847,50,0
64492,0.312,0.103,1.045,-23.344,11.031,7.275,50,113
64543,0.218,0.048,1.056,-19.595,5.344,3.061,51,122
64589,0.255,0.03,1.094,-11.55,-3.267,-0.634,37,58
64644,0.291,0.032,1.077,-3.252,-4.565,-1.229,37,0
64693,0.255,0.064,1.037,-1.496,-1.389,0.366,37,113
64748,0.228,0.057,1.036,-2.962,-10.031,2.206,50,0
64805,0.272,0.069,1.011,-2.718,-16.634,2.542,50,0
64861,0.313,0.043,1.019,-1.443,-12.252,3.824,51,0
64916,0.328,0.046,1.042,-0.802,-7.122,0.863,50,0
64971,0.303,0.057,1.021,-1.489,-7.328,-0.115,51,0
65027,0.309,0.06,1.011,-0.336,-11.817,1.618,50,0
65082,0.356,0.053,0.996,3.298,-11.496,1.962,51,0
65136,0.382,0.074,0.984,3.099,-3.786,1.977,51,0
65188,0.343,0.064,0.988,0.321,0.519,0,51,148
65240,0.305,0.06,1.014,-3.107,1.397,-0.092,51,122
65286,0.319,0.038,1.022,-1.565,-5.817,0.099,51,58
65336,0.351,0.058,1.016,0.985,-8.473,1.443,51,62
65384,0.378,0.072,0.982,1.16,-6.45,2.397,51,77
65434,0.387,0.066,0.982,0.748,-2.237,0.931,51,113
65484,0.357,0.064,0.99,-2.122,0.55,-0.389,51,113
65540,0.346,0.04,1.002,-0.26,-2.779,0,51,0
65589,0.357,0.06,0.999,0.466,-1.565,0.931,51,99
65644,0.358,0.064,1.002,0.573,-3.366,-0.053,51,0
65699,0.362,0.06,0.99,0.221,-0.076,0.489,51,0
65748,0.352,0.059,1.001,-0.962,-0.71,0.26,51,106
65845,0.357,0.053,1.01,1.015,-1.008,0.153,51,110
65900,0.357,0.071,0.994,0.29,-1.908,0.107,51,0
65949,0.373,0.066,0.99,0.13,-1.527,-0.244,51,91
66004,0.351,0.063,0.996,-0.855,-0.046,-0.206,51,0
66060,0.352,0.055,0.98,0.313,-3.656,-0.542,51,0
66110,0.426,0.04,1.034,9.679,3.412,-4.427,51,113
66165,0.46,0.036,1.054,17.046,6.824,-13.214,52,0
66221,0.437,0.051,1.114,23.878,11.29,-23.252,50,0
66270,0.493,0.119,1.032,30.198,12.58,-37.137,50,98
66326,0.345,0.125,1.094,33.45,8.473,-49.473,51,160
66374,0.368,0.164,1.032,37.885,-10.573,-59.649,39,89
66422,0.355,0.23,0.97,36.092,-11.046,-66.794,41,86
66470,0.362,0.277,0.921,27.389,8.282,-72.992,43,75
66516,0.288,0.288,0.936,23.962,4.023,-75.252,45,44
66564,0.224,0.311,0.945,22.794,2.435,-75.427,45,64
66611,0.212,0.37,0.886,22.771,-8.321,-79.893,48,63
66659,0.164,0.397,0.921,18.794,-19.061,-79.733,51,77
66707,0.191,0.463,0.893,11.832,-16.702,-77.809,54,63
66756,0.102,0.461,0.87,0.153,9.626,-70.611,51,54
66807,-0.011,0.479,0.905,-4.427,11.664,-60.847,108,61
66859,-0.07,0.477,0.911,-4.649,0.321,-46.153,117,70
66910,-0.043,0.507,0.929,-2.763,-14.145,-31.214,108,69
66958,0.035,0.52,0.878,-0.817,-11.466,-18.145,51,69
67009,0.036,0.499,0.926,-0.664,0.71,-9.679,109,68
67060,0.054,0.483,0.941,0.687,8.817,-6.282,110,68
67118,0.054,0.472,0.962,-0.038,12.977,-7.458,107,64
67168,0.038,0.491,0.944,-0.435,10.939,-6.076,111,63
67220,0.02,0.455,0.975,3.771,-6.908,-3.824,111,68
67271,0.026,0.478,0.958,6.824,-12.107,-1.13,110,68
67317,0.072,0.507,0.906,4.344,-8.344,2.71,52,64
67367,0.067,0.5,0.905,3.168,-1.344,3.137,109,67
67418,0.083,0.509,0.974,5.107,-2.405,1.832,110,67
67468,0.097,0.531,0.839,-7.298,-0.649,2.603,109,64
67518,0.064,0.488,0.906,-6.733,7.947,0.74,109,67
67568,0.074,0.492,0.965,-0.672,0.588,-1.061,110,63
67618,0.081,0.516,0.987,1.695,2.924,-0.351,110,68
67668,0.036,0.469,0.972,0.443,-1.756,-1.137,110,61
67719,0.085,0.506,0.938,3.817,-0.885,-0.908,59,64
67769,0.057,0.481,0.938,5.855,1.603,-0.588,110,67
67819,0.031,0.502,0.922,4.298,-3.282,-0.977,110,67
67868,0.049,0.512,0.884,-1.267,-3.305,2.435,110,57
67918,0.042,0.522,0.908,-5.565,-1.992,2.557,109,64
67969,0.099,0.544,0.943,-4.382,-5.496,-1.58,110,63
68019,0.12,0.509,0.974,-2.16,5.718,-3.824,109,67
68069,0.08,0.479,0.975,-0.374,10.939,-9.206,110,58
68119,0.075,0.467,0.977,2.321,7.557,-10.977,108,64
68172,0.041,0.482,0.955,2.244,-0.954,-14,111,66
68222,0.049,0.508,0.905,0.992,0.435,-16.237,113,66
68273,0.006,0.511,0.922,-1.42,2.221,-15.893,113,65
68319,-0.046,0.498,0.909,-4,-0.191,-12.802,53,51
68413,-0.007,0.524,0.915,-4.893,1.344,-5.519,113,64
68463,-0.028,0.521,0.9,-6.611,12.931,-4.786,113,64
68513,-0.062,0.464,0.951,-6.366,7.191,-2.053,113,62
68560,-0.104,0.477,0.983,0.084,-1.122,0.786,51,64
68610,-0.114,0.477,1.019,3.756,-4.84,8.695,113,44
68663,-0.133,0.499,0.98,4.672,-14.275,19.504,113,64
68714,-0.088,0.523,0.938,4.977,-20.29,25.405,131,59
68761,-0.073,0.523,0.902,-0.008,-18.649,34.214,52,66
68812,-0.031,0.489,0.898,-3.389,-30.802,41.458,111,68
68862,0.167,0.52,0.876,-3.55,-33.58,38.87,110,70
68911,0.291,0.524,0.841,-9.947,-0.725,27.901,58,67
68958,0.193,0.464,0.908,-16,20.244,20.45,58,71
69006,0.12,0.397,0.982,-14.389,9.649,20.626,58,73
69053,0.136,0.375,0.98,-8.687,-10.58,21.344,57,62
69103,0.216,0.387,0.976,-4.443,-17.527,21.366,58,61
69150,0.255,0.413,0.979,-3.626,-7.115,20.221,58,62
69197,0.205,0.397,0.994,-3.107,-1.107,20.519,58,64
69245,0.226,0.416,0.959,1.71,-2.42,18.84,57,76
69297,0.234,0.399,0.968,2.748,-2.802,16.802,114,77
69344,0.282,0.405,0.943,2.641,-4.221,12.947,52,65
69391,0.274,0.417,0.96,3.824,-1.076,11.855,51,64
69439,0.242,0.412,0.952,2.16,-4.137,9.489,51,78
69486,0.242,0.349,0.962,2.634,-17.626,7.489,51,78
69537,0.354,0.425,0.861,-0.695,-11.74,2.908,51,78
69584,0.351,0.417,0.881,-2.244,13.435,1.679,51,78
69633,0.296,0.394,0.992,7.725,6.305,-2.87,51,78
69680,0.323,0.417,0.961,9.962,6.298,-7.748,51,77
69728,0.306,0.406,0.918,7.802,14.534,-9.328,51,77
69775,0.251,0.387,0.972,11.221,12.481,-12.389,54,64
69822,0.273,0.434,0.923,14.489,7.321,-20.008,53,66
69870,0.24,0.437,0.919,12.893,10.473,-23.26,58,73
69917,0.187,0.45,0.925,14.344,10.565,-23.878,53,60
69968,0.153,0.463,0.906,17.427,11.901,-23.817,58,71
70018,0.139,0.502,0.914,20.305,7.58,-22.42,95,69
70069,0.142,0.538,0.873,20.344,11.931,-25.931,110,67
70118,0.103,0.576,0.906,19.252,15.183,-31.427,88,58
70168,0.023,0.609,0.907,15.954,23.069,-38.565,108,65
70218,-0.04,0.606,0.86,12.58,23.916,-41.595,102,63
70268,-0.099,0.587,0.863,11.221,13.542,-38.702,118,61
70318,-0.106,0.638,0.834,6.321,4.84,-35.145,88,60
70368,-0.137,0.632,0.829,0.13,3.702,-30.008,107,60
70422,-0.15,0.615,0.819,-3.351,6,-26.29,122,58
70472,-0.171,0.631,0.824,-6.817,6.763,-24.153,123,57
70523,-0.161,0.59,0.843,-5.962,5.786,-19.443,127,56
70575,-0.2,0.596,0.894,-9.214,3.275,-13.221,129,56
70626,-0.185,0.563,0.91,-9.985,-2.992,-9.092,127,57
70677,-0.183,0.56,0.891,-6.969,2.244,-6.779,124,56
70728,-0.186,0.556,0.921,-7.344,-2.466,-4.305,124,55
70778,-0.158,0.552,0.938,-4.305,-2.13,-2.344,115,55
70825,-0.153,0.555,0.901,-3.214,-1.672,-1.679,57,55
70917,-0.166,0.551,0.918,-1.344,2.298,1.763,57,30
70966,-0.155,0.539,0.897,-0.595,-3.26,0.092,81,55
71013,-0.109,0.539,0.875,-0.237,-2.405,-0.008,76,47
71063,-0.149,0.549,0.888,-0.328,0.588,0.656,101,55
71109,-0.131,0.546,0.892,-0.336,-2.458,0.794,39,55
71159,-0.138,0.546,0.896,-1.382,1.802,-0.489,110,55
71209,-0.143,0.583,0.932,-1.206,1.985,-0.29,124,55
71259,-0.142,0.542,0.868,-4.641,1.603,-1.664,95,55
71308,-0.161,0.546,0.897,-0.977,-0.542,-2.588,109,39
71357,-0.175,0.541,0.958,2.176,-2.176,-1.481,38,55
71408,-0.167,0.529,0.906,0.771,-0.321,1.496,124,55
71459,-0.169,0.543,0.87,0.466,-5.649,3.534,123,55
71510,-0.126,0.556,0.867,-0.26,-5.168,1.221,115,55
71560,-0.152,0.562,0.856,-4.313,0.481,0.702,109,55
71610,-0.142,0.54,0.872,-6.527,-7.985,1.153,109,55
71660,-0.103,0.532,0.928,-4.069,-1.634,1.176,108,55
71709,-0.143,0.528,0.927,-3.107,4.588,-0.145,108,55
71759,-0.158,0.509,0.931,-2.145,-4.389,0.267,108,55
71810,-0.116,0.534,0.924,-0.588,-2.389,0.084,55,55
71860,-0.148,0.523,0.927,0.611,2.481,0.87,108,55
71910,-0.131,0.53,0.929,2.748,-1.779,1.038,109,55
71960,-0.12,0.535,0.897,2.275,2.748,1.763,108,55
72010,-0.166,0.539,0.921,2.634,-0.237,1.191,108,55
72060,-0.125,0.543,0.88,2.84,-2.748,-0.313,108,55
72111,-0.136,0.546,0.894,0.321,3.023,0.344,107,55
72160,-0.142,0.548,0.886,0.221,-1.206,-0.695,109,55
72210,-0.146,0.552,0.894,0.565,-1.366,0.45,107,55
72260,-0.132,0.551,0.885,-0.26,0.053,-0.42,54,55
72310,-0.143,0.547,0.889,-1.641,-0.931,-0.519,107,55
72360,-0.146,0.572,0.924,-2.679,-0.786,0.031,106,55
72411,-0.122,0.548,0.862,-4.878,-4.031,-1.076,106,55
72461,-0.11,0.554,0.874,-3.282,-0.916,-0.672,106,55
72511,-0.155,0.547,0.91,-3.053,5.237,-0.374,105,55
72561,-0.175,0.515,0.952,0.42,-2.58,-0.45,107,55
72611,-0.138,0.521,0.905,0.809,-2.198,1.595,107,55
72660,-0.127,0.538,0.918,2.137,2.802,1.573,107,55
72711,-0.145,0.535,0.909,2.931,0.649,1.756,52,55
72761,-0.132,0.539,0.897,4.595,-2.267,2.565,107,55
72811,-0.123,0.555,0.894,5.076,1.794,2.008,106,55
72861,-0.14,0.551,0.878,3.702,4.786,1.611,106,55
72911,-0.139,0.554,0.905,3.481,-2.458,0.473,106,55
72962,-0.141,0.568,0.879,0.901,3.672,0.802,106,55
73012,-0.154,0.551,0.877,1.122,-0.656,0.534,106,55
73062,-0.139,0.576,0.876,1.053,0.229,0.389,106,55
73112,-0.164,0.557,0.901,-0.153,2.985,0.634,106,55
73161,-0.145,0.572,0.879,0.473,-3.977,0.542,51,55
73209,-0.122,0.565,0.866,-0.809,2.527,0.702,71,55
73256,-0.167,0.557,0.899,-1.481,0.16,-0.405,54,45
73307,-0.163,0.55,0.901,-0.977,-2.573,-0.45,125,39
73354,-0.12,0.562,0.884,0.427,-2.847,-0.565,45,55
73448,-0.151,0.508,0.877,-0.611,-3.168,-0.664,125,56
73499,-0.132,0.555,0.844,-2.817,-2.427,-1.321,125,55
73552,-0.169,0.558,0.903,-1.313,-0.252,-1.603,49,55
73603,-0.151,0.55,0.922,0.481,0.855,-1.237,119,55
73653,-0.167,0.543,0.888,-0.679,2.183,1.458,70,55
73702,-0.153,0.551,0.897,0.779,-3.321,0.878,120,55
73752,-0.139,0.566,0.872,0.863,-0.244,0.115,119,55
73802,-0.162,0.559,0.897,0.053,0.924,0.71,119,55
73852,-0.16,0.549,0.896,0.023,-4.076,-0.191,120,55
73903,-0.127,0.564,0.872,-0.344,0.244,0.817,119,55
73953,-0.166,0.557,0.892,-0.122,0.634,0.695,119,55
74003,-0.148,0.557,0.875,-0.168,-2.55,-0.099,119,55
74053,-0.146,0.555,0.887,-0.649,-0.504,-0.015,118,55
74103,-0.153,0.563,0.88,-1.389,-0.473,0.031,68,55
74153,-0.157,0.558,0.901,-0.496,-1.42,0.74,119,55
74203,-0.166,0.548,0.893,-0.359,-2.16,0.344,118,55
74253,-0.126,0.568,0.89,-0.145,0.511,0.924,118,55
74303,-0.166,0.562,0.879,-0.435,0.366,1.489,118,55
74353,-0.149,0.559,0.881,1.13,-4.901,0.626,118,55
74403,-0.133,0.563,0.886,-0.962,1.924,0.229,118,55
74454,-0.168,0.552,0.913,0.015,-1.298,-0.183,118,55
74504,-0.137,0.574,0.875,0.267,-1.908,0.985,117,55
74554,-0.172,0.566,0.888,-1,3.855,1.237,117,55
74604,-0.141,0.559,0.883,-0.588,-4.046,0.053,67,55
74654,-0.14,0.564,0.888,-1.229,0.168,0.71,117,55
74703,-0.159,0.558,0.895,-1.359,-0.595,0.427,117,55
74754,-0.139,0.559,0.873,-1.374,-2.618,0.321,116,55
74804,-0.137,0.563,0.895,-2.069,0.191,0.824,116,55
74854,-0.152,0.559,0.887,-1.107,-2.137,0.679,117,55
74904,-0.137,0.559,0.883,-1.206,-1.458,1.313,116,55
74954,-0.136,0.566,0.891,-1.069,1.328,0.588,116,55
75004,-0.143,0.542,0.902,-0.321,-2.145,-0.595,117,56
75055,-0.126,0.551,0.89,0.168,-0.588,0.458,65,56
75105,-0.145,0.554,0.9,0.679,2.275,1.038,117,55
75155,-0.156,0.551,0.898,0.496,-3.527,-0.588,117,55
75204,-0.139,0.563,0.871,-0.672,0.092,-0.145,115,55
75254,-0.162,0.551,0.882,-1.725,3.069,-0.511,115,56
75304,-0.148,0.565,0.876,-2.58,-0.519,-2.679,115,55
75355,-0.112,0.535,0.897,0.282,-1.29,-0.092,114,55
75405,-0.201,0.555,0.919,-1.145,4,1.588,115,55
75455,-0.145,0.547,0.894,0.107,-6.328,-0.038,116,55
75505,-0.14,0.553,0.891,0.389,2.168,0.191,64,55
75555,-0.17,0.546,0.898,0.282,0.328,-0.191,117,55
75606,-0.155,0.553,0.891,0.427,-3.511,0.115,116,55
75656,-0.124,0.555,0.878,0.962,-1.115,0.191,115,55
75705,-0.162,0.55,0.896,0.718,2.641,0.374,114,55
75755,-0.156,0.558,0.888,0.618,-3.824,-0.298,116,55
75805,-0.151,0.559,0.878,-0.695,1,-0.618,114,55
75855,-0.161,0.552,0.895,-1.061,-2.168,-0.794,115,55
75915,-0.154,0.55,0.877,-0.931,1.16,-0.031,124,55
76010,-0.147,0.556,0.871,-0.061,-1.695,-0.962,125,45
76060,-0.16,0.555,0.895,-0.427,0.412,-0.328,125,46
76110,-0.175,0.555,0.92,0.046,-1.695,0.817,125,50
76156,-0.135,0.572,0.844,-2.321,-2.878,-0.939,51,55
76206,-0.145,0.542,0.91,-0.214,2.779,-1.458,108,55
76256,-0.172,0.568,0.925,1.412,0.221,-0.931,119,55
76306,-0.139,0.542,0.858,0.321,-4.244,-0.412,119,55
76356,-0.155,0.577,0.883,-0.305,1.458,-0.191,119,55
76406,-0.188,0.545,0.904,-0.26,-4.817,-0.962,119,55
76456,-0.128,0.57,0.861,-1.481,-0.786,-0.26,68,55
76507,-0.191,0.563,0.901,-2.214,6.802,1.672,118,55
76557,-0.197,0.548,0.901,0.328,-4.931,0.237,119,55
76607,-0.139,0.557,0.881,0.206,-2.473,-0.473,119,55
76657,-0.169,0.544,0.89,-1.427,2.878,1.534,118,55
76706,-0.16,0.558,0.884,-0.466,-3.092,-1.298,118,55
76756,-0.153,0.561,0.897,-0.122,-4.145,-3.908,117,55
76807,-0.156,0.555,0.887,-1.519,-2.099,-1.031,117,55
76857,-0.159,0.552,0.889,-0.145,0.939,-0.008,117,55
76907,-0.142,0.565,0.904,0.542,3.008,-0.557,68,55
76957,-0.155,0.546,0.877,1.214,3.618,1.74,119,55
77007,-0.191,0.563,0.881,-0.947,0.183,0.153,118,55
77058,-0.15,0.574,0.914,2.305,-1.412,-2.137,117,55
77108,-0.175,0.551,0.88,-0.321,1.504,-0.557,117,55
77157,-0.182,0.548,0.884,1.031,-2.382,0.649,117,55
77207,-0.184,0.567,0.895,0.153,-0.672,0.71,118,55
77257,-0.166,0.563,0.866,0.198,-3.397,0.962,118,55
77307,-0.147,0.559,0.874,-0.87,1.046,1.527,117,55
77358,-0.187,0.552,0.913,-0.603,-0.427,-0.397,67,55
77408,-0.155,0.553,0.886,-0.71,-2.359,0.656,117,55
77458,-0.159,0.558,0.886,-0.58,-0.023,1.198,116,55
77508,-0.176,0.557,0.893,0.634,-0.267,-0.359,116,55
77558,-0.162,0.552,0.89,-0.305,0.557,0.13,116,55
77608,-0.162,0.558,0.874,-0.679,-0.13,0.145,117,55
77658,-0.171,0.566,0.875,-0.458,-1.412,-0.595,116,55
77708,-0.161,0.564,0.862,-0.878,-0.115,-0.023,115,55
77758,-0.166,0.562,0.891,-0.229,-1.099,0.305,115,55
77808,-0.156,0.552,0.878,-0.656,-0.702,0.427,65,55
77858,-0.174,0.564,0.885,-0.038,0,0.336,116,55
77908,-0.156,0.557,0.87,-0.107,-3.817,0.718,116,55
77959,-0.154,0.569,0.877,-1.084,0.641,0.366,125,55
78010,-0.168,0.557,0.896,-1.603,0.969,-0.038,125,55
78060,-0.16,0.561,0.89,0.313,-2.74,0.618,125,55
78111,-0.151,0.553,0.864,-0.115,1.496,-0.183,125,55
78161,-0.176,0.547,0.901,0.046,0.076,-0.504,126,55
78213,-0.155,0.552,0.866,1.435,-1.779,-1.252,125,55
78266,-0.178,0.553,0.895,0.389,0.824,-0.198,126,55
78317,-0.178,0.559,0.894,0.267,-0.71,0.305,126,55
78363,-0.169,0.562,0.875,0.656,-0.794,-0.176,51,55
78413,-0.164,0.571,0.863,-0.008,1.58,0.908,126,56
78462,-0.18,0.563,0.885,-0.26,-0.855,0.595,88,55
78553,-0.16,0.554,0.867,-0.947,-0.305,0.855,61,55
78600,-0.17,0.563,0.891,-1.115,0.267,-0.267,58,55
78646,-0.18,0.555,0.896,-0.702,-2.489,-0.076,62,37
78693,-0.155,0.552,0.88,0.527,-1.282,1.145,79,48
78747,-0.175,0.563,0.883,-0.13,4.267,1.015,123,55
78792,-0.167,0.561,0.87,0.206,-3.695,0.382,33,55
78842,-0.151,0.575,0.866,-0.435,0.534,1.359,127,50
78894,-0.219,0.558,0.892,-0.153,1.71,5.573,127,55
78945,-0.214,0.577,0.893,2.916,-2.748,10.214,128,56
78996,-0.217,0.584,0.879,5.038,-1.42,15.145,129,57
79047,-0.213,0.575,0.875,5.718,-3.84,17.786,129,57
79097,-0.169,0.588,0.878,6.015,-7.504,20.802,126,57
79149,-0.154,0.6,0.864,5.382,-7.282,24.397,124,57
79203,-0.125,0.604,0.862,4.344,-11.863,25.702,122,58
79253,-0.064,0.604,0.857,3.649,-13.305,23.153,121,59
79304,-0.012,0.602,0.828,2.015,-13.489,19.313,120,59
79355,0.017,0.605,0.826,-2.779,-10.42,13.336,119,60
79406,0.011,0.605,0.878,-5.519,-10.099,9.687,119,60
79457,0,0.592,0.858,-8.641,-18.244,6.641,119,61
79507,-0.022,0.589,0.871,-11.977,-20.443,6.519,118,61
79558,-0.014,0.594,0.93,-6.298,-28.878,7.443,117,62
79609,0.028,0.584,0.875,-6.992,-26.55,11.611,116,62
79663,0.033,0.574,0.915,-3.656,-22.748,15.786,117,62
79714,0.037,0.584,0.91,-0.969,-29.794,18.802,115,63
79765,0.135,0.578,0.865,0.947,-34.611,19.718,115,64
79815,0.224,0.588,0.836,-0.13,-15.237,21.55,115,65
79866,0.174,0.579,0.941,-0.466,-7.733,18.924,114,66
79918,0.2,0.537,0.86,0.214,-19.878,14.931,114,66
79969,0.259,0.547,0.883,2.763,-20.87,12.321,113,67
80019,0.257,0.578,0.878,2.458,-19.252,10.672,113,67
80070,0.305,0.57,0.835,-0.183,-14.473,8.924,113,67
80121,0.271,0.551,0.873,-1.321,-3.45,8.275,57,68
80168,0.268,0.562,0.864,-1.664,-5.878,7.031,58,68
80220,0.289,0.562,0.856,-1.099,-7.908,5.878,112,68
80271,0.297,0.573,0.848,-2.412,-0.885,5.641,112,68
80321,0.284,0.558,0.865,-2.443,-2.985,4.389,112,68
80372,0.328,0.566,0.84,-1.45,0.069,4.046,112,68
80423,0.286,0.556,0.867,-2.679,4.992,4.298,111,68
80475,0.265,0.539,0.898,-1.183,-4.794,3.565,111,68
80525,0.332,0.549,0.864,1.344,-4.412,2.168,111,68
80579,0.312,0.546,0.874,1.092,2.939,1.695,111,68
80630,0.289,0.545,0.872,1.229,0.443,0.824,111,68
80680,0.292,0.544,0.855,0.008,-1.504,0.634,111,68
80732,0.294,0.552,0.86,-1.908,-1.076,1.244,111,68
80783,0.299,0.558,0.874,-1.511,-1.237,-0.252,111,68
80834,0.303,0.549,0.865,-1.076,0.29,-0.466,111,68
80884,0.281,0.549,0.885,-0.366,1.687,-0.42,111,69
80935,0.273,0.542,0.89,-1,-0.42,0.435,111,68
80987,0.298,0.54,0.856,-0.359,-1.687,0.878,111,69
81041,0.297,0.561,0.876,-0.313,4.321,0.855,111,68
81135,0.276,0.538,0.873,1.626,-2.069,0.107,111,68
81185,0.299,0.563,0.863,1.252,0.809,0.13,111,68
81236,0.278,0.55,0.863,-0.13,1.145,0.076,111,68
81288,0.281,0.55,0.872,0.718,-0.763,-2.137,111,68
81339,0.298,0.565,0.86,-0.832,2.122,-2.298,111,68
81389,0.288,0.551,0.858,-2.023,4.885,-2.115,111,68
81440,0.291,0.557,0.85,-3.718,7.122,-1.992,111,68
81491,0.265,0.553,0.88,-3.626,6.931,-3.366,112,68
81543,0.264,0.545,0.857,-3.847,3.046,-5.794,112,67
81597,0.255,0.52,0.922,2.076,3.878,-6.611,112,67
81648,0.267,0.554,0.884,2.618,5.977,-7.87,112,67
81699,0.25,0.547,0.878,2.634,4.832,-8.664,112,66
81750,0.238,0.552,0.905,4.878,3.519,-12.168,113,66
81801,0.25,0.576,0.852,3.718,7.649,-14.702,113,66
81852,0.22,0.554,0.872,3.153,8.13,-17.252,113,65
81903,0.198,0.579,0.864,1.939,7.137,-17.229,114,65
81954,0.167,0.58,0.876,-0.084,4.366,-17.916,114,64
82006,0.161,0.586,0.862,-0.542,8.42,-18.046,114,64
82060,0.132,0.595,0.871,0.244,7.595,-19.565,116,63
82111,0.116,0.591,0.874,0.16,7.916,-18.962,116,63
82162,0.087,0.593,0.879,0.603,10.55,-16.947,117,62
82212,0.086,0.6,0.874,1.954,7.252,-16.122,117,62
82264,0.089,0.606,0.875,1.137,8.29,-16.122,118,61
82315,0.045,0.599,0.887,0.84,10.351,-15.733,118,61
82366,0.017,0.585,0.892,4.122,4.824,-12.924,119,59
82417,0.004,0.611,0.876,2.794,4.763,-8.389,120,60
82476,0.007,0.613,0.867,3.519,2.031,-6.863,125,59
82529,0.014,0.626,0.841,2.466,7.366,-6.298,125,59
82579,-0.01,0.619,0.87,2.863,4.534,-6.351,124,59
82629,0.013,0.613,0.856,2.748,3.427,-4.588,123,59
82680,-0.021,0.615,0.87,0.74,1.847,-1.702,124,59
82731,-0.008,0.625,0.857,0.015,-1.992,-0.366,122,59
82781,0.002,0.623,0.872,1.397,-1.031,-0.756,122,59
82831,-0.018,0.612,0.873,1.023,1.191,1.198,122,59
82882,-0.019,0.62,0.863,1.214,1.489,1.229,122,59
82932,0.008,0.623,0.86,0.84,-2.817,1.321,122,59
82985,0.008,0.615,0.857,1.664,0.725,1.977,121,60
83036,-0.008,0.623,0.873,1.756,-1.939,0.748,121,59
83086,0.015,0.635,0.856,1,0.863,0.534,121,59
83136,-0.014,0.621,0.858,-0.412,1.687,0.931,121,59
83183,0.002,0.625,0.844,-0.771,-0.718,0.481,58,59
83233,0.001,0.618,0.838,-2.382,-3.496,-0.076,120,59
83284,0.029,0.626,0.859,-1.069,-0.511,-0.45,120,59
83335,-0.032,0.623,0.879,-1.863,-0.16,-0.26,121,59
83385,0.002,0.614,0.87,-1.511,-3.008,0.069,121,59
83438,-0.002,0.635,0.858,-2.267,2.702,1.252,121,59
83489,-0.006,0.615,0.862,-0.985,-0.092,-0.076,121,59
83539,0.009,0.621,0.851,-1.282,-2.198,0.374,121,59
83590,0.006,0.622,0.865,0.046,1.473,1.969,121,59
83641,-0.008,0.629,0.864,0.573,0.466,1.534,121,59
83734,0.019,0.626,0.847,-2.328,-0.191,1.305,121,59
83784,-0.005,0.63,0.868,-2.557,-1.504,0.656,121,59
83835,0.007,0.618,0.863,-1.947,-3.473,1.099,121,59
83886,0.011,0.617,0.864,-1.115,1.206,0.87,122,59
83939,-0.009,0.602,0.893,0.435,-2.359,0.641,122,59
83990,0.019,0.614,0.848,-0.504,0.351,0.962,123,59
84040,0.003,0.618,0.871,1.855,-1.16,1.069,121,59
84090,0.012,0.628,0.861,0.931,-0.656,0.046,121,59
84142,-0.008,0.61,0.888,0.771,1.366,0.45,121,59
84192,0.015,0.628,0.851,2.183,-2.015,0.405,121,59
84242,0.014,0.631,0.855,0.901,2.26,-0.153,121,59
84293,0.003,0.634,0.847,0.458,-0.084,-1.015,121,59
84343,0.018,0.644,0.849,-0.779,-0.817,-1.473,121,59
84395,-0.005,0.623,0.862,-1.763,-0.809,-0.573,121,59
84448,0.011,0.622,0.84,-1.229,-1.809,-0.802,121,59
84498,0.001,0.624,0.872,0.145,-0.489,-0.733,121,59
84549,-0.012,0.622,0.878,0.595,-1.366,-0.351,121,59
84599,0.018,0.613,0.859,0.382,-1.74,-0.618,122,59
84651,0.008,0.632,0.854,0.901,4.649,-0.221,122,59
84701,-0.024,0.612,0.885,0.893,1.321,-2.176,121,59
84752,0.022,0.63,0.85,0.939,-0.901,-3.779,121,59
84802,0.031,0.612,0.837,0.313,6.649,-5.786,121,59
84852,0.002,0.637,0.825,-3.038,7.321,-12.16,122,58
84907,0.006,0.623,0.817,-7.779,3.725,-20.008,123,58
84958,-0.013,0.643,0.784,-16.55,6.038,-22.237,127,58
85008,-0.076,0.592,0.849,-20.366,-0.473,-20.489,123,57
85059,-0.076,0.592,0.851,-21.565,0.649,-23.504,123,58
85109,-0.089,0.551,0.841,-24.473,8.046,-26.008,123,55
85160,-0.133,0.55,0.876,-27.229,10.008,-25.206,124,55
85212,-0.169,0.51,0.908,-32.824,5.603,-23.115,125,54
85262,-0.148,0.491,0.933,-34.137,-3.191,-23.817,123,54
85316,-0.12,0.443,0.924,-34.771,-0.443,-23.351,125,54
85366,-0.142,0.386,0.972,-34.496,6.099,-24.267,125,53
85417,-0.15,0.361,1.002,-32.893,5.282,-27.214,125,52
85468,-0.18,0.319,1.024,-30.412,-3.374,-33.542,126,51
85519,-0.137,0.313,0.994,-26.664,-3.183,-38.924,127,51
85569,-0.162,0.28,1.005,-25.275,2.634,-39.412,128,52
85620,-0.276,0.243,1.056,-23.733,0.817,-34.695,129,51
85671,-0.251,0.222,1.033,-19.832,-22.969,-29.26,131,53
85723,-0.177,0.229,0.992,-16.824,-11.824,-28.198,137,49
85777,-0.255,0.204,1.021,-15.237,3.649,-23.977,137,50
85821,-0.282,0.171,1.064,-10.344,-7.771,-17.176,17,48
85866,-0.259,0.196,1.035,-6.489,-3.092,-13.229,16,49
85910,-0.239,0.178,1.002,-6.038,5.618,-7.542,17,49
85954,-0.291,0.178,1.032,-7.366,2.702,0.382,16,48
85998,-0.351,0.17,1.043,-12.878,-24.656,8.122,16,48
86043,-0.286,0.153,1.054,-16.618,-65.687,15.916,16,50
86087,-0.046,0.181,0.925,-16.748,-65.611,15.786,14,48
86131,0.052,0.146,0.958,-18.053,-32,10.023,14,48
86178,0.009,0.154,1.033,-19.038,-3.061,-0.008,13,50
86265,-0.075,0.061,1.107,-15.366,-11.397,-7.725,12,49
86310,-0.021,0.05,1.083,-11.672,-20.191,-8.076,14,48
86354,0.005,0.061,1.065,-6.344,-13.71,-7.061,13,50
86398,-0.06,0.063,1.1,-5.916,-9.603,-2.847,15,49
86444,-0.086,0.034,1.112,-4.954,-25.069,0.45,14,49
86488,0.048,0.072,1.036,-2.13,-31.397,2.664,14,50
86532,0.116,0.079,1.008,-2.122,-16.542,-1.328,15,51
86577,0.102,0.068,1.043,-4.542,6.305,-5.847,14,52
86624,0.038,0.077,1.085,-4.924,10.748,-10.557,16,57
86670,0.051,0.052,1.038,-5.588,10.527,-9.847,17,66
86715,0.048,0.061,1.029,-4.58,5.893,-13.779,16,57
86760,0.014,0.057,1.053,-6.023,9.534,-18.389,16,63
86805,-0.08,0.037,1.091,-5.702,10.565,-21.481,16,64
86850,-0.044,0.041,1.042,-5.305,6.557,-23.16,17,69
86896,-0.057,0.056,1.039,-5.664,3.84,-19.588,17,64
86941,-0.074,0.052,1.045,-4.763,-5.382,-14.603,17,63
86986,-0.023,0.048,1.033,-5.679,-12.412,-15.557,18,64
87035,-0.006,0.018,1.04,-8.221,1.008,-13.924,18,64
87080,-0.043,-0.015,1.092,-1.519,-6.893,-8.664,17,70
87127,0.052,0.047,1.01,-1.153,12.176,-4.244,18,66
87172,-0.081,0.002,1.099,-0.931,10.573,-2.153,19,65
87218,-0.049,0.009,1.064,-2.695,9.832,-3.87,19,64
87263,-0.095,0.008,1.09,-1.374,5.695,-1.84,19,64
87308,-0.058,0.011,1.059,0.366,-7.817,-0.664,19,64
87354,0.013,0.043,1.025,-0.893,-3.061,-0.145,20,68
87400,0.008,0.036,1.039,-1.466,16.962,0.458,19,67
87448,-0.116,-0.038,1.11,-2.115,15.137,-0.702,19,67
87494,-0.106,-0.012,1.055,-1.42,-0.779,-2.328,22,62
87540,-0.046,-0.009,1.014,-0.947,-2.962,-4.885,19,68
87585,-0.109,0.019,1.082,-2.122,-0.954,-3.29,19,62
87630,-0.086,0.016,1.075,0.389,-13.237,0.42,19,64
87676,-0.035,-0.001,1.032,0.458,-9.511,2.29,19,63
87721,-0.006,0.002,1.038,0.221,-10.084,-1.359,18,68
87768,-0.029,-0.001,1.098,0.84,-4.069,0.405,18,68
87814,-0.049,-0.026,1.054,4.84,-3.359,1.023,20,67
87862,-0.035,-0.137,1,20.191,-1.534,-0.565,19,68
87908,-0.066,0.011,1.212,25.29,17.275,10.481,19,65
87954,-0.055,0.01,1.102,38,37.244,21.687,18,62
87999,-0.165,0.057,1.198,56.649,53.198,32.962,17,63
88044,-0.237,0.116,1.183,72.58,52.687,46.542,18,64
88090,-0.31,0.136,1.122,81.115,53.313,67.618,23,60
88142,-0.383,0.236,1.051,89.092,52.534,82.328,134,57
88194,-0.39,0.316,0.936,91.779,29.527,91.557,134,48
88249,-0.391,0.406,0.878,86.832,-2.947,97.115,0,50
88303,-0.227,0.465,0.739,80.565,-45.931,96.71,128,55
88354,-0.051,0.543,0.669,77.206,-60.076,87.962,123,57
88402,0.169,0.679,0.59,62.809,-45.481,82.489,57,61
88454,0.192,0.671,0.636,47.122,-32.389,74.565,117,63
88505,0.258,0.708,0.619,35.069,-24.198,57.87,115,66
88553,0.393,0.74,0.572,19.588,-15.71,41.137,58,68
88648,0.273,0.649,0.784,4.206,8.336,42.878,120,71
88699,0.279,0.642,0.751,7.282,-7.305,37.092,108,73
88751,0.371,0.701,0.71,5.695,-12.534,33.626,105,74
88810,0.354,0.692,0.685,-0.901,13.427,41.489,106,76
88861,0.32,0.703,0.687,-1.87,10.969,44.87,104,77
88911,0.353,0.655,0.704,-1.29,6.015,52.519,103,79
88962,0.424,0.701,0.741,-2.023,2.275,50.351,102,80
89018,0.485,0.645,0.73,-7.214,-2.802,48.863,194,82
89074,0.546,0.596,0.732,-10.74,2.878,38.947,193,84
89131,0.545,0.555,0.749,-13.29,1.573,32.603,197,85
89187,0.532,0.534,0.752,-13.771,-2.718,30.008,193,86
89243,0.581,0.532,0.75,-15.267,-1.985,23.244,192,87
89303,0.604,0.529,0.747,-12.191,4.16,15.107,0,87
89359,0.57,0.495,0.771,-13.802,10.542,10.481,0,87
89416,0.512,0.488,0.792,-14.634,7.641,9.038,0,89
89473,0.569,0.514,0.792,-12.008,13.038,9.947,0,89
89529,0.486,0.455,0.851,-11.137,10.992,9.733,0,88
89586,0.529,0.474,0.806,-11.198,4.008,9.55,0,89
89643,0.534,0.444,0.812,-9.069,6.901,8.115,0,89
89706,0.527,0.478,0.74,-15.275,23.458,13.153,0,0
89769,0.375,0.47,0.703,-46.168,34.763,28.588,0,0
89835,0.445,0.333,0.877,-49.084,37.053,37.634,0,0
89893,0.482,0.279,0.958,-52.595,37.008,36.351,0,110
89952,0.446,0.077,1.084,-41.786,25.061,25.893,0,110
90009,0.419,0.1,1.118,-10.634,7.977,4.702,0,109
90067,0.375,0.17,1.017,-0.58,-13.481,0.878,0,110
90126,0.451,0.208,0.924,5.176,-5.786,0.527,0,110
90183,0.43,0.207,0.947,-1.969,-2.817,3.244,0,110
90242,0.427,0.187,0.947,-4.267,0.176,1.336,0,110
90300,0.414,0.179,0.985,-2.771,-0.817,1.809,0,110
90370,0.405,0.171,0.966,-1.473,-5.061,2.282,0,110
90430,0.452,0.161,0.959,0.885,-1.244,0.191,0,111
90490,0.432,0.179,0.948,0.122,-0.053,-0.427,0,110
90551,0.42,0.177,0.968,0.42,-1.725,-0.893,0,111
90611,0.422,0.177,0.962,2.496,-1.573,-0.557,0,110
90672,0.43,0.18,0.95,1.008,-1.16,-0.847,0,110
90732,0.424,0.177,0.962,2.504,0.382,-1.344,0,110
90792,0.413,0.2,0.962,1.137,-0.969,-1.466,0,110
90853,0.421,0.187,0.963,0.427,-1.908,0.008,0,110
90914,0.427,0.197,0.959,1.389,-2.603,0.252,0,110
90977,0.438,0.187,0.95,0.786,-0.573,-0.802,0,110
91038,0.422,0.19,0.962,0.374,0.687,-0.763,0,110
91099,0.417,0.194,0.966,1.191,-1.115,-1.229,0,110
91159,0.422,0.201,0.955,2.115,-2.046,-0.351,0,111
91219,0.428,0.198,0.942,1.725,-2.397,-1.008,0,110
91280,0.428,0.196,0.945,-0.053,0.672,0.168,0,110
91340,0.433,0.202,0.944,0.16,-0.847,0.305,0,110
91401,0.419,0.203,0.965,-0.122,-0.099,-0.42,0,110
91462,0.414,0.207,0.958,-0.015,-2.954,0,0,110
91525,0.428,0.209,0.948,0.87,-1.779,0.595,0,110