Timestamp(ms),AccelX(g),AccelY(g),AccelZ(g),GyroX(deg/s),GyroY(deg/s),GyroZ(deg/s),DistanceLeft(cm),DistanceRight(cm)
35090,-0.099,-0.948,0.287,-1.015,8.542,-7.626,0.0,78.0
35143,-0.129,-0.950,0.301,-2.351,7.618,-7.664,0.0,79.0
35197,-0.096,-0.940,0.276,-4.305,6.649,-7.344,0.0,98.0
35250,-0.119,-0.947,0.284,-7.847,9.046,-9.336,0.0,62.0
35305,-0.103,-0.944,0.294,-7.443,9.595,-8.557,0.0,60.0
35357,-0.107,-0.981,0.280,-8.069,20.427,-8.786,0.0,60.0
35414,-0.131,-0.969,0.289,-5.153,6.695,-9.519,0.0,60.0
35454,-0.086,-0.970,0.234,-6.397,12.237,-5.947,16.0,59.0
35505,-0.117,-0.983,0.265,-5.336,9.443,-6.916,0.0,58.0
35560,-0.069,-0.959,0.220,-5.977,10.191,-8.557,0.0,59.0
35612,-0.134,-0.983,0.268,-5.191,3.947,-9.672,0.0,59.0
35667,-0.070,-0.967,0.214,-4.489,1.282,-8.260,0.0,59.0
35720,-0.071,-0.979,0.213,-4.939,18.878,-4.779,0.0,58.0
35775,-0.076,-0.989,0.217,-3.756,22.130,-5.924,0.0,59.0
35827,-0.081,-0.987,0.221,-3.695,26.656,-5.962,0.0,59.0
35884,-0.035,-0.978,0.178,-4.840,34.260,-7.580,0.0,59.0
35937,-0.057,-1.000,0.186,-4.137,49.405,-8.305,0.0,75.0
35987,-0.071,-0.994,0.175,-2.382,51.107,-12.137,102.0,76.0
36034,-0.075,-1.002,0.167,-0.947,53.015,-13.969,101.0,78.0
36081,-0.094,-0.999,0.162,0.878,50.450,-14.802,93.0,78.0
36128,-0.106,-0.994,0.158,1.237,47.229,-14.389,95.0,76.0
36176,-0.125,-0.994,0.152,1.061,41.260,-13.885,96.0,85.0
36224,-0.132,-0.982,0.166,0.351,30.901,-14.145,98.0,85.0
36272,-0.127,-0.988,0.163,0.115,19.412,-13.527,98.0,85.0
36320,-0.122,-0.987,0.159,0.695,11.237,-10.458,104.0,91.0
36371,-0.108,-0.989,0.134,0.817,7.817,-6.855,104.0,91.0
36418,-0.107,-0.992,0.145,0.679,7.298,-3.397,65.0,90.0
36466,-0.098,-0.994,0.146,1.817,8.626,-0.221,105.0,90.0
36514,-0.102,-0.997,0.156,2.267,8.756,1.885,106.0,88.0
36569,-0.069,-0.994,0.141,5.473,14.962,4.023,0.0,91.0
36622,-0.123,-0.990,0.181,4.519,16.962,5.779,0.0,92.0
36676,-0.124,-0.990,0.201,4.649,1.893,4.779,0.0,91.0
36730,-0.091,-0.993,0.168,5.656,-4.679,2.893,0.0,92.0
36785,-0.076,-0.998,0.147,5.137,1.244,1.634,0.0,92.0
36839,-0.064,-0.983,0.140,7.534,15.084,0.053,0.0,90.0
36883,-0.134,-0.982,0.179,4.076,14.412,-1.626,73.0,91.0
36930,-0.140,-0.993,0.194,2.267,-1.672,-3.748,74.0,92.0
36978,-0.093,-0.988,0.168,3.038,-5.939,-5.313,107.0,91.0
37026,-0.092,-0.979,0.160,2.107,0.351,-4.595,95.0,91.0
37072,-0.110,-0.984,0.178,2.832,1.168,-4.046,73.0,86.0
37120,-0.120,-0.982,0.172,2.061,-0.084,-3.664,74.0,91.0
37169,-0.109,-0.995,0.155,1.443,-0.511,-3.420,107.0,91.0
37217,-0.098,-0.984,0.160,1.435,5.389,-2.275,106.0,91.0
37264,-0.103,-0.990,0.170,0.229,6.473,-1.931,74.0,91.0
37316,-0.083,-0.976,0.168,2.130,14.412,-1.420,106.0,92.0
37364,-0.121,-0.998,0.191,1.466,12.916,-2.137,106.0,93.0
37413,-0.126,-0.973,0.223,1.221,5.672,-3.756,106.0,94.0
37463,-0.097,-0.986,0.179,3.290,4.221,-4.885,107.0,92.0
37511,-0.127,-0.977,0.201,2.389,6.061,-5.397,107.0,92.0
37558,-0.127,-0.999,0.205,2.977,-3.656,-5.710,75.0,94.0
37655,-0.134,-0.979,0.192,3.191,3.580,-1.809,0.0,91.0
37702,-0.106,-0.982,0.165,4.092,-1.496,-0.931,74.0,91.0
37749,-0.117,-0.978,0.180,1.504,-0.748,-0.290,74.0,91.0
37807,-0.103,-0.987,0.169,1.359,-3.969,-0.229,0.0,91.0
37861,-0.106,-0.968,0.197,0.595,2.260,-0.237,0.0,91.0
37915,-0.125,-0.986,0.209,0.344,-5.847,-0.122,0.0,91.0
37962,-0.092,-0.965,0.171,1.786,-0.748,0.847,74.0,91.0
38008,-0.109,-0.987,0.199,1.313,1.252,0.641,75.0,91.0
38063,-0.090,-0.983,0.191,2.435,3.046,-0.794,0.0,91.0
38117,-0.122,-0.977,0.197,0.939,2.603,-1.786,0.0,91.0
38171,-0.124,-0.979,0.197,0.435,-4.985,-2.992,0.0,91.0
38225,-0.110,-0.982,0.177,0.328,-2.740,-2.611,0.0,91.0
38276,-0.129,-0.987,0.190,-0.252,-3.626,-2.664,75.0,91.0
38323,-0.127,-0.976,0.190,-0.649,-6.740,-1.939,75.0,91.0
38370,-0.120,-0.983,0.195,-1.740,-10.313,-1.504,75.0,91.0
38417,-0.096,-0.982,0.168,-0.908,-6.779,-1.076,75.0,92.0
38464,-0.110,-0.975,0.175,-1.412,-0.397,-0.168,74.0,91.0
38512,-0.127,-0.980,0.201,-0.947,-3.863,0.008,76.0,91.0
38566,-0.100,-0.980,0.172,-0.962,-4.466,-0.366,0.0,91.0
38621,-0.115,-0.982,0.196,-0.656,-2.031,-0.916,0.0,91.0
38668,-0.100,-0.993,0.180,0.779,-3.710,-0.496,74.0,92.0
38718,-0.110,-0.980,0.196,0.565,0.008,-0.328,74.0,93.0
38765,-0.123,-0.990,0.194,1.061,-5.473,-1.405,75.0,93.0
38814,-0.104,-0.974,0.181,1.000,-4.611,-1.298,106.0,93.0
38861,-0.115,-0.978,0.186,1.038,-2.863,-1.191,76.0,92.0
38908,-0.120,-0.980,0.181,0.771,-3.786,-1.511,75.0,92.0
38958,-0.125,-0.975,0.181,-0.366,-5.809,-1.443,106.0,92.0
39007,-0.106,-0.987,0.176,-0.115,-6.832,-1.282,106.0,94.0
39056,-0.112,-0.975,0.181,-0.740,-3.084,-0.053,106.0,92.0
39108,-0.099,-0.985,0.170,0.580,-0.901,-0.092,106.0,93.0
39157,-0.127,-0.979,0.199,-0.527,-1.595,0.267,106.0,94.0
39206,-0.109,-0.984,0.193,-0.122,-7.122,-0.718,106.0,94.0
39256,-0.109,-0.977,0.190,-0.069,-5.351,-1.313,107.0,93.0
39304,-0.098,-0.985,0.179,0.573,-5.168,-1.939,75.0,93.0
39351,-0.102,-0.968,0.191,1.534,-3.198,-2.473,78.0,92.0
39405,-0.117,-0.981,0.193,1.763,-4.504,-3.275,0.0,91.0
39459,-0.090,-0.989,0.163,2.366,-2.733,-2.954,0.0,93.0
39515,-0.111,-0.976,0.178,1.130,3.031,-3.023,0.0,92.0
39572,-0.111,-0.981,0.187,0.053,-0.924,-4.458,0.0,90.0
39626,-0.115,-0.980,0.196,-0.885,-1.634,-5.252,0.0,90.0
39675,-0.113,-0.978,0.200,-0.573,-0.053,-5.679,106.0,90.0
39725,-0.137,-0.970,0.219,-0.870,-1.809,-5.771,106.0,88.0
39774,-0.139,-0.983,0.219,-0.603,-6.550,-6.145,106.0,88.0
39823,-0.110,-0.987,0.204,1.122,-6.641,-5.656,106.0,88.0
39872,-0.115,-0.980,0.202,3.656,2.008,-2.252,106.0,89.0
39921,-0.136,-0.981,0.219,4.679,1.603,0.588,107.0,90.0
39970,-0.135,-0.977,0.215,5.191,-2.725,2.977,106.0,90.0
40028,-0.124,-0.983,0.210,5.389,-3.939,4.115,0.0,91.0
40075,-0.109,-0.969,0.196,5.420,-1.115,5.313,77.0,91.0
40124,-0.116,-0.979,0.212,5.023,-1.458,5.099,107.0,91.0
40217,-0.110,-0.969,0.199,3.084,-5.595,3.137,107.0,92.0
40264,-0.105,-0.967,0.202,2.168,-4.779,2.962,74.0,91.0
40318,-0.108,-0.977,0.198,0.130,-4.725,1.496,0.0,87.0
40366,-0.111,-0.973,0.203,-1.069,-4.763,0.321,74.0,87.0
40413,-0.117,-0.971,0.202,-1.794,-5.084,-0.595,73.0,88.0
40460,-0.125,-0.981,0.206,-3.183,-6.000,-2.916,73.0,90.0
40511,-0.114,-0.984,0.208,-2.214,-4.038,-3.802,73.0,91.0
40565,-0.132,-0.984,0.229,-1.855,-1.954,-2.725,0.0,89.0
40614,-0.133,-0.982,0.223,-0.420,-4.702,-2.481,104.0,89.0
40664,-0.123,-0.973,0.211,0.664,-3.092,-1.160,103.0,90.0
40713,-0.124,-0.979,0.208,1.656,-1.427,0.214,103.0,90.0
40762,-0.136,-0.972,0.194,2.099,-3.313,1.237,104.0,90.0
40811,-0.131,-0.978,0.206,1.321,-4.504,2.221,104.0,91.0
40860,-0.127,-0.981,0.192,-0.221,-7.038,1.237,104.0,87.0
40908,-0.115,-0.974,0.188,-1.305,-7.000,-0.221,105.0,86.0
40967,-0.120,-0.975,0.192,-2.466,-2.397,-1.191,0.0,87.0
41021,-0.125,-0.977,0.199,-1.420,-2.771,-1.244,0.0,85.0
41075,-0.124,-0.982,0.199,-2.214,-3.893,-2.107,0.0,86.0
41131,-0.109,-0.972,0.198,-0.962,-2.725,-2.061,0.0,86.0
41185,-0.124,-0.975,0.193,-1.595,-0.435,-2.664,0.0,86.0
41234,-0.114,-0.967,0.172,-1.153,2.084,-2.924,105.0,86.0
41283,-0.132,-0.977,0.187,-2.687,0.832,-3.595,105.0,86.0
41332,-0.115,-0.969,0.183,-3.802,-1.183,-4.618,104.0,86.0
41381,-0.126,-0.986,0.186,-4.718,-0.962,-5.595,105.0,91.0
41434,-0.114,-0.997,0.176,-3.221,1.565,-5.809,104.0,92.0
41489,-0.141,-0.988,0.219,-3.038,1.298,-4.885,104.0,90.0
41537,-0.133,-0.981,0.195,-1.901,-7.313,-6.183,104.0,91.0
41585,-0.111,-0.982,0.181,-0.046,-2.443,-5.481,104.0,90.0
41634,-0.133,-0.981,0.201,0.969,0.977,-4.298,105.0,91.0
41688,-0.134,-0.978,0.186,2.137,-2.450,-2.687,0.0,90.0
41741,-0.130,-0.981,0.187,2.496,-2.305,0.473,0.0,86.0
41795,-0.125,-0.978,0.179,3.221,-3.015,2.221,0.0,85.0
41848,-0.116,-0.984,0.182,3.145,-2.985,3.321,0.0,86.0
41905,-0.119,-0.973,0.189,3.695,-2.206,4.214,0.0,94.0
41959,-0.120,-0.984,0.198,3.756,-1.527,3.924,0.0,94.0
42013,-0.114,-0.977,0.196,4.458,-0.321,4.588,0.0,93.0
42067,-0.119,-0.976,0.194,4.504,1.924,3.771,0.0,93.0
42114,-0.130,-0.985,0.190,3.687,0.015,1.053,69.0,95.0
42160,-0.129,-0.981,0.183,2.282,-0.053,-1.282,71.0,94.0
42207,-0.137,-0.974,0.180,1.893,-1.153,-2.641,68.0,94.0
42253,-0.135,-0.974,0.177,0.267,-2.015,-2.389,67.0,93.0
42299,-0.140,-0.971,0.175,-0.611,0.832,-2.779,69.0,94.0
42349,-0.147,-0.974,0.180,-1.748,0.466,-2.992,71.0,93.0
42395,-0.138,-0.968,0.192,-2.336,-1.656,-2.740,71.0,93.0
42442,-0.146,-0.974,0.189,-2.450,-2.977,-2.405,68.0,93.0
42488,-0.137,-0.978,0.195,-1.809,-2.977,-2.779,68.0,92.0
42534,-0.135,-0.978,0.201,-0.893,-0.427,-2.344,69.0,92.0
42582,-0.143,-0.982,0.199,0.420,0.550,-1.298,69.0,93.0
42628,-0.144,-0.980,0.206,1.756,-1.229,-0.046,68.0,93.0
42674,-0.127,-0.975,0.183,3.000,-0.389,1.634,69.0,94.0
42764,-0.137,-0.985,0.185,3.084,-1.832,-1.160,71.0,92.0
42813,-0.140,-0.984,0.186,1.412,-1.649,-3.099,71.0,93.0
42860,-0.131,-0.979,0.170,0.611,-2.496,-6.550,69.0,92.0
42906,-0.138,-0.975,0.180,-1.664,-3.580,-8.412,72.0,92.0
42953,-0.129,-0.973,0.176,-1.580,-4.901,-9.084,70.0,92.0
42999,-0.125,-0.972,0.181,-1.679,0.244,-7.710,71.0,94.0
43046,-0.143,-0.986,0.202,-1.000,-0.481,-5.924,72.0,100.0
43101,-0.137,-0.995,0.216,-1.137,-6.298,-5.053,0.0,86.0
43147,-0.119,-1.005,0.204,-0.954,-6.481,-4.626,73.0,87.0
43201,-0.127,-1.004,0.227,-0.817,-11.626,-5.840,0.0,86.0
43250,-0.079,-0.942,0.183,1.275,-8.053,-7.389,72.0,86.0
43303,-0.090,-0.941,0.167,0.802,2.366,-5.397,0.0,85.0
43358,-0.106,-0.937,0.169,-0.008,1.221,-5.664,0.0,86.0
43411,-0.070,-0.972,0.113,-4.519,8.695,-2.878,0.0,86.0
43465,-0.110,-1.009,0.133,-10.076,11.519,-5.947,0.0,91.0
43520,-0.162,-0.981,0.213,-14.962,-4.092,-9.244,0.0,92.0
43574,-0.072,-0.988,0.155,-8.084,-12.160,-2.664,0.0,91.0
43628,-0.069,-1.003,0.157,-3.679,5.214,5.618,0.0,92.0
43682,-0.108,-1.036,0.187,-1.130,3.237,6.916,0.0,93.0
43731,-0.099,-1.004,0.173,-1.137,-6.618,1.214,61.0,91.0
43781,-0.078,-1.013,0.161,-0.183,-5.435,-3.084,104.0,92.0
43829,-0.080,-1.006,0.146,2.641,0.389,-3.313,105.0,92.0
43875,-0.105,-1.015,0.166,3.649,3.649,-3.336,60.0,91.0
43929,-0.100,-1.010,0.138,5.412,0.527,-2.656,0.0,93.0
43983,-0.099,-0.985,0.135,4.122,6.351,-2.084,0.0,91.0
44030,-0.133,-0.983,0.167,3.260,4.641,-3.191,71.0,91.0
44078,-0.140,-0.993,0.158,1.779,-7.473,-3.664,71.0,91.0
44131,-0.080,-0.995,0.118,2.573,-5.450,-0.695,0.0,91.0
44188,-0.120,-0.992,0.167,1.198,-0.275,0.832,0.0,91.0
44242,-0.112,-0.977,0.168,2.328,-9.061,-1.458,0.0,92.0
44301,-0.080,-0.986,0.130,2.466,-7.450,-1.198,0.0,164.0
44360,-0.099,-0.985,0.174,2.649,-0.031,-1.237,0.0,165.0
44418,-0.108,-0.975,0.179,3.550,-5.229,-1.137,0.0,150.0
44470,-0.103,-0.985,0.156,3.573,-4.107,-1.313,105.0,151.0
44522,-0.093,-0.971,0.139,4.954,2.023,-1.107,105.0,148.0
44574,-0.120,-0.974,0.169,3.870,0.985,0.221,105.0,148.0
44626,-0.091,-0.990,0.150,4.031,-0.588,0.252,104.0,148.0
44682,-0.105,-0.989,0.169,1.382,0.664,-0.031,105.0,148.0
44734,-0.099,-0.979,0.183,0.901,-0.954,-1.359,105.0,149.0
44786,-0.105,-0.990,0.184,0.183,-1.328,-1.855,105.0,151.0
44838,-0.092,-0.991,0.170,0.168,0.221,-2.901,106.0,149.0
44891,-0.107,-0.980,0.190,0.336,-0.382,-3.145,106.0,149.0
44949,-0.098,-0.971,0.184,0.901,1.160,-2.198,0.0,149.0
45006,-0.116,-0.984,0.180,0.893,0.603,-2.702,0.0,150.0
45065,-0.111,-0.977,0.171,-0.641,0.237,-2.641,0.0,165.0
45123,-0.107,-0.981,0.178,-0.489,-0.664,-2.031,0.0,152.0
45184,-0.114,-0.984,0.176,-1.282,-1.710,-3.046,0.0,150.0
45239,-0.111,-0.985,0.177,-1.626,-0.092,-1.336,0.0,95.0
45293,-0.112,-0.996,0.179,-1.664,-3.435,-0.305,0.0,94.0
45347,-0.107,-1.000,0.188,-0.855,-2.023,0.863,0.0,93.0
45446,-0.111,-0.981,0.181,1.481,-3.313,-0.527,0.0,91.0
45500,-0.102,-0.987,0.170,1.603,-5.359,-1.748,0.0,93.0
45554,-0.107,-0.988,0.164,3.229,-1.481,-1.450,0.0,94.0
45609,-0.118,-0.986,0.175,2.954,-2.237,-0.824,0.0,95.0
45664,-0.095,-0.979,0.164,3.527,-0.214,-0.053,0.0,95.0
45722,-0.124,-0.981,0.179,2.366,-1.931,-1.840,0.0,95.0
45776,-0.099,-0.974,0.167,1.985,-2.725,-2.489,0.0,94.0
45831,-0.112,-0.970,0.162,2.031,-0.198,-1.695,0.0,93.0
45886,-0.125,-0.972,0.176,1.817,-0.511,-1.122,0.0,93.0
45940,-0.107,-0.976,0.169,2.061,1.893,0.031,0.0,92.0
45995,-0.129,-0.981,0.175,0.855,3.947,0.282,0.0,91.0
46049,-0.130,-0.983,0.187,0.794,-1.321,0.298,0.0,91.0
46103,-0.110,-0.989,0.188,1.069,1.084,0.244,0.0,92.0
46158,-0.120,-0.981,0.198,1.153,-0.382,-0.756,0.0,91.0
46216,-0.119,-0.982,0.184,1.489,-1.298,-1.489,0.0,91.0
46270,-0.108,-0.995,0.176,1.260,-0.122,-2.779,0.0,92.0
46325,-0.129,-0.989,0.187,0.542,0.519,-3.496,0.0,91.0
46380,-0.124,-0.988,0.200,-0.160,-4.336,-3.107,0.0,91.0
46429,-0.123,-0.977,0.184,-0.489,-3.611,-3.137,106.0,92.0
46478,-0.134,-0.986,0.205,-0.359,-5.733,-3.824,104.0,91.0
46527,-0.108,-0.978,0.180,0.550,-5.489,-3.412,105.0,92.0
46576,-0.125,-0.977,0.198,1.038,-2.664,-1.084,104.0,91.0
46625,-0.121,-0.990,0.198,2.397,-5.534,-0.023,104.0,91.0
46678,-0.117,-0.974,0.186,2.733,-1.237,1.855,104.0,91.0
46727,-0.129,-0.974,0.203,2.847,-4.489,2.237,104.0,90.0
46775,-0.127,-0.979,0.193,0.977,-9.908,0.382,105.0,90.0
46824,-0.113,-0.978,0.196,0.580,-10.901,-1.947,104.0,91.0
46871,-0.111,-0.979,0.183,0.947,-6.542,-0.756,71.0,90.0
46919,-0.125,-0.982,0.196,1.290,-4.626,-0.031,71.0,92.0
46967,-0.137,-0.980,0.202,0.679,-9.107,-0.084,103.0,90.0
47016,-0.128,-0.985,0.201,0.405,-11.763,-0.282,103.0,90.0
47066,-0.125,-0.988,0.203,0.382,-13.084,-0.450,103.0,91.0
47116,-0.107,-0.980,0.200,1.557,-6.107,0.611,72.0,90.0
47165,-0.126,-0.989,0.217,1.840,-6.267,0.290,103.0,91.0
47214,-0.110,-0.972,0.213,2.611,-9.977,-0.076,103.0,90.0
47261,-0.107,-0.982,0.201,2.573,-7.924,-0.534,74.0,91.0
47309,-0.108,-0.972,0.194,3.221,-6.008,-0.305,74.0,90.0
47358,-0.114,-0.974,0.208,2.718,-4.885,0.550,103.0,90.0
47407,-0.112,-0.980,0.193,2.374,-5.794,0.260,103.0,90.0
47456,-0.107,-0.970,0.203,1.557,-3.748,0.908,104.0,91.0
47506,-0.129,-0.981,0.217,0.977,-7.115,0.817,105.0,92.0
47563,-0.102,-0.973,0.203,1.069,-7.038,0.740,0.0,90.0
47619,-0.117,-0.973,0.219,1.427,-3.565,0.573,0.0,93.0
47668,-0.102,-0.956,0.214,2.748,-5.252,-0.084,106.0,95.0
47717,-0.109,-0.939,0.230,3.817,-7.672,0.176,105.0,91.0
47766,-0.104,-0.932,0.232,7.405,-9.656,-0.023,106.0,91.0
47815,-0.184,-0.967,0.377,9.107,-23.023,2.038,107.0,86.0
47864,-0.161,-1.108,0.439,19.137,-48.786,4.069,107.0,86.0
47920,-0.035,-0.962,0.370,42.824,-28.916,23.466,0.0,95.0
47969,-0.083,-0.992,0.314,33.130,4.359,43.527,108.0,80.0
48064,-0.619,-0.959,0.623,-49.962,15.534,-17.481,94.0,87.0
48112,-0.692,-0.682,0.525,-68.137,-139.053,-71.130,95.0,88.0
48166,-0.389,-0.498,0.082,-80.198,-230.221,-118.427,101.0,70.0
48219,0.046,-0.379,-0.282,-65.252,-179.481,-125.595,0.0,67.0
48266,0.254,0.212,-0.313,-42.038,-59.122,-70.008,74.0,90.0
48317,0.247,-0.128,-0.399,-35.046,6.786,3.718,0.0,49.0
48371,0.100,-0.289,-0.255,-24.985,63.374,25.618,0.0,48.0
48417,-0.359,-1.431,-0.087,0.344,-13.542,46.779,72.0,76.0
48461,-0.060,-1.242,-0.058,89.786,-2.924,129.511,70.0,46.0
48509,-0.194,-1.223,0.352,43.359,38.733,207.718,90.0,49.0
48552,-0.378,-1.391,0.424,19.214,56.229,200.893,62.0,51.0
48596,-0.549,-1.076,0.628,20.832,-14.977,163.992,62.0,53.0
48641,-0.505,-1.249,0.469,-1.802,-100.733,114.427,58.0,57.0
48685,-0.375,-1.556,0.020,41.527,-97.389,50.099,59.0,58.0
48730,-0.389,-1.828,0.080,38.214,-36.145,29.191,90.0,59.0
48775,-0.668,-1.558,-0.070,49.122,-14.168,41.947,71.0,60.0
48820,-0.355,-0.854,-0.106,147.137,23.405,52.634,72.0,62.0
48867,-0.595,-0.679,0.365,106.794,59.794,73.695,73.0,62.0
48913,-0.397,-1.423,-0.167,140.496,104.603,89.817,74.0,67.0
48960,-1.203,-0.983,1.129,15.603,201.824,-42.771,75.0,103.0
49006,-1.426,-0.630,1.024,49.840,-33.221,-61.427,77.0,67.0
49058,-0.530,-0.406,0.231,173.832,-109.008,-3.290,0.0,67.0
49111,-0.264,-0.170,0.267,73.733,-3.336,7.282,0.0,63.0
49164,-0.998,-1.371,0.547,-33.649,23.458,2.176,0.0,80.0
49217,-0.944,-0.711,0.761,14.168,-159.908,35.931,0.0,62.0
49262,-0.892,-0.504,1.204,72.947,-152.466,67.023,80.0,63.0
49310,-0.283,-0.688,0.418,164.313,-99.580,62.443,79.0,62.0
49356,-0.081,-0.023,0.190,201.458,29.191,108.580,80.0,74.0
49410,-0.386,0.484,0.440,65.496,100.252,148.756,0.0,75.0
49463,-0.624,-0.211,0.756,-8.565,14.160,167.519,0.0,78.0
49517,-0.424,-0.130,0.711,79.137,-76.748,130.626,0.0,97.0
49564,-0.239,0.417,0.585,71.260,-123.145,76.405,78.0,85.0
49612,-0.083,0.942,0.777,-17.053,-86.229,50.916,75.0,104.0
49667,-0.194,0.156,0.900,-38.863,-173.672,71.244,197.0,111.0
49722,0.395,0.229,0.242,135.435,-156.924,54.656,72.0,176.0
49769,0.337,0.898,0.334,24.641,-65.351,67.191,66.0,109.0
49815,0.557,0.265,0.414,-4.641,-7.137,74.969,71.0,69.0
49859,0.493,0.356,0.582,76.771,65.458,22.573,67.0,66.0
49912,0.197,0.912,0.776,45.420,50.183,-2.420,0.0,64.0
49968,0.140,0.701,0.962,-1.382,-9.550,-58.313,0.0,60.0
50013,0.102,0.701,0.713,11.656,-15.382,-97.840,77.0,56.0
50058,0.026,0.726,0.626,-9.214,30.427,-116.947,81.0,53.0
50110,-0.354,0.603,0.836,-33.008,76.847,-105.435,0.0,49.0
50164,-0.516,0.384,0.896,-39.679,35.695,-83.321,0.0,47.0
50220,-0.649,0.338,1.020,-61.183,-0.382,-87.611,0.0,46.0
50273,-0.391,0.307,0.892,-52.183,-47.725,-85.435,0.0,74.0
50326,-0.280,0.173,0.894,-70.321,9.061,-71.992,0.0,75.0
50369,-0.355,0.179,0.996,-48.137,31.756,-79.504,10.0,89.0
50412,-0.530,0.150,1.064,-51.435,25.008,-82.206,9.0,81.0
50455,-0.478,0.073,0.934,-39.130,-0.336,-85.183,10.0,89.0
50552,-0.402,0.063,0.766,-34.847,60.084,-69.748,0.0,101.0
50597,-0.463,-0.061,0.795,-18.573,93.603,-46.603,16.0,97.0
50643,-0.970,-0.096,0.948,15.115,106.122,10.924,16.0,90.0
50698,-0.582,-0.023,0.781,-0.412,4.267,4.450,0.0,90.0
50742,-0.565,-0.091,0.700,8.237,54.290,-5.038,16.0,91.0
50796,-0.693,-0.031,0.740,10.031,59.534,-2.092,0.0,95.0
50838,-0.686,-0.080,0.705,8.649,54.000,-7.069,16.0,67.0
50880,-0.789,-0.064,0.664,8.656,51.000,-4.687,16.0,67.0
50924,-0.707,-0.028,0.555,4.489,52.954,-5.542,16.0,92.0
50978,-0.769,-0.049,0.557,1.229,77.954,-1.664,0.0,94.0
51027,-0.728,0.005,0.504,11.687,9.267,-5.443,0.0,4.0
51080,-0.812,0.002,0.503,2.374,-3.962,-8.183,0.0,5.0
51116,-0.832,-0.066,0.470,3.267,4.038,-2.092,0.0,4.0
51165,-0.814,-0.020,0.529,3.252,-2.954,-3.947,0.0,4.0
51214,-0.826,-0.036,0.515,1.817,-2.183,-5.229,0.0,5.0
51267,-0.799,-0.037,0.541,1.969,-6.985,-3.550,0.0,5.0
51316,-0.845,-0.087,0.514,3.641,-1.137,-3.328,0.0,5.0
51352,-0.853,-0.081,0.485,3.672,3.015,-4.069,0.0,5.0
51401,-0.835,-0.046,0.531,2.366,-1.832,-3.214,0.0,5.0
51453,-0.795,-0.042,0.537,1.534,-5.542,0.412,0.0,5.0
51504,-0.806,-0.028,0.545,1.260,-0.687,1.733,0.0,5.0
51559,-0.821,-0.024,0.541,0.573,-1.321,-0.771,0.0,5.0
51609,-0.812,-0.030,0.537,0.328,-1.038,-2.588,0.0,5.0
51662,-0.812,-0.032,0.534,0.244,-1.847,-2.763,0.0,5.0
51712,-0.813,-0.034,0.529,0.374,-1.328,-1.977,0.0,5.0
51765,-0.813,-0.036,0.533,0.489,-1.771,-1.168,0.0,5.0
51814,-0.809,-0.039,0.530,0.458,-1.733,-0.794,0.0,4.0
51850,-0.817,-0.038,0.529,0.504,-2.130,-1.221,0.0,4.0
51899,-0.816,-0.031,0.530,0.481,-2.168,-1.695,0.0,4.0
51951,-0.816,-0.034,0.528,0.450,-2.092,-2.061,0.0,4.0
52004,-0.812,-0.030,0.533,0.511,-2.145,-2.573,0.0,5.0
52058,-0.814,-0.032,0.523,0.519,-1.931,-2.076,0.0,5.0
52107,-0.809,-0.033,0.527,0.695,-2.107,-1.947,0.0,4.0
52160,-0.814,-0.036,0.525,0.496,-2.130,-1.695,0.0,5.0
52209,-0.819,-0.041,0.539,0.534,-1.908,-1.328,0.0,5.0
52262,-0.814,-0.033,0.538,0.344,-1.863,-1.618,0.0,5.0
52312,-0.814,-0.035,0.531,0.481,-1.992,-1.550,0.0,4.0
52365,-0.808,-0.035,0.536,0.672,-1.931,-1.198,0.0,4.0
52414,-0.816,-0.035,0.531,0.573,-1.977,-1.588,0.0,4.0
52470,-0.806,-0.042,0.525,0.626,-2.168,-1.626,0.0,4.0
52520,-0.809,-0.035,0.527,0.458,-1.969,-1.542,0.0,4.0
52573,-0.813,-0.043,0.535,0.527,-2.031,-1.809,0.0,4.0
52623,-0.815,-0.032,0.520,0.557,-2.214,-1.817,0.0,5.0
52676,-0.811,-0.038,0.533,0.550,-1.557,-1.496,0.0,4.0
52725,-0.813,-0.035,0.531,0.580,-2.267,-1.817,0.0,4.0
52779,-0.816,-0.033,0.538,0.435,-2.053,-1.580,0.0,4.0
52828,-0.814,-0.032,0.531,0.511,-1.687,-1.634,0.0,5.0
52881,-0.821,-0.034,0.527,0.473,-1.924,-1.687,0.0,4.0
52931,-0.812,-0.034,0.535,0.565,-1.901,-1.725,0.0,4.0
52987,-0.817,-0.037,0.520,0.519,-2.153,-1.641,0.0,4.0
53080,-0.818,-0.041,0.532,0.473,-2.198,-1.573,0.0,4.0
53133,-0.811,-0.034,0.527,0.618,-2.099,-1.672,0.0,4.0
53183,-0.819,-0.031,0.530,0.496,-2.145,-1.656,0.0,4.0
53235,-0.814,-0.034,0.530,0.443,-2.137,-1.664,0.0,4.0
53285,-0.820,-0.036,0.524,0.573,-1.870,-1.611,0.0,4.0
53339,-0.812,-0.028,0.526,0.641,-2.076,-1.611,0.0,4.0
53388,-0.815,-0.032,0.528,0.443,-2.053,-1.634,0.0,4.0
53441,-0.813,-0.041,0.524,0.473,-2.160,-1.718,0.0,4.0
53494,-0.818,-0.030,0.528,0.412,-2.092,-1.763,0.0,4.0
53547,-0.807,-0.030,0.522,0.565,-1.985,-1.588,0.0,4.0
53597,-0.814,-0.036,0.541,0.366,-2.069,-1.771,0.0,4.0
53650,-0.815,-0.042,0.530,0.542,-2.046,-1.534,0.0,4.0
53699,-0.818,-0.031,0.530,0.611,-2.038,-1.626,0.0,4.0
53752,-0.816,-0.033,0.530,0.580,-2.168,-1.779,0.0,4.0
53803,-0.813,-0.030,0.533,0.519,-2.038,-1.550,0.0,4.0
53856,-0.812,-0.039,0.533,0.481,-2.160,-1.603,0.0,4.0
53905,-0.816,-0.033,0.529,0.412,-1.962,-1.802,0.0,4.0
53961,-0.819,-0.035,0.542,0.641,-2.313,-1.550,0.0,4.0
54011,-0.808,-0.036,0.530,0.427,-2.038,-1.542,0.0,4.0
54065,-0.817,-0.033,0.528,0.573,-2.252,-1.679,0.0,4.0
54115,-0.807,-0.038,0.528,0.603,-2.137,-1.573,0.0,4.0
54168,-0.821,-0.041,0.533,0.527,-1.733,-1.679,0.0,4.0
54218,-0.815,-0.041,0.527,0.527,-2.160,-1.702,0.0,4.0
54272,-0.813,-0.030,0.539,0.626,-1.985,-1.527,0.0,4.0
54322,-0.811,-0.033,0.529,0.496,-1.947,-1.756,0.0,4.0
54375,-0.813,-0.033,0.526,0.466,-2.015,-1.672,0.0,4.0
54428,-0.812,-0.033,0.533,0.427,-1.931,-1.725,0.0,4.0
54481,-0.819,-0.032,0.521,0.511,-2.305,-1.656,0.0,4.0
54532,-0.817,-0.032,0.533,0.603,-1.969,-1.588,0.0,4.0
54587,-0.809,-0.031,0.531,0.557,-2.260,-1.595,0.0,4.0
54622,-0.808,-0.032,0.528,0.550,-1.863,-1.527,0.0,4.0
54671,-0.819,-0.038,0.531,0.458,-2.107,-1.481,0.0,4.0
54706,-0.816,-0.031,0.519,0.443,-2.092,-1.672,0.0,4.0
54755,-0.813,-0.031,0.524,0.443,-2.183,-1.550,0.0,4.0
54790,-0.812,-0.038,0.539,0.466,-2.221,-1.733,0.0,4.0
54838,-0.807,-0.031,0.526,0.595,-2.153,-1.557,0.0,4.0
54893,-0.809,-0.038,0.527,0.557,-2.145,-1.557,0.0,4.0
54942,-0.814,-0.038,0.531,0.489,-1.916,-1.740,0.0,4.0
54978,-0.815,-0.034,0.525,0.519,-2.206,-1.542,0.0,4.0
55026,-0.817,-0.040,0.526,0.534,-2.000,-1.641,0.0,4.0
55062,-0.811,-0.034,0.531,0.588,-1.832,-1.802,0.0,4.0
55110,-0.812,-0.034,0.540,0.573,-2.267,-1.595,0.0,4.0
55146,-0.816,-0.036,0.531,0.588,-1.893,-1.817,0.0,4.0
55194,-0.809,-0.041,0.524,0.611,-1.885,-1.733,0.0,4.0
55230,-0.815,-0.034,0.522,0.672,-2.153,-1.611,0.0,4.0
55281,-0.823,-0.038,0.538,0.458,-1.931,-1.771,0.0,4.0
55317,-0.817,-0.032,0.536,0.542,-1.962,-1.634,0.0,4.0
55366,-0.810,-0.038,0.526,0.405,-2.000,-1.702,0.0,4.0
55401,-0.808,-0.034,0.536,0.466,-2.069,-1.702,0.0,4.0
55450,-0.816,-0.032,0.531,0.519,-1.924,-1.656,0.0,4.0
55542,-0.819,-0.035,0.533,0.534,-1.916,-1.695,0.0,4.0
55577,-0.813,-0.037,0.536,0.573,-2.038,-1.519,0.0,4.0
55626,-0.811,-0.031,0.535,0.573,-2.092,-1.603,0.0,4.0
55662,-0.821,-0.037,0.525,0.595,-1.824,-1.725,0.0,4.0
55713,-0.814,-0.038,0.531,0.496,-1.977,-1.634,0.0,4.0
55749,-0.812,-0.037,0.534,0.511,-2.282,-1.588,0.0,4.0
55797,-0.813,-0.038,0.533,0.542,-1.954,-1.519,0.0,4.0
55833,-0.815,-0.036,0.528,0.489,-2.031,-1.550,0.0,4.0
55882,-0.813,-0.034,0.525,0.374,-2.031,-1.809,0.0,4.0
55917,-0.819,-0.029,0.531,0.618,-2.176,-1.489,0.0,4.0
55966,-0.814,-0.041,0.524,0.450,-2.313,-1.450,0.0,4.0
56002,-0.815,-0.041,0.531,0.557,-1.893,-1.672,0.0,4.0
56051,-0.821,-0.040,0.523,0.557,-2.023,-1.626,0.0,4.0
56086,-0.807,-0.029,0.534,0.504,-2.046,-1.641,0.0,4.0
56138,-0.808,-0.029,0.541,0.489,-2.099,-1.611,0.0,4.0
56173,-0.818,-0.032,0.532,0.382,-1.878,-1.588,0.0,4.0
56222,-0.813,-0.037,0.529,0.672,-2.137,-1.557,0.0,4.0
56258,-0.813,-0.037,0.533,0.481,-1.824,-1.840,0.0,4.0
56307,-0.813,-0.030,0.538,0.565,-2.008,-1.527,0.0,4.0
56342,-0.818,-0.035,0.530,0.519,-2.061,-1.542,0.0,4.0
56391,-0.813,-0.033,0.521,0.527,-2.008,-1.573,0.0,4.0
56427,-0.814,-0.035,0.537,0.618,-2.198,-1.595,0.0,4.0
56476,-0.814,-0.038,0.534,0.656,-2.191,-1.595,0.0,4.0
56531,-0.817,-0.036,0.531,0.542,-1.977,-1.534,0.0,4.0
56581,-0.815,-0.038,0.528,0.550,-2.115,-1.679,0.0,4.0
56634,-0.819,-0.037,0.529,0.611,-2.031,-1.427,0.0,4.0
56683,-0.814,-0.037,0.532,0.458,-1.893,-1.634,0.0,4.0
56736,-0.812,-0.038,0.530,0.588,-2.252,-1.557,0.0,4.0
56785,-0.817,-0.033,0.524,0.580,-2.053,-1.817,0.0,4.0
56820,-0.811,-0.039,0.527,0.466,-1.924,-1.603,0.0,4.0
56869,-0.816,-0.039,0.521,0.527,-2.344,-1.573,0.0,4.0
56905,-0.813,-0.033,0.536,0.565,-1.916,-1.626,0.0,4.0
56957,-0.809,-0.037,0.536,0.443,-2.099,-1.718,0.0,4.0
57010,-0.817,-0.035,0.535,0.534,-2.107,-1.603,0.0,4.0
57060,-0.811,-0.033,0.527,0.511,-2.130,-1.710,0.0,4.0
57112,-0.817,-0.039,0.528,0.626,-1.969,-1.672,0.0,4.0
57161,-0.812,-0.036,0.522,0.672,-2.122,-1.611,0.0,4.0
57214,-0.818,-0.032,0.536,0.618,-2.115,-1.550,0.0,4.0
57264,-0.816,-0.033,0.525,0.527,-1.962,-1.809,0.0,4.0
57317,-0.812,-0.032,0.527,0.557,-1.977,-1.702,0.0,4.0
57366,-0.813,-0.034,0.538,0.672,-2.015,-1.595,0.0,4.0
57402,-0.820,-0.039,0.537,0.458,-1.985,-1.519,0.0,4.0
57454,-0.812,-0.035,0.523,0.710,-2.252,-1.725,0.0,4.0
57507,-0.810,-0.038,0.523,0.565,-2.076,-1.763,0.0,4.0
57556,-0.817,-0.039,0.530,0.534,-1.931,-1.618,0.0,4.0
57592,-0.815,-0.035,0.533,0.573,-2.267,-1.588,0.0,4.0
57641,-0.808,-0.038,0.531,0.557,-2.038,-1.702,0.0,4.0
57695,-0.814,-0.037,0.533,0.618,-1.908,-1.786,0.0,4.0
57744,-0.818,-0.031,0.528,0.481,-2.000,-1.595,0.0,4.0
57797,-0.809,-0.038,0.528,0.588,-2.023,-1.748,0.0,4.0
57889,-0.813,-0.030,0.530,0.611,-2.183,-1.710,0.0,4.0
57946,-0.817,-0.035,0.525,0.710,-2.206,-1.611,0.0,4.0
57995,-0.813,-0.036,0.530,0.557,-1.931,-1.603,0.0,4.0
58031,-0.819,-0.037,0.531,0.511,-2.176,-1.695,0.0,4.0
58080,-0.817,-0.034,0.521,0.511,-2.061,-1.710,0.0,4.0
58133,-0.809,-0.039,0.530,0.573,-2.122,-1.550,0.0,4.0
58182,-0.812,-0.035,0.529,0.618,-1.947,-1.603,0.0,4.0
58235,-0.817,-0.038,0.541,0.573,-2.168,-1.603,0.0,4.0
58285,-0.812,-0.032,0.530,0.618,-1.992,-1.496,0.0,4.0
58338,-0.814,-0.034,0.531,0.450,-2.046,-1.672,0.0,4.0
58391,-0.823,-0.035,0.531,0.603,-2.985,-1.863,0.0,4.0
58443,-0.845,-0.036,0.533,-2.427,-16.588,-3.870,0.0,4.0
58499,-0.870,-0.043,0.559,-5.527,-26.412,2.435,0.0,91.0
58553,-0.464,-0.125,0.473,4.939,6.985,-5.725,0.0,91.0
58602,-0.863,0.102,0.581,12.321,29.466,-1.229,0.0,4.0
58656,-0.862,-0.033,0.537,1.519,-13.153,-5.420,0.0,5.0
58705,-0.792,-0.037,0.546,5.168,-1.031,-1.916,0.0,5.0
58759,-0.764,-0.028,0.550,-4.382,-6.985,-0.015,0.0,5.0
58808,-0.812,-0.029,0.519,2.847,18.840,3.840,0.0,4.0
58865,-0.936,0.002,0.514,-2.405,-15.855,-5.916,0.0,4.0
58914,-0.755,-0.051,0.548,1.802,-10.405,-5.191,0.0,5.0
58968,-0.828,-0.032,0.535,1.359,0.489,-0.183,0.0,5.0
59018,-0.835,-0.030,0.545,-0.863,-11.328,-2.450,0.0,4.0
59071,-0.800,-0.027,0.581,0.244,-18.191,-3.305,0.0,5.0
59120,-0.980,-0.050,0.524,8.870,12.481,-16.084,0.0,4.0
59174,-0.946,-0.021,0.574,-5.237,22.252,-59.405,0.0,6.0
59224,-0.600,0.042,0.549,-0.786,45.931,-51.786,0.0,5.0
59277,-0.682,-0.018,0.511,-6.023,6.115,49.748,0.0,4.0
59327,-0.971,-0.230,1.250,5.260,-158.824,104.214,0.0,6.0
59380,-0.142,0.110,0.604,-12.252,49.779,-51.634,0.0,5.0
59433,-0.745,0.087,0.785,-10.252,25.366,-41.634,0.0,4.0
59483,-0.922,-0.253,0.587,11.740,-11.885,-24.183,0.0,4.0
59537,-1.047,-0.136,0.521,6.840,-65.069,-49.290,0.0,7.0
59591,-0.888,-0.126,0.578,4.595,-75.649,-0.916,0.0,92.0
59646,-0.560,-0.247,0.363,15.870,-51.855,29.573,0.0,93.0
59702,-0.624,0.066,0.543,11.710,41.779,54.527,0.0,94.0
59751,-0.602,-0.064,0.531,-1.710,72.344,32.458,0.0,8.0
59801,-1.102,-0.060,0.622,16.817,70.374,-21.756,0.0,8.0
59855,-1.010,0.127,0.737,-2.145,-55.160,30.855,0.0,11.0
59910,-0.792,-0.154,0.402,3.985,-0.573,12.908,0.0,11.0
59960,-0.865,0.083,0.690,11.527,-31.176,18.435,0.0,15.0
60015,-0.632,-0.054,0.297,12.565,3.450,18.634,0.0,98.0
60070,-0.892,0.135,0.485,12.099,5.466,48.282,0.0,100.0
60126,-0.728,0.033,0.423,-8.397,27.153,53.504,0.0,102.0
60181,-1.056,0.275,0.649,10.664,37.771,10.366,0.0,102.0
60236,-1.390,0.201,0.629,-11.137,-51.748,21.565,0.0,106.0
60290,-1.312,0.119,0.369,0.374,-87.847,0.229,0.0,49.0
60347,-1.012,0.379,0.482,-14.153,-48.351,59.092,0.0,75.0
60400,-0.840,-0.189,0.561,-21.206,-32.473,106.344,0.0,62.0
60453,-0.357,-0.343,0.599,-11.824,-38.183,87.786,0.0,66.0
60550,-0.377,0.366,1.162,4.282,-147.847,67.519,0.0,56.0
60606,0.039,0.192,0.678,39.015,-208.817,57.931,0.0,58.0
60651,0.436,0.470,0.619,32.427,-129.099,23.855,26.0,92.0
60696,0.397,0.471,0.534,32.023,-13.718,-23.489,27.0,91.0
60741,0.180,0.664,0.501,38.191,95.924,-11.893,29.0,94.0
60800,-0.290,0.682,0.567,33.298,143.061,22.763,0.0,91.0
60859,-0.667,0.546,0.743,3.511,76.824,-3.420,0.0,78.0
60911,-0.675,0.623,0.785,-7.008,-21.145,-1.641,0.0,59.0
60965,-0.444,0.518,0.661,-12.427,-38.672,19.321,0.0,108.0
61018,-0.413,0.474,0.804,-16.527,-20.802,22.901,0.0,58.0
61073,-0.385,0.450,0.907,-11.122,-40.656,25.664,0.0,59.0
61116,-0.293,0.458,0.906,-7.458,-79.069,20.328,28.0,60.0
61158,-0.148,0.458,0.824,-2.344,-91.359,15.718,30.0,62.0
61205,-0.024,0.494,0.754,-1.695,-78.168,14.382,75.0,94.0
61253,0.008,0.498,0.748,-8.229,-52.794,10.618,78.0,62.0
61300,0.019,0.489,0.758,-12.573,-41.718,9.992,109.0,65.0
61344,0.010,0.494,0.794,-18.053,-39.847,14.649,24.0,97.0
61391,0.052,0.456,0.780,-22.130,-41.824,16.336,75.0,96.0
61435,0.067,0.461,0.843,-29.550,-41.351,15.870,23.0,97.0
61477,0.125,0.392,0.829,-30.664,-41.527,19.069,22.0,64.0
61522,0.120,0.385,0.823,-30.679,-38.718,30.924,78.0,65.0
61568,0.202,0.255,0.711,-27.824,-47.038,61.061,72.0,63.0
61613,0.282,0.301,0.860,-37.931,-23.069,53.229,72.0,65.0
61662,0.422,0.292,0.957,-44.664,28.656,34.336,97.0,64.0
61707,0.407,0.308,1.188,-43.053,72.901,25.718,71.0,64.0
61752,0.094,0.293,1.420,-28.298,77.641,-10.084,72.0,63.0
61797,-0.117,0.250,1.512,-0.908,21.641,-32.427,73.0,61.0
61842,-0.130,0.310,1.512,23.130,-31.336,-52.000,73.0,62.0
61887,-0.186,0.114,1.268,19.351,-65.977,-80.115,74.0,62.0
61933,-0.085,0.098,0.732,32.626,-84.237,-80.344,99.0,64.0
61980,0.165,0.283,0.380,32.229,-13.336,-32.863,100.0,64.0
62022,0.098,0.498,0.523,6.221,35.870,32.260,21.0,67.0
62074,0.017,0.397,0.663,-6.969,9.542,34.786,98.0,104.0
62123,0.073,0.443,0.922,-44.198,-38.366,-0.336,95.0,101.0
62168,0.083,0.297,1.133,-64.115,-88.176,-11.092,69.0,72.0
62217,0.310,0.165,1.033,-45.244,-107.863,-8.160,96.0,107.0
62265,0.376,0.148,0.944,-20.618,-75.893,-8.130,66.0,109.0
62313,0.450,0.097,0.841,-7.802,-50.565,6.237,68.0,132.0
62367,0.451,0.053,0.829,-3.710,-51.069,12.939,87.0,0.0
62416,0.602,0.095,0.740,-0.130,-74.985,34.527,17.0,0.0
62467,0.719,0.099,0.633,4.779,-57.221,37.359,16.0,0.0
62520,0.777,0.099,0.736,5.573,-31.206,39.489,17.0,0.0
62569,0.719,-0.006,0.811,13.679,-21.321,19.298,19.0,0.0
62619,0.771,-0.047,0.814,33.786,-11.191,19.542,17.0,0.0
62669,0.743,-0.175,0.862,53.931,-7.817,18.908,16.0,0.0
62722,0.863,-0.311,0.793,92.260,9.710,11.847,66.0,0.0
62775,0.733,-0.265,0.881,127.183,20.725,13.809,67.0,0.0
62828,0.564,-0.244,0.825,150.832,-24.198,6.992,68.0,0.0
62879,0.555,0.020,0.732,153.603,-67.458,12.863,37.0,0.0
62929,0.826,0.300,0.271,180.214,-51.168,-21.489,33.0,0.0
63025,0.272,0.808,0.258,132.863,64.359,-10.557,94.0,110.0
63074,0.228,1.024,0.174,93.580,-5.847,-1.511,85.0,107.0
63121,0.436,0.806,0.073,70.649,-72.588,-15.130,87.0,85.0
63168,0.652,0.840,-0.122,58.359,-88.313,-30.458,84.0,84.0
63215,0.751,0.874,-0.268,39.137,-51.420,-47.580,86.0,82.0
63263,0.572,0.778,-0.149,20.893,-14.534,-58.542,88.0,99.0
63307,0.465,0.925,-0.048,6.534,-18.611,-57.870,26.0,93.0
63355,0.406,0.875,-0.035,6.267,-24.160,-71.260,92.0,81.0
63398,0.391,1.064,-0.020,6.130,-20.359,-68.160,28.0,78.0
63443,0.395,1.349,0.075,1.618,-28.595,-41.244,25.0,46.0
63485,0.401,1.641,0.005,18.229,-47.458,1.527,27.0,44.0
63526,0.396,0.593,-0.082,35.947,-45.931,5.496,30.0,44.0
63572,0.377,0.674,-0.110,44.168,-12.901,-28.763,92.0,43.0
63613,0.405,1.307,-0.111,50.908,1.489,-29.321,30.0,42.0
63655,0.386,0.833,-0.153,51.092,7.519,-9.611,27.0,42.0
63696,0.299,1.001,-0.104,47.313,0.931,-7.649,29.0,41.0
63738,0.349,0.948,-0.186,36.656,-9.878,-3.481,29.0,40.0
63779,0.383,0.948,-0.227,28.985,-5.267,1.183,26.0,40.0
63824,0.405,0.915,-0.253,26.481,8.725,5.580,26.0,40.0
63865,0.398,0.899,-0.240,28.214,19.176,7.557,27.0,40.0
63906,0.380,0.886,-0.223,30.786,18.603,9.290,25.0,40.0
63948,0.382,0.882,-0.225,33.817,9.069,10.382,26.0,40.0
63989,0.373,0.871,-0.236,35.473,-8.015,8.794,27.0,40.0
64031,0.406,0.876,-0.286,35.656,-22.305,5.863,28.0,40.0
64072,0.431,0.856,-0.338,33.771,-28.573,2.550,24.0,40.0
64113,0.459,0.854,-0.403,34.458,-24.420,0.153,25.0,39.0
64155,0.457,0.850,-0.443,32.221,-12.603,-0.733,25.0,39.0
64208,0.403,0.811,-0.416,30.092,-9.252,-4.069,24.0,39.0
64251,0.408,0.802,-0.427,34.061,-15.885,-7.145,25.0,39.0
64295,0.425,0.804,-0.472,37.504,-15.130,-9.107,26.0,39.0
64339,0.408,0.815,-0.516,37.977,-8.534,-10.176,25.0,39.0
64384,0.397,0.804,-0.524,33.015,-6.382,-12.275,25.0,39.0
64428,0.398,0.779,-0.564,32.282,-3.496,-13.809,27.0,39.0
64471,0.391,0.765,-0.590,32.573,4.282,-14.878,26.0,38.0
64515,0.387,0.772,-0.618,33.053,9.992,-14.595,27.0,38.0
64559,0.349,0.756,-0.583,29.366,7.656,-14.336,30.0,37.0
64606,0.359,0.752,-0.625,28.847,2.656,-16.206,28.0,37.0
64650,0.344,0.719,-0.596,27.809,-1.305,-19.527,30.0,37.0
64694,0.322,0.686,-0.558,34.107,-10.725,-22.290,30.0,36.0
64738,0.284,0.637,-0.559,47.489,-21.710,-25.267,29.0,35.0
64782,0.258,0.698,-0.604,56.611,-26.977,-24.122,29.0,35.0
64826,0.242,0.671,-0.698,59.443,-23.817,-21.267,42.0,34.0
64870,0.174,0.614,-0.772,64.992,-24.237,-15.031,32.0,36.0
64916,0.170,0.604,-0.852,63.702,-27.557,-7.527,32.0,65.0
64960,0.190,0.514,-0.875,60.282,-25.534,-10.107,34.0,33.0
65009,-0.177,0.922,-0.436,81.382,-118.282,-21.473,33.0,64.0
65053,0.239,0.424,-1.182,49.672,-8.344,-8.672,34.0,36.0
65097,0.015,0.463,-1.027,-29.924,10.779,-23.489,33.0,35.0
65143,0.011,0.450,-0.872,-31.931,-2.046,2.305,34.0,65.0
65189,0.108,0.443,-0.881,1.481,-12.618,1.542,34.0,65.0
