Timestamp(ms),AccelX(g),AccelY(g),AccelZ(g),GyroX(deg/s),GyroY(deg/s),GyroZ(deg/s),DistanceLeft(cm),DistanceRight(cm)
26006,-0.131,-0.979,0.159,0.031,-7.092,3.489,175.0,71.0
26058,-0.127,-0.980,0.144,0.366,-5.229,3.336,0.0,69.0
26110,-0.129,-0.980,0.149,0.885,-3.618,3.061,0.0,64.0
26163,-0.125,-0.982,0.140,1.298,-0.550,2.901,0.0,65.0
26215,-0.132,-0.987,0.165,0.786,-0.458,2.672,0.0,65.0
26267,-0.124,-0.981,0.164,0.969,-1.519,0.962,0.0,65.0
26320,-0.127,-0.978,0.158,-0.069,0.115,0.076,0.0,65.0
26373,-0.137,-0.984,0.166,0.534,1.466,-1.130,0.0,64.0
26428,-0.142,-0.977,0.166,-0.588,0.695,-2.084,0.0,65.0
26480,-0.145,-0.990,0.167,-0.115,0.931,-3.855,0.0,69.0
26532,-0.152,-0.979,0.163,-0.626,0.695,-3.427,0.0,71.0
26587,-0.156,-0.994,0.165,-0.275,-0.244,-2.580,0.0,94.0
26640,-0.157,-0.983,0.173,0.099,-0.893,-0.939,0.0,71.0
26692,-0.157,-0.983,0.167,0.099,-2.580,0.908,0.0,69.0
26744,-0.144,-0.996,0.172,-0.160,-3.275,0.954,0.0,65.0
26798,-0.141,-0.981,0.156,-0.008,-4.336,1.565,0.0,64.0
26850,-0.143,-0.972,0.167,-0.595,-4.336,2.458,0.0,65.0
26905,-0.142,-0.979,0.163,-0.221,-5.290,3.382,0.0,65.0
26957,-0.132,-0.983,0.164,-0.435,-4.313,2.573,0.0,67.0
27011,-0.133,-0.977,0.157,-0.611,-3.405,2.450,0.0,68.0
27063,-0.140,-0.987,0.167,-0.611,-3.214,2.573,0.0,68.0
27116,-0.136,-0.985,0.166,-0.565,-3.588,2.176,0.0,69.0
27168,-0.129,-0.988,0.156,0.031,-1.527,1.588,0.0,70.0
27222,-0.145,-0.980,0.167,-0.122,-0.786,1.206,0.0,68.0
27274,-0.135,-0.987,0.178,0.160,-0.885,0.298,0.0,69.0
27327,-0.148,-0.989,0.163,1.069,-0.450,-0.244,0.0,66.0
27382,-0.146,-0.975,0.166,0.435,-1.008,0.588,0.0,65.0
27435,-0.201,-0.990,0.148,0.099,12.099,6.687,0.0,65.0
27488,-0.508,-0.991,0.133,8.557,65.267,43.412,0.0,70.0
27542,-1.433,-1.042,-0.059,46.817,216.298,96.924,0.0,96.0
27596,-1.914,-1.076,0.863,-20.725,72.267,184.611,0.0,104.0
27651,-0.760,-1.552,0.618,4.901,-223.305,222.756,0.0,91.0
27704,0.809,-1.061,-0.373,93.351,-139.267,109.794,0.0,78.0
27759,-0.055,-0.812,-0.683,85.840,76.603,73.038,0.0,94.0
27812,-0.914,-0.553,0.805,-49.351,-36.885,53.221,0.0,83.0
27872,-0.365,-0.737,0.550,18.382,-166.794,33.053,0.0,121.0
27925,-0.226,-0.538,0.091,44.336,-23.519,-14.298,0.0,84.0
27981,-0.704,-0.418,0.182,11.191,30.458,8.496,0.0,117.0
28035,-0.722,-0.256,0.676,-28.443,-68.519,18.557,0.0,82.0
28089,-0.427,-0.482,0.592,-4.878,-67.824,-11.947,0.0,80.0
28142,-0.655,-0.640,0.577,3.153,-28.084,-9.740,0.0,82.0
28196,-0.724,-0.506,0.761,3.550,-24.344,15.282,0.0,81.0
28250,-0.269,-0.520,0.594,9.916,-40.420,-2.267,0.0,82.0
28304,-0.212,-0.429,0.471,6.473,10.588,-11.344,0.0,89.0
28360,-0.698,-0.330,0.844,-12.092,20.641,-25.427,0.0,83.0
28414,-0.729,-0.572,0.773,-1.344,-42.214,-33.351,0.0,82.0
28470,-0.379,-0.678,0.493,6.046,-4.840,2.977,0.0,101.0
28523,-0.449,-0.373,0.805,3.473,-0.229,-0.115,0.0,89.0
28577,-0.479,-0.380,0.708,5.725,-8.260,-23.427,0.0,86.0
28632,-0.608,-0.655,0.720,8.595,-6.046,-11.969,0.0,89.0
28728,-0.482,-0.320,0.843,-3.473,-1.557,-11.908,0.0,80.0
28782,-0.543,-0.455,0.820,11.214,5.290,-10.000,0.0,81.0
28835,-0.548,-0.547,0.673,10.916,2.038,-11.267,0.0,80.0
28893,-0.466,-0.576,0.545,9.397,18.176,-5.809,0.0,80.0
28946,-0.335,-0.472,0.782,1.282,-19.137,10.618,0.0,82.0
29000,-0.480,-0.292,0.842,-5.550,12.160,-43.191,0.0,91.0
29054,-0.705,-0.705,0.631,15.977,8.573,-12.061,0.0,84.0
29108,-0.231,-0.731,0.551,13.947,-18.427,12.252,0.0,82.0
29162,-0.453,-0.250,0.851,0.679,19.916,-9.466,0.0,84.0
29216,-0.664,-0.653,0.724,18.763,-1.969,-32.000,0.0,90.0
29271,-0.172,-0.735,0.512,7.641,-11.031,8.244,0.0,81.0
29325,-0.298,-0.445,0.742,3.412,-7.176,-41.718,0.0,98.0
29382,-0.619,-0.386,0.787,11.504,34.908,-9.481,0.0,83.0
29436,-0.383,-0.700,0.808,15.885,-9.527,3.557,0.0,92.0
29491,-0.221,-0.419,0.983,20.534,-7.626,-18.321,0.0,86.0
29545,-0.563,-0.336,0.730,28.481,35.779,-43.313,0.0,85.0
29599,-0.697,-0.464,0.603,15.214,-22.519,-17.389,0.0,80.0
29652,-0.452,-0.409,0.705,-4.473,-31.588,7.191,0.0,80.0
29707,-0.422,-0.319,0.958,-15.947,-36.023,6.748,0.0,84.0
29761,-0.337,-0.464,0.657,-5.046,-37.458,-22.611,0.0,90.0
29818,-0.398,-0.568,0.790,-7.489,-19.405,27.649,0.0,83.0
29873,-0.097,-0.440,0.732,-21.481,-52.908,18.481,0.0,89.0
29927,-0.062,-0.485,0.749,-16.145,-3.481,1.481,0.0,85.0
29981,-0.379,-0.524,0.791,-13.756,25.542,2.847,0.0,89.0
30035,-0.496,-0.489,0.844,-13.198,-20.466,22.634,0.0,85.0
30094,-0.286,-0.460,0.815,-18.489,-21.519,35.351,0.0,155.0
30149,-0.197,-0.457,0.715,-13.366,-0.267,21.473,0.0,91.0
30199,-0.161,-0.533,0.598,-27.489,-9.198,17.924,126.0,96.0
30254,-0.150,-0.520,0.558,-40.527,5.595,3.053,0.0,88.0
30311,-0.250,-0.519,0.564,-58.214,22.916,-10.672,0.0,86.0
30365,-0.348,-0.667,0.515,-68.496,21.603,-8.290,0.0,85.0
30419,-0.359,-0.762,0.676,-83.145,30.176,-13.046,0.0,85.0
30474,-0.273,-0.797,0.517,-71.969,17.656,-20.840,0.0,82.0
30528,-0.333,-0.880,0.442,-73.359,23.443,-5.557,0.0,80.0
30582,-0.342,-0.847,0.490,-75.076,-3.084,-19.786,0.0,82.0
30636,-0.186,-0.875,0.360,-66.603,-8.412,-2.740,0.0,70.0
30689,-0.218,-0.882,0.354,-62.847,15.038,3.405,0.0,70.0
30742,-0.249,-0.996,0.319,-59.412,11.832,0.076,0.0,66.0
30798,-0.230,-1.132,0.183,-56.947,-5.519,-4.290,0.0,64.0
30852,-0.231,-0.954,0.142,-54.931,6.115,-30.382,0.0,61.0
30905,-0.275,-0.949,0.087,-48.290,6.405,-23.557,0.0,59.0
30957,-0.364,-1.064,0.020,-39.084,33.748,-43.382,0.0,57.0
31010,-0.378,-0.986,0.006,-33.664,46.626,-36.420,0.0,55.0
31060,-0.454,-0.938,0.075,-37.191,42.649,-13.130,162.0,54.0
31111,-0.405,-0.999,0.026,-26.908,18.618,-1.580,164.0,52.0
31163,-0.250,-0.990,-0.142,-14.115,43.786,4.565,0.0,51.0
31216,-0.364,-1.059,-0.055,-8.847,45.656,17.008,0.0,51.0
31271,-0.335,-1.037,-0.046,-6.794,22.840,20.420,0.0,52.0
31326,-0.271,-1.057,-0.114,2.275,19.382,18.084,0.0,76.0
31381,-0.339,-0.971,-0.069,4.305,26.519,20.313,0.0,98.0
31478,-0.307,-0.923,-0.095,14.794,38.145,27.031,0.0,93.0
31533,-0.311,-0.942,-0.177,24.336,55.031,40.397,0.0,79.0
31587,-0.483,-0.994,-0.096,29.969,53.427,62.748,0.0,75.0
31640,-0.450,-1.003,-0.148,48.053,91.389,87.435,0.0,76.0
31694,-0.809,-1.086,0.005,83.916,153.947,135.168,0.0,81.0
31749,-1.566,-1.042,0.447,70.122,119.672,183.756,0.0,78.0
31806,-1.718,-1.116,0.280,108.847,-13.389,250.130,197.0,84.0
31858,-1.184,-1.035,-0.165,138.130,-32.435,250.130,144.0,90.0
31909,-1.017,-0.736,-0.174,130.992,2.985,250.130,133.0,99.0
31962,-0.948,-0.586,-0.173,77.916,-29.756,250.130,124.0,111.0
32011,-0.657,-0.589,-0.267,43.336,-62.412,250.130,118.0,64.0
32060,-0.182,-0.142,-0.126,28.992,-38.031,250.130,134.0,70.0
32114,-0.059,0.189,-0.212,46.206,-37.740,167.252,0.0,79.0
32160,-0.115,0.862,0.014,4.939,-94.466,85.153,37.0,100.0
32210,0.016,0.947,-0.115,16.832,-66.008,56.183,36.0,114.0
32258,0.009,0.847,-0.225,10.290,-36.198,46.374,36.0,116.0
32314,-0.120,1.042,-0.084,6.183,-7.664,28.366,0.0,118.0
32370,-0.099,0.987,-0.060,-29.504,-16.947,3.336,0.0,120.0
32427,-0.213,0.933,0.102,-36.290,10.634,-8.695,0.0,123.0
32485,-0.416,0.888,0.274,-21.115,-3.038,-22.588,0.0,149.0
32542,-0.479,0.850,0.150,-1.901,-6.176,6.008,0.0,121.0
32601,-0.439,0.856,0.223,-7.832,-11.382,14.962,0.0,151.0
32659,-0.353,0.896,0.241,5.695,-0.473,18.145,0.0,152.0
32719,-0.331,0.875,0.249,20.405,-44.374,16.435,0.0,131.0
32778,-0.152,0.968,0.085,20.466,-36.359,13.137,0.0,150.0
32841,-0.155,0.965,-0.081,10.336,-32.153,-4.405,0.0,153.0
32900,-0.289,1.031,0.173,-16.802,-6.565,-2.443,0.0,161.0
32957,-0.186,0.897,0.274,-5.427,-31.267,4.687,0.0,163.0
33014,-0.144,0.987,0.156,15.855,-25.672,-1.420,0.0,136.0
33070,-0.197,0.992,-0.035,7.328,-21.519,-0.595,0.0,129.0
33129,-0.241,0.949,0.208,-26.198,-14.893,1.031,0.0,173.0
33187,-0.210,0.884,0.361,-10.939,-18.695,-0.679,0.0,173.0
33249,-0.161,0.977,0.215,7.000,-21.267,5.817,0.0,174.0
33307,-0.141,1.048,0.085,1.473,-12.992,6.763,0.0,175.0
33367,-0.174,0.843,0.228,-19.542,-15.527,2.679,0.0,178.0
33425,-0.135,0.908,0.310,-2.824,-7.573,1.061,0.0,177.0
33482,-0.183,0.961,0.209,7.260,-12.366,-1.794,0.0,140.0
33541,-0.101,0.982,0.122,-6.405,-2.863,1.634,0.0,172.0
33600,-0.122,0.922,0.218,-13.145,1.832,-1.924,0.0,179.0
33657,-0.085,0.889,0.291,-15.214,5.908,-8.221,0.0,150.0
33715,-0.015,0.889,0.181,-18.466,18.481,-25.634,0.0,150.0
33774,-0.037,0.807,0.177,-27.313,21.046,-52.908,0.0,148.0
33829,-0.149,0.739,0.280,-36.473,29.458,-84.405,0.0,113.0
33887,-0.242,0.708,0.257,-40.679,49.450,-109.023,0.0,132.0
33944,-0.351,0.615,0.150,-49.519,60.794,-131.176,0.0,149.0
33998,-0.612,0.503,0.197,-60.534,90.939,-146.511,0.0,95.0
34053,-0.763,0.337,0.342,-52.901,81.076,-140.214,0.0,93.0
34102,-0.853,0.314,0.270,-45.878,57.366,-153.481,116.0,90.0
34152,-0.887,0.069,0.227,-47.198,33.031,-145.496,119.0,115.0
34206,-0.836,0.068,0.158,-43.672,51.183,-162.550,123.0,108.0
34300,-0.963,-0.302,0.115,-40.924,28.687,-184.015,132.0,100.0
34351,-1.043,-0.441,0.268,-45.244,7.313,-163.794,137.0,95.0
34402,-0.838,-0.538,0.115,-30.939,-18.221,-157.679,144.0,92.0
34459,-0.825,-0.738,0.172,-54.954,-16.527,-164.664,0.0,138.0
34515,-0.671,-0.903,0.012,-48.435,19.847,-162.405,0.0,134.0
34573,-0.757,-1.100,0.255,-41.328,-16.962,-161.176,0.0,132.0
34629,-0.689,-0.976,0.280,-32.466,-101.924,-185.244,0.0,130.0
34689,-0.483,-1.159,0.152,-46.389,-184.130,-161.275,0.0,128.0
34746,-0.081,-0.960,0.008,-15.947,-152.527,-96.718,161.0,178.0
34800,-0.038,-1.046,0.020,-34.252,-47.771,-47.366,162.0,130.0
34852,-0.142,-1.111,0.042,-14.664,6.023,-8.733,161.0,103.0
34904,-0.312,-0.970,0.156,-7.214,-20.634,18.282,162.0,78.0
34956,-0.156,-1.037,-0.049,-2.588,-48.695,33.687,160.0,81.0
35007,-0.111,-0.987,-0.055,-6.031,-43.168,45.763,159.0,79.0
35058,-0.104,-1.055,-0.073,-11.031,-36.107,57.481,158.0,82.0
35109,-0.089,-1.049,-0.066,-7.061,-26.504,65.351,156.0,83.0
35164,-0.063,-1.090,-0.090,-4.198,-16.573,60.817,156.0,87.0
35218,-0.065,-0.984,-0.023,0.511,8.809,50.031,0.0,86.0
35272,-0.139,-1.082,0.016,3.000,8.275,33.878,0.0,85.0
35325,-0.165,-1.060,0.051,14.198,13.412,24.634,0.0,77.0
35380,-0.202,-1.048,0.026,33.115,36.634,31.031,0.0,85.0
35433,-0.261,-1.051,0.020,44.809,64.122,34.786,0.0,86.0
35487,-0.441,-1.050,0.142,53.351,67.786,49.611,0.0,83.0
35543,-0.580,-1.319,0.212,61.908,35.176,63.366,0.0,110.0
35598,-0.751,-1.558,0.346,81.282,9.939,90.145,0.0,107.0
35654,-0.765,-1.567,0.304,117.160,-0.076,108.947,0.0,81.0
35708,-1.023,-1.351,0.216,154.817,-16.412,92.107,0.0,79.0
35762,-0.687,-0.871,0.007,201.992,-15.985,125.733,0.0,68.0
35815,-0.621,-0.280,-0.037,229.481,-13.718,133.176,0.0,70.0
35868,-0.508,-0.119,-0.065,192.725,-31.061,147.969,0.0,73.0
35921,-0.567,0.258,0.209,130.099,-70.328,130.130,0.0,80.0
35976,-0.560,0.091,0.232,92.962,-110.954,98.519,0.0,83.0
36031,-0.318,0.398,0.189,96.344,-84.863,81.038,0.0,102.0
36088,-0.305,0.554,0.294,64.015,-51.336,62.786,0.0,92.0
36144,-0.463,0.579,0.550,15.718,-57.084,36.267,0.0,97.0
36190,-0.352,0.587,0.641,-6.595,-54.687,24.015,39.0,120.0
36246,-0.328,0.547,0.803,-20.763,-56.473,19.359,0.0,121.0
36294,-0.217,0.436,0.723,-12.771,-46.122,12.008,38.0,137.0
36341,-0.207,0.493,0.737,-7.664,-21.672,5.908,36.0,130.0
36388,-0.246,0.445,0.785,-10.069,-23.069,-0.198,37.0,131.0
36436,-0.196,0.515,0.792,-9.885,-29.443,-9.771,37.0,143.0
36487,-0.178,0.523,0.796,-15.107,-18.473,-10.550,39.0,189.0
36541,-0.211,0.539,0.818,-13.313,-14.718,-13.687,31.0,189.0
36600,-0.315,0.551,0.913,-10.718,-14.473,-9.924,0.0,188.0
36661,-0.255,0.489,0.805,-11.908,-21.481,3.412,0.0,188.0
36721,-0.246,0.380,0.867,-22.504,-11.427,3.542,0.0,189.0
36781,-0.150,0.381,0.864,-30.053,-11.901,2.931,0.0,188.0
36841,-0.041,0.333,0.711,-20.779,-3.489,-2.573,0.0,189.0
36901,-0.185,0.325,0.868,-23.031,7.298,-10.618,0.0,188.0
36952,-0.226,0.308,0.915,-33.092,-3.511,-12.214,30.0,188.0
37045,-0.236,0.312,0.965,-30.290,-2.443,-4.107,29.0,187.0
37096,-0.139,0.281,0.827,-30.084,-9.733,0.679,30.0,144.0
37156,-0.109,0.282,0.755,-33.031,4.290,-17.885,0.0,189.0
37216,-0.110,0.220,0.580,-64.618,29.321,-30.099,0.0,188.0
37273,-0.166,0.032,0.346,-65.130,50.374,-37.603,0.0,132.0
37329,-0.165,-0.076,0.359,-95.756,66.137,-56.092,0.0,128.0
37374,-0.207,-0.331,0.406,-126.656,82.053,-83.115,31.0,95.0
37420,-0.272,-0.486,0.482,-132.840,103.733,-99.672,39.0,87.0
37474,-0.253,-0.457,0.484,-145.481,119.031,-112.573,0.0,85.0
37523,-0.615,-0.840,0.564,-170.069,119.191,-135.947,44.0,87.0
37577,-0.704,-1.114,0.522,-160.802,85.504,-124.771,0.0,87.0
37633,-0.701,-1.102,0.343,-131.718,33.519,-129.328,0.0,90.0
37688,-0.520,-1.249,0.292,-111.611,-5.580,-94.176,0.0,114.0
37740,-0.284,-1.243,0.302,-89.947,-1.771,-67.031,108.0,138.0
37793,-0.260,-1.086,0.167,-76.000,-12.893,-75.046,119.0,137.0
37848,-0.236,-1.442,0.142,-79.092,-47.962,-69.397,0.0,88.0
37904,-0.124,-1.200,0.065,-33.550,-55.206,-57.000,0.0,111.0
37958,-0.045,-1.201,0.084,-43.786,-43.939,-10.542,150.0,136.0
38016,-0.113,-1.282,0.288,1.901,-58.924,36.588,149.0,136.0
38071,0.071,-1.081,-0.127,5.924,-31.580,49.435,148.0,137.0
38123,-0.004,-1.063,-0.187,10.534,30.443,37.389,148.0,111.0
38179,-0.112,-0.976,-0.137,5.580,47.137,23.802,0.0,111.0
38236,-0.199,-0.992,-0.013,-4.084,13.038,12.580,0.0,112.0
38288,-0.167,-0.983,-0.058,0.809,-23.206,-1.420,151.0,111.0
38340,-0.150,-0.973,-0.052,-7.374,-34.969,-3.336,150.0,91.0
38392,-0.123,-1.016,-0.090,-2.557,-22.931,-1.710,150.0,90.0
38449,-0.169,-1.037,-0.078,-0.916,-6.099,-0.863,150.0,108.0
38501,-0.180,-1.013,-0.131,4.031,7.557,5.153,151.0,106.0
38554,-0.209,-0.926,-0.094,-1.527,22.679,16.084,152.0,106.0
38607,-0.265,-0.961,-0.104,-2.000,25.847,19.588,152.0,107.0
38661,-0.327,-0.946,-0.075,-3.863,6.542,21.718,154.0,107.0
38714,-0.320,-0.953,-0.118,-8.031,-6.099,27.763,154.0,107.0
38769,-0.372,-0.962,-0.170,-10.580,1.183,38.305,0.0,105.0
38827,-0.681,-0.891,-0.316,-9.084,4.901,49.145,0.0,132.0
38883,-1.228,-0.256,-0.546,-59.611,14.443,100.916,0.0,112.0
38942,-1.442,-0.779,-0.691,-130.840,-79.557,142.107,0.0,113.0
38996,-1.204,-1.213,-0.617,-163.611,-124.740,210.679,0.0,75.0
39048,-1.166,-1.499,-0.270,-147.962,-207.412,250.130,157.0,78.0
39100,-0.690,-1.236,-0.243,-86.863,-250.137,205.061,150.0,84.0
39152,-0.161,-0.773,-0.304,-15.351,-198.122,147.542,144.0,90.0
39203,-0.388,-0.299,-0.007,0.695,-98.687,69.099,141.0,92.0
39256,-0.506,-0.229,-0.091,-13.282,-47.023,25.817,140.0,94.0
39307,-0.560,-0.105,0.115,-11.664,27.244,1.206,139.0,95.0
39362,-0.964,0.080,0.426,-9.244,59.160,-5.634,139.0,94.0
39413,-1.094,0.061,0.401,-5.626,-8.015,-5.542,139.0,94.0
39465,-0.915,-0.083,0.256,-1.321,-22.687,1.191,139.0,95.0
39517,-0.986,0.100,0.302,4.565,2.397,6.382,139.0,94.0
39569,-0.947,0.033,0.260,2.206,-23.695,7.565,139.0,95.0
39620,-0.839,0.087,0.241,-5.847,-27.145,7.282,139.0,95.0
39671,-0.828,0.019,0.287,-4.847,0.641,-2.374,138.0,96.0
39767,-0.944,-0.054,0.398,-3.679,-12.099,-11.779,139.0,95.0
39819,-0.886,-0.043,0.346,2.656,-16.107,-13.901,139.0,97.0
39878,-0.879,-0.021,0.370,4.481,-8.710,-22.802,139.0,95.0
39928,-0.856,-0.012,0.342,6.237,-15.931,-30.794,140.0,95.0
39980,-0.869,-0.018,0.335,1.817,0.092,-34.153,140.0,95.0
40030,-0.929,-0.125,0.453,2.824,-17.305,-34.565,140.0,95.0
40081,-0.843,-0.157,0.306,12.145,-6.336,-46.420,141.0,96.0
40132,-0.906,-0.138,0.338,12.168,23.053,-32.656,142.0,95.0
40183,-0.884,-0.319,0.447,1.542,-5.252,-32.198,142.0,95.0
40233,-0.667,-0.406,0.402,8.046,-7.618,-39.115,143.0,94.0
40288,-0.535,-0.355,0.252,21.229,33.496,-58.649,144.0,93.0
40339,-0.736,-0.458,0.278,16.420,47.031,-81.099,146.0,91.0
40390,-0.733,-0.486,0.160,1.328,61.229,-99.748,148.0,90.0
40446,-0.901,-0.560,0.286,-2.550,37.046,-104.336,0.0,137.0
40503,-0.765,-0.663,0.273,-9.336,30.115,-110.710,0.0,132.0
40558,-0.651,-0.734,0.210,-1.191,32.046,-106.634,0.0,120.0
40614,-0.644,-0.794,0.199,9.344,51.794,-95.802,0.0,117.0
40670,-0.470,-0.741,-0.016,11.893,68.916,-87.244,0.0,117.0
40727,-0.686,-0.808,0.050,7.504,79.985,-83.901,0.0,142.0
40784,-0.639,-1.040,-0.028,-5.557,34.863,-85.176,0.0,110.0
40842,-0.766,-1.132,0.265,-26.870,-6.290,-123.962,0.0,145.0
40895,-0.367,-0.925,0.176,0.947,-46.076,-76.992,0.0,72.0
40948,-0.056,-0.834,-0.061,38.137,56.092,-16.130,0.0,71.0
41001,-0.398,-0.921,0.040,34.466,137.115,-12.458,0.0,87.0
41056,-0.515,-0.943,0.140,23.023,88.969,-39.099,0.0,86.0
41109,-0.429,-0.933,0.129,20.282,19.397,-34.061,0.0,84.0
41163,-0.301,-0.930,0.028,11.557,9.168,-25.756,0.0,82.0
41217,-0.308,-0.953,0.066,4.580,9.130,-14.748,0.0,83.0
41268,-0.285,-0.958,0.099,6.328,2.405,-4.756,0.0,83.0
41321,-0.286,-0.958,0.142,0.740,-11.710,-2.580,0.0,82.0
41374,-0.254,-0.987,0.141,0.802,-23.023,-3.977,0.0,78.0
41427,-0.230,-0.981,0.149,1.618,-23.107,-3.802,0.0,78.0
41481,-0.213,-1.010,0.144,8.130,-20.282,-2.954,0.0,75.0
41535,-0.192,-0.967,0.165,8.542,-13.656,1.359,0.0,79.0
41586,-0.186,-0.984,0.136,12.244,-2.015,7.511,156.0,91.0
41639,-0.457,-0.865,0.228,-1.855,23.947,-17.145,0.0,80.0
41691,-0.883,-1.184,0.493,18.252,-20.710,-13.504,152.0,85.0
41744,-0.657,-1.152,0.407,66.374,-123.916,58.344,133.0,77.0
41793,-0.259,-1.167,0.185,62.023,-100.252,97.947,132.0,69.0
41846,0.186,-1.368,-0.155,79.435,-28.160,68.603,0.0,74.0
41900,0.021,-0.764,0.493,32.061,-55.298,20.573,0.0,75.0
41949,0.056,-0.919,0.043,34.725,-133.221,14.122,120.0,93.0
41999,0.294,-0.709,0.054,15.656,-41.237,-2.748,119.0,95.0
42048,-0.220,-0.702,0.221,17.863,70.901,-18.702,121.0,80.0
42097,-0.676,-0.729,0.705,2.496,13.260,6.656,120.0,90.0
42149,-0.404,-0.853,0.595,2.183,-65.710,31.702,117.0,83.0
42199,-0.132,-0.779,0.398,16.496,-54.962,34.389,113.0,101.0
42248,0.124,-0.850,0.324,3.321,-53.534,18.481,111.0,87.0
42297,0.213,-0.611,0.203,-18.031,-31.664,-16.427,111.0,87.0
42346,-0.083,-0.806,0.313,-35.725,41.809,-23.031,110.0,96.0
42438,-0.422,-0.967,0.864,-19.893,5.977,6.969,111.0,83.0
42487,-0.176,-1.042,0.743,3.168,-18.847,20.206,111.0,85.0
42536,0.039,-0.919,0.595,24.672,0.534,13.534,111.0,85.0
42586,0.010,-1.031,0.430,27.832,24.191,-0.908,115.0,97.0
42638,-0.172,-0.982,0.712,7.237,9.679,-18.626,116.0,95.0
42687,-0.117,-1.003,0.619,30.023,-1.939,-39.702,114.0,84.0
42736,-0.109,-0.916,0.624,56.656,65.649,-4.969,116.0,86.0
42786,-0.205,-0.876,0.669,78.763,67.137,26.130,120.0,87.0
42841,-0.216,-0.743,0.465,97.588,87.733,9.038,0.0,93.0
42896,-0.573,-0.673,0.542,98.855,57.435,3.718,0.0,98.0
42949,-0.667,-0.262,0.562,93.374,61.153,37.420,0.0,88.0
43003,-0.332,-0.467,0.124,66.611,12.809,7.511,0.0,85.0
43058,-0.456,-0.276,0.518,29.756,15.756,11.710,0.0,84.0
43115,-0.618,-0.378,0.978,13.832,36.160,15.519,0.0,86.0
43169,-0.468,-0.662,0.829,32.985,-22.137,-2.580,0.0,87.0
43224,-0.246,-0.401,0.752,53.893,-1.695,-11.870,0.0,88.0
43277,-0.555,-0.361,0.898,41.237,24.679,-25.840,0.0,83.0
43331,-0.515,-0.293,0.644,53.061,14.282,-33.206,0.0,87.0
43385,-0.446,-0.313,0.604,43.893,53.901,-9.947,0.0,85.0
43440,-0.530,-0.378,0.874,39.038,0.145,-7.542,0.0,86.0
43494,-0.634,-0.260,1.246,30.107,20.214,-35.908,0.0,82.0
43547,-0.317,-0.421,0.598,87.855,10.748,-15.595,0.0,81.0
43604,-0.544,-0.320,0.949,63.107,57.489,-19.802,0.0,86.0
43659,-0.557,-0.189,0.806,89.313,28.473,-30.588,0.0,84.0
43713,-0.760,-0.083,0.410,83.580,74.214,-6.771,0.0,82.0
43767,-0.823,0.106,0.434,69.267,57.595,9.725,0.0,95.0
43822,-0.602,-0.153,0.746,16.794,-43.244,7.878,0.0,90.0
43877,-0.434,0.200,0.896,37.626,21.282,-14.557,0.0,94.0
43931,-0.658,-0.105,0.526,67.931,44.847,-22.092,0.0,93.0
43985,-0.840,0.002,0.661,55.260,34.809,3.656,0.0,89.0
44041,-0.734,0.128,0.634,54.939,8.573,6.725,0.0,92.0
44098,-0.640,0.174,0.516,50.611,34.542,2.756,0.0,87.0
44152,-0.822,0.221,0.496,34.588,24.473,0.901,0.0,87.0
44206,-0.814,0.136,0.292,37.763,6.931,-3.863,0.0,86.0
44261,-0.777,0.112,0.754,3.969,2.282,-2.542,0.0,99.0
44316,-0.783,0.321,0.768,27.107,14.992,2.718,0.0,101.0
44370,-0.778,0.256,0.477,37.092,3.321,2.305,0.0,93.0
44426,-0.752,0.171,0.408,34.824,7.977,4.267,0.0,91.0
44480,-0.818,0.355,0.586,17.641,7.053,3.779,0.0,90.0
44535,-0.713,0.354,0.434,15.962,14.771,-3.328,0.0,113.0
44594,-0.829,0.347,0.363,19.084,30.809,1.840,0.0,106.0
44649,-0.831,0.165,0.671,3.466,-3.603,4.046,0.0,92.0
44703,-0.832,0.186,0.662,39.985,-11.298,1.527,0.0,95.0
44759,-0.743,0.525,0.396,35.313,7.038,7.267,0.0,93.0
44813,-0.726,0.207,0.168,34.153,10.656,-0.397,0.0,94.0
44868,-0.867,0.420,0.470,20.229,19.992,3.069,0.0,96.0
44922,-0.911,0.369,0.583,21.504,-17.252,0.580,0.0,93.0
44978,-0.779,0.390,0.482,33.160,-25.359,10.695,0.0,97.0
45033,-0.742,0.451,0.372,44.084,-6.916,8.336,0.0,97.0
45091,-0.739,0.316,0.192,47.290,-12.382,-3.061,0.0,100.0
45190,-0.785,0.463,0.483,11.229,-12.802,2.351,0.0,115.0
45245,-0.691,0.514,0.378,33.534,-19.466,1.573,0.0,99.0
45301,-0.708,0.482,0.266,28.321,0.740,-1.611,0.0,114.0
45357,-0.788,0.575,0.220,27.321,2.748,-3.137,0.0,99.0
45412,-0.773,0.589,0.083,-3.687,2.824,-12.458,0.0,99.0
45467,-0.876,0.636,0.279,-26.450,2.313,12.351,0.0,113.0
45523,-0.661,0.443,0.388,-22.947,-44.137,-10.496,0.0,115.0
45581,-0.528,0.536,0.179,-24.145,-3.550,-22.252,0.0,142.0
45640,-0.724,0.516,0.222,-46.740,17.664,-27.985,0.0,113.0
45698,-0.651,0.382,0.200,-76.107,-27.802,-40.313,0.0,119.0
45753,-0.521,0.210,0.192,-97.053,-3.053,-57.076,0.0,108.0
45804,-0.722,0.122,0.400,-110.275,12.397,-57.695,114.0,108.0
45857,-0.747,0.000,0.489,-120.336,-8.878,-69.618,118.0,148.0
45914,-0.684,-0.141,0.480,-123.931,-18.496,-74.466,193.0,117.0
45970,-0.651,-0.280,0.557,-117.886,-15.328,-86.397,0.0,110.0
46026,-0.685,-0.421,0.431,-102.527,10.466,-98.038,0.0,122.0
46084,-0.700,-0.625,0.439,-104.939,23.916,-97.076,199.0,135.0
46144,-0.801,-0.773,0.413,-111.855,0.664,-113.053,194.0,135.0
46199,-0.739,-0.778,0.445,-99.985,-28.939,-88.527,146.0,133.0
46257,-0.610,-0.821,0.283,-96.771,-57.679,-93.962,0.0,131.0
46314,-0.567,-1.067,0.305,-102.305,-78.756,-73.275,0.0,132.0
46368,-0.436,-0.947,0.276,-84.038,-73.771,-73.374,148.0,129.0
46420,-0.518,-1.084,0.299,-101.298,-98.855,-64.252,117.0,130.0
46478,-0.531,-1.066,0.260,-69.786,-174.977,-42.542,0.0,129.0
46530,-0.211,-1.053,-0.007,-45.443,-206.573,-7.305,112.0,130.0
46589,0.007,-0.971,-0.056,-37.496,-123.313,11.061,0.0,103.0
46644,-0.041,-1.037,-0.043,-31.870,-50.015,21.763,0.0,80.0
46698,-0.120,-1.042,0.008,-25.672,-20.023,17.260,0.0,78.0
46752,-0.135,-1.017,-0.010,-22.168,-14.084,11.412,0.0,82.0
46812,-0.149,-0.988,0.001,-25.748,-4.824,1.840,0.0,83.0
46867,-0.199,-1.027,0.008,-21.053,-2.061,-1.496,0.0,106.0
46921,-0.214,-1.019,0.006,-15.817,-6.885,-1.313,0.0,105.0
46977,-0.235,-1.021,0.007,-10.779,-7.351,-1.664,0.0,108.0
47030,-0.261,-1.025,0.007,-5.336,-24.099,0.076,158.0,85.0
47085,-0.226,-1.002,-0.046,-5.069,-29.473,1.542,0.0,102.0
47139,-0.194,-0.988,-0.061,-2.336,-17.542,7.771,0.0,101.0
47193,-0.226,-0.980,-0.020,-4.695,-16.214,11.641,0.0,84.0
47247,-0.227,-0.984,-0.036,-3.099,-13.153,14.046,0.0,81.0
47300,-0.288,-0.935,-0.073,-7.489,-7.878,15.481,0.0,84.0
47353,-0.658,-0.653,-0.025,-9.466,11.420,19.336,0.0,86.0
47409,-1.127,-0.599,-0.028,-20.191,-39.290,31.374,0.0,107.0
47464,-0.682,-0.940,-0.442,-4.687,-5.321,87.344,0.0,115.0
47522,-0.799,-1.197,-0.116,-49.252,-67.557,142.580,0.0,120.0
47569,-0.467,-1.188,-0.287,-58.718,-130.756,124.267,59.0,100.0
47617,-0.411,-1.176,-0.175,-41.206,-95.015,122.618,60.0,103.0
47663,-0.459,-1.057,0.082,-33.458,-125.298,98.802,58.0,109.0
47709,-0.313,-0.794,-0.219,-13.809,-95.160,44.992,59.0,82.0
47756,-0.504,-0.680,-0.178,-21.710,-6.725,48.634,57.0,113.0
47803,-0.786,-0.681,0.116,-23.969,-59.443,50.115,50.0,116.0
47849,-0.636,-0.610,-0.079,-31.603,-67.260,26.092,49.0,117.0
47940,-0.761,-0.559,0.178,-34.534,-32.702,2.481,48.0,84.0
47985,-0.805,-0.580,0.187,-31.443,-49.237,22.885,47.0,85.0
48030,-0.784,-0.583,0.330,-19.939,-51.702,5.603,46.0,85.0
48075,-0.680,-0.593,0.160,-6.473,-36.710,9.107,45.0,86.0
48119,-0.705,-0.529,0.201,-6.756,-7.076,1.168,44.0,86.0
48164,-0.879,-0.600,0.260,0.618,1.832,9.718,47.0,86.0
48209,-0.776,-0.526,0.215,-2.924,-25.962,13.267,48.0,87.0
48254,-0.823,-0.577,0.250,-2.916,-13.687,11.344,47.0,87.0
48301,-0.718,-0.577,0.299,-1.580,-21.916,21.038,57.0,87.0
48348,-0.724,-0.550,0.307,2.153,-16.908,9.779,45.0,88.0
48393,-0.743,-0.544,0.265,5.496,-8.053,-8.863,45.0,88.0
48439,-0.788,-0.542,0.323,7.504,-14.580,-7.519,57.0,90.0
48485,-0.747,-0.478,0.264,7.840,-10.321,-7.550,59.0,89.0
48531,-0.793,-0.558,0.284,7.008,-5.145,7.458,57.0,91.0
48576,-0.720,-0.485,0.342,8.534,-5.634,-1.916,57.0,89.0
48623,-0.727,-0.484,0.324,9.519,-1.756,-2.000,57.0,112.0
48670,-0.740,-0.480,0.265,13.069,1.595,-7.305,57.0,111.0
48717,-0.822,-0.440,0.377,6.863,2.084,-10.618,57.0,112.0
48768,-0.775,-0.515,0.293,8.328,-7.443,-4.855,57.0,111.0
48814,-0.692,-0.481,0.269,5.092,-0.672,-6.191,53.0,109.0
48861,-0.739,-0.461,0.309,0.794,4.145,-5.450,49.0,111.0
48908,-0.780,-0.552,0.366,-4.382,3.695,-6.763,52.0,110.0
48958,-0.851,-0.487,0.396,1.130,5.427,-8.977,54.0,172.0
49007,-0.869,-0.500,0.426,4.519,-1.511,1.031,54.0,158.0
49054,-0.835,-0.564,0.415,4.542,-31.580,4.954,50.0,113.0
49101,-0.652,-0.538,0.388,2.389,-26.450,3.809,45.0,112.0
49147,-0.699,-0.588,0.423,14.878,5.420,4.229,47.0,112.0
49198,-0.785,-0.595,0.483,15.290,15.427,-1.679,46.0,113.0
49244,-0.880,-0.468,0.596,24.901,-11.290,14.038,45.0,114.0
49302,-0.803,-0.542,0.520,31.870,-4.588,9.405,0.0,155.0
49348,-0.703,-0.545,0.447,49.786,-6.740,15.008,43.0,116.0
49395,-0.959,-0.465,0.640,53.466,11.229,18.099,45.0,117.0
49443,-0.795,-0.474,0.448,51.809,-26.000,10.244,40.0,155.0
49492,-0.681,-0.356,0.433,55.504,-3.817,10.786,39.0,151.0
49541,-0.800,-0.435,0.575,53.679,-3.855,17.885,38.0,145.0
49587,-0.577,-0.406,0.444,63.168,-19.290,7.840,39.0,121.0
49642,-0.606,-0.200,0.520,58.107,-0.756,-0.023,0.0,148.0
49694,-0.791,-0.260,0.433,56.267,3.321,-20.435,0.0,55.0
49751,-0.810,-0.251,0.481,39.481,-23.237,-8.794,0.0,55.0
49805,-0.643,-0.183,0.488,26.458,-53.267,-2.733,0.0,90.0
49859,-0.487,-0.259,0.465,23.901,-21.008,-27.924,0.0,90.0
49913,-0.710,-0.133,0.642,24.992,10.435,-23.626,0.0,80.0
49968,-0.788,-0.185,0.671,23.962,-2.779,-25.412,0.0,86.0
50021,-0.610,-0.200,0.619,25.641,-12.237,-16.885,0.0,85.0
50078,-0.581,-0.099,0.583,20.809,12.137,-24.122,0.0,86.0
50132,-0.725,-0.273,0.684,15.008,-5.718,-46.328,0.0,83.0
50187,-0.743,-0.185,0.678,13.992,2.359,-25.450,0.0,86.0
50241,-0.724,-0.144,0.697,19.550,12.015,-15.771,0.0,84.0
50295,-0.782,-0.249,0.763,18.832,-2.069,-8.847,0.0,85.0
50350,-0.617,-0.226,0.652,13.389,-18.458,-14.153,0.0,87.0
50447,-0.641,-0.243,0.677,13.947,0.702,-21.885,0.0,85.0
50500,-0.500,-0.210,0.580,13.672,-0.107,-15.603,0.0,84.0
50555,-0.395,-0.249,0.467,5.130,19.855,-33.160,0.0,96.0
50614,-0.473,-0.333,0.532,-13.374,11.084,-50.863,0.0,103.0
50668,-0.362,-0.348,0.455,-22.191,14.275,-70.710,0.0,93.0
50723,-0.407,-0.508,0.453,-39.718,34.252,-87.763,0.0,91.0
50778,-0.554,-0.615,0.518,-46.527,42.099,-97.198,0.0,98.0
50832,-0.551,-0.731,0.468,-56.084,22.321,-107.893,0.0,89.0
50886,-0.529,-0.826,0.460,-66.275,6.763,-101.137,0.0,81.0
50940,-0.441,-0.824,0.454,-72.901,0.885,-102.420,0.0,79.0
50994,-0.422,-1.000,0.459,-81.947,-15.069,-89.840,0.0,73.0
51047,-0.327,-1.155,0.374,-72.672,-28.901,-94.160,0.0,69.0
51100,-0.185,-1.202,0.310,-67.634,3.557,-102.748,138.0,67.0
51153,-0.199,-1.217,0.288,-61.229,39.443,-112.427,0.0,64.0
51204,-0.177,-1.180,0.249,-52.496,69.267,-114.267,144.0,79.0
51255,-0.206,-1.109,0.275,-43.496,82.901,-100.916,150.0,81.0
51306,-0.245,-1.028,0.295,-32.962,68.252,-76.244,143.0,79.0
51358,-0.240,-0.980,0.289,-19.221,33.191,-37.740,153.0,86.0
51419,-0.165,-0.909,0.210,-8.802,11.107,-5.420,0.0,0.0
51464,-0.132,-0.960,0.186,-5.992,3.046,24.107,156.0,0.0
51518,-0.105,-0.934,0.173,1.924,0.008,36.603,154.0,75.0
51569,-0.096,-0.945,0.163,2.756,-8.527,42.664,155.0,79.0
51620,-0.004,-1.005,0.085,7.954,-11.191,46.328,162.0,77.0
51673,0.064,-0.980,0.034,8.115,-0.153,45.298,162.0,78.0
51724,0.050,-1.033,0.017,3.901,11.634,49.931,149.0,82.0
51775,0.035,-0.999,0.052,1.298,16.450,47.603,149.0,77.0
51826,-0.029,-0.990,0.097,-4.756,7.885,37.573,158.0,79.0
51878,-0.024,-1.071,0.048,-6.473,-2.221,25.008,159.0,81.0
51930,-0.025,-1.007,0.061,-3.718,7.458,13.855,158.0,82.0
51984,-0.095,-0.995,0.090,-6.122,13.794,4.275,159.0,71.0
52037,-0.140,-1.021,0.091,-4.573,3.809,-5.626,159.0,104.0
52090,-0.146,-1.007,0.047,-2.557,-1.954,-12.985,159.0,102.0
52144,-0.360,-1.027,-0.051,2.427,15.328,-17.031,159.0,101.0
52196,-0.955,-0.498,0.027,-14.863,14.840,-13.122,158.0,76.0
52247,-0.824,-0.713,0.180,-45.771,-79.740,27.435,156.0,83.0
52297,-0.248,-1.424,-0.344,-14.969,-82.969,58.573,143.0,57.0
52347,0.176,-1.265,0.013,-39.824,-51.237,113.924,148.0,60.0
52392,-0.058,-1.133,0.125,-16.130,-56.290,45.344,57.0,61.0
52448,-0.165,-1.073,-0.015,-8.038,-41.885,22.313,54.0,64.0
52497,-0.091,-0.927,0.039,-7.893,-24.450,33.779,144.0,64.0
52546,-0.136,-1.104,-0.246,-1.481,-31.779,-2.649,144.0,64.0
52595,-0.595,-0.896,-0.125,-19.214,1.756,-22.679,144.0,63.0
52645,-0.761,-0.857,0.014,-24.595,-0.908,24.275,143.0,65.0
52698,-0.303,-0.953,0.132,-33.069,-89.145,43.901,0.0,67.0
52750,-0.031,-1.010,0.087,-7.603,-47.664,-0.656,0.0,66.0
52803,-0.328,-1.084,0.012,5.214,-8.985,-13.115,0.0,66.0
52858,-0.383,-0.795,-0.091,-2.863,-2.725,6.695,0.0,65.0
52911,-0.433,-0.880,-0.159,-7.405,4.214,-3.359,0.0,65.0
52963,-0.425,-0.966,0.023,-15.305,-26.069,2.733,0.0,66.0
53015,-0.395,-0.945,0.124,-10.496,-28.939,2.435,0.0,67.0
53111,-0.292,-0.917,-0.005,6.656,19.985,1.527,0.0,66.0
53164,-0.482,-0.888,0.042,8.351,8.504,-13.023,0.0,65.0
53216,-0.447,-0.986,-0.033,3.985,-4.893,3.397,0.0,64.0
53268,-0.278,-0.844,-0.076,-0.099,16.695,-1.069,0.0,65.0
53321,-0.265,-0.982,0.036,-0.527,5.924,-11.809,0.0,64.0
53376,-0.239,-1.006,0.039,4.450,10.206,-28.282,0.0,62.0
53426,-0.299,-1.012,0.049,9.496,21.099,-31.435,146.0,61.0
53475,-0.401,-0.982,-0.072,13.183,29.015,-34.389,146.0,59.0
53524,-0.392,-0.949,-0.002,3.176,11.489,-21.687,148.0,58.0
53573,-0.344,-1.040,-0.003,10.847,12.611,-13.740,150.0,57.0
53622,-0.277,-0.932,0.087,6.420,6.931,-13.573,150.0,55.0
53671,-0.180,-1.065,-0.035,16.527,8.992,-24.504,151.0,54.0
53721,-0.249,-0.952,0.024,9.550,21.870,-21.725,152.0,53.0
53770,-0.229,-0.969,-0.058,15.336,28.496,-24.031,153.0,52.0
53822,-0.332,-0.952,0.043,4.985,20.870,-13.473,154.0,52.0
53871,-0.218,-0.969,0.120,8.336,-7.137,-11.099,154.0,51.0
53919,-0.161,-0.988,0.014,9.015,12.534,-22.992,146.0,51.0
53968,-0.203,-0.967,0.022,6.420,23.237,-11.008,148.0,50.0
54018,-0.214,-0.945,0.077,3.786,-5.740,-17.321,157.0,50.0
54067,-0.177,-0.975,0.027,-0.573,14.931,-11.397,149.0,50.0
54115,-0.175,-1.004,0.067,0.298,6.763,-12.580,148.0,49.0
54164,-0.144,-1.015,0.130,-2.092,-2.366,-10.214,150.0,49.0
54213,-0.062,-1.004,0.033,6.695,12.626,-14.153,151.0,49.0
54259,-0.121,-1.026,0.103,4.405,10.344,-15.107,150.0,49.0
54308,-0.044,-0.982,0.014,8.748,14.771,-14.977,151.0,49.0
54358,-0.096,-0.915,0.066,6.412,34.359,-4.672,160.0,50.0
54408,-0.049,-1.055,0.000,7.924,40.351,17.702,160.0,51.0
54458,-0.200,-1.055,0.085,13.832,54.916,11.237,162.0,74.0
54509,-0.239,-1.054,0.111,11.885,29.351,13.145,162.0,64.0
54560,-0.288,-1.092,0.151,8.260,-5.023,9.763,162.0,74.0
54610,-0.203,-1.112,0.068,9.282,-32.176,-5.687,162.0,67.0
54668,-0.126,-1.018,0.067,9.328,-19.061,-24.481,163.0,122.0
54719,-0.101,-0.935,0.101,10.427,0.664,-23.756,163.0,72.0
54771,-0.118,-0.905,0.150,13.824,12.802,-10.672,0.0,68.0
54825,-0.151,-0.966,0.170,13.084,12.641,-4.931,0.0,75.0
54877,-0.156,-0.977,0.190,12.015,4.824,-5.229,166.0,78.0
54928,-0.118,-0.921,0.176,10.779,4.298,-2.435,165.0,74.0
54979,-0.133,-0.913,0.202,9.687,8.046,4.557,162.0,80.0
55030,-0.158,-0.941,0.238,7.634,-0.099,9.580,151.0,79.0
55080,-0.134,-0.960,0.242,7.405,-11.916,14.740,148.0,77.0
55134,-0.112,-0.974,0.223,6.305,-15.687,17.855,147.0,79.0
55185,-0.099,-0.946,0.234,6.015,-11.084,19.878,145.0,81.0
55239,-0.113,-0.945,0.241,5.634,-8.504,20.084,0.0,85.0
55292,-0.123,-0.953,0.238,5.618,-8.107,14.588,0.0,86.0
55347,-0.107,-0.943,0.237,4.527,-5.519,7.282,0.0,85.0
55401,-0.138,-0.974,0.258,2.550,-5.550,2.168,0.0,86.0
55454,-0.139,-0.980,0.265,1.863,-8.168,-2.237,0.0,85.0
55508,-0.132,-0.962,0.265,2.725,-8.534,-3.290,0.0,85.0
55563,-0.129,-0.971,0.280,5.893,-3.481,0.145,0.0,86.0
55620,-0.070,-0.960,0.251,12.366,14.634,-0.473,0.0,87.0
55716,-0.538,-1.324,0.839,32.519,51.237,6.382,0.0,83.0
55771,-0.651,-1.239,0.732,76.321,12.420,40.137,0.0,85.0
55825,-0.406,-1.050,0.364,88.351,-52.794,72.481,0.0,84.0
55878,0.134,-0.553,0.177,82.931,-81.206,40.748,0.0,82.0
55932,0.329,-0.782,0.082,50.366,-27.076,-61.229,0.0,89.0
55987,-0.143,-0.710,0.324,39.748,109.313,-4.084,0.0,89.0
56041,-0.679,-0.798,0.906,30.672,-41.374,-11.435,0.0,82.0
56095,0.168,-0.693,0.207,25.603,-56.847,-18.786,0.0,84.0
56161,-0.192,-0.771,0.593,21.298,37.656,-31.321,0.0,80.0
56218,-0.178,-0.660,0.609,17.695,-11.115,-23.084,0.0,92.0
56274,-0.176,-0.582,0.535,9.588,23.847,-25.336,0.0,89.0
56332,-0.322,-0.776,0.642,-1.702,-1.595,-20.931,0.0,91.0
56391,-0.083,-0.735,0.759,-2.023,-21.786,-13.443,0.0,130.0
56448,-0.042,-0.717,0.731,7.840,6.000,-25.695,0.0,90.0
56505,-0.137,-0.691,0.623,10.908,8.382,-34.168,0.0,91.0
56563,-0.272,-0.672,0.686,6.023,2.641,-16.473,0.0,129.0
56623,-0.144,-0.672,0.660,-2.718,-18.725,-16.176,0.0,129.0
56685,-0.058,-0.701,0.728,-4.252,-4.840,-9.664,0.0,131.0
56744,-0.041,-0.721,0.702,-0.427,-13.786,-12.565,0.0,129.0
56802,-0.070,-0.701,0.661,-3.160,-0.107,-14.053,0.0,94.0
56861,-0.166,-0.608,0.672,-10.557,5.031,-5.420,0.0,133.0
56920,-0.065,-0.707,0.722,-11.603,-33.458,3.618,0.0,131.0
56975,0.060,-0.744,0.702,-14.359,-24.847,1.481,126.0,131.0
57030,-0.002,-0.703,0.721,-12.359,-22.908,3.656,125.0,130.0
57085,0.016,-0.701,0.611,-12.504,-17.779,1.366,126.0,133.0
57141,-0.109,-0.714,0.670,-14.313,-27.802,11.145,125.0,134.0
57197,-0.002,-0.759,0.627,-18.489,-40.656,19.191,124.0,96.0
57250,0.114,-0.747,0.616,-17.443,-27.534,20.244,139.0,98.0
57309,0.074,-0.823,0.645,-15.351,-41.611,14.198,0.0,100.0
57366,0.067,-0.781,0.597,-13.557,-28.908,17.344,0.0,100.0
57423,0.047,-0.762,0.548,-14.084,-34.183,16.023,0.0,101.0
57480,0.100,-0.799,0.470,-18.611,-36.740,21.023,161.0,103.0
57528,0.094,-0.773,0.515,-26.313,-29.511,17.710,37.0,103.0
57581,0.087,-0.808,0.481,-24.061,-34.076,20.458,129.0,89.0
57638,0.070,-0.842,0.537,-29.954,-35.290,19.267,131.0,106.0
57691,0.142,-0.832,0.484,-27.542,-38.031,22.641,121.0,89.0
57743,0.176,-0.885,0.418,-25.397,-17.122,25.611,122.0,90.0
57791,0.131,-0.871,0.408,-27.901,-9.756,30.977,37.0,88.0
57843,0.131,-0.893,0.371,-29.908,-2.336,25.664,129.0,91.0
57891,0.035,-0.897,0.426,-36.183,-6.908,22.176,37.0,86.0
57942,0.074,-0.903,0.377,-30.718,-11.824,26.679,83.0,94.0
57992,0.084,-0.880,0.341,-26.565,10.015,30.870,83.0,80.0
58043,0.025,-1.144,0.346,-27.221,32.863,34.458,119.0,70.0
58097,-0.025,-1.233,0.250,-11.435,71.710,12.794,128.0,68.0
58149,-0.124,-0.883,0.367,-19.588,51.802,16.832,131.0,66.0
58201,-0.140,-0.956,0.223,-13.252,20.588,21.962,133.0,65.0
58253,-0.083,-0.959,0.122,-11.168,27.382,2.542,132.0,74.0
58305,-0.134,-0.991,0.105,-20.718,35.611,-15.710,146.0,62.0
58358,-0.165,-1.032,0.112,-20.618,26.198,-16.756,150.0,61.0
58411,-0.127,-0.997,0.068,-18.954,14.298,-13.748,145.0,59.0
