Timestamp(ms),AccelX(g),AccelY(g),AccelZ(g),GyroX(deg/s),GyroY(deg/s),GyroZ(deg/s),DistanceLeft(cm),DistanceRight(cm)
31797,-0.150,-0.984,0.086,-1.489,-9.183,0.359,0.0,124.0
31853,-0.163,-0.990,0.087,-1.038,-8.351,1.550,0.0,124.0
31908,-0.158,-0.986,0.075,-0.878,-5.878,-1.344,0.0,123.0
31965,-0.169,-0.990,0.083,-2.069,-8.748,-0.496,0.0,124.0
32020,-0.167,-1.006,0.095,-2.405,-9.466,2.412,0.0,124.0
32073,-0.183,-1.005,0.115,-1.641,-16.137,3.176,0.0,76.0
32130,-0.182,-0.999,0.135,-2.038,-28.519,3.672,0.0,127.0
32185,-0.160,-1.009,0.105,-0.847,-33.969,3.481,0.0,75.0
32238,-0.103,-0.970,0.071,2.748,-22.069,3.977,0.0,76.0
32292,-0.112,-0.968,0.069,1.427,-1.466,0.924,0.0,99.0
32348,-0.163,-0.976,0.099,0.153,4.412,-3.534,0.0,100.0
32402,-0.184,-0.987,0.118,-2.389,-5.527,-5.779,0.0,99.0
32456,-0.180,-0.985,0.117,-3.221,-14.282,-5.504,0.0,101.0
32510,-0.150,-0.992,0.101,-2.740,-12.649,-3.221,0.0,99.0
32566,-0.144,-0.983,0.103,-2.863,-4.954,-0.672,0.0,100.0
32620,-0.172,-0.976,0.131,-2.359,-3.313,0.489,0.0,101.0
32677,-0.179,-0.987,0.127,-2.649,-7.244,0.115,0.0,101.0
32732,-0.167,-0.990,0.094,-1.718,-5.015,1.542,0.0,101.0
32787,-0.247,-0.989,0.085,-1.710,7.099,15.947,0.0,100.0
32840,-0.722,-1.011,0.235,2.153,-21.939,56.206,0.0,79.0
32894,-1.014,-0.942,-0.027,7.939,-14.092,141.038,0.0,101.0
32949,-1.261,-1.160,-0.004,10.794,-10.809,250.130,0.0,83.0
33003,-1.031,-1.092,-0.075,34.221,1.534,250.130,0.0,96.0
33054,-0.557,-1.004,-0.104,37.977,-43.809,250.130,148.0,88.0
33104,-0.178,-0.713,0.561,5.122,-44.504,224.985,145.0,91.0
33153,0.168,-0.892,-0.213,-72.053,-56.519,70.458,24.0,93.0
33206,-0.210,-0.198,0.073,-45.298,78.855,7.267,0.0,92.0
33250,-1.049,-0.257,0.456,-47.824,95.015,-31.061,22.0,91.0
33304,-1.059,-0.183,0.474,-36.893,40.084,-26.260,0.0,88.0
33358,-1.029,-0.201,0.228,-24.359,35.076,-18.412,0.0,86.0
33412,-1.081,-0.191,0.206,-10.496,12.221,-15.634,0.0,86.0
33466,-0.923,-0.218,-0.029,-14.733,13.206,-7.718,0.0,85.0
33519,-0.958,-0.146,0.020,-23.565,17.221,-9.916,0.0,84.0
33563,-0.949,-0.291,0.063,-32.214,6.679,-13.305,19.0,83.0
33609,-0.984,-0.328,0.136,-22.221,13.405,-9.214,18.0,84.0
33652,-0.969,-0.230,0.053,-11.779,-1.076,-9.084,17.0,83.0
33695,-0.915,-0.278,-0.023,-15.092,5.237,-11.076,17.0,83.0
33739,-0.988,-0.253,-0.003,-6.321,11.817,-7.435,18.0,82.0
33782,-0.949,-0.280,-0.022,-12.397,6.565,-6.252,18.0,84.0
33825,-0.904,-0.253,-0.059,-11.947,8.908,-4.481,19.0,84.0
33869,-0.969,-0.315,0.017,-16.916,14.053,-7.618,22.0,81.0
33912,-0.950,-0.319,-0.011,-5.046,8.855,-4.107,18.0,81.0
33958,-0.947,-0.327,-0.035,2.290,10.634,-5.840,22.0,81.0
34001,-0.925,-0.288,-0.069,4.489,8.061,-3.489,18.0,81.0
34044,-0.937,-0.288,-0.085,2.366,10.137,-4.634,19.0,81.0
34088,-0.921,-0.262,-0.091,-2.260,12.046,-5.214,18.0,81.0
34131,-0.965,-0.284,-0.081,-3.863,10.725,-3.145,18.0,81.0
34174,-0.928,-0.297,-0.067,-3.076,10.198,0.878,19.0,82.0
34217,-0.929,-0.317,-0.067,1.847,9.618,-2.092,18.0,84.0
34262,-0.944,-0.303,-0.087,7.176,8.115,-2.542,21.0,83.0
34348,-0.895,-0.260,-0.155,4.344,10.046,-3.458,19.0,83.0
34395,-0.916,-0.303,-0.113,-0.817,14.191,-3.595,19.0,87.0
34443,-0.925,-0.313,-0.126,5.611,19.260,-7.130,19.0,172.0
34486,-1.003,-0.328,-0.109,13.183,23.038,-2.618,22.0,77.0
34529,-1.032,-0.288,-0.093,22.725,12.244,2.191,19.0,75.0
34573,-1.012,-0.315,-0.070,25.802,2.771,4.672,20.0,79.0
34616,-1.013,-0.240,-0.091,35.328,10.076,15.412,21.0,77.0
34659,-1.263,-0.347,0.095,49.443,6.214,27.031,23.0,76.0
34702,-1.135,-0.254,0.005,87.389,-27.176,45.038,21.0,76.0
34746,-1.070,-0.278,0.046,87.634,-21.634,57.519,20.0,83.0
34792,-1.092,-0.084,-0.126,99.374,-23.473,61.580,19.0,83.0
34846,-1.068,-0.127,0.014,57.313,-10.649,72.496,0.0,86.0
34890,-1.164,-0.067,0.018,75.412,-7.885,73.336,20.0,91.0
34935,-1.100,-0.033,-0.120,73.527,-49.015,82.473,21.0,95.0
34979,-0.898,0.240,-0.147,46.481,-59.130,83.115,21.0,98.0
35024,-0.866,0.189,-0.222,17.214,-44.618,84.290,21.0,101.0
35069,-0.969,0.246,0.084,-10.176,-44.061,92.916,22.0,107.0
35116,-0.832,0.167,0.120,-3.947,-53.282,94.534,21.0,122.0
35161,-0.748,0.211,-0.019,3.153,-31.809,75.817,21.0,122.0
35209,-0.755,0.428,0.107,-18.931,-14.824,65.397,21.0,94.0
35252,-0.774,0.511,0.126,-23.702,-4.427,59.328,23.0,69.0
35294,-0.808,0.411,0.391,-47.771,-33.985,59.733,20.0,65.0
35347,-0.644,0.351,0.312,-15.748,-37.893,44.573,0.0,65.0
35390,-0.768,0.299,0.317,-15.504,-18.023,30.496,20.0,66.0
35433,-0.748,0.601,0.385,-1.031,-23.855,23.832,19.0,66.0
35475,-0.774,0.443,0.357,-10.252,-26.313,30.076,19.0,67.0
35518,-0.706,0.635,0.340,-1.962,-22.977,26.321,19.0,68.0
35564,-0.607,0.359,0.500,-8.603,-44.252,29.679,18.0,68.0
35606,-0.509,0.561,0.370,21.198,-25.840,9.366,18.0,68.0
35649,-0.708,0.653,0.372,11.435,-16.794,10.336,18.0,70.0
35692,-0.739,0.735,0.491,11.863,-27.290,12.939,18.0,65.0
35734,-0.768,0.649,0.404,-0.863,-53.313,21.771,17.0,64.0
35777,-0.574,0.626,0.642,15.824,-50.115,40.229,18.0,65.0
35819,-0.450,0.574,0.419,32.115,-49.191,41.496,17.0,67.0
35863,-0.402,0.596,0.570,27.374,-45.542,16.229,18.0,75.0
35905,-0.466,0.755,0.339,39.282,-25.382,13.672,16.0,67.0
35953,-0.643,0.872,0.517,24.084,-35.153,32.603,22.0,97.0
35997,-0.532,0.751,0.650,34.282,-61.504,46.969,17.0,97.0
36042,-0.231,0.715,0.340,44.015,-71.886,42.595,16.0,98.0
36086,-0.149,0.695,0.203,43.626,-39.527,33.061,19.0,99.0
36142,-0.135,0.935,0.480,20.969,-34.931,20.595,0.0,100.0
36187,-0.206,0.935,0.417,28.244,-49.855,-3.954,20.0,101.0
36242,-0.190,0.923,0.297,22.718,-34.763,-3.534,0.0,101.0
36287,-0.343,0.829,0.359,14.221,-44.802,6.511,30.0,103.0
36333,-0.099,0.942,0.435,2.328,-36.366,12.000,30.0,103.0
36381,-0.136,0.815,0.254,17.733,-28.679,-0.618,30.0,103.0
36427,-0.140,0.833,0.398,2.641,-36.206,-0.061,30.0,104.0
36472,0.052,0.833,0.245,15.870,-19.649,-4.565,29.0,105.0
36518,0.056,0.839,0.173,7.771,1.198,-27.542,28.0,105.0
36563,-0.317,0.809,0.483,-4.710,8.328,-27.664,29.0,104.0
36653,-0.215,0.885,0.398,-11.466,-19.817,-31.771,30.0,105.0
36699,-0.211,0.982,0.462,0.939,10.031,-9.542,31.0,105.0
36745,-0.301,0.913,0.428,-1.206,-7.641,-16.206,32.0,104.0
36800,-0.393,1.008,0.661,-7.115,-31.824,-3.870,0.0,105.0
36858,-0.326,0.723,0.697,8.008,-63.015,0.992,0.0,107.0
36915,-0.244,0.728,0.510,34.176,-76.626,-7.450,0.0,113.0
36975,-0.216,0.976,0.248,39.153,-55.427,-0.939,0.0,182.0
37035,-0.010,0.758,-0.036,5.267,-84.076,4.176,0.0,182.0
37093,0.073,1.156,0.410,-18.450,-46.031,-9.863,0.0,151.0
37151,0.143,0.692,-0.029,-6.359,2.481,-15.534,0.0,151.0
37210,-0.142,1.014,0.699,-23.153,-11.519,-17.206,0.0,152.0
37268,-0.236,0.847,0.625,7.969,-4.374,-12.809,0.0,154.0
37328,-0.077,0.813,0.460,15.099,-57.672,-4.893,0.0,185.0
37390,-0.096,0.993,0.505,-5.939,-22.511,-20.053,0.0,149.0
37448,-0.241,0.586,0.733,6.794,-62.527,-13.130,0.0,148.0
37507,0.100,0.891,0.182,21.809,-65.191,-41.328,0.0,157.0
37556,-0.255,1.027,0.759,7.878,-60.015,-41.397,37.0,158.0
37608,-0.103,0.858,0.216,17.733,-114.557,-45.855,36.0,0.0
37668,-0.146,1.201,0.386,29.267,-49.840,-25.305,0.0,0.0
37721,-0.135,0.743,0.254,6.191,-69.366,0.863,33.0,0.0
37772,-0.052,0.973,0.358,21.496,-72.656,-11.901,30.0,0.0
37822,0.013,0.858,0.264,12.382,-65.817,-1.015,32.0,184.0
37888,0.103,0.885,0.159,9.496,-41.573,-21.779,0.0,0.0
37948,-0.067,0.962,0.306,8.603,-11.321,-3.573,0.0,0.0
38009,0.070,0.833,0.128,15.206,-16.374,-9.076,0.0,0.0
38076,-0.125,1.042,0.756,1.748,-42.122,-4.130,0.0,0.0
38135,-0.081,1.061,0.642,5.420,-59.168,0.389,0.0,0.0
38196,-0.004,0.791,0.294,21.473,-68.328,7.351,0.0,0.0
38246,0.094,0.882,0.201,9.916,-71.893,-5.527,34.0,0.0
38297,0.124,1.037,0.099,-6.237,-42.237,-14.611,34.0,0.0
38347,-0.063,0.806,0.509,-35.305,-78.115,-11.695,36.0,0.0
38411,0.167,0.838,0.402,6.084,-88.107,-16.450,0.0,0.0
38461,0.119,0.811,0.227,30.153,-66.710,-30.374,35.0,0.0
38512,0.155,0.992,0.017,32.031,-73.771,-33.328,31.0,0.0
38562,0.219,1.081,-0.164,25.389,-42.435,-45.389,31.0,0.0
38599,0.040,1.200,-0.077,13.122,7.489,-28.198,31.0,0.0
38649,-0.062,1.136,0.077,10.008,14.053,-2.756,33.0,0.0
38686,0.019,1.006,0.193,-3.092,-3.298,4.550,34.0,0.0
38736,0.088,0.933,0.235,-6.206,0.641,1.405,33.0,0.0
38773,0.087,0.884,0.192,1.725,-2.237,-9.099,33.0,0.0
38828,0.041,0.907,0.112,3.489,1.069,-14.298,36.0,0.0
38878,0.017,1.053,0.188,0.069,6.466,-10.176,33.0,0.0
38915,0.036,0.946,0.225,-6.458,-4.847,-13.893,31.0,0.0
38965,-0.013,0.963,0.292,-5.710,-8.389,-14.450,32.0,0.0
39002,0.015,0.928,0.235,0.527,-10.710,-19.290,33.0,0.0
39053,-0.007,0.981,0.162,3.985,-11.611,-26.710,33.0,0.0
39103,-0.082,1.108,0.119,4.519,-8.099,-21.527,32.0,0.0
39163,-0.072,1.148,0.104,-6.672,-7.679,-8.084,0.0,0.0
39200,-0.034,1.045,0.150,-6.641,4.947,-2.031,32.0,0.0
39254,-0.033,1.025,0.228,-12.336,1.229,0.000,31.0,0.0
39348,-0.001,0.984,0.201,-1.863,3.344,-8.962,36.0,0.0
39398,-0.061,0.966,0.189,-7.664,9.008,-8.969,32.0,0.0
39449,-0.058,0.912,0.209,-13.733,-1.450,-9.115,32.0,0.0
39499,0.002,0.980,0.211,-13.115,3.901,-11.733,33.0,0.0
39550,-0.084,0.971,0.275,-19.710,11.031,-16.817,32.0,0.0
39601,-0.113,0.953,0.281,-23.183,-0.802,-15.443,32.0,0.0
39652,-0.062,1.024,0.193,-9.985,0.542,-7.321,31.0,0.0
39703,-0.030,0.886,0.167,-16.031,14.908,-6.595,31.0,0.0
39756,-0.146,0.944,0.294,-31.679,18.489,-23.153,32.0,0.0
39808,-0.115,0.885,0.335,-29.382,17.878,-10.069,32.0,0.0
39858,-0.150,1.130,0.441,-6.214,2.641,-10.489,33.0,0.0
39909,-0.181,0.708,0.342,-9.695,15.481,5.649,32.0,0.0
39959,-0.122,0.972,0.303,-16.908,5.733,-14.756,31.0,0.0
40005,-0.203,0.802,0.317,-21.954,3.305,-2.718,32.0,112.0
40051,-0.032,0.928,0.351,-14.221,4.290,-3.878,31.0,113.0
40096,-0.077,0.876,0.397,-6.023,7.878,-11.321,31.0,113.0
40142,-0.207,0.887,0.406,-12.214,23.511,-15.427,32.0,113.0
40190,-0.211,0.855,0.415,-3.725,13.794,-1.618,31.0,111.0
40237,-0.179,0.818,0.353,-6.351,5.389,-11.481,36.0,111.0
40283,-0.164,0.942,0.363,-15.519,10.527,-17.023,33.0,107.0
40338,-0.133,0.835,0.335,-12.115,17.496,-16.351,0.0,111.0
40393,-0.037,0.745,0.233,-27.779,22.954,-40.771,0.0,112.0
40448,-0.191,0.781,0.515,-56.718,9.427,-82.908,0.0,99.0
40508,-0.207,0.602,0.601,-42.550,-17.107,-101.580,0.0,0.0
40555,-0.346,0.730,0.565,-23.351,9.962,-115.137,0.0,0.0
40602,-0.518,0.508,0.540,-27.611,6.817,-119.328,0.0,0.0
40666,-0.553,0.413,0.664,-27.908,-3.389,-127.794,0.0,200.0
40725,-0.569,0.256,0.704,-18.229,-24.237,-140.901,0.0,195.0
40785,-0.609,0.179,0.622,-18.153,-6.733,-156.076,0.0,191.0
40842,-0.821,0.099,0.667,-9.298,5.000,-152.527,0.0,112.0
40896,-0.842,-0.204,0.667,-6.985,-23.084,-161.321,0.0,107.0
40951,-0.799,-0.153,0.643,-7.771,-12.481,-128.191,0.0,103.0
41007,-0.760,-0.386,0.619,-6.977,-26.099,-153.298,0.0,99.0
41062,-0.668,-0.220,0.543,-22.817,9.084,-127.107,0.0,97.0
41116,-0.894,-0.603,0.645,-26.389,-15.359,-150.969,0.0,94.0
41174,-0.726,-0.258,0.606,-29.985,-18.328,-129.321,0.0,91.0
41228,-0.544,-0.821,0.441,-37.580,-29.664,-150.840,0.0,89.0
41282,-0.529,-0.604,0.659,-41.046,23.435,-104.427,0.0,90.0
41331,-0.552,-0.850,0.837,-39.779,-54.275,-107.397,80.0,104.0
41379,-0.271,-0.699,0.607,-25.275,-52.092,-101.939,84.0,107.0
41426,-0.273,-0.820,0.621,-33.076,-32.710,-81.298,74.0,88.0
41474,-0.285,-0.829,0.713,-20.191,-38.824,-61.420,73.0,86.0
41521,-0.168,-0.821,0.670,-19.397,-32.939,-48.931,73.0,85.0
41570,-0.107,-0.813,0.624,-4.710,-38.718,-32.061,63.0,86.0
41623,-0.035,-0.819,0.530,-4.435,-11.244,-26.641,66.0,0.0
41676,-0.104,-0.849,0.567,-3.863,1.565,-11.733,75.0,0.0
41730,-0.032,-0.797,0.564,-1.145,-25.260,-6.412,74.0,0.0
41784,-0.007,-0.875,0.562,-2.832,-7.580,4.130,74.0,0.0
41836,0.012,-0.845,0.590,-2.656,-26.962,-7.305,64.0,0.0
41889,0.094,-0.814,0.529,-1.328,-1.046,2.137,63.0,0.0
41985,0.008,-0.834,0.516,1.626,-16.466,-4.237,62.0,0.0
42038,0.071,-0.827,0.536,-7.191,-18.809,4.359,60.0,0.0
42093,0.087,-0.819,0.561,-2.870,-14.710,-1.679,60.0,0.0
42146,0.091,-0.903,0.623,-2.305,-23.282,-2.641,60.0,0.0
42199,0.140,-0.859,0.585,-0.015,-14.832,-6.580,60.0,0.0
42252,0.102,-0.813,0.578,7.389,-14.023,-0.847,61.0,0.0
42304,0.129,-0.811,0.491,2.122,-12.282,-7.351,60.0,0.0
42358,0.069,-0.838,0.566,1.504,-10.588,-0.389,72.0,0.0
42405,0.138,-0.836,0.561,0.817,-23.328,-1.237,71.0,89.0
42451,0.155,-0.846,0.567,4.763,-14.679,0.176,62.0,89.0
42498,0.187,-0.814,0.539,4.374,-18.656,-5.496,68.0,88.0
42548,0.129,-0.866,0.585,6.084,-12.389,1.130,68.0,88.0
42595,0.216,-0.807,0.504,3.618,-7.580,-3.443,68.0,88.0
42647,0.167,-0.852,0.564,4.588,-5.916,3.061,63.0,0.0
42700,0.188,-0.812,0.529,1.969,-6.977,-13.015,73.0,0.0
42754,0.141,-0.801,0.551,2.359,-0.527,-4.107,63.0,0.0
42807,0.180,-0.769,0.511,2.550,-12.069,1.527,72.0,0.0
42860,0.060,-0.774,0.598,-5.130,-47.542,-4.122,62.0,0.0
42900,0.278,-0.825,0.498,-2.878,-55.023,8.061,71.0,0.0
42953,0.264,-0.809,0.472,-4.496,-55.863,-7.389,70.0,0.0
42996,0.330,-0.771,0.287,-17.565,-5.420,-10.183,69.0,0.0
43043,0.122,-0.775,0.422,-21.496,15.763,4.687,71.0,88.0
43097,0.062,-0.783,0.500,-25.481,-33.092,15.550,70.0,0.0
43150,0.271,-0.903,0.380,-29.221,-31.779,16.046,68.0,0.0
43203,0.297,-0.878,0.457,-33.504,-8.992,10.679,69.0,0.0
43243,0.307,-0.888,0.446,-25.107,-4.183,9.008,67.0,0.0
43296,0.216,-0.906,0.508,-21.847,-5.031,7.542,70.0,0.0
43336,0.390,-0.930,0.312,-20.321,-12.916,-1.672,68.0,0.0
43383,0.166,-0.886,0.391,-23.710,26.282,-7.321,69.0,89.0
43441,0.056,-0.921,0.490,-12.687,-25.198,15.374,65.0,91.0
43493,0.351,-0.873,0.234,-13.634,-29.618,11.702,65.0,0.0
43532,0.182,-1.016,0.444,-11.588,2.573,7.130,65.0,0.0
43584,0.347,-0.913,0.343,-10.015,-22.275,13.290,70.0,0.0
43637,0.264,-1.020,0.400,-4.885,-10.565,-3.244,85.0,0.0
43677,0.319,-0.970,0.359,-7.061,-10.779,-7.351,84.0,0.0
43730,0.367,-0.991,0.256,0.901,15.718,-10.565,83.0,0.0
43785,0.074,-0.964,0.487,0.595,2.198,-10.405,84.0,0.0
43838,0.317,-0.930,0.215,1.863,9.092,-10.168,84.0,0.0
43893,0.187,-0.885,0.271,-2.573,3.107,-6.725,72.0,0.0
43945,0.189,-0.947,0.344,-0.519,-19.878,-5.366,68.0,0.0
43999,0.262,-0.958,0.275,-7.244,29.756,2.824,66.0,0.0
44051,-0.023,-0.957,0.363,6.000,-21.221,0.145,68.0,0.0
44103,0.024,-0.884,0.121,-2.053,-48.252,11.084,68.0,0.0
44156,-0.048,-0.989,0.137,-8.771,-51.145,31.611,68.0,0.0
44207,0.082,-0.897,0.068,-24.160,-73.969,35.588,80.0,143.0
44255,-0.019,-1.032,0.238,-23.992,-61.786,59.863,94.0,101.0
44303,0.002,-1.157,0.264,-16.870,-110.405,57.351,73.0,107.0
44353,0.137,-0.971,0.213,-11.740,-98.771,81.305,75.0,108.0
44403,-0.167,-1.150,0.697,2.870,-114.084,111.405,70.0,153.0
44453,-0.026,-1.198,0.339,56.328,-245.695,111.641,65.0,158.0
44549,0.223,-0.877,-0.253,17.618,-188.092,54.443,60.0,0.0
44601,0.147,-1.011,-0.218,-9.496,-120.611,49.527,58.0,0.0
44652,0.143,-0.815,-0.212,-16.588,-32.023,40.374,59.0,174.0
44703,-0.059,-0.705,0.019,-51.595,-5.198,27.000,58.0,173.0
44755,-0.156,-0.838,0.024,-54.687,-28.389,6.511,57.0,0.0
44805,-0.182,-0.955,0.015,-58.305,-66.122,-3.115,0.0,0.0
44848,-0.052,-1.012,-0.231,-40.084,-37.511,-1.160,0.0,132.0
44895,-0.186,-0.916,-0.056,-57.649,-10.405,12.656,55.0,117.0
44942,-0.205,-1.064,-0.059,-63.389,-29.237,39.397,57.0,119.0
44988,-0.174,-1.303,-0.051,-56.611,-57.473,45.817,57.0,90.0
45036,0.029,-1.183,-0.433,-25.328,-21.649,25.573,91.0,94.0
45083,-0.187,-0.868,-0.024,-77.061,-3.901,-2.702,87.0,74.0
45129,-0.216,-1.203,0.037,-75.794,-42.351,25.611,85.0,79.0
45176,0.087,-1.249,-0.003,-22.985,-81.160,47.626,83.0,77.0
45225,0.083,-1.152,-0.105,-10.687,-5.588,18.687,82.0,74.0
45272,-0.108,-1.043,-0.057,-16.527,33.595,2.084,81.0,74.0
45319,-0.467,-1.098,0.113,-10.664,-16.740,1.489,81.0,75.0
45365,-0.237,-1.049,-0.223,0.779,-75.985,-7.122,80.0,75.0
45411,-0.135,-0.927,-0.264,-7.237,-42.496,-5.023,81.0,74.0
45457,-0.165,-1.016,-0.326,-0.107,15.260,-4.366,81.0,75.0
45504,-0.362,-0.970,-0.152,-7.153,9.489,-3.817,80.0,76.0
45550,-0.323,-1.031,-0.323,-3.252,12.939,-7.618,79.0,77.0
45596,-0.446,-0.810,-0.154,-16.832,-5.191,2.366,79.0,77.0
45648,-0.318,-0.940,-0.221,-20.740,-37.664,6.580,79.0,125.0
45704,-0.295,-0.887,-0.153,-16.053,-36.611,15.527,0.0,111.0
45756,-0.281,-0.946,-0.157,-14.389,-34.710,7.221,126.0,126.0
45809,-0.224,-0.929,-0.203,-10.664,-26.412,7.489,151.0,114.0
45861,-0.305,-0.991,-0.165,-2.947,-2.321,11.496,150.0,108.0
45915,-0.328,-0.949,-0.174,-0.031,-19.336,0.137,150.0,113.0
45970,-0.276,-0.967,-0.270,-3.427,-17.176,-7.466,0.0,112.0
46023,-0.405,-0.985,-0.177,-2.237,-1.969,-3.863,142.0,130.0
46078,-0.328,-0.931,-0.206,-1.588,-16.405,-0.931,140.0,114.0
46131,-0.350,-0.966,-0.182,0.725,-15.130,1.038,139.0,114.0
46183,-0.323,-0.978,-0.167,-1.374,-26.229,-4.565,139.0,117.0
46235,-0.270,-0.953,-0.231,1.931,1.840,-7.298,128.0,123.0
46288,-0.427,-0.908,-0.147,3.038,-2.489,-1.893,137.0,133.0
46341,-0.375,-0.964,-0.229,0.626,-27.908,0.443,126.0,116.0
46392,-0.288,-0.993,-0.338,-3.626,-1.855,2.359,125.0,118.0
46444,-0.421,-1.021,-0.294,-13.863,-9.092,-3.290,135.0,116.0
46500,-0.359,-1.030,-0.239,-23.450,-10.145,3.901,135.0,135.0
46554,-0.263,-1.270,-0.001,-19.527,-8.817,15.153,134.0,137.0
46610,-0.245,-1.224,0.215,16.740,-10.023,-1.664,0.0,111.0
46665,-0.233,-1.424,0.290,43.603,-34.443,-30.725,0.0,110.0
46720,-0.074,-1.397,0.181,82.863,-17.359,-41.466,0.0,91.0
46769,-0.106,-1.397,-0.002,119.626,-3.420,-41.908,129.0,68.0
46818,-0.394,-1.202,-0.570,139.939,25.893,-89.740,135.0,64.0
46869,-0.836,-0.396,-0.433,69.023,-5.985,-106.702,148.0,93.0
46919,-0.398,-0.730,-0.189,9.588,-43.496,-27.237,135.0,77.0
46972,-0.032,-0.845,0.177,24.794,22.282,31.237,140.0,76.0
47024,-0.119,-0.779,0.536,28.031,5.527,8.611,138.0,92.0
47121,-0.192,-0.895,0.390,53.023,-36.191,17.191,0.0,82.0
47174,-0.061,-0.752,0.193,55.137,-9.420,-7.763,0.0,82.0
47225,-0.111,-0.724,0.271,29.641,33.664,-13.321,141.0,90.0
47277,-0.234,-0.747,0.464,29.359,43.321,-0.763,157.0,80.0
47331,-0.181,-0.837,0.549,34.450,45.992,27.412,0.0,78.0
47385,-0.124,-1.002,0.885,60.374,89.374,63.107,0.0,90.0
47439,-0.350,-1.068,0.969,126.489,163.282,111.084,0.0,90.0
47497,-0.949,-0.831,1.083,142.191,84.725,112.031,0.0,78.0
47551,-0.686,-0.604,0.473,121.641,-40.290,63.542,0.0,76.0
47604,-0.440,-0.316,-0.025,106.664,-39.809,57.618,0.0,78.0
47659,-0.326,-0.236,0.133,50.679,-17.534,44.084,0.0,77.0
47712,-0.360,-0.249,0.563,30.863,30.115,39.412,0.0,80.0
47766,-0.615,-0.153,0.968,36.046,-9.573,8.542,0.0,77.0
47819,-0.443,-0.139,0.689,40.023,-29.489,-18.611,0.0,77.0
47874,-0.524,-0.143,0.556,27.351,41.595,-22.687,0.0,78.0
47930,-0.759,-0.093,0.719,12.511,18.389,-11.389,0.0,76.0
47985,-0.566,-0.120,0.632,7.908,-17.420,-12.107,0.0,85.0
48039,-0.581,-0.139,0.725,0.237,-1.069,-14.542,0.0,85.0
48093,-0.593,-0.046,0.696,0.969,12.573,-15.603,0.0,76.0
48146,-0.717,-0.162,0.754,-1.305,6.779,-14.794,0.0,74.0
48200,-0.664,-0.089,0.774,-6.389,0.359,0.389,0.0,74.0
48253,-0.600,-0.129,0.705,5.443,10.710,5.802,0.0,74.0
48307,-0.654,-0.161,0.702,0.924,13.534,6.947,0.0,73.0
48361,-0.646,-0.127,0.676,-2.618,14.214,12.099,0.0,73.0
48417,-0.693,-0.105,0.726,-1.977,24.786,26.405,0.0,77.0
48472,-0.649,-0.092,0.779,8.931,27.634,31.214,0.0,74.0
48525,-0.687,-0.148,0.917,25.466,34.611,33.893,0.0,73.0
48578,-0.810,-0.259,1.288,64.168,33.527,37.061,0.0,75.0
48633,-0.767,-0.182,1.202,134.916,22.008,53.817,0.0,94.0
48688,-0.746,0.011,0.827,167.473,11.275,51.046,0.0,74.0
48741,-0.826,0.178,0.695,159.122,-4.076,44.763,0.0,73.0
48795,-0.908,0.290,0.659,151.313,-77.641,47.786,0.0,81.0
48849,-0.554,0.387,0.033,157.061,-52.580,47.359,0.0,87.0
48908,-0.679,0.454,-0.195,145.985,14.031,55.267,0.0,91.0
48954,-0.551,0.683,-0.049,88.695,-14.450,50.229,31.0,111.0
48999,-0.364,0.697,0.016,45.282,-2.191,50.443,29.0,99.0
49044,-0.281,0.692,0.220,15.489,-4.069,23.336,28.0,98.0
49090,-0.387,0.692,0.344,24.954,13.000,0.649,29.0,103.0
49135,-0.607,0.750,0.516,33.466,-3.420,4.603,28.0,105.0
49181,-0.469,0.887,0.322,53.588,-34.450,-0.221,27.0,108.0
49227,-0.469,0.885,0.081,47.580,-40.611,-10.321,30.0,111.0
49272,-0.466,0.984,-0.048,34.878,-22.565,-10.450,28.0,104.0
49321,-0.526,0.905,0.072,8.809,-21.885,-4.298,28.0,102.0
49368,-0.552,0.875,0.230,4.634,-29.824,4.489,29.0,113.0
49414,-0.417,0.812,0.195,7.183,-49.863,1.542,27.0,110.0
49459,-0.353,0.840,0.154,20.466,-29.305,-5.687,27.0,107.0
49505,-0.477,0.998,0.337,18.992,-25.893,-1.901,30.0,102.0
49566,-0.566,1.059,0.707,-0.122,-46.084,8.702,0.0,200.0
49611,-0.510,0.725,0.771,24.870,-83.450,27.748,27.0,104.0
49658,-0.554,0.661,0.607,73.000,-112.298,15.290,29.0,116.0
49747,-0.628,0.565,-0.495,115.595,-168.031,-8.275,32.0,108.0
49807,-0.295,1.018,-0.483,66.145,-122.076,-0.832,0.0,110.0
49853,-0.340,1.010,-0.175,16.557,-68.634,1.206,36.0,111.0
49905,-0.283,0.923,-0.048,-0.519,-83.328,-2.336,38.0,0.0
49957,-0.298,1.011,-0.030,10.931,-83.718,-8.145,36.0,0.0
50018,-0.205,1.255,-0.026,2.916,-65.168,1.885,0.0,200.0
50075,-0.326,0.998,0.111,-1.359,-29.817,24.275,36.0,0.0
50112,-0.229,0.897,0.145,5.015,-31.489,25.656,37.0,0.0
50162,-0.115,0.874,0.055,16.023,-22.878,33.901,36.0,0.0
50213,-0.135,0.922,0.060,8.450,-17.153,24.496,37.0,0.0
50269,0.022,0.961,0.046,-4.824,-15.840,25.328,67.0,0.0
50321,-0.046,0.910,0.101,-0.870,-2.290,16.550,67.0,0.0
50373,-0.077,0.880,0.164,0.832,-1.496,14.282,65.0,0.0
50425,-0.038,1.025,0.184,8.229,1.214,21.664,63.0,0.0
50478,-0.022,0.846,0.181,6.443,-2.046,17.901,61.0,0.0
50530,0.071,0.919,0.171,13.557,5.603,10.939,61.0,0.0
50582,0.074,0.984,0.148,16.130,14.786,3.122,61.0,0.0
50634,-0.061,1.068,0.240,-2.786,4.351,1.229,61.0,0.0
50686,-0.021,0.997,0.238,1.893,-10.351,7.313,61.0,0.0
50742,0.025,0.890,0.194,15.718,-10.115,12.053,62.0,0.0
50794,0.041,0.933,0.177,25.450,-8.046,11.595,63.0,0.0
50846,0.061,0.884,0.143,28.092,-9.885,7.534,59.0,0.0
50897,0.045,0.920,0.131,36.092,-29.649,3.237,58.0,0.0
50949,0.113,0.915,0.045,42.313,-18.893,-1.573,34.0,0.0
50999,0.045,0.950,-0.021,42.397,-15.534,-6.328,34.0,0.0
51050,0.024,0.977,-0.158,51.359,-16.649,-3.550,34.0,0.0
51100,0.024,1.042,-0.239,38.420,-32.298,-10.046,34.0,0.0
51151,0.060,1.089,-0.287,23.229,-21.084,-2.626,34.0,197.0
51204,-0.010,1.088,-0.209,15.504,-15.000,-7.427,34.0,179.0
51255,0.005,1.061,-0.255,24.031,-16.359,2.115,34.0,0.0
51305,-0.008,1.070,-0.321,31.580,-9.443,8.779,33.0,0.0
51354,0.008,1.025,-0.369,28.420,-2.252,21.763,33.0,177.0
51405,0.021,0.932,-0.333,11.756,-1.977,23.237,34.0,0.0
51456,0.106,0.872,-0.242,6.275,-9.580,19.649,33.0,196.0
51506,0.181,0.868,-0.300,16.260,-9.756,10.099,33.0,177.0
51555,0.176,0.872,-0.406,16.305,1.511,3.802,34.0,180.0
51606,0.065,0.893,-0.477,8.344,8.458,4.412,36.0,197.0
51658,0.073,0.913,-0.417,-17.435,-12.450,-1.763,37.0,178.0
51708,0.118,1.022,-0.369,-38.496,-10.427,-15.656,37.0,177.0
51758,0.111,1.141,-0.274,-38.198,7.962,-13.924,36.0,176.0
51808,-0.001,1.049,-0.235,-38.878,6.076,1.672,36.0,175.0
51857,0.022,0.842,-0.208,-45.779,-5.931,3.565,36.0,175.0
51907,0.132,0.890,-0.192,-17.863,-6.695,6.344,37.0,177.0
51958,0.180,0.914,-0.240,-2.305,18.748,5.237,35.0,0.0
52008,0.123,0.992,-0.177,1.137,30.435,0.893,34.0,0.0
52060,0.108,1.051,-0.217,-17.176,18.427,-1.008,34.0,0.0
52113,0.141,1.012,-0.176,-31.481,17.015,-4.282,33.0,0.0
52164,0.184,0.988,-0.115,-29.947,21.000,-6.382,33.0,0.0
52215,0.127,0.938,-0.103,-11.718,32.160,-11.527,33.0,0.0
52267,0.096,0.969,-0.178,-2.824,32.672,-17.496,34.0,0.0
52360,0.059,0.952,-0.117,-27.191,35.733,-19.389,31.0,0.0
52411,0.009,1.010,-0.035,-29.679,37.466,-20.824,34.0,0.0
52462,0.025,0.972,-0.014,-30.626,38.542,-18.992,35.0,0.0
52513,0.019,0.938,0.031,-31.290,39.160,-20.969,34.0,0.0
52564,-0.025,0.967,0.102,-30.878,37.237,-25.366,34.0,0.0
52604,0.010,0.946,0.050,-27.267,37.924,-31.252,34.0,0.0
52656,-0.018,0.940,0.045,-26.450,50.618,-32.832,35.0,0.0
52706,-0.131,0.976,0.135,-26.672,49.275,-37.504,33.0,0.0
52757,-0.131,0.942,0.191,-34.733,37.565,-34.229,35.0,0.0
52818,-0.158,0.927,0.210,-28.725,47.702,-33.939,0.0,0.0
52879,-0.205,0.953,0.208,-21.237,43.145,-29.275,0.0,0.0
52939,-0.279,1.061,0.231,-25.214,37.084,-30.802,0.0,0.0
52986,-0.260,0.891,0.179,-28.397,33.084,-20.855,0.0,0.0
53027,-0.319,0.938,0.239,-32.954,34.771,-20.290,0.0,107.0
53086,-0.274,0.854,0.203,-27.244,32.603,-19.374,0.0,108.0
53141,-0.337,0.901,0.279,-34.275,35.802,-24.351,0.0,105.0
53186,-0.318,0.807,0.248,-29.023,32.855,-23.870,38.0,103.0
53232,-0.379,0.885,0.268,-24.435,34.725,-27.977,36.0,104.0
53278,-0.403,0.866,0.257,-28.115,38.076,-27.122,36.0,104.0
53323,-0.474,0.878,0.316,-35.359,32.832,-22.176,37.0,102.0
53369,-0.450,0.801,0.324,-36.733,27.588,-21.260,36.0,104.0
53414,-0.480,0.827,0.338,-34.908,30.786,-19.565,36.0,102.0
53463,-0.505,0.790,0.333,-32.061,35.344,-11.809,37.0,90.0
53509,-0.539,0.791,0.347,-30.237,27.885,-10.809,37.0,103.0
53554,-0.521,0.760,0.322,-33.534,31.221,-9.511,37.0,88.0
53599,-0.518,0.774,0.315,-37.504,30.015,-3.977,37.0,88.0
53643,-0.510,0.761,0.308,-39.641,26.954,-7.168,38.0,88.0
53689,-0.505,0.741,0.291,-42.275,36.580,-7.107,39.0,102.0
53735,-0.618,0.720,0.358,-44.489,42.939,-3.252,43.0,100.0
53789,-0.614,0.730,0.361,-46.107,34.725,-3.191,0.0,100.0
53844,-0.613,0.686,0.396,-49.191,37.252,-0.053,0.0,100.0
53902,-0.643,0.625,0.460,-47.992,35.756,0.092,0.0,83.0
53955,-0.603,0.604,0.443,-39.000,33.611,0.443,0.0,77.0
54009,-0.630,0.570,0.422,-26.664,39.908,-1.405,0.0,78.0
54063,-0.670,0.635,0.440,-23.153,40.557,-2.672,0.0,75.0
54116,-0.668,0.618,0.404,-29.840,29.290,-2.870,0.0,71.0
54170,-0.663,0.574,0.377,-30.038,26.748,-4.634,0.0,74.0
54223,-0.675,0.606,0.363,-34.687,26.427,-6.817,0.0,73.0
54277,-0.751,0.577,0.383,-42.840,22.412,-4.565,0.0,77.0
54322,-0.700,0.551,0.376,-46.305,14.725,-0.489,44.0,70.0
54368,-0.701,0.553,0.403,-44.481,19.313,2.695,40.0,62.0
54412,-0.728,0.530,0.430,-45.603,23.313,7.237,39.0,58.0
54455,-0.734,0.488,0.480,-44.115,20.840,8.992,39.0,60.0
54499,-0.710,0.445,0.454,-39.298,17.092,7.756,38.0,68.0
54542,-0.711,0.430,0.468,-38.252,18.641,5.252,38.0,62.0
54586,-0.685,0.423,0.447,-35.290,17.313,2.344,38.0,59.0
54629,-0.680,0.407,0.418,-39.794,17.153,-5.832,39.0,58.0
54673,-0.672,0.379,0.392,-45.481,18.763,-11.336,37.0,65.0
54716,-0.697,0.323,0.429,-48.817,20.061,-18.901,38.0,64.0
54763,-0.675,0.318,0.426,-47.099,18.550,-28.061,39.0,56.0
54850,-0.715,0.274,0.440,-41.313,21.908,-40.588,38.0,64.0
54893,-0.799,0.255,0.421,-47.725,29.221,-46.183,39.0,53.0
54937,-0.844,0.216,0.430,-59.626,27.702,-44.595,39.0,68.0
54980,-0.850,0.176,0.419,-65.588,21.443,-44.489,40.0,55.0
55024,-0.818,0.129,0.394,-71.939,21.595,-47.214,43.0,52.0
55068,-0.814,0.065,0.384,-72.763,25.916,-46.733,51.0,55.0
55112,-0.812,0.006,0.349,-74.649,29.481,-51.168,51.0,56.0
55155,-0.874,-0.085,0.333,-77.511,29.779,-54.824,44.0,56.0
55204,-0.822,-0.111,0.326,-82.107,27.328,-55.336,45.0,95.0
55250,-0.854,-0.245,0.269,-86.962,25.939,-74.725,45.0,93.0
55302,-0.813,-0.255,0.181,-97.198,24.275,-78.931,146.0,89.0
55354,-0.909,-0.355,0.165,-117.565,1.611,-101.824,150.0,82.0
55408,-0.782,-0.441,-0.123,-143.397,-28.908,-96.718,0.0,78.0
55462,-0.601,-0.546,-0.106,-141.679,-1.489,-84.977,0.0,77.0
55516,-0.958,-0.848,0.130,-123.985,18.748,-65.641,0.0,76.0
55572,-0.880,-0.961,0.273,-123.718,-39.130,-63.206,0.0,103.0
55631,-0.585,-1.093,0.088,-67.519,-37.908,-34.466,0.0,125.0
55687,-0.574,-0.907,0.077,-53.229,-4.947,-22.412,0.0,100.0
55743,-0.693,-0.888,0.084,-46.527,3.908,-15.351,0.0,101.0
55798,-0.653,-0.904,-0.004,-39.374,-23.985,-23.290,0.0,104.0
55854,-0.597,-0.870,-0.085,-28.985,-14.557,-15.298,0.0,100.0
55909,-0.603,-0.832,-0.077,-24.702,-17.145,-10.756,0.0,99.0
55965,-0.590,-0.835,-0.132,-21.618,-22.183,-17.366,0.0,102.0
56020,-0.586,-0.837,-0.119,-14.344,-17.496,-15.947,0.0,103.0
56075,-0.552,-0.865,-0.115,-9.794,-9.420,-16.840,0.0,78.0
56134,-0.591,-0.824,-0.109,0.397,3.412,-6.763,0.0,101.0
56190,-0.581,-0.836,-0.120,0.817,-4.504,-7.237,0.0,124.0
56246,-0.552,-0.813,-0.145,3.542,-3.878,-4.229,0.0,101.0
56301,-0.545,-0.825,-0.130,4.695,-0.382,-1.954,0.0,100.0
56356,-0.547,-0.817,-0.154,7.466,3.160,-2.336,0.0,101.0
56413,-0.537,-0.838,-0.178,8.038,9.878,-3.221,0.0,100.0
56468,-0.584,-0.842,-0.120,9.565,14.885,1.252,0.0,101.0
56523,-0.570,-0.836,-0.107,12.130,12.916,8.443,0.0,101.0
56587,-0.623,-0.797,-0.125,20.397,30.786,8.695,0.0,101.0
56640,-0.800,-0.733,-0.190,27.366,54.489,11.977,0.0,80.0
56695,-0.873,-0.741,-0.122,5.115,7.771,36.366,0.0,120.0
56751,-0.759,-0.871,-0.108,-5.527,-45.725,53.298,0.0,107.0
56805,-0.368,-0.938,-0.204,5.985,-92.733,50.076,0.0,108.0
56860,-0.166,-0.726,-0.300,7.786,1.901,20.405,0.0,108.0
56914,-0.715,-0.641,0.095,-12.282,18.267,2.351,0.0,109.0
56969,-0.749,-0.726,0.030,-25.260,-49.916,-4.244,0.0,86.0
57022,-0.575,-0.574,-0.126,-20.183,-34.206,-5.084,0.0,85.0
57081,-0.734,-0.597,-0.009,-21.718,13.504,-9.122,0.0,126.0
57136,-0.842,-0.752,0.066,-20.985,-23.374,-5.511,0.0,107.0
57191,-0.680,-0.721,-0.013,-21.176,-34.351,-2.702,0.0,108.0
57246,-0.627,-0.775,-0.016,-12.916,-9.344,-4.160,0.0,110.0
57303,-0.698,-0.732,0.054,-5.267,-10.672,-3.893,0.0,127.0
57359,-0.662,-0.716,-0.031,-1.206,-10.947,-7.557,0.0,127.0
57414,-0.636,-0.750,-0.062,-1.863,-3.153,-6.443,0.0,127.0
57470,-0.712,-0.750,0.015,-2.450,-4.740,-10.099,0.0,127.0
57570,-0.690,-0.716,0.013,0.313,3.344,-6.427,0.0,129.0
57629,-0.662,-0.730,0.003,2.817,-5.313,-6.809,0.0,127.0
57684,-0.643,-0.749,-0.011,1.519,-0.595,-7.702,0.0,129.0
57741,-0.660,-0.754,0.008,2.664,-2.237,-9.023,0.0,129.0
57797,-0.622,-0.748,-0.010,4.931,0.969,-9.099,0.0,129.0
57853,-0.650,-0.754,0.029,3.794,3.603,-7.466,0.0,128.0
57910,-0.631,-0.749,0.009,4.817,4.153,-10.573,0.0,127.0
57965,-0.653,-0.755,0.022,2.702,0.901,-9.053,0.0,111.0
58019,-0.629,-0.754,0.019,4.573,0.489,-9.679,0.0,112.0
58075,-0.619,-0.778,0.016,1.779,1.634,-10.076,0.0,110.0
58133,-0.623,-0.768,0.016,1.885,-0.611,-10.031,0.0,111.0
58188,-0.621,-0.776,0.016,0.702,1.496,-11.145,0.0,108.0
58245,-0.625,-0.758,0.021,-2.267,0.031,-8.817,0.0,134.0
58301,-0.636,-0.769,0.027,-4.313,-7.656,-7.061,0.0,132.0
58356,-0.600,-0.792,0.008,-6.321,-6.366,-8.023,0.0,107.0
58413,-0.594,-0.800,0.032,-4.511,-5.611,-6.466,0.0,136.0
58468,-0.574,-0.837,0.052,0.000,0.000,-6.802,0.0,109.0
58523,-0.542,-0.891,0.064,6.893,0.328,-9.771,0.0,105.0
58577,-0.551,-0.899,0.135,21.069,3.099,-16.664,0.0,109.0
58636,-0.384,-1.086,0.113,39.656,6.611,-26.924,0.0,107.0
58691,-0.364,-1.254,0.305,50.458,31.359,-31.870,0.0,106.0
58744,-0.501,-1.109,0.207,84.290,15.153,-57.763,0.0,80.0
58799,-0.579,-0.800,-0.223,78.847,35.534,-95.863,0.0,81.0
58852,-1.052,-0.318,-0.154,56.687,112.076,-45.664,0.0,79.0
58905,-1.254,-0.220,0.328,6.687,18.046,42.107,0.0,80.0
58959,-0.582,-0.796,0.305,-18.099,-68.771,79.412,0.0,83.0
59015,-0.330,-1.015,0.389,12.153,-41.702,59.214,0.0,106.0
59071,-0.359,-0.782,0.288,25.015,-34.450,35.924,0.0,83.0
59125,-0.419,-0.749,0.214,7.099,-23.855,18.214,0.0,91.0
59180,-0.480,-0.789,0.314,-8.229,-36.031,12.908,0.0,83.0
59233,-0.424,-0.707,0.369,-11.626,-32.763,6.985,0.0,80.0
59288,-0.442,-0.800,0.403,-4.305,-22.534,0.298,0.0,100.0
59341,-0.453,-0.816,0.434,-1.122,-30.069,0.557,0.0,78.0
59395,-0.429,-0.819,0.379,7.954,-12.344,-13.802,0.0,75.0
59448,-0.522,-0.807,0.438,10.756,-8.290,-0.321,0.0,75.0
59501,-0.467,-0.751,0.403,15.740,-10.573,-5.214,0.0,76.0
59558,-0.452,-0.715,0.394,15.275,-0.351,-7.115,0.0,74.0
59612,-0.509,-0.691,0.457,15.603,17.794,-7.779,0.0,73.0
59668,-0.519,-0.736,0.484,17.985,0.321,-2.153,0.0,137.0
59721,-0.458,-0.684,0.472,25.710,12.053,2.321,0.0,72.0
59774,-0.490,-0.684,0.516,26.885,20.290,-0.809,0.0,71.0
59828,-0.571,-0.799,0.676,37.191,15.298,0.313,0.0,79.0
59881,-0.573,-0.866,0.811,61.328,32.725,14.389,0.0,71.0
59935,-0.727,-1.143,1.022,79.221,19.252,36.977,0.0,76.0
59987,-0.833,-1.278,1.308,91.786,-4.626,55.153,0.0,66.0
60044,-0.681,-1.048,0.954,155.847,-24.405,82.374,0.0,68.0
60097,-0.761,-0.784,0.560,192.985,-41.229,55.198,0.0,65.0
60150,-0.778,-0.406,0.138,236.496,-88.672,26.573,0.0,68.0
60205,-0.738,-0.348,-0.254,205.588,-123.947,-15.389,0.0,84.0
60250,-0.285,0.426,-0.258,188.557,-75.229,-30.221,37.0,93.0
60348,-0.406,0.551,0.388,77.878,0.649,-9.351,0.0,106.0
60394,-0.433,0.578,0.670,44.145,-24.725,-27.229,39.0,108.0
60449,-0.434,0.664,0.723,37.916,-18.099,-17.702,0.0,103.0
60505,-0.406,0.622,0.714,29.160,-8.740,-9.176,0.0,107.0
60563,-0.394,0.526,0.757,24.076,-18.008,-2.466,0.0,109.0
60618,-0.335,0.495,0.678,32.397,-15.786,-6.847,0.0,108.0
60674,-0.347,0.585,0.695,31.122,-7.863,-8.985,0.0,110.0
60721,-0.340,0.621,0.697,24.840,-21.466,-12.687,37.0,112.0
60776,-0.338,0.677,0.756,20.718,-24.634,-14.603,0.0,108.0
60831,-0.383,0.622,0.870,12.802,-39.748,-8.076,0.0,109.0
60887,-0.351,0.535,0.853,17.183,-59.328,-11.176,0.0,109.0
60934,-0.335,0.549,0.762,29.176,-58.939,-16.313,36.0,109.0
60979,-0.292,0.617,0.672,35.931,-60.733,-14.763,32.0,110.0
61037,-0.203,0.712,0.427,38.511,-50.710,-15.397,34.0,104.0
61085,-0.141,0.761,0.342,20.786,-33.664,-7.496,29.0,105.0
61133,-0.139,0.790,0.467,12.313,-30.489,-16.229,31.0,107.0
61181,-0.038,0.806,0.525,4.305,-20.153,-10.267,30.0,106.0
61229,-0.102,0.727,0.662,0.824,1.885,-12.450,29.0,107.0
61277,-0.129,0.700,0.685,-4.267,10.924,-10.382,29.0,107.0
61325,-0.226,0.708,0.800,-2.618,3.000,-10.969,29.0,105.0
61373,-0.149,0.698,0.746,3.931,-6.947,-9.740,29.0,107.0
61424,-0.165,0.687,0.643,5.565,2.550,-4.908,30.0,107.0
61472,-0.194,0.693,0.671,2.656,6.015,-6.351,30.0,106.0
61520,-0.182,0.687,0.680,4.687,-1.473,-5.374,30.0,106.0
61568,-0.157,0.656,0.656,4.351,-0.458,-3.145,31.0,107.0
61616,-0.169,0.646,0.661,3.290,5.282,-12.786,29.0,107.0
61664,-0.173,0.691,0.636,-0.649,9.336,-13.954,30.0,107.0
61712,-0.200,0.708,0.634,-6.214,15.649,-14.954,30.0,106.0
61760,-0.215,0.733,0.624,-8.183,10.740,-16.244,30.0,106.0
61808,-0.228,0.699,0.629,-11.771,14.557,-13.084,31.0,105.0
61870,-0.228,0.703,0.684,-14.214,12.969,-16.901,0.0,106.0
61918,-0.266,0.685,0.713,-12.191,18.618,-14.359,31.0,107.0
61966,-0.285,0.626,0.679,-9.595,17.466,-15.603,31.0,108.0
62014,-0.303,0.606,0.700,-6.038,16.481,-12.634,36.0,104.0
62063,-0.296,0.594,0.637,-5.672,22.099,-16.084,36.0,108.0
62111,-0.297,0.669,0.676,-14.542,22.443,-15.893,31.0,109.0
62170,-0.360,0.680,0.734,-15.053,25.565,-16.550,0.0,111.0
62228,-0.341,0.609,0.681,-6.305,23.420,-15.878,0.0,109.0
62285,-0.472,0.564,0.646,-2.916,34.450,-4.893,0.0,106.0
62347,-0.492,0.514,0.655,-13.267,32.084,-17.947,0.0,108.0
62405,-0.369,0.546,0.689,-14.588,13.038,-9.435,0.0,109.0
62464,-0.564,0.594,0.771,-4.038,21.382,-24.458,0.0,106.0
62522,-0.539,0.522,0.658,2.359,7.534,-11.595,0.0,107.0
62579,-0.420,0.584,0.607,-1.092,-17.817,-5.382,0.0,109.0
62638,-0.438,0.497,0.593,2.237,8.443,-7.015,0.0,108.0
62696,-0.617,0.563,0.713,7.618,10.901,-17.992,0.0,107.0
62754,-0.540,0.636,0.628,-2.519,-10.519,1.847,0.0,108.0
62813,-0.536,0.540,0.611,-7.191,3.687,5.550,0.0,110.0
62874,-0.492,0.618,0.610,-6.176,-3.122,7.359,0.0,108.0
62932,-0.471,0.509,0.559,-19.435,-4.427,7.962,0.0,110.0
