Timestamp(ms),AccelX(g),AccelY(g),AccelZ(g),GyroX(deg/s),GyroY(deg/s),GyroZ(deg/s),DistanceLeft(cm),DistanceRight(cm)
26851,-0.836,0.255,0.699,-40.924,78.863,9.198,176.0,75.0
26902,-0.977,-0.773,0.070,6.527,21.557,-109.443,177.0,74.0
26955,-0.852,-1.144,-0.305,91.115,61.099,-183.359,0.0,73.0
27006,-0.585,-0.047,0.216,54.939,51.092,-12.618,178.0,76.0
27059,-0.965,-0.392,0.312,-30.611,7.557,62.496,0.0,61.0
27111,-0.662,-0.930,-0.421,68.221,121.733,-38.397,0.0,60.0
27161,-0.799,-0.351,-0.255,79.008,199.511,11.908,166.0,60.0
27215,-1.174,0.268,0.876,-62.359,84.496,72.992,176.0,59.0
27267,-1.145,-1.183,-0.633,2.954,-1.260,-9.046,176.0,58.0
27317,-1.079,-0.326,0.161,78.405,-11.832,-5.802,176.0,58.0
27368,-0.778,-0.188,0.094,-26.229,-133.260,14.954,176.0,58.0
27419,-0.710,-0.749,-0.639,68.710,72.603,-86.855,177.0,60.0
27469,-0.440,0.087,0.704,37.832,-17.443,-9.733,177.0,59.0
27521,-1.071,-1.170,-1.241,117.374,239.412,-111.969,180.0,59.0
27573,-1.089,0.594,1.292,-64.473,15.992,97.092,0.0,58.0
27624,-1.438,-1.998,-1.343,-4.275,-21.511,-20.130,179.0,57.0
27678,-0.524,0.020,0.624,49.275,-6.351,-42.542,182.0,58.0
27729,-0.875,-0.816,-1.182,0.710,111.550,38.924,181.0,56.0
27780,-0.771,-0.007,0.496,-41.267,62.351,57.237,180.0,55.0
27831,-1.427,-0.824,-0.785,42.977,99.008,-43.908,182.0,56.0
27882,-0.639,0.201,0.458,-34.496,-150.603,88.466,179.0,55.0
27933,-0.985,-1.198,-0.977,-2.939,25.641,-68.748,180.0,55.0
27984,-0.464,0.265,0.698,-26.947,-18.985,-24.160,180.0,56.0
28036,-0.949,-1.135,-1.216,28.511,142.977,-42.733,182.0,55.0
28091,-0.879,0.390,0.331,-5.733,136.496,95.397,0.0,55.0
28141,-1.162,-1.050,-1.165,-20.252,91.863,65.901,183.0,54.0
28193,-1.022,-0.474,-0.302,80.542,43.427,18.038,0.0,55.0
28250,-0.724,-0.156,-0.064,-50.153,-126.863,-9.733,0.0,56.0
28300,-0.419,-0.512,-0.563,-66.832,-66.534,0.542,180.0,55.0
28351,-0.225,-0.867,-1.455,-11.969,2.389,-3.565,180.0,55.0
28403,-0.829,-0.544,-1.442,187.595,240.924,-58.351,0.0,55.0
28460,-1.017,0.592,0.144,-51.099,73.084,38.695,0.0,55.0
28512,-0.912,-1.037,-1.290,-7.618,44.672,-17.985,0.0,56.0
28567,-0.767,0.354,0.360,-68.275,-89.427,56.450,0.0,55.0
28622,-0.747,-1.107,-1.420,-6.092,-7.794,-46.237,0.0,55.0
28675,-0.736,0.517,0.790,-52.038,43.794,63.618,0.0,55.0
28730,-0.934,-1.165,-1.698,-67.046,-71.847,34.649,0.0,55.0
28782,-0.785,-0.162,-1.239,106.557,130.267,-33.618,0.0,57.0
28838,-0.687,0.322,0.266,-107.038,-113.160,98.313,0.0,55.0
28890,-0.688,-0.848,-1.364,34.481,82.420,-48.397,183.0,55.0
28942,-0.712,0.831,0.965,-36.794,-41.702,51.061,0.0,54.0
28996,-0.606,-1.232,-1.588,52.443,54.214,-40.305,184.0,54.0
29053,-0.501,0.494,0.738,12.359,115.534,10.901,0.0,136.0
29110,-0.742,-1.088,-2.000,-5.939,73.038,12.473,0.0,136.0
29170,-0.796,0.421,0.936,10.344,102.252,42.779,0.0,0.0
29217,-0.906,-1.460,-2.000,38.901,61.580,-12.206,0.0,0.0
29263,-0.706,0.505,0.641,12.611,15.145,25.908,0.0,0.0
29310,-0.591,-0.732,-1.703,-43.947,-36.053,9.206,0.0,0.0
29357,-0.438,-0.210,-1.054,36.153,39.733,17.603,0.0,0.0
29404,-0.583,0.146,-0.639,-59.076,-74.168,19.947,0.0,0.0
29502,-0.478,0.556,0.432,-59.466,-51.115,26.237,0.0,66.0
29566,-0.354,-1.106,-1.906,50.473,111.588,-17.244,0.0,0.0
29614,-0.374,0.886,-0.125,-12.611,108.092,23.389,0.0,0.0
29655,-0.697,-1.059,-2.000,24.084,116.534,38.099,0.0,115.0
29711,-0.798,0.216,0.391,-27.252,61.763,16.794,0.0,121.0
29766,-0.464,-0.859,-1.583,10.267,28.511,1.084,0.0,109.0
29821,-0.273,0.340,-0.496,-35.305,15.069,-3.443,0.0,109.0
29878,-0.188,-0.449,-1.311,23.374,41.443,24.985,0.0,110.0
29933,-0.424,-0.060,-0.897,-30.275,-0.817,-9.496,0.0,110.0
29991,-0.141,-0.132,-0.936,6.000,-31.137,6.855,0.0,109.0
30039,-0.392,-0.227,-1.143,-12.107,-18.580,-17.176,64.0,109.0
30095,-0.314,-0.059,-0.791,-16.008,-52.160,22.511,0.0,115.0
30151,-0.525,-0.329,-0.911,-49.534,-100.595,-31.901,0.0,117.0
30204,-0.463,-0.229,-1.198,-78.542,-112.183,16.275,0.0,73.0
30258,-0.941,0.305,0.688,-153.031,-148.656,-21.275,0.0,72.0
30310,-0.396,-0.846,-1.281,19.084,-229.511,-117.397,176.0,61.0
30361,-0.876,-0.128,-1.306,109.511,-96.206,-68.130,174.0,61.0
30415,-0.974,0.381,-0.503,-109.153,-199.962,57.366,172.0,61.0
30467,-1.220,-0.065,-0.092,-151.939,-219.580,-23.840,170.0,63.0
30518,-1.153,-0.198,-0.272,-113.198,-250.137,-75.870,168.0,64.0
30570,-0.894,0.042,0.051,-58.427,-250.137,-109.198,168.0,67.0
30623,-0.831,-0.392,-0.029,-27.763,-250.137,-87.664,0.0,80.0
30680,-0.741,-0.122,0.927,-13.328,-248.718,-56.977,0.0,112.0
30733,-0.681,-0.690,0.325,10.137,-250.137,-110.336,182.0,87.0
30781,-0.012,-0.038,0.483,-78.908,-211.244,-40.870,77.0,89.0
30831,-0.082,-1.149,0.565,-49.137,-128.336,-116.015,76.0,90.0
30878,0.449,-0.235,0.704,-20.580,-63.237,-83.809,76.0,91.0
30926,0.137,-0.638,0.816,-60.794,-4.092,-71.214,75.0,93.0
30973,-0.176,-0.846,0.928,-15.542,-34.924,-85.565,75.0,93.0
31028,0.780,-0.303,0.593,25.664,-54.962,23.779,0.0,94.0
31082,0.099,-0.695,0.898,-13.733,80.183,5.191,177.0,95.0
31129,0.687,-0.510,1.163,32.198,-2.710,53.069,73.0,96.0
31182,-0.341,-0.780,0.807,-12.473,115.565,-155.977,177.0,101.0
31230,0.145,-0.507,0.891,34.580,-105.748,135.305,74.0,99.0
31282,-0.129,-0.902,0.781,35.557,-62.344,73.137,71.0,99.0
31338,0.428,-0.357,0.999,4.389,-88.427,-50.237,172.0,157.0
31389,0.071,-0.770,0.420,-17.389,44.519,-96.695,74.0,157.0
31442,0.407,-0.272,1.127,27.107,-60.977,113.092,69.0,0.0
31482,0.087,-0.838,0.720,12.344,43.794,45.260,73.0,0.0
31531,0.084,-0.296,0.760,-17.916,56.901,-60.076,71.0,110.0
31580,-0.014,-0.463,1.116,-34.786,-78.557,13.252,65.0,121.0
31628,0.436,-0.619,0.891,32.580,-94.886,-11.481,64.0,124.0
31684,0.487,-0.228,0.836,-12.740,5.786,30.679,63.0,0.0
31724,0.168,-0.718,1.137,-13.336,27.695,26.000,63.0,0.0
31772,0.621,-0.058,1.057,28.214,-18.832,58.748,62.0,126.0
31820,0.064,-0.587,1.000,-38.939,21.176,-66.046,63.0,122.0
31869,0.864,-0.045,1.492,10.840,63.275,45.733,62.0,120.0
31922,-0.317,-0.979,0.742,5.290,21.618,-89.008,64.0,0.0
31962,0.188,-0.240,1.125,22.855,-88.153,151.733,62.0,0.0
32015,-0.203,-1.022,0.693,8.985,-92.886,23.977,62.0,0.0
32106,0.299,-0.630,0.625,8.038,-74.397,67.580,60.0,119.0
32157,-0.055,-0.327,0.907,-28.725,-22.160,-29.626,58.0,122.0
32216,0.199,-0.821,0.959,1.695,-250.137,80.641,159.0,0.0
32269,1.260,0.037,0.312,3.160,-18.000,-54.115,61.0,0.0
32322,0.533,-0.765,0.704,-24.969,152.031,22.985,59.0,0.0
32375,-0.024,-0.535,1.029,6.908,5.511,38.840,58.0,0.0
32434,0.325,-0.768,0.862,54.542,-197.435,70.901,158.0,0.0
32484,0.390,-0.020,0.187,18.405,-95.076,-7.931,16.0,0.0
32534,0.302,-0.573,0.861,-54.496,-70.191,-2.656,6.0,0.0
32583,1.010,-0.664,0.805,51.550,-91.886,23.634,5.0,0.0
32636,0.590,-0.245,0.460,13.786,55.397,-17.901,5.0,0.0
32687,0.539,-0.707,0.378,-25.298,1.931,26.725,4.0,0.0
32736,0.449,-0.657,0.616,-5.603,-28.565,3.809,5.0,0.0
32772,0.722,-0.495,0.686,7.748,-145.809,31.557,4.0,0.0
32822,1.587,-0.608,-0.022,41.351,-88.534,-1.809,3.0,0.0
32858,0.453,-0.464,0.780,-32.099,161.359,-2.359,4.0,0.0
32908,0.220,-0.670,0.921,-6.282,39.069,48.237,5.0,0.0
32957,0.416,-0.453,0.730,38.771,-48.000,3.763,5.0,0.0
33006,0.456,-0.602,0.492,9.000,-92.153,58.725,5.0,196.0
33059,0.795,-0.665,0.334,9.176,-105.756,64.351,3.0,190.0
33108,1.544,-0.622,-0.019,5.176,17.885,-37.221,4.0,189.0
33158,0.233,-0.375,0.794,-26.229,153.450,-26.664,4.0,0.0
33208,0.086,-0.866,0.577,-3.244,-86.160,84.458,5.0,198.0
33256,1.074,-0.622,0.049,13.885,-91.252,-23.092,3.0,174.0
33306,0.578,-0.422,0.527,-26.985,37.557,5.733,3.0,0.0
33359,0.892,-0.632,0.534,-7.748,-46.763,53.893,3.0,171.0
33406,1.005,-0.778,0.244,12.473,101.504,-47.084,4.0,167.0
33454,0.110,-0.355,0.773,-32.183,137.374,21.481,5.0,172.0
33503,0.068,-0.833,0.861,-22.580,-113.977,81.947,4.0,147.0
33551,1.207,-0.657,0.256,56.511,-40.870,-18.695,5.0,0.0
33587,0.210,-0.416,0.670,-4.122,84.565,37.321,5.0,0.0
33635,-0.136,-0.839,0.843,-19.466,-60.634,80.038,5.0,0.0
33684,1.101,-0.807,0.269,18.832,-143.664,15.336,3.0,0.0
33733,0.774,-0.372,0.311,-1.031,120.695,-12.160,3.0,0.0
33781,0.181,-0.845,0.647,-22.458,32.969,55.702,4.0,0.0
33830,0.945,-0.792,0.259,-6.710,-2.130,-33.489,3.0,0.0
33872,0.767,-0.933,-0.332,-14.969,239.443,-57.580,4.0,83.0
33917,-0.234,-0.759,0.792,-49.443,138.656,67.435,7.0,74.0
33958,0.042,-1.122,0.546,-9.084,-84.565,64.351,8.0,74.0
34000,0.392,-0.875,0.364,24.298,-16.160,-82.779,7.0,75.0
34042,0.245,-0.706,0.704,-5.557,-36.992,17.725,7.0,75.0
34086,0.429,-0.939,0.279,12.969,-75.886,104.649,6.0,111.0
34140,0.894,-0.635,0.200,-7.122,76.092,-19.046,0.0,78.0
34182,0.011,-0.772,0.600,-43.351,138.992,-4.015,5.0,74.0
34224,0.135,-0.630,1.274,6.107,-104.275,77.786,6.0,75.0
34266,0.293,-1.315,0.561,-14.695,18.397,-106.237,7.0,75.0
34316,0.314,-0.907,0.162,47.611,-16.954,122.000,105.0,74.0
34358,0.457,-0.680,0.383,-33.710,52.718,-76.954,6.0,73.0
34400,0.329,-0.621,0.617,-29.947,121.168,-43.832,7.0,73.0
34447,0.272,-1.235,0.290,80.954,-32.542,100.939,107.0,72.0
34535,0.184,-0.826,0.358,-0.794,-62.885,84.153,61.0,70.0
34583,0.160,-0.831,0.868,-7.634,10.924,-64.527,109.0,70.0
34630,0.342,-0.528,0.531,7.908,-11.725,75.290,111.0,69.0
34683,0.289,-0.716,0.781,-8.336,19.122,-46.038,0.0,68.0
34736,0.262,-0.659,0.831,6.626,23.374,40.969,0.0,68.0
34792,0.397,-0.526,0.816,-3.611,-32.710,-24.374,0.0,69.0
34837,0.587,-0.711,0.494,-5.221,18.504,-16.427,62.0,69.0
34878,0.610,-0.687,0.584,19.611,9.473,21.153,9.0,68.0
34926,-0.043,-0.783,0.670,-34.763,109.496,-73.954,127.0,65.0
34975,-0.000,-0.865,0.519,-9.748,-71.107,71.290,126.0,65.0
35017,0.474,-0.805,0.552,12.817,48.214,-71.153,17.0,65.0
35069,-0.082,-0.471,0.810,-8.595,73.672,-36.092,0.0,63.0
35111,0.290,-1.143,0.614,7.160,-71.595,35.191,19.0,63.0
35162,0.985,-1.123,-0.571,69.939,250.130,-100.260,163.0,61.0
35210,-0.571,-0.138,0.782,-40.748,250.130,75.519,59.0,61.0
35254,-0.631,-0.657,1.147,-103.931,-12.771,105.435,60.0,62.0
35304,-0.432,-1.577,0.397,-6.534,-55.313,-67.641,163.0,60.0
35349,-0.006,-0.635,0.608,68.321,-110.214,-71.328,61.0,62.0
35394,0.548,-0.347,0.712,-3.511,-118.481,25.855,60.0,63.0
35443,0.509,-1.037,0.284,1.069,34.771,-28.069,154.0,62.0
35485,0.303,-0.584,0.368,21.817,186.015,-35.328,17.0,61.0
35530,-0.599,-0.606,1.266,-30.107,115.473,28.275,62.0,62.0
35578,-0.457,-1.021,0.930,-10.290,-157.290,63.046,63.0,59.0
35628,0.783,-0.980,0.146,88.481,-2.580,-125.328,154.0,59.0
35678,-0.302,-0.115,1.074,-38.053,161.084,-3.740,154.0,59.0
35723,-0.461,-0.703,1.134,-80.260,-99.588,88.710,63.0,60.0
35772,0.266,-1.609,0.004,54.771,-25.137,-82.733,155.0,58.0
35817,0.019,0.506,1.142,36.924,93.565,0.183,66.0,58.0
35866,-0.401,-0.756,1.128,-82.618,-78.695,96.298,156.0,55.0
35916,0.350,-1.448,0.152,55.389,51.237,-78.336,156.0,57.0
35961,-0.522,0.541,1.906,29.947,86.107,22.496,67.0,55.0
36014,-0.614,-0.690,1.407,-70.336,-201.908,114.130,158.0,56.0
36064,1.172,-1.223,-0.250,68.412,61.595,-132.969,158.0,55.0
36109,-0.431,0.484,1.489,5.511,250.130,20.710,66.0,56.0
36154,-0.803,-0.448,1.664,-94.481,-55.237,125.580,66.0,60.0
36199,-0.378,-2.000,-0.225,-10.000,-137.878,-3.687,69.0,54.0
36243,0.420,-0.225,-0.081,140.679,72.267,-139.221,66.0,56.0
36288,-0.506,-0.304,1.115,-55.427,26.389,27.122,67.0,57.0
36338,-0.309,-0.868,0.710,-93.061,-167.229,78.023,159.0,55.0
36386,0.580,-0.925,-0.070,99.733,90.473,-119.992,68.0,54.0
36430,-0.331,0.413,1.702,-31.473,87.985,37.710,68.0,55.0
36475,-0.774,-0.572,1.270,-87.420,-187.420,121.137,68.0,55.0
36526,0.297,-2.000,-0.237,49.031,-143.000,-39.733,171.0,54.0
36568,0.536,0.156,0.726,62.084,120.466,-69.679,17.0,54.0
36610,-0.391,-0.431,0.881,-50.206,139.099,13.519,16.0,54.0
36655,-0.114,-0.444,0.974,-96.015,-49.275,73.794,68.0,54.0
36697,-0.019,-1.524,0.104,31.595,102.313,-66.344,19.0,51.0
36739,-0.469,-0.403,1.017,69.076,80.511,-21.580,17.0,55.0
36783,-0.260,-0.142,1.294,-28.038,-134.313,87.519,16.0,53.0
36825,0.634,-1.569,-0.086,-10.664,-10.863,-46.817,17.0,53.0
36913,-0.728,-0.239,1.457,-20.893,35.595,47.046,70.0,55.0
36958,-0.347,-0.858,0.596,-62.992,-168.489,70.908,71.0,52.0
37003,0.321,-0.896,-0.043,29.092,110.580,-160.366,70.0,52.0
37050,-0.289,-0.182,1.311,-4.641,81.366,12.237,71.0,87.0
37095,-0.415,-0.561,0.914,-51.191,-117.092,127.504,71.0,54.0
37140,0.206,-1.624,-0.073,29.053,44.145,-58.908,71.0,52.0
37188,-0.450,-0.105,1.096,57.924,99.878,-20.748,72.0,54.0
37233,-0.904,-0.449,1.408,-62.366,-232.359,93.290,70.0,53.0
37285,0.006,-2.000,-0.317,-19.244,-241.962,-37.710,0.0,51.0
37341,0.726,-0.110,0.034,93.672,179.527,-83.069,0.0,53.0
37387,-0.429,-0.332,1.164,-70.687,42.618,70.756,71.0,54.0
37431,-0.478,-1.328,0.486,-77.573,-70.924,51.229,71.0,51.0
37476,0.130,-0.699,0.254,77.466,63.496,-82.725,71.0,53.0
37521,-0.311,-0.247,1.409,35.748,-4.008,14.565,71.0,53.0
37571,-0.259,-0.466,1.178,-55.214,-161.916,77.664,163.0,52.0
37624,0.818,-1.039,-0.015,47.191,47.092,-99.153,162.0,51.0
37669,-0.068,0.076,1.115,-8.122,184.344,12.305,71.0,52.0
37714,-0.535,-0.537,1.328,-81.160,2.771,107.382,71.0,52.0
37760,-0.251,-1.821,0.155,9.771,-11.908,-40.550,72.0,51.0
37805,0.349,-0.306,0.187,115.947,122.107,-102.847,71.0,55.0
37852,-0.644,-0.124,1.153,-64.389,92.977,76.038,72.0,85.0
37897,-0.824,-1.234,0.838,-81.382,-121.924,74.779,72.0,54.0
37942,0.372,-1.206,0.138,106.489,-1.527,-172.527,71.0,51.0
37991,0.143,0.522,0.803,38.176,205.702,0.679,72.0,53.0
38036,-0.945,-0.360,1.436,-99.313,7.664,83.954,72.0,53.0
38080,-1.065,-1.505,0.621,-80.366,-237.924,79.931,72.0,49.0
38125,0.606,-1.124,-0.148,143.565,-60.840,-194.756,71.0,51.0
38170,0.258,1.013,1.382,25.885,144.519,-1.985,72.0,51.0
38215,-0.615,-0.287,1.404,-94.412,-26.916,52.031,71.0,51.0
38260,-0.269,-1.610,-0.093,-79.863,-173.763,79.924,71.0,50.0
38305,0.443,-0.621,-0.065,135.252,156.015,-138.557,71.0,51.0
38352,-0.278,0.426,1.557,-23.252,200.611,38.641,72.0,86.0
38404,-0.513,-0.293,1.425,-118.031,-46.947,100.176,72.0,86.0
38449,-0.211,-2.000,-0.479,6.511,3.229,-5.588,72.0,50.0
38496,-0.432,-0.214,0.443,142.130,59.229,-55.824,72.0,87.0
38541,-0.711,-0.156,0.871,-61.191,-132.847,60.985,71.0,51.0
38586,-0.281,-0.884,0.719,-83.908,-250.137,60.611,70.0,51.0
38631,0.970,-1.021,-0.057,82.580,-5.496,-161.763,71.0,52.0
38676,0.069,0.491,1.230,2.366,137.809,25.053,70.0,52.0
38721,-0.426,-0.471,1.194,-96.840,5.885,69.702,71.0,52.0
38766,-0.490,-1.448,0.383,-79.672,-120.053,77.756,72.0,50.0
38814,0.361,-0.635,0.234,108.756,16.359,-104.672,71.0,51.0
38859,-0.046,0.226,1.185,-22.527,49.756,26.748,71.0,51.0
38905,-0.234,-0.704,1.167,-81.389,-92.153,44.015,72.0,51.0
38950,0.556,-1.513,0.077,53.924,88.160,-122.519,72.0,50.0
38998,-0.343,0.574,1.686,52.229,220.122,11.611,73.0,86.0
39043,-0.917,-0.468,1.590,-87.221,-50.855,137.427,74.0,51.0
39088,-0.748,-2.000,0.110,12.435,-154.863,-22.977,73.0,51.0
39133,0.538,0.026,0.123,152.481,-26.061,-165.748,73.0,50.0
39182,-0.521,-0.358,1.135,-68.237,-57.595,54.740,72.0,49.0
39267,1.094,-0.937,-0.068,82.122,84.382,-169.229,23.0,50.0
39313,-0.465,0.805,1.695,-51.611,205.366,55.504,73.0,49.0
39363,-0.668,-0.516,1.655,-122.855,-230.351,209.565,73.0,49.0
39407,0.981,-2.000,-0.579,39.321,12.947,-145.519,73.0,48.0
39452,-0.237,-0.271,-0.251,142.573,250.130,-196.397,73.0,49.0
39496,-1.013,0.281,1.193,-81.046,-15.710,99.267,73.0,50.0
39540,-0.476,-1.976,-0.089,-79.725,-239.611,102.420,73.0,47.0
39584,0.036,-0.253,0.210,78.344,74.855,-250.137,73.0,49.0
39631,-0.164,-0.110,0.703,8.847,-85.092,129.084,72.0,49.0
39672,0.417,-1.101,0.945,-33.702,-106.817,36.252,23.0,49.0
39717,1.401,-0.563,-0.702,3.656,250.130,-140.008,72.0,49.0
39762,-0.904,-0.149,0.509,-65.420,250.130,176.511,74.0,76.0
39808,-0.877,-0.494,2.000,-86.687,-221.710,232.496,74.0,47.0
39852,-0.270,-1.294,-0.130,21.542,28.634,-250.137,74.0,49.0
39901,-0.178,0.476,2.000,25.954,59.008,-22.008,75.0,137.0
39945,-0.485,-0.409,1.327,-11.038,-250.137,231.359,74.0,48.0
39990,0.597,-1.417,-0.298,-3.084,-89.809,-132.534,24.0,48.0
40034,-0.090,0.283,0.796,-0.473,212.947,-194.656,74.0,50.0
40078,-0.472,-0.317,0.908,-49.870,-179.336,197.870,74.0,48.0
40120,1.153,-2.000,-0.282,31.740,-161.634,35.504,27.0,47.0
40164,-0.055,-0.756,-0.169,43.809,250.130,-250.137,75.0,48.0
40211,-0.897,0.218,1.516,-49.840,111.237,176.527,75.0,84.0
40255,-0.617,-0.945,1.409,-44.718,-250.137,250.130,75.0,46.0
40299,-0.363,-0.783,0.793,-42.336,-137.168,-250.137,74.0,46.0
40346,0.924,-0.218,0.798,42.534,-77.244,-107.618,74.0,49.0
40388,0.950,-0.232,0.641,46.481,-133.397,154.542,22.0,48.0
40429,0.080,-1.330,0.633,-15.000,187.550,-50.885,23.0,46.0
40474,-0.354,-0.387,0.690,-39.824,250.130,-63.595,74.0,48.0
40518,-0.225,-0.430,0.901,-30.695,-88.756,206.176,74.0,48.0
40562,-0.813,-1.460,0.615,-21.611,-61.427,-34.573,74.0,47.0
40607,0.474,-0.524,0.878,34.092,-42.779,-110.573,74.0,48.0
40651,0.834,-0.674,0.123,54.397,63.344,30.580,75.0,47.0
40695,-0.823,0.115,1.050,-23.031,250.130,-71.519,75.0,50.0
40743,-0.961,-0.417,1.428,-130.290,-139.137,181.504,75.0,48.0
40787,-0.333,-2.000,0.084,36.305,-250.137,2.611,75.0,46.0
40829,0.687,-0.129,-0.026,108.954,-39.794,-250.137,24.0,48.0
40871,-0.046,-0.276,1.182,-53.840,89.389,17.046,29.0,49.0
40912,-0.057,-0.443,1.240,-89.282,-97.840,162.695,25.0,46.0
40954,0.299,-2.000,0.031,18.687,60.885,-5.634,30.0,46.0
40999,0.088,-0.667,-0.351,132.405,249.847,-183.840,75.0,47.0
41046,-0.890,0.374,1.966,-55.290,181.061,49.580,77.0,72.0
41093,-0.819,-0.482,1.479,-119.931,-250.137,213.672,75.0,47.0
41137,0.147,-2.000,-0.570,57.878,-119.305,-208.145,75.0,47.0
41179,1.385,0.628,-0.492,131.473,151.878,-175.038,25.0,49.0
41224,-0.275,0.014,0.296,-93.527,250.130,85.160,75.0,49.0
41268,-0.628,-0.629,1.022,-169.954,-14.649,206.939,76.0,47.0
41313,-0.428,-2.000,0.227,60.397,8.809,-106.298,75.0,47.0
41357,-0.096,-0.277,0.127,176.435,2.443,-119.412,75.0,47.0
41402,-0.692,-0.024,1.090,-73.099,-108.336,69.504,75.0,47.0
41443,-0.041,-1.079,0.413,-90.656,-250.137,97.130,20.0,47.0
41534,-0.165,0.368,1.571,60.771,189.015,20.435,75.0,48.0
41579,-0.351,-0.147,1.353,-53.863,-90.710,190.466,75.0,47.0
41620,0.292,-1.462,-0.369,-48.954,-133.031,-74.420,26.0,46.0
41666,0.747,-0.729,-0.907,7.985,250.130,-250.137,76.0,73.0
41711,-0.820,-0.130,0.004,-15.267,169.115,250.130,76.0,48.0
41756,-0.807,-0.429,2.000,-63.000,-147.176,250.130,77.0,46.0
41800,-0.471,-1.246,1.350,-28.626,-236.847,-239.947,76.0,45.0
41843,-0.042,-0.510,0.245,-21.321,-70.130,-250.137,30.0,47.0
41888,0.579,-0.401,0.563,22.366,-51.924,79.947,30.0,48.0
41930,0.491,-0.670,0.466,60.183,-22.206,190.695,28.0,46.0
41972,0.259,-0.370,0.735,-29.878,100.916,23.359,30.0,46.0
42014,-0.361,-0.826,0.872,-61.107,88.099,-158.168,29.0,46.0
42058,-0.258,-1.024,0.673,-22.313,39.046,-37.450,76.0,47.0
42100,0.005,-0.524,0.503,74.962,-196.282,250.130,27.0,47.0
42151,0.738,-0.223,0.393,38.298,-108.328,79.252,179.0,47.0
42203,0.291,-0.514,0.592,-66.985,134.282,-250.137,0.0,47.0
42248,0.082,-0.949,0.581,-52.855,144.832,-32.252,76.0,49.0
42293,-0.351,-0.707,0.724,24.267,-42.809,250.130,27.0,47.0
42338,0.430,-0.957,0.683,70.389,-124.947,250.130,75.0,47.0
42383,-0.040,-0.703,1.185,5.496,63.901,-100.664,74.0,47.0
42425,-0.173,-0.707,0.444,-25.244,110.824,-250.137,30.0,47.0
42470,0.015,-0.570,1.009,-23.969,99.725,-111.076,74.0,49.0
42514,0.088,-0.264,0.438,9.061,-113.305,201.748,73.0,47.0
42556,0.156,-1.389,0.682,66.183,-6.282,110.786,30.0,48.0
42601,-0.268,-0.602,0.249,33.924,135.046,-210.969,74.0,47.0
42649,-0.190,0.031,1.389,-59.092,47.809,-11.977,75.0,49.0
42693,-0.057,-0.681,0.633,-46.878,-209.840,161.427,74.0,47.0
42738,-0.010,-1.153,0.222,62.573,21.008,-186.275,74.0,48.0
42780,0.487,0.869,1.617,-1.473,99.267,-24.786,25.0,49.0
42825,-0.362,-0.421,1.355,-64.443,-99.076,183.145,74.0,47.0
42870,0.276,-1.984,-0.110,31.321,26.298,11.176,74.0,47.0
42915,-0.086,-0.203,0.261,90.695,241.176,-175.389,75.0,50.0
42962,-0.985,0.021,1.643,-103.267,38.466,91.168,76.0,92.0
43008,-0.797,-0.984,0.925,-91.252,-250.137,155.931,74.0,47.0
43053,0.641,-1.228,-0.011,76.450,-39.328,-200.611,22.0,47.0
43095,0.973,0.322,0.056,77.069,214.275,-132.496,22.0,49.0
43142,-0.547,-0.160,1.000,-86.282,250.130,24.542,75.0,85.0
43188,-0.915,-0.531,1.090,-152.412,-25.947,161.458,75.0,83.0
43235,-0.618,-2.000,0.245,39.611,-160.191,2.969,75.0,83.0
43280,0.138,-0.426,0.631,122.443,-89.542,-166.969,75.0,50.0
43325,0.176,0.276,0.851,-20.748,28.885,3.458,75.0,51.0
43370,-0.374,-0.581,1.425,-123.855,-55.939,96.847,75.0,51.0
43418,0.418,-1.950,-0.109,55.359,22.794,-15.908,75.0,49.0
43463,0.366,-0.392,0.118,169.992,149.481,-90.359,75.0,50.0
43511,-1.115,0.100,1.076,-76.695,200.573,33.763,75.0,86.0
43558,-0.914,-0.365,1.440,-160.191,-168.924,130.519,75.0,85.0
43603,-0.504,-2.000,-0.519,30.588,-250.137,-45.863,75.0,48.0
43645,1.055,-0.024,0.010,174.092,-40.061,-214.382,19.0,49.0
43687,0.053,0.358,0.720,-50.794,191.275,15.405,22.0,49.0
43735,-0.462,-0.453,1.332,-162.504,72.496,99.588,75.0,84.0
43823,0.067,-0.892,0.300,132.489,8.290,-61.069,75.0,49.0
43873,0.110,0.260,1.122,54.496,80.305,4.985,75.0,84.0
43920,-0.131,-0.424,0.417,-95.947,108.481,39.603,76.0,85.0
43967,-0.577,-0.729,0.420,-133.534,74.427,33.206,76.0,87.0
44014,-0.867,-1.073,1.337,134.626,-52.206,50.573,77.0,86.0
44063,-0.188,-0.294,0.723,-31.748,-13.206,-17.832,77.0,107.0
44111,-0.292,-0.927,0.741,-24.947,6.168,-34.969,76.0,108.0
44158,-0.241,-0.728,0.555,-15.947,-0.176,-30.519,75.0,87.0
44207,-0.141,-0.789,0.352,0.855,6.412,-28.740,75.0,86.0
44254,-0.277,-0.813,0.413,8.580,8.794,21.527,75.0,88.0
44304,-0.324,-0.801,0.759,19.137,-64.985,36.565,75.0,87.0
44351,0.405,-0.189,1.088,-22.344,36.954,-66.305,75.0,87.0
44399,-0.039,-0.868,0.459,-56.229,222.015,-67.695,75.0,91.0
44446,-1.015,-1.100,0.222,9.672,189.031,-25.489,80.0,90.0
44495,-0.517,-0.597,0.919,2.198,-95.916,71.290,100.0,89.0
44545,-0.434,-1.080,0.357,-3.275,-212.794,-26.015,75.0,120.0
44593,0.215,-0.803,0.092,46.229,22.160,-68.725,75.0,88.0
44640,-0.301,-0.616,0.991,-14.832,-2.053,52.626,74.0,89.0
44691,0.241,-0.760,0.327,15.710,36.359,-50.313,74.0,95.0
44738,-0.315,-0.782,0.440,-7.527,163.221,-8.725,74.0,92.0
44785,-0.798,-0.973,1.073,-5.649,-47.634,56.824,69.0,88.0
44833,0.073,-0.815,0.074,0.931,-90.527,-104.168,75.0,89.0
44880,-0.277,-0.410,0.417,-18.840,155.252,-44.282,75.0,91.0
44930,-0.758,-1.053,0.565,-16.076,-60.802,88.794,69.0,114.0
44977,-0.060,-0.826,0.287,-2.115,-230.176,-52.779,74.0,89.0
45026,0.250,-0.384,0.751,-10.573,114.290,5.580,74.0,112.0
45073,-0.580,-1.031,0.696,-8.992,60.840,15.191,73.0,91.0
45125,0.033,-0.676,0.588,6.832,-100.206,-7.435,74.0,113.0
45173,0.024,-0.661,0.432,-11.947,122.183,-13.573,75.0,91.0
45228,-0.520,-0.947,0.566,-6.115,88.412,11.229,75.0,115.0
45276,-0.531,-0.905,0.603,5.496,-53.160,49.992,71.0,116.0
45322,0.040,-0.787,0.383,4.580,-68.511,-22.031,75.0,89.0
45369,-0.033,-0.597,0.201,-6.244,148.924,-37.809,75.0,91.0
45416,-1.000,-0.902,0.874,-5.076,51.244,21.695,77.0,95.0
45462,-0.177,-0.858,0.337,3.611,-115.611,-86.038,76.0,90.0
45510,-0.084,-0.579,0.355,-8.885,76.733,-29.344,75.0,115.0
45560,-0.396,-0.953,0.773,2.466,-81.496,45.527,74.0,91.0
45608,0.497,-0.755,0.116,5.977,-71.740,-16.099,99.0,91.0
45656,-0.272,-0.644,0.421,-27.069,193.061,24.870,76.0,97.0
45704,-0.933,-0.947,0.887,-1.153,0.748,9.611,76.0,128.0
45752,-0.195,-0.652,0.238,2.267,-16.771,2.947,82.0,96.0
45799,-0.943,-0.930,0.849,-11.344,-116.641,57.076,76.0,112.0
45846,0.460,-0.775,0.293,9.672,-221.038,-2.244,74.0,89.0
45892,0.436,-0.707,-0.071,-13.649,249.840,-48.092,76.0,90.0
45943,-1.916,-0.930,1.600,-19.305,47.863,38.824,81.0,110.0
45992,-0.130,-1.051,0.243,7.817,-250.137,-4.939,73.0,120.0
46039,1.003,-0.611,-0.310,-4.885,111.756,-25.794,72.0,90.0
46086,-1.145,-0.876,1.104,-23.191,169.656,37.779,75.0,91.0
46132,-0.839,-0.804,0.983,-13.015,-204.443,-7.374,74.0,90.0
46179,0.079,-1.008,0.378,6.924,-198.336,17.649,72.0,88.0
46266,-0.104,-0.813,0.460,71.122,52.023,53.763,71.0,55.0
46313,-0.268,-0.397,0.762,17.702,70.069,32.466,70.0,88.0
46359,-0.241,-0.715,0.829,-40.779,13.351,24.176,70.0,88.0
46408,-0.464,-1.026,0.763,17.649,-38.260,-7.275,69.0,87.0
46452,-0.031,-0.832,0.593,61.389,-60.618,-11.939,68.0,53.0
46496,0.005,-0.653,0.512,49.359,-8.924,2.260,69.0,51.0
46540,-0.074,-0.606,0.498,17.870,-4.443,32.855,59.0,51.0
46584,-0.222,-0.649,0.872,-10.824,-33.847,42.855,62.0,51.0
46628,-0.019,-0.969,0.301,25.275,-11.595,-10.405,68.0,50.0
46672,-0.078,-0.478,0.488,55.893,16.664,10.389,68.0,52.0
46716,-0.321,-0.235,1.071,-18.771,-47.802,25.382,69.0,51.0
46761,-0.067,-0.975,0.631,-34.489,-63.870,-34.237,69.0,51.0
46806,0.283,-0.612,0.293,74.588,103.191,-82.000,25.0,52.0
46852,-0.385,-0.120,1.009,2.145,162.282,29.389,71.0,80.0
46901,-0.688,-0.539,1.241,-55.221,19.740,70.260,72.0,124.0
46948,-0.274,-1.220,0.283,57.336,0.511,-32.313,71.0,96.0
46994,-0.153,0.082,1.137,46.351,64.191,-20.832,73.0,82.0
47040,-0.645,-0.458,1.092,-38.420,-21.412,7.336,73.0,81.0
47087,-0.327,-1.098,0.459,4.069,-72.733,-0.069,73.0,95.0
47134,0.093,-0.400,0.267,98.084,32.275,17.008,72.0,92.0
47182,-0.802,-0.340,0.861,-55.008,-49.931,78.084,72.0,76.0
47234,-0.154,-1.047,0.596,-12.435,-183.389,42.282,177.0,52.0
47279,0.711,-0.166,0.390,51.420,18.382,-105.847,70.0,54.0
47325,-0.493,-0.253,0.924,-55.076,111.366,39.626,69.0,94.0
47370,-0.626,-0.966,0.962,-40.595,-52.412,64.206,71.0,53.0
47415,-0.210,-0.810,0.775,41.298,-81.710,-60.122,70.0,54.0
47461,0.496,-0.204,0.501,36.504,17.000,3.427,69.0,86.0
47511,-0.522,-0.340,1.016,-48.702,49.290,91.214,175.0,54.0
47562,-0.314,-0.956,0.843,-7.489,-83.832,25.069,176.0,53.0
47619,0.552,-0.112,0.500,67.191,83.779,-121.557,176.0,94.0
47666,-0.818,-0.202,0.830,-70.366,217.290,31.542,71.0,93.0
47718,-1.162,-0.761,0.987,-90.740,-26.321,83.458,0.0,52.0
47768,-0.327,-1.063,0.531,57.496,-144.969,-45.458,176.0,52.0
47813,0.535,0.145,0.690,16.107,-31.267,3.405,71.0,52.0
47858,-0.136,-0.526,0.998,-69.053,26.107,9.305,71.0,52.0
47902,-0.116,-1.176,0.773,-36.771,14.718,-27.198,72.0,50.0
47947,0.250,-0.706,0.423,77.878,101.580,-58.969,74.0,50.0
48003,-0.098,-0.109,0.362,20.321,250.130,2.885,0.0,119.0
48063,-1.152,-0.414,0.925,-73.855,133.405,51.397,0.0,127.0
48118,-1.032,-1.175,0.371,14.229,-114.183,-58.550,0.0,109.0
48174,0.120,0.087,0.570,92.191,2.313,-77.901,0.0,106.0
48229,-0.851,-0.436,0.712,-65.450,72.824,-13.336,0.0,107.0
48285,-0.784,-1.032,0.387,-45.931,-60.824,-14.328,0.0,126.0
48340,-0.104,-0.600,0.321,63.130,10.130,-39.374,0.0,106.0
48396,-0.560,-0.488,0.832,-76.366,86.252,13.985,0.0,105.0
48451,-0.601,-1.274,0.412,-10.977,20.099,3.473,0.0,103.0
48509,-0.438,-0.535,0.334,116.756,58.718,2.153,0.0,105.0
48565,-1.134,-0.381,0.733,-68.656,-28.786,-11.565,0.0,104.0
48619,-0.920,-0.998,0.423,-88.237,-184.092,-20.450,0.0,86.0
48674,0.115,-0.741,0.152,91.397,-109.534,-65.427,0.0,107.0
48773,-0.448,-0.537,0.891,-87.015,64.550,38.198,0.0,107.0
48828,-0.640,-1.529,0.236,-0.557,-54.122,16.122,0.0,88.0
48884,0.182,-0.545,-0.160,116.374,105.893,-47.817,0.0,135.0
48941,-0.950,-0.421,0.559,-90.084,227.053,8.145,0.0,121.0
48997,-1.101,-1.227,0.336,-86.298,30.534,58.275,0.0,110.0
49055,-0.431,-0.846,0.454,114.557,-35.107,-5.206,0.0,106.0
49111,-0.540,-0.418,0.997,-0.427,-82.176,12.802,0.0,106.0
49166,-0.040,-1.162,-0.033,-4.893,-70.718,-57.260,0.0,105.0
49222,-0.258,-0.663,-0.404,94.824,151.443,-75.191,0.0,113.0
49272,-1.313,-0.157,0.629,-107.481,100.672,-30.908,95.0,129.0
49323,-1.456,-1.035,0.651,-162.282,-174.298,24.756,80.0,116.0
49373,-0.290,-1.349,0.226,95.115,-228.092,-36.641,101.0,119.0
49421,0.403,-0.355,0.553,133.092,-158.985,-16.931,78.0,94.0
49473,0.025,-0.663,-0.035,5.031,72.763,-14.107,59.0,133.0
49521,-0.663,-0.558,0.484,-72.214,131.000,2.878,79.0,111.0
49570,-1.042,-0.593,1.189,-109.336,-65.916,59.985,79.0,113.0
49619,-0.438,-1.594,0.163,20.519,-175.702,-9.695,77.0,113.0
49666,0.229,-0.542,0.354,110.992,-52.718,-48.145,58.0,83.0
49712,-0.117,-0.181,0.696,9.397,62.160,24.527,58.0,84.0
49759,-0.517,-0.599,0.920,-80.779,37.557,52.252,77.0,85.0
49806,-0.472,-1.491,0.289,-23.000,-12.969,-16.969,77.0,83.0
49854,-0.049,-0.720,0.209,107.321,47.962,-30.840,76.0,111.0
49905,-0.567,-0.047,1.160,16.771,70.328,52.771,58.0,117.0
49954,-0.615,-0.589,1.036,-83.908,-51.496,63.672,77.0,107.0
50001,-0.197,-1.229,0.104,50.260,26.191,-66.061,59.0,113.0
50059,0.039,-0.271,0.259,101.336,118.168,14.000,0.0,130.0
50115,-0.840,-0.349,1.000,-70.435,73.031,44.328,0.0,117.0
50170,-0.914,-1.334,0.460,-47.771,-96.282,-11.870,0.0,113.0
50227,-0.048,-0.601,0.272,108.840,-49.099,-53.481,0.0,114.0
50283,-0.423,-0.075,0.462,-12.573,103.122,8.168,0.0,111.0
50342,-0.947,-0.437,0.740,-112.649,-27.450,55.908,0.0,119.0
50399,-0.750,-1.268,0.416,-34.305,-167.580,-11.214,0.0,119.0
50448,0.100,-0.568,0.597,72.389,-119.695,-32.687,70.0,117.0
50493,-0.431,-0.018,0.887,-49.763,-61.473,57.267,69.0,52.0
50538,-0.831,-0.538,1.503,-146.794,-250.137,83.473,67.0,53.0
50583,-0.343,-2.000,-0.414,-21.656,-250.137,2.847,66.0,52.0
50633,1.046,-0.284,0.255,113.115,-113.542,-102.931,169.0,53.0
50679,0.415,-0.147,0.364,21.802,182.366,21.817,66.0,53.0
50723,-0.186,-0.465,0.814,-72.779,201.099,47.351,66.0,52.0
50771,-0.795,-1.144,1.011,-71.252,61.557,25.626,66.0,52.0
50817,-0.168,-1.216,0.392,65.351,-26.198,-78.153,65.0,51.0
50862,-0.145,-0.449,0.383,94.924,32.992,-45.588,66.0,52.0
50907,-0.761,-0.308,0.896,-68.824,4.580,-12.168,66.0,51.0
50951,-0.524,-0.775,0.569,-98.237,-126.634,53.718,65.0,52.0
50996,0.022,-1.219,0.264,44.336,-91.832,-1.008,64.0,53.0
51039,0.543,-0.627,0.509,99.496,-29.473,18.084,20.0,54.0
51083,0.011,-0.484,0.689,2.313,64.886,47.489,64.0,55.0
51131,-0.542,-0.527,1.023,-53.908,8.603,120.695,63.0,55.0
51182,-0.426,-1.138,0.724,3.947,-169.053,87.420,170.0,57.0
51233,0.526,-0.299,0.625,33.656,-97.954,-125.107,168.0,58.0
51319,-0.073,-0.769,0.754,-54.206,-5.420,66.168,16.0,57.0
51373,0.081,-1.096,0.531,26.954,-55.099,61.847,0.0,56.0
51425,0.412,-0.460,0.566,20.389,86.504,-106.435,0.0,56.0
51481,-0.571,-0.436,0.876,-47.389,197.626,-60.878,0.0,55.0
51527,-0.800,-0.872,1.033,-80.962,-108.611,92.420,63.0,55.0
51579,-0.153,-1.567,0.338,37.168,-190.145,30.718,0.0,56.0
51639,0.901,-0.283,0.016,118.397,104.947,-81.725,167.0,56.0
51683,-0.418,-0.119,0.885,-54.985,243.298,12.947,62.0,56.0
51727,-0.657,-0.501,1.291,-128.458,27.237,69.740,63.0,56.0
51771,-0.510,-1.791,0.319,-6.573,-62.137,-39.756,62.0,57.0
51815,0.237,-0.578,0.375,110.595,-9.107,-89.733,62.0,56.0
51859,-0.145,-0.184,1.034,33.206,64.641,-17.099,62.0,56.0
51903,-0.395,-0.524,0.905,-63.481,18.573,16.191,62.0,56.0
51946,-0.255,-1.054,0.765,-40.420,-65.237,21.252,62.0,55.0
51990,0.429,-1.013,0.340,77.176,23.595,-44.115,62.0,56.0
52037,0.354,-0.273,0.480,72.878,181.130,7.351,64.0,56.0
52081,-0.584,-0.599,0.784,-15.847,212.473,33.481,66.0,55.0
52135,-1.201,-0.709,0.871,-40.870,26.962,26.947,0.0,92.0
52179,-0.593,-1.156,0.520,21.634,-174.107,-42.710,67.0,52.0
52224,0.280,-0.526,0.345,99.061,-50.908,-101.931,67.0,52.0
52268,0.120,-0.227,0.420,28.756,102.618,-9.679,68.0,53.0
52313,-0.548,-0.317,0.918,-43.649,116.290,27.481,71.0,54.0
52363,-0.703,-0.837,0.917,-37.206,10.313,32.809,178.0,54.0
52413,0.135,-0.745,0.211,119.466,87.947,-49.099,71.0,96.0
52468,-0.340,0.054,0.884,48.733,173.832,29.153,0.0,115.0
52523,-0.766,-0.416,0.970,-67.260,19.977,36.107,193.0,112.0
52578,-0.587,-1.123,0.251,7.794,-77.053,-50.702,191.0,115.0
52633,0.050,-0.236,0.399,93.328,33.740,-64.626,192.0,110.0
52688,-0.609,-0.229,0.668,-40.710,109.176,1.725,0.0,111.0
52745,-0.860,-0.870,0.722,-79.481,-47.794,0.298,0.0,135.0
52800,-0.506,-0.824,0.582,66.221,-3.718,-98.046,0.0,106.0
52854,-0.159,-0.368,0.330,85.740,88.977,8.176,0.0,104.0
52913,-0.873,-0.137,1.244,-19.260,26.282,38.252,0.0,103.0
52967,-0.515,-1.240,-0.145,26.206,1.534,-66.252,0.0,103.0
53021,-0.322,0.196,0.837,31.084,80.351,-33.733,0.0,94.0
53076,-0.637,-0.408,1.164,-130.580,-18.168,-4.573,0.0,102.0
53123,-0.336,-1.464,-0.281,-13.725,46.450,-85.931,37.0,114.0
53171,-0.221,-0.481,0.405,57.504,110.122,-37.527,83.0,104.0
53220,-0.620,-0.401,0.560,-49.519,124.916,3.611,84.0,117.0
53267,-0.813,-0.735,0.317,-98.366,94.053,-6.137,38.0,130.0
53318,-0.883,-0.880,0.246,-93.771,-12.763,-27.115,58.0,129.0
53364,-0.860,-0.720,0.737,-122.511,-112.870,-56.450,30.0,121.0
53413,-0.448,-1.139,-0.017,-76.099,-162.580,-87.794,82.0,119.0
53460,-0.204,-1.074,0.196,26.443,-100.405,-98.061,44.0,123.0
53507,-0.176,-0.912,0.094,55.076,-19.168,-75.740,29.0,124.0
53553,-0.212,-0.549,0.564,-22.290,47.382,-23.084,28.0,122.0
53599,-0.042,-1.016,0.189,-61.733,59.122,33.939,29.0,121.0
53645,-0.395,-1.315,-0.208,9.183,126.824,33.198,27.0,126.0
53691,-0.476,-0.797,0.526,9.710,64.328,48.626,28.0,127.0
53749,-1.228,-1.129,0.784,-102.855,-122.573,-16.947,29.0,123.0
53844,0.201,-1.084,-0.561,168.084,-137.382,-59.168,79.0,126.0
53896,-0.213,-0.138,0.855,61.649,-63.511,-10.565,79.0,127.0
53948,-0.383,-0.653,0.810,-84.214,-145.244,38.580,79.0,120.0
53998,-0.023,-1.896,-0.325,22.511,-96.290,-9.122,78.0,116.0
54050,0.263,-0.926,0.222,145.878,-14.557,13.084,77.0,119.0
54099,-0.022,-0.444,0.614,63.389,54.962,42.740,60.0,117.0
54150,-0.005,-0.644,0.666,-34.740,27.603,45.260,76.0,104.0
54202,-0.299,-1.299,0.056,30.885,122.718,-9.000,58.0,89.0
54251,-0.284,-0.458,0.776,68.916,84.275,73.588,60.0,115.0
54309,-0.415,-0.548,0.997,50.779,-50.863,109.763,0.0,111.0
54360,-0.750,-0.915,0.415,-40.626,-56.710,-74.611,76.0,111.0
54408,0.090,-0.602,0.581,37.115,-88.427,27.802,38.0,93.0
54453,-0.315,-0.835,0.559,66.771,-125.954,137.756,36.0,51.0
54498,-0.249,-0.497,0.586,45.260,-72.221,69.229,34.0,50.0
54542,-0.043,-0.418,0.759,0.168,-47.305,24.702,32.0,51.0
54587,-0.417,-0.686,0.923,-31.359,-32.137,-1.779,32.0,52.0
54635,-0.302,-0.605,0.476,17.344,-17.687,35.153,31.0,53.0
54680,-0.273,-0.245,1.276,-2.740,-145.977,124.634,29.0,54.0
54725,-0.195,-0.934,0.530,-23.641,-118.588,-26.771,28.0,56.0
54770,0.191,-0.590,0.214,45.466,23.473,-94.275,27.0,57.0
54824,-0.025,-0.036,1.438,-15.420,-13.191,62.206,0.0,58.0
54878,-0.134,-1.253,0.631,-13.458,-64.046,31.137,171.0,59.0
54931,-0.091,-0.342,0.821,90.870,-24.924,-39.038,169.0,62.0
54985,-0.339,-0.490,0.932,-17.031,-189.115,44.023,140.0,103.0
55044,0.747,-0.855,0.399,24.489,-169.053,-28.687,138.0,107.0
55098,0.657,-0.108,0.366,35.733,110.695,-59.046,138.0,105.0
55146,-0.401,-0.378,1.129,-55.023,59.427,4.786,39.0,105.0
55198,-0.323,-0.911,0.815,-43.725,-107.328,13.466,137.0,66.0
55251,0.786,-0.635,0.438,36.244,-86.947,-62.290,136.0,108.0
55307,0.336,-0.156,0.879,-18.084,63.702,-1.076,135.0,110.0
55358,0.706,-0.521,0.546,-36.847,29.580,36.008,135.0,66.0
55410,0.785,-0.689,0.479,-8.420,151.450,-73.443,150.0,64.0
55463,-0.087,-0.511,0.960,-39.137,182.229,-42.588,168.0,61.0
55521,-0.336,-0.801,0.814,-25.168,-4.229,4.618,168.0,60.0
55576,-0.156,-0.828,0.667,27.687,-116.870,9.916,0.0,59.0
55620,0.374,-0.272,0.661,4.542,-63.252,54.206,19.0,59.0
55665,0.034,-0.554,0.787,-25.023,58.046,-0.954,19.0,58.0
55718,-0.147,-0.663,0.914,-16.840,7.275,30.847,170.0,56.0
55762,0.274,-0.591,0.810,2.603,-12.634,14.893,18.0,57.0
55808,0.308,-0.515,0.929,-31.336,34.221,-14.779,18.0,56.0
55852,0.509,-0.818,0.603,-9.137,64.695,-24.252,19.0,56.0
55900,-0.081,-0.628,0.891,5.053,114.649,-35.664,20.0,53.0
55944,-0.540,-0.687,1.013,-41.870,32.901,10.107,23.0,52.0
55989,-0.111,-0.912,0.910,-2.336,-131.221,47.550,22.0,51.0
56033,0.770,-0.770,0.278,65.748,34.878,-92.260,22.0,51.0
56080,0.115,-0.023,0.252,9.855,250.130,-26.931,68.0,50.0
56127,-0.993,-0.605,1.548,-110.588,79.496,30.137,68.0,50.0
56174,-0.820,-1.743,0.304,-39.244,-194.260,-36.649,69.0,48.0
56218,0.668,-0.365,0.412,86.000,-96.557,-129.763,23.0,49.0
56263,0.053,-0.372,0.740,-37.298,44.504,37.527,25.0,49.0
