Timestamp(ms),AccelX(g),AccelY(g),AccelZ(g),GyroX(deg/s),GyroY(deg/s),GyroZ(deg/s),DistanceLeft(cm),DistanceRight(cm)
32316,-0.159,-0.975,0.135,9.603,7.206,-3.916,84.0,62.0
32363,-0.178,-0.970,0.147,6.656,3.282,-7.573,119.0,62.0
32409,-0.180,-0.968,0.151,3.855,-5.756,-7.885,85.0,62.0
32454,-0.149,-0.974,0.135,2.969,-7.847,-5.748,75.0,63.0
32499,-0.136,-0.977,0.126,2.779,-1.534,-4.771,75.0,64.0
32544,-0.144,-0.977,0.146,0.954,2.985,-4.412,75.0,64.0
32589,-0.167,-0.976,0.154,1.412,0.695,-2.733,75.0,63.0
32636,-0.153,-0.966,0.164,2.687,-1.282,0.542,74.0,63.0
32681,-0.157,-0.975,0.154,1.977,0.084,0.115,75.0,63.0
32727,-0.162,-0.987,0.153,2.328,0.305,-1.504,74.0,65.0
32772,-0.165,-0.987,0.156,0.733,-3.099,-1.672,74.0,66.0
32817,-0.140,-0.980,0.125,1.137,-2.374,-0.435,74.0,66.0
32870,-0.158,-0.979,0.161,-0.511,-1.519,2.115,82.0,0.0
32916,-0.166,-0.988,0.169,0.763,-7.817,1.740,81.0,66.0
32961,-0.129,-0.984,0.158,1.664,-7.458,2.290,81.0,65.0
33007,-0.140,-0.979,0.161,2.328,-2.664,2.405,80.0,65.0
33052,-0.141,-0.984,0.160,3.076,-2.702,4.351,79.0,65.0
33100,-0.131,-0.972,0.156,3.847,-0.565,5.061,79.0,64.0
33146,-0.138,-0.987,0.155,3.061,-0.664,5.466,79.0,65.0
33191,-0.137,-0.974,0.156,3.244,1.344,3.947,78.0,65.0
33236,-0.157,-0.983,0.173,0.863,-2.252,2.000,79.0,65.0
33282,-0.139,-0.986,0.168,1.382,-5.244,-1.023,79.0,65.0
33328,-0.137,-0.967,0.145,1.206,-2.901,-0.466,78.0,66.0
33373,-0.148,-0.974,0.157,1.229,-0.160,-0.046,79.0,65.0
33419,-0.153,-0.984,0.161,1.527,0.382,-0.718,78.0,65.0
33464,-0.150,-0.976,0.154,1.450,1.695,-0.641,78.0,66.0
33512,-0.156,-0.967,0.174,0.305,2.198,0.832,79.0,65.0
33558,-0.148,-0.992,0.151,0.336,1.046,0.511,79.0,66.0
33603,-0.151,-0.976,0.170,0.168,2.527,-0.176,79.0,65.0
33648,-0.164,-0.982,0.171,-0.771,2.336,-1.634,79.0,66.0
33694,-0.151,-0.983,0.167,0.290,0.405,-2.840,79.0,65.0
33739,-0.158,-0.974,0.176,0.000,2.962,-3.015,79.0,66.0
33785,-0.177,-0.983,0.179,-0.267,0.344,-3.962,79.0,65.0
33830,-0.150,-0.979,0.156,1.244,-1.496,-3.107,79.0,65.0
33876,-0.166,-0.975,0.173,0.771,2.489,-1.618,79.0,65.0
33925,-0.184,-0.983,0.167,0.542,-1.069,-1.786,79.0,66.0
33971,-0.162,-0.969,0.166,0.832,-3.412,-0.870,79.0,65.0
34016,-0.159,-0.973,0.154,-0.656,-3.031,1.641,79.0,65.0
34062,-0.149,-0.983,0.162,0.359,-3.260,2.344,79.0,65.0
34107,-0.156,-0.978,0.162,0.344,-0.557,3.252,79.0,65.0
34153,-0.152,-0.981,0.171,-0.183,-1.382,3.397,79.0,66.0
34198,-0.160,-0.979,0.180,0.550,-4.008,2.443,79.0,66.0
34244,-0.139,-0.988,0.149,0.435,-3.496,1.634,79.0,66.0
34290,-0.141,-0.979,0.159,0.351,-0.344,2.282,79.0,66.0
34338,-0.162,-0.985,0.177,0.427,-1.527,1.420,79.0,66.0
34384,-0.146,-0.986,0.169,0.580,-2.740,-0.458,79.0,67.0
34429,-0.142,-0.970,0.156,-0.053,0.420,-1.244,79.0,67.0
34476,-0.153,-0.973,0.170,-0.328,1.504,-1.137,79.0,67.0
34522,-0.155,-0.979,0.163,-0.145,-1.321,-1.435,79.0,67.0
34568,-0.147,-0.976,0.167,-0.290,-1.664,-1.473,79.0,67.0
34656,-0.159,-0.972,0.168,-0.290,2.939,-0.573,80.0,69.0
34710,-0.172,-0.985,0.174,-0.634,-0.206,-0.809,80.0,0.0
34763,-0.156,-0.970,0.156,-0.901,-1.511,0.122,80.0,0.0
34820,-0.161,-0.988,0.167,-0.489,0.046,1.069,80.0,0.0
34874,-0.155,-0.983,0.167,-0.206,0.824,1.344,81.0,0.0
34927,-0.160,-0.978,0.171,-0.275,-0.496,0.641,81.0,0.0
34982,-0.149,-0.980,0.173,-0.328,-1.519,0.542,112.0,0.0
35031,-0.155,-0.983,0.154,0.511,-0.382,0.290,112.0,66.0
35079,-0.145,-0.969,0.156,0.656,3.023,0.435,111.0,66.0
35126,-0.171,-0.979,0.169,-0.130,1.718,-0.916,112.0,66.0
35174,-0.156,-0.983,0.143,-0.237,-0.870,-2.168,112.0,66.0
35221,-0.155,-0.980,0.161,-1.420,0.931,-2.191,113.0,66.0
35272,-0.167,-0.986,0.164,-1.466,-0.221,-2.145,112.0,67.0
35320,-0.167,-0.979,0.164,-1.351,-1.427,-2.382,112.0,68.0
35368,-0.157,-0.985,0.152,-0.863,-1.351,-2.313,111.0,69.0
35417,-0.164,-0.967,0.162,-0.649,0.176,-2.145,111.0,69.0
35463,-0.165,-0.976,0.173,-1.061,-2.183,-1.145,82.0,66.0
35510,-0.147,-0.976,0.146,-0.947,-3.359,-0.626,111.0,65.0
35558,-0.154,-0.964,0.153,-2.023,-0.046,-0.397,110.0,67.0
35611,-0.171,-0.974,0.160,-3.496,-2.206,-1.145,0.0,66.0
35664,-0.162,-0.976,0.163,-4.076,-5.061,-2.191,0.0,67.0
35723,-0.153,-0.983,0.161,-4.458,-5.313,-2.595,110.0,0.0
35771,-0.155,-0.976,0.150,-4.595,-3.527,-2.031,110.0,70.0
35819,-0.152,-0.982,0.150,-5.038,-3.924,-2.817,111.0,69.0
35872,-0.153,-0.975,0.134,-5.847,-2.840,-3.840,0.0,70.0
35920,-0.154,-0.964,0.141,-7.534,-4.244,-5.542,110.0,69.0
35969,-0.152,-0.963,0.123,-8.130,-3.237,-5.626,110.0,70.0
36017,-0.138,-0.956,0.113,-7.740,1.527,-5.557,110.0,71.0
36065,-0.149,-0.966,0.116,-8.008,4.198,-6.023,110.0,71.0
36116,-0.124,-0.970,0.100,-8.008,9.832,-7.824,106.0,73.0
36163,-0.139,-0.952,0.092,-8.542,14.305,-8.924,106.0,74.0
36218,-0.093,-0.978,0.074,-6.557,21.916,-8.473,104.0,0.0
36267,-0.084,-1.082,0.142,-4.893,22.489,-8.779,104.0,74.0
36316,0.057,-0.985,0.200,6.053,26.649,-6.832,103.0,84.0
36364,0.139,-0.957,0.157,17.809,41.840,13.947,105.0,76.0
36412,0.027,-1.371,0.060,0.916,77.817,2.702,105.0,75.0
36465,-0.016,-1.054,-0.207,-7.183,122.366,-42.183,0.0,77.0
36519,-0.165,-0.524,0.079,-30.084,143.053,-53.374,0.0,83.0
36584,-0.259,-0.358,0.076,-8.321,97.725,-77.794,0.0,0.0
36638,-0.245,-0.633,0.131,-1.282,21.450,-35.084,0.0,92.0
36692,-0.210,-1.747,-0.189,12.344,7.893,-33.061,0.0,80.0
36748,0.134,-1.317,-0.203,48.527,33.397,-20.519,0.0,102.0
36796,0.043,-1.175,0.239,-10.000,-22.084,60.137,90.0,84.0
36843,0.217,-1.491,-0.263,-10.588,-50.191,62.427,86.0,85.0
36897,0.343,-1.340,-0.196,14.023,-38.771,69.427,193.0,93.0
36953,0.227,-1.234,-0.170,-11.115,-9.481,52.687,192.0,107.0
37009,0.034,-1.161,-0.050,-24.656,2.466,16.992,190.0,117.0
37067,0.009,-1.160,-0.080,-4.832,-22.565,8.374,188.0,118.0
37122,0.010,-1.014,-0.010,10.191,-15.779,5.626,187.0,92.0
37176,-0.008,-1.015,0.052,0.473,-11.435,16.000,186.0,92.0
37273,-0.099,-1.048,0.125,10.076,-24.023,11.924,184.0,95.0
37327,-0.053,-0.963,0.114,20.389,-18.977,7.534,185.0,95.0
37382,-0.111,-0.911,0.147,11.305,-9.023,2.840,185.0,95.0
37435,-0.107,-0.878,0.125,15.351,-2.702,2.603,185.0,93.0
37489,-0.147,-0.887,0.183,8.939,-8.603,5.328,185.0,93.0
37543,-0.087,-0.949,0.102,17.817,-9.771,9.550,186.0,92.0
37601,-0.035,-0.914,0.122,18.565,-3.405,28.588,187.0,99.0
37655,-0.014,-0.942,0.059,23.496,21.489,35.618,189.0,91.0
37709,-0.086,-0.952,0.138,12.298,30.656,41.885,191.0,93.0
37765,-0.073,-0.914,0.134,8.817,24.137,43.687,195.0,95.0
37819,-0.149,-0.937,0.209,-1.603,14.580,38.618,0.0,88.0
37873,-0.181,-0.976,0.179,-0.580,4.954,14.321,0.0,82.0
37928,-0.196,-1.020,0.123,0.267,10.008,-33.466,0.0,91.0
37983,-0.304,-1.187,0.070,6.405,28.687,-82.420,0.0,82.0
38047,-0.360,-1.082,0.032,9.504,36.427,-111.542,0.0,0.0
38100,-0.309,-0.780,0.152,-3.809,24.908,-87.840,0.0,71.0
38158,-0.312,-0.884,0.129,1.015,-0.511,-60.908,0.0,136.0
38215,-0.349,-1.029,0.110,8.550,-33.198,-45.267,0.0,134.0
38273,-0.182,-1.082,-0.025,7.550,-24.786,-29.817,0.0,132.0
38330,-0.065,-0.937,-0.034,5.817,25.046,14.389,0.0,132.0
38387,-0.164,-0.904,0.040,-2.214,51.504,66.511,0.0,130.0
38445,-0.219,-1.037,0.111,-8.885,31.389,84.695,0.0,134.0
38498,-0.323,-1.010,0.211,-10.664,-9.939,69.008,0.0,67.0
38555,-0.265,-1.043,0.119,-13.634,-72.229,47.664,0.0,69.0
38609,-0.189,-1.049,0.087,-11.298,-95.282,36.588,0.0,72.0
38669,-0.082,-0.976,-0.005,-1.244,-75.763,30.863,0.0,68.0
38721,-0.112,-1.025,-0.009,-4.214,-50.290,28.328,0.0,74.0
38774,-0.174,-1.034,0.055,-2.977,-40.725,19.031,0.0,70.0
38827,-0.109,-0.946,0.007,-0.634,-37.176,9.229,0.0,69.0
38880,-0.171,-1.027,0.150,-10.130,-21.412,6.336,0.0,71.0
38935,-0.120,-0.942,0.137,-13.885,-10.931,-14.122,111.0,0.0
38982,-0.244,-0.977,0.407,-25.901,-1.313,-17.061,112.0,69.0
39032,-0.287,-1.112,0.362,-19.336,-32.275,-33.527,112.0,69.0
39086,-0.123,-0.920,0.263,4.740,-39.481,-30.931,0.0,68.0
39133,-0.098,-0.833,0.284,1.084,-25.084,-11.573,111.0,66.0
39180,-0.165,-0.980,0.200,3.733,-5.374,-14.473,112.0,65.0
39235,-0.194,-0.973,0.226,4.489,1.374,-24.053,113.0,0.0
39283,-0.211,-0.982,0.199,-1.672,1.664,-29.511,115.0,65.0
39330,-0.215,-0.916,0.253,-0.962,-1.237,-25.901,116.0,63.0
39377,-0.241,-0.945,0.248,-2.450,-14.191,-17.504,116.0,62.0
39426,-0.218,-0.941,0.247,-2.313,-23.519,-7.282,116.0,62.0
39484,-0.175,-0.950,0.233,-0.893,-30.000,15.901,116.0,0.0
39531,-0.155,-1.017,0.224,1.298,-33.130,43.473,116.0,61.0
39578,-0.177,-1.123,0.211,3.290,-37.084,57.275,117.0,61.0
39626,-0.173,-0.997,0.177,10.473,-51.267,64.275,116.0,63.0
39682,-0.095,-0.895,0.127,10.992,-48.580,71.718,116.0,0.0
39737,-0.100,-0.982,0.106,9.901,-24.328,62.962,118.0,0.0
39785,-0.139,-1.014,0.126,8.092,-0.847,32.214,116.0,66.0
39832,-0.131,-0.921,0.155,6.901,21.176,14.794,117.0,61.0
39882,-0.202,-0.874,0.185,2.710,36.282,10.794,119.0,59.0
39973,-0.354,-0.973,0.184,-0.901,15.489,-16.443,123.0,56.0
40029,-0.302,-0.936,0.164,2.183,10.580,-28.718,125.0,0.0
40077,-0.281,-0.899,0.135,-0.008,28.427,-36.351,127.0,52.0
40129,-0.349,-0.952,0.180,-1.557,33.542,-43.153,0.0,52.0
40185,-0.388,-1.028,0.183,-3.084,20.122,-58.183,133.0,0.0
40242,-0.299,-1.002,0.146,-3.710,12.473,-68.580,135.0,0.0
40302,-0.242,-0.934,0.150,-3.802,19.817,-61.679,0.0,0.0
40363,-0.236,-0.943,0.176,-3.840,20.511,-38.908,0.0,0.0
40426,-0.237,-0.985,0.169,-0.122,7.893,-13.023,0.0,0.0
40486,-0.221,-0.985,0.145,0.534,-2.252,7.198,0.0,0.0
40538,-0.220,-0.987,0.134,0.443,-13.397,22.344,0.0,45.0
40589,-0.194,-0.977,0.118,0.145,-20.649,31.046,0.0,45.0
40641,-0.176,-0.981,0.100,-0.076,-20.573,39.008,0.0,50.0
40697,-0.178,-1.001,0.120,-1.618,-21.718,44.901,136.0,0.0
40745,-0.186,-1.004,0.137,-4.519,-30.168,44.855,134.0,47.0
40794,-0.197,-1.001,0.137,-7.130,-38.099,38.977,132.0,51.0
40842,-0.188,-1.016,0.154,-9.977,-45.779,28.626,131.0,50.0
40893,-0.183,-1.014,0.145,-9.282,-52.183,16.366,131.0,51.0
40949,-0.140,-0.996,0.143,-6.466,-48.305,7.443,130.0,0.0
40997,-0.098,-0.986,0.117,-1.466,-23.519,2.786,130.0,53.0
41044,-0.138,-0.987,0.142,4.664,-1.153,2.580,130.0,52.0
41101,-0.181,-0.983,0.167,8.679,10.618,-3.267,130.0,0.0
41157,-0.184,-0.981,0.156,11.389,15.122,-7.740,131.0,0.0
41206,-0.195,-0.976,0.143,11.962,20.008,-11.107,133.0,52.0
41257,-0.196,-0.966,0.132,10.534,26.832,-12.725,0.0,51.0
41310,-0.207,-0.949,0.125,8.313,38.313,-9.389,0.0,49.0
41361,-0.261,-0.954,0.160,7.733,35.992,-5.679,134.0,49.0
41409,-0.285,-0.952,0.184,4.672,21.992,-12.305,134.0,48.0
41456,-0.259,-0.943,0.184,1.389,7.191,-16.740,134.0,48.0
41513,-0.247,-0.964,0.193,-1.038,1.481,-19.489,135.0,0.0
41570,-0.239,-0.963,0.212,-2.031,-3.168,-22.725,136.0,0.0
41627,-0.225,-0.968,0.223,-1.939,-7.221,-23.206,137.0,0.0
41684,-0.203,-0.968,0.213,1.908,-8.908,-20.275,136.0,0.0
41741,-0.184,-0.967,0.202,4.107,-5.069,-13.084,136.0,0.0
41801,-0.188,-0.971,0.196,7.092,-2.405,-4.336,136.0,0.0
41858,-0.193,-0.963,0.196,7.718,-4.000,4.878,136.0,0.0
41915,-0.191,-0.970,0.209,6.725,-9.656,11.031,135.0,0.0
41963,-0.177,-0.967,0.189,5.168,-13.435,14.481,133.0,51.0
42011,-0.176,-0.965,0.189,5.084,-14.634,15.099,132.0,50.0
42067,-0.165,-0.952,0.209,4.153,-15.679,13.985,131.0,0.0
42116,-0.167,-0.976,0.205,3.573,-16.962,11.519,130.0,54.0
42173,-0.160,-0.972,0.223,3.595,-17.511,8.038,129.0,0.0
42229,-0.157,-0.964,0.237,2.924,-17.473,4.374,128.0,0.0
42280,-0.163,-0.962,0.244,5.458,-18.244,1.282,127.0,57.0
42329,-0.142,-0.950,0.238,7.023,-14.794,-1.802,126.0,59.0
42377,-0.154,-0.928,0.242,10.595,-9.015,-5.305,125.0,60.0
42434,-0.140,-0.792,0.207,16.802,-2.099,-5.137,137.0,0.0
42490,-0.064,-0.454,0.171,24.290,13.824,11.809,123.0,0.0
42539,-0.058,-0.376,0.210,20.450,33.023,41.229,134.0,57.0
42595,-0.183,-0.800,0.189,15.924,49.534,37.985,121.0,0.0
42686,-0.682,-1.138,0.395,-51.168,54.718,-77.122,119.0,59.0
42732,-0.940,-0.753,0.736,-68.756,-105.763,-70.366,75.0,60.0
42781,-0.780,-0.575,0.428,-88.275,-250.137,-91.527,71.0,66.0
42826,-0.426,-0.411,-0.033,-78.664,-250.137,-91.145,66.0,71.0
42880,-0.063,-0.697,-0.264,-26.947,-238.450,-54.893,68.0,0.0
42920,0.080,-0.935,-0.345,24.191,-171.229,-8.107,87.0,0.0
42971,0.374,-0.849,-0.430,65.191,-90.359,36.427,81.0,125.0
43020,0.416,-1.049,-0.125,60.481,5.733,117.389,81.0,132.0
43071,0.218,-1.470,-0.145,37.176,44.237,133.198,74.0,142.0
43123,-0.143,-1.652,0.138,50.496,55.519,95.557,150.0,98.0
43179,-0.015,-1.422,0.091,34.008,-15.046,84.137,147.0,107.0
43234,-0.149,-1.267,0.283,-5.473,-16.015,41.382,0.0,109.0
43290,-0.243,-1.417,0.227,-32.687,-41.084,-18.435,0.0,111.0
43345,-0.083,-1.281,0.096,-11.183,-49.183,-38.282,0.0,109.0
43399,-0.001,-1.196,0.140,-14.832,-15.122,-38.824,148.0,103.0
43447,-0.002,-1.201,0.164,-23.244,33.733,-41.473,72.0,104.0
43494,-0.037,-1.176,0.182,-17.038,58.725,-43.718,70.0,98.0
43541,-0.120,-0.995,0.280,-9.298,64.695,-49.130,36.0,124.0
43587,-0.063,-0.780,0.220,-4.718,61.947,-40.947,38.0,95.0
43644,-0.017,-0.600,0.182,-4.046,67.931,-12.664,0.0,95.0
43692,-0.115,-0.851,0.255,-14.229,67.137,6.702,39.0,123.0
43741,0.030,-0.999,-0.117,5.611,83.542,8.382,96.0,93.0
43790,-0.055,-0.950,-0.011,5.458,134.214,19.344,88.0,110.0
43838,-0.117,-0.976,-0.096,-14.153,140.916,13.420,91.0,84.0
43886,-0.192,-1.014,-0.082,-14.382,142.191,6.779,93.0,87.0
43934,-0.343,-1.315,-0.025,-24.000,112.298,-18.557,94.0,79.0
43987,-0.371,-1.252,-0.137,2.954,72.328,-57.206,186.0,78.0
44036,-0.172,-0.868,-0.027,-1.031,8.916,-18.679,105.0,77.0
44087,-0.185,-0.942,-0.123,-18.038,-18.832,-1.168,188.0,78.0
44135,-0.148,-1.006,-0.119,-27.863,-31.160,-5.931,97.0,79.0
44183,-0.088,-1.036,-0.191,-4.534,-29.626,2.664,96.0,79.0
44231,-0.063,-0.954,-0.215,3.695,-14.733,5.649,97.0,81.0
44279,-0.037,-0.902,-0.224,4.282,7.046,10.847,96.0,81.0
44327,-0.088,-0.971,-0.152,-0.656,8.206,17.565,96.0,81.0
44376,-0.086,-0.980,-0.117,8.901,-3.924,22.344,96.0,83.0
44424,-0.067,-0.975,-0.102,25.702,-9.473,22.443,97.0,80.0
44473,-0.135,-0.991,-0.027,34.267,-3.382,8.916,58.0,82.0
44519,-0.196,-1.119,-0.004,31.046,-9.611,-5.969,57.0,83.0
44567,-0.131,-1.072,-0.024,34.962,-11.252,-8.977,93.0,82.0
44613,-0.135,-0.983,0.055,27.038,-5.527,-0.046,57.0,83.0
44662,-0.167,-0.991,0.085,17.725,-8.824,6.053,96.0,84.0
44710,-0.164,-0.971,0.124,20.298,-12.824,10.779,94.0,83.0
44759,-0.145,-0.900,0.133,19.679,-17.939,17.855,94.0,87.0
44806,-0.159,-0.908,0.190,12.237,-17.145,15.527,71.0,84.0
44854,-0.164,-0.914,0.195,9.779,-20.565,9.015,92.0,85.0
44904,-0.164,-0.906,0.241,7.847,-22.809,3.740,71.0,85.0
44952,-0.150,-0.955,0.191,8.641,-21.534,0.595,91.0,85.0
44999,-0.134,-0.975,0.196,5.115,-16.626,-2.206,71.0,84.0
45047,-0.102,-0.957,0.183,5.130,-7.229,2.053,94.0,87.0
45094,-0.118,-0.925,0.200,1.481,-2.687,16.878,70.0,92.0
45187,-0.131,-0.954,0.193,1.160,3.870,19.168,93.0,86.0
45235,-0.098,-0.990,0.152,4.069,5.145,14.634,95.0,88.0
45289,-0.121,-0.954,0.175,1.840,14.099,11.756,94.0,86.0
45336,-0.114,-0.961,0.140,2.313,15.191,10.405,96.0,85.0
45386,-0.123,-0.922,0.166,3.817,16.214,12.038,99.0,82.0
45433,-0.141,-0.994,0.145,2.550,20.313,1.260,101.0,82.0
45481,-0.129,-1.006,0.146,2.344,25.252,-7.893,103.0,77.0
45529,-0.139,-0.985,0.141,6.389,27.336,-12.221,103.0,77.0
45576,-0.154,-0.958,0.138,6.412,32.809,-18.672,104.0,75.0
45623,-0.177,-0.986,0.144,1.985,32.901,-26.634,107.0,70.0
45671,-0.194,-1.031,0.140,6.137,31.962,-31.099,110.0,66.0
45718,-0.113,-0.996,0.125,10.557,37.710,-23.328,112.0,64.0
45765,-0.102,-0.997,0.084,14.275,67.015,-16.206,117.0,60.0
45815,-0.138,-0.962,0.084,21.656,94.298,-12.237,121.0,59.0
45858,-0.270,-0.849,0.157,20.198,103.527,-13.420,51.0,53.0
45901,-0.337,-0.875,0.176,12.023,76.603,-21.992,51.0,51.0
45962,-0.335,-0.936,0.117,12.481,57.191,-36.160,0.0,0.0
46014,-0.329,-1.027,0.085,10.290,47.565,-51.267,51.0,0.0
46072,-0.354,-1.105,0.079,9.611,44.069,-61.153,0.0,173.0
46133,-0.294,-1.049,0.075,9.046,42.206,-61.160,0.0,0.0
46186,-0.284,-0.955,0.172,0.771,35.466,-36.069,108.0,168.0
46237,-0.293,-0.990,0.222,-0.107,11.466,-10.115,110.0,93.0
46286,-0.250,-0.981,0.222,3.832,-10.237,13.901,109.0,93.0
46336,-0.221,-0.943,0.235,3.855,-23.458,32.939,108.0,94.0
46385,-0.271,-1.018,0.228,2.947,-40.015,38.153,107.0,97.0
46443,-0.271,-1.025,0.210,6.237,-58.328,24.802,0.0,170.0
46501,-0.189,-0.979,0.141,11.634,-64.672,16.458,0.0,172.0
46554,-0.111,-0.958,0.112,16.366,-46.504,32.504,94.0,173.0
46607,-0.187,-1.005,0.114,13.267,-34.359,40.771,91.0,177.0
46662,-0.220,-1.024,0.115,7.061,-39.542,39.969,133.0,179.0
46721,-0.218,-0.909,0.111,-2.725,-54.985,38.634,129.0,183.0
46767,-0.232,-0.940,0.109,-14.992,-71.634,38.977,92.0,58.0
46813,-0.225,-0.985,0.110,-20.916,-82.122,31.534,90.0,59.0
46866,-0.183,-0.991,0.121,-22.748,-85.344,25.504,86.0,193.0
46912,-0.140,-0.964,0.129,-21.450,-78.435,26.344,81.0,65.0
46958,-0.145,-0.987,0.156,-21.969,-70.374,31.305,79.0,67.0
47004,-0.143,-1.024,0.172,-18.702,-65.756,35.588,78.0,73.0
47049,-0.100,-0.993,0.186,-11.840,-60.168,39.137,77.0,72.0
47102,-0.054,-0.974,0.172,-4.702,-44.176,39.687,77.0,0.0
47153,-0.073,-0.984,0.194,-4.122,-19.000,33.802,75.0,78.0
47213,-0.063,-0.996,0.186,2.191,-3.855,22.771,0.0,0.0
47266,-0.060,-0.925,0.224,6.588,20.191,10.107,0.0,80.0
47312,-0.174,-1.048,0.291,-6.183,19.229,-10.542,73.0,77.0
47366,-0.165,-1.051,0.276,-6.267,2.252,-28.107,0.0,76.0
47419,-0.091,-0.938,0.248,-3.641,-2.015,-27.855,0.0,75.0
47465,-0.099,-0.942,0.213,-4.206,10.656,-26.176,75.0,74.0
47511,-0.109,-0.987,0.207,-1.534,24.397,-34.603,75.0,72.0
47559,-0.093,-0.996,0.181,2.977,43.672,-41.359,76.0,71.0
47612,-0.026,-0.944,0.180,17.221,94.794,-29.534,78.0,197.0
47666,-0.247,-0.955,0.249,10.374,117.985,-19.588,79.0,192.0
47763,-0.253,-0.976,0.231,17.519,40.863,-23.939,84.0,189.0
47816,-0.178,-1.014,0.144,8.344,35.672,-26.573,86.0,186.0
47868,-0.110,-0.934,0.136,12.389,47.779,-17.489,88.0,182.0
47915,-0.154,-0.969,0.160,10.405,66.260,-6.481,90.0,44.0
47968,-0.193,-1.007,0.179,12.534,66.565,-6.260,92.0,178.0
48016,-0.176,-0.945,0.186,14.557,60.924,-5.878,95.0,99.0
48072,-0.193,-0.944,0.201,11.718,57.183,-9.214,98.0,174.0
48125,-0.211,-0.954,0.188,10.740,48.511,-18.962,101.0,173.0
48179,-0.223,-0.937,0.188,4.779,42.038,-33.206,103.0,170.0
48228,-0.236,-0.951,0.183,-0.275,34.687,-41.992,106.0,87.0
48276,-0.238,-0.964,0.192,-2.947,26.313,-42.771,108.0,84.0
48325,-0.244,-0.972,0.201,-4.519,17.237,-37.084,110.0,85.0
48374,-0.229,-0.972,0.191,-3.725,9.885,-25.328,112.0,84.0
48428,-0.236,-0.968,0.190,-2.221,1.527,-10.832,114.0,162.0
48481,-0.249,-0.960,0.206,-3.595,-10.160,1.053,113.0,161.0
48533,-0.239,-0.952,0.192,-2.374,-25.191,14.153,113.0,88.0
48582,-0.254,-0.977,0.182,-1.870,-40.962,21.481,113.0,87.0
48635,-0.232,-1.016,0.139,-1.229,-51.847,25.237,112.0,162.0
48690,-0.193,-1.023,0.104,0.924,-52.603,30.244,112.0,166.0
48736,-0.163,-0.968,0.100,0.099,-44.023,41.611,101.0,39.0
48793,-0.180,-0.976,0.122,1.794,-38.969,52.573,146.0,0.0
48850,-0.218,-1.024,0.121,4.122,-43.756,58.863,143.0,0.0
48899,-0.191,-1.081,0.082,2.130,-45.252,48.924,140.0,41.0
48950,-0.156,-1.033,0.061,0.191,-35.000,38.756,138.0,43.0
48998,-0.148,-0.961,0.074,-4.290,-22.595,33.511,136.0,44.0
49046,-0.190,-0.941,0.111,-10.405,-20.824,30.725,135.0,45.0
49094,-0.204,-0.963,0.134,-14.427,-30.725,24.046,134.0,45.0
49142,-0.185,-0.978,0.109,-18.733,-37.481,12.115,134.0,46.0
49190,-0.156,-0.979,0.087,-22.504,-33.153,-2.328,134.0,46.0
49242,-0.139,-0.972,0.125,-23.427,-22.023,-16.115,0.0,47.0
49294,-0.161,-1.007,0.150,-22.786,-7.779,-29.351,0.0,50.0
49346,-0.183,-1.028,0.188,-17.802,0.000,-39.031,0.0,45.0
49395,-0.164,-1.034,0.199,-9.664,8.405,-42.992,91.0,45.0
49449,-0.152,-1.030,0.169,0.267,19.015,-39.542,92.0,0.0
49504,-0.169,-1.000,0.145,10.115,33.198,-32.802,92.0,0.0
49550,-0.186,-1.004,0.132,14.878,42.802,-26.817,93.0,45.0
49596,-0.191,-0.993,0.117,17.618,49.550,-21.511,94.0,43.0
49641,-0.199,-0.979,0.098,17.298,54.168,-15.107,95.0,41.0
49696,-0.206,-0.963,0.101,15.267,53.649,-7.061,96.0,0.0
49751,-0.238,-0.980,0.112,12.069,43.344,-0.504,97.0,0.0
49806,-0.252,-0.975,0.134,5.069,25.031,-3.977,97.0,0.0
49855,-0.245,-0.997,0.134,-2.313,4.565,-9.504,96.0,43.0
49901,-0.210,-0.984,0.145,-6.282,-4.779,-8.053,97.0,44.0
49954,-0.199,-0.922,0.181,-9.053,-10.237,-0.069,94.0,173.0
50008,-0.212,-0.949,0.210,-10.015,-21.557,10.885,93.0,172.0
50061,-0.216,-1.024,0.200,-5.939,-35.840,9.565,92.0,177.0
50114,-0.152,-0.986,0.168,-0.603,-38.046,7.679,89.0,176.0
50167,-0.123,-0.970,0.143,-0.061,-24.313,12.443,88.0,177.0
50213,-0.135,-0.969,0.147,2.573,-16.092,19.481,86.0,52.0
50270,-0.137,-0.969,0.147,2.832,-12.908,22.656,84.0,181.0
50366,-0.159,-0.967,0.174,-0.153,-8.382,25.863,82.0,185.0
50419,-0.145,-0.986,0.149,-0.664,-7.725,19.069,81.0,187.0
50472,-0.139,-0.996,0.172,-1.672,-7.229,9.412,81.0,187.0
50527,-0.099,-0.961,0.161,4.435,7.420,-1.504,85.0,189.0
50580,-0.112,-0.986,0.171,2.603,21.435,-6.092,85.0,190.0
50633,-0.142,-0.982,0.187,7.458,31.908,-10.275,78.0,188.0
50686,-0.135,-0.982,0.159,9.916,30.580,-15.756,78.0,190.0
50741,-0.154,-0.931,0.189,9.069,34.718,-14.962,84.0,190.0
50798,-0.177,-0.925,0.204,8.282,24.489,-14.328,85.0,189.0
50851,-0.146,-0.991,0.207,4.435,15.244,-12.618,85.0,190.0
50905,-0.124,-1.007,0.195,5.023,23.893,-11.389,79.0,188.0
50959,-0.183,-1.020,0.263,-2.595,18.405,-10.137,86.0,188.0
51013,-0.173,-0.956,0.289,-4.183,0.397,-13.221,86.0,187.0
51066,-0.156,-0.947,0.354,-3.763,-15.145,-11.344,80.0,186.0
51120,-0.174,-0.977,0.414,-7.748,-11.702,-10.351,81.0,187.0
51174,-0.290,-1.144,0.497,-24.992,-29.359,3.595,83.0,185.0
51234,-0.330,-0.974,0.493,-22.748,-63.626,-19.962,0.0,185.0
51290,-0.153,-0.521,0.318,-36.664,-76.252,-23.794,0.0,54.0
51339,-0.090,0.004,0.198,-35.160,-72.389,-6.649,129.0,53.0
51400,0.126,0.051,-0.087,-6.473,-69.069,77.794,0.0,0.0
51438,-0.203,-1.181,-0.618,9.420,-27.252,59.740,51.0,0.0
51487,-0.617,-1.298,-0.451,35.298,8.817,-63.298,132.0,47.0
51532,-0.436,-1.606,-0.817,32.099,-37.504,-123.603,88.0,45.0
51578,0.039,-0.963,-0.316,-16.183,-28.466,-79.137,89.0,46.0
51631,-0.007,-1.412,-0.214,-83.481,7.573,-14.198,190.0,50.0
51683,0.068,-1.579,-0.307,-59.809,-23.206,62.130,128.0,46.0
51735,0.015,-1.451,-0.122,-18.969,-33.962,114.069,0.0,48.0
51783,-0.122,-1.329,-0.081,-28.947,11.031,65.489,128.0,52.0
51829,-0.039,-1.210,-0.127,-22.496,50.588,34.885,80.0,53.0
51880,-0.203,-1.085,0.001,-13.206,61.198,16.931,78.0,56.0
51934,-0.277,-1.067,0.019,-11.031,40.855,-10.206,77.0,0.0
51973,-0.242,-1.063,-0.049,1.519,7.725,-22.588,76.0,0.0
52018,-0.224,-1.027,-0.051,8.878,-11.817,-23.527,75.0,54.0
52062,-0.158,-1.035,-0.090,15.443,-19.504,-20.359,73.0,57.0
52110,-0.105,-1.026,-0.079,24.740,-10.649,-15.252,72.0,58.0
52154,-0.080,-0.960,-0.066,21.496,9.931,-5.832,71.0,57.0
52199,-0.143,-1.012,-0.055,19.420,19.710,4.038,70.0,58.0
52243,-0.178,-1.003,0.022,24.702,2.328,12.427,70.0,60.0
52288,-0.144,-0.931,0.019,17.229,-19.863,15.832,70.0,63.0
52333,-0.115,-1.021,-0.004,23.710,-28.550,16.176,68.0,64.0
52377,-0.087,-1.054,0.002,29.153,-27.321,13.481,68.0,64.0
52430,-0.061,-1.022,-0.005,33.267,-15.389,8.351,68.0,0.0
52472,-0.072,-0.935,0.035,31.878,2.611,9.985,80.0,0.0
52519,-0.119,-0.923,0.081,30.305,8.985,11.420,109.0,67.0
52566,-0.152,-0.902,0.119,30.076,7.450,10.725,77.0,67.0
52613,-0.167,-0.893,0.155,28.718,-0.008,11.817,110.0,70.0
52660,-0.155,-0.890,0.146,21.244,-2.244,9.107,110.0,68.0
52708,-0.180,-0.923,0.179,12.565,-5.542,3.328,110.0,68.0
52755,-0.187,-0.940,0.203,6.397,-13.527,-2.771,110.0,67.0
52802,-0.182,-0.928,0.232,0.969,-24.466,-5.351,111.0,67.0
52898,-0.129,-0.898,0.226,0.466,-34.153,-7.160,0.0,67.0
52948,-0.074,-0.907,0.178,2.397,-22.405,-0.687,112.0,66.0
52995,-0.096,-0.913,0.183,3.267,-1.672,-4.023,83.0,66.0
53041,-0.140,-0.947,0.203,3.176,11.145,-6.084,83.0,67.0
53096,-0.156,-0.955,0.228,2.679,11.977,-8.977,114.0,0.0
53143,-0.178,-1.004,0.205,1.450,8.840,-12.786,115.0,65.0
53198,-0.140,-0.960,0.182,4.763,9.160,-12.443,116.0,0.0
53244,-0.094,-0.896,0.162,9.718,19.336,-1.824,86.0,64.0
53291,-0.119,-0.932,0.194,8.015,26.641,14.580,84.0,64.0
53337,-0.168,-0.991,0.193,7.870,21.779,18.389,85.0,63.0
53385,-0.146,-1.010,0.181,6.977,19.664,16.229,85.0,67.0
53431,-0.167,-1.031,0.183,2.481,24.023,5.588,87.0,64.0
53477,-0.172,-0.983,0.219,0.160,25.153,-5.725,88.0,61.0
53531,-0.187,-0.951,0.233,-2.748,23.412,-14.031,89.0,0.0
53583,-0.210,-0.963,0.273,-3.962,14.229,-21.496,0.0,57.0
53632,-0.214,-0.985,0.271,-4.183,4.954,-31.427,128.0,55.0
53688,-0.194,-1.003,0.258,-1.282,1.740,-34.359,128.0,0.0
53733,-0.188,-1.001,0.249,4.878,0.160,-33.870,94.0,52.0
53779,-0.176,-0.977,0.234,8.122,3.015,-27.580,97.0,50.0
53841,-0.172,-0.974,0.242,10.244,6.954,-16.160,0.0,182.0
53897,-0.177,-0.938,0.211,14.534,7.824,2.725,131.0,182.0
53945,-0.198,-0.925,0.207,11.947,1.695,15.305,131.0,50.0
53993,-0.220,-0.946,0.181,7.015,-6.603,15.198,131.0,50.0
54040,-0.201,-0.934,0.165,4.817,-14.573,13.473,130.0,50.0
54088,-0.185,-0.948,0.152,-2.786,-16.534,12.664,128.0,52.0
54136,-0.200,-0.984,0.152,-8.305,-20.427,15.031,129.0,54.0
54183,-0.200,-0.960,0.173,-11.695,-31.924,20.229,127.0,54.0
54236,-0.192,-0.970,0.187,-17.015,-45.748,26.168,0.0,55.0
54292,-0.181,-1.059,0.154,-16.634,-53.824,23.679,0.0,61.0
54340,-0.126,-1.005,0.148,-9.748,-48.252,16.145,121.0,60.0
54388,-0.075,-0.944,0.119,-6.511,-28.977,18.153,121.0,62.0
54436,-0.075,-1.011,0.122,-4.420,-4.237,22.328,118.0,64.0
54483,-0.123,-1.067,0.136,-0.695,13.519,15.389,117.0,62.0
54532,-0.099,-1.011,0.151,0.695,26.756,7.771,116.0,61.0
54579,-0.021,-0.784,0.169,13.847,51.656,15.252,115.0,62.0
54627,-0.036,-0.801,0.160,21.298,74.595,26.252,114.0,64.0
54682,-0.152,-0.649,0.330,31.313,89.802,22.008,115.0,0.0
54736,-0.302,-0.748,0.521,21.412,28.870,9.405,115.0,0.0
54778,-0.270,-0.786,0.397,36.809,-54.634,-16.664,115.0,0.0
54825,-0.101,-0.601,0.275,31.168,-73.886,-24.756,117.0,63.0
54872,-0.025,-0.697,0.108,11.641,-47.107,-42.053,73.0,58.0
54917,-0.130,-0.884,0.099,-8.145,1.893,-90.939,72.0,60.0
54962,-0.320,-1.079,0.171,-40.878,15.534,-157.344,73.0,55.0
55007,-0.427,-1.234,0.460,-57.939,-9.992,-192.298,75.0,59.0
55055,-0.278,-1.407,0.102,-19.954,-45.603,-187.344,122.0,57.0
55113,0.166,-0.838,-0.071,36.763,-74.198,-53.802,99.0,0.0
55168,0.763,-0.866,0.254,36.595,-34.855,159.954,89.0,0.0
55209,0.379,-1.443,-0.039,7.771,55.565,225.809,115.0,0.0
55257,0.035,-1.411,0.145,27.336,81.305,143.519,114.0,59.0
55305,-0.225,-1.183,0.343,7.779,36.260,46.328,113.0,56.0
55393,-0.124,-1.166,0.213,-47.847,-21.863,-57.206,73.0,57.0
55440,-0.092,-1.319,0.091,-46.725,-48.427,-63.221,113.0,57.0
55488,0.129,-1.169,-0.048,-15.092,-30.626,-42.924,112.0,63.0
55533,0.042,-1.048,0.132,-36.412,-13.527,-3.656,67.0,58.0
55581,0.059,-1.113,-0.029,-36.412,1.374,9.168,65.0,59.0
55626,0.018,-0.979,0.170,-19.573,11.802,17.267,64.0,59.0
55671,0.010,-1.092,0.093,-18.290,-2.069,16.290,64.0,66.0
55716,0.062,-1.027,0.041,-0.351,21.588,3.229,63.0,67.0
55760,0.073,-0.914,0.033,-1.023,29.076,16.084,63.0,54.0
55804,-0.007,-0.848,0.056,-5.695,38.427,20.344,63.0,53.0
55849,-0.080,-0.802,0.087,-12.412,25.427,16.672,63.0,52.0
55894,-0.123,-0.754,0.098,-8.916,-2.786,17.710,63.0,51.0
55939,-0.113,-0.957,0.062,-3.710,-27.336,17.099,63.0,52.0
55981,-0.102,-1.198,-0.048,1.924,-16.153,6.702,63.0,52.0
56025,-0.071,-1.143,-0.046,-1.160,9.687,-1.931,63.0,53.0
56069,-0.201,-1.201,0.030,-17.794,17.992,-7.519,64.0,52.0
56114,-0.210,-1.074,0.051,-22.061,-2.809,-22.824,64.0,53.0
56159,-0.129,-0.890,0.057,-14.580,-4.695,-27.229,63.0,54.0
56204,-0.184,-0.909,0.098,-22.053,-12.809,-23.076,63.0,67.0
56256,-0.139,-0.880,0.033,-10.031,-14.870,-24.061,63.0,196.0
56309,-0.100,-0.888,0.038,-4.756,-17.466,-14.023,62.0,196.0
56366,-0.134,-0.925,0.104,-5.931,-27.122,-15.618,60.0,0.0
56419,0.029,-0.883,-0.055,10.809,-20.252,-14.985,59.0,0.0
56469,-0.023,-1.090,0.045,-9.008,-12.252,-1.031,57.0,156.0
56521,0.009,-1.062,0.029,-12.221,-29.969,11.214,56.0,0.0
56574,0.017,-1.089,0.010,-4.863,-51.092,21.634,54.0,0.0
56620,0.104,-1.003,-0.038,-1.366,-44.695,25.519,52.0,83.0
56666,0.016,-1.045,-0.047,-8.328,-44.351,28.527,52.0,85.0
56718,-0.015,-1.047,-0.050,-14.573,-56.206,28.832,51.0,0.0
56770,0.000,-1.055,-0.130,-6.863,-71.000,27.802,50.0,0.0
56826,0.106,-1.028,-0.157,3.771,-50.176,30.786,50.0,0.0
56872,0.124,-1.063,-0.206,14.969,0.725,21.802,50.0,87.0
56920,0.044,-0.983,-0.124,18.244,46.511,20.557,88.0,85.0
56968,-0.134,-1.002,-0.030,11.908,53.885,20.298,90.0,84.0
57017,-0.210,-0.966,0.048,6.641,26.809,13.023,99.0,85.0
57065,-0.258,-1.020,0.054,0.290,-15.443,6.832,106.0,85.0
57110,-0.196,-1.035,0.004,-0.183,-44.748,-3.374,39.0,85.0
57159,-0.260,-1.032,0.083,4.817,-63.115,-4.534,105.0,84.0
57214,-0.193,-1.039,-0.002,19.053,-101.634,-14.992,104.0,0.0
57274,0.057,-0.951,-0.098,13.023,-39.550,-13.924,106.0,0.0
57329,0.030,-0.960,-0.030,15.168,39.611,-6.191,107.0,0.0
57385,-0.101,-0.985,0.047,22.038,79.092,5.145,109.0,0.0
57442,-0.189,-1.003,0.084,26.160,82.359,1.160,111.0,0.0
57495,-0.227,-1.014,0.095,29.511,63.328,-3.336,63.0,200.0
57548,-0.214,-0.963,0.084,31.794,38.664,-6.359,65.0,197.0
57604,-0.164,-0.946,0.065,25.779,36.641,-4.160,118.0,195.0
57658,-0.177,-0.937,0.073,21.351,40.321,-4.603,71.0,193.0
57714,-0.177,-0.934,0.066,18.733,41.412,-7.351,71.0,192.0
57767,-0.180,-0.933,0.066,15.153,44.053,-11.053,72.0,190.0
57821,-0.187,-0.945,0.065,11.160,45.809,-12.969,73.0,189.0
57917,-0.221,-1.026,0.099,4.824,34.939,-16.771,75.0,187.0
57970,-0.201,-1.027,0.087,1.916,30.191,-21.237,77.0,185.0
58023,-0.192,-0.991,0.095,-2.405,33.008,-19.840,77.0,184.0
58075,-0.232,-0.999,0.134,-3.092,28.672,-19.656,78.0,136.0
58123,-0.241,-0.991,0.149,-2.840,17.229,-20.542,79.0,89.0
58170,-0.224,-1.013,0.153,-4.321,7.763,-21.695,79.0,88.0
58225,-0.190,-0.979,0.135,0.397,6.855,-15.779,80.0,91.0
58272,-0.191,-1.024,0.134,4.313,8.931,-6.198,80.0,91.0
58319,-0.194,-0.989,0.122,9.916,9.176,0.069,80.0,91.0
58365,-0.170,-0.910,0.134,10.954,11.237,10.626,79.0,91.0
58413,-0.214,-1.015,0.142,10.412,6.466,19.099,78.0,91.0
58460,-0.203,-1.043,0.119,14.420,-4.580,20.954,78.0,92.0
58507,-0.125,-0.976,0.095,13.382,1.412,26.313,76.0,96.0
58556,-0.163,-0.987,0.133,10.099,10.008,33.802,75.0,141.0
58607,-0.221,-0.998,0.173,8.908,-1.656,32.641,74.0,161.0
58660,-0.182,-0.959,0.171,4.382,-17.496,27.817,74.0,163.0
58715,-0.182,-0.965,0.170,1.405,-26.374,25.863,143.0,155.0
58773,-0.173,-0.983,0.182,1.267,-34.855,19.313,0.0,164.0
58831,-0.129,-0.970,0.155,1.260,-31.092,9.534,0.0,168.0
58892,-0.107,-0.965,0.143,0.649,-13.031,1.412,0.0,199.0
58951,-0.130,-0.969,0.162,2.046,6.366,-4.473,0.0,197.0
59012,-0.152,-0.971,0.176,2.794,14.611,-11.771,0.0,199.0
59072,-0.168,-0.965,0.196,2.794,14.351,-15.786,0.0,198.0
59132,-0.136,-0.976,0.146,3.550,19.985,-16.679,0.0,199.0
59185,-0.164,-0.980,0.154,2.771,29.718,-16.405,115.0,101.0
59239,-0.153,-0.921,0.134,3.672,32.237,-14.855,0.0,100.0
59287,-0.165,-0.915,0.143,0.832,36.168,-13.458,80.0,101.0
59337,-0.204,-0.972,0.179,-3.275,31.511,-14.977,126.0,100.0
59385,-0.214,-1.026,0.207,-7.366,17.496,-15.023,81.0,98.0
59432,-0.169,-1.027,0.193,-8.542,9.237,-11.939,81.0,97.0
59484,-0.073,-0.938,0.233,4.573,47.924,8.573,118.0,124.0
59534,-0.294,-0.896,0.364,4.405,55.229,11.687,126.0,95.0
59587,-0.339,-0.967,0.307,-0.122,-1.710,-1.366,126.0,96.0
59636,-0.259,-1.006,0.210,2.023,-36.298,-18.626,128.0,78.0
59683,-0.118,-0.953,0.133,-1.267,-32.863,-19.771,83.0,79.0
59730,-0.064,-0.909,0.124,-4.595,-5.000,-7.504,84.0,95.0
59779,-0.151,-0.970,0.162,-6.176,14.702,1.313,84.0,97.0
59827,-0.196,-0.969,0.226,-5.664,12.107,3.893,84.0,95.0
59876,-0.181,-0.953,0.264,-7.191,-3.511,8.168,120.0,96.0
59927,-0.146,-0.960,0.245,-9.924,-13.725,15.809,146.0,96.0
59978,-0.168,-1.059,0.223,-6.618,-17.832,15.389,125.0,100.0
60030,-0.146,-1.021,0.189,2.565,-14.160,11.527,121.0,98.0
60081,-0.104,-0.977,0.166,8.695,0.435,11.290,121.0,92.0
60132,-0.126,-0.974,0.148,13.954,16.038,10.511,88.0,145.0
60182,-0.157,-0.957,0.111,15.733,21.931,5.000,126.0,95.0
60237,-0.201,-0.967,0.119,10.817,20.458,-2.878,123.0,194.0
60288,-0.209,-0.954,0.096,7.252,11.924,-8.603,124.0,93.0
60341,-0.202,-0.947,0.100,2.153,4.802,-10.053,124.0,154.0
60394,-0.214,-0.940,0.089,-2.382,-1.786,-12.397,126.0,141.0
60449,-0.202,-0.946,0.105,-4.847,-8.031,-11.458,127.0,172.0
60551,-0.191,-1.012,0.113,-4.389,-4.824,-11.275,129.0,181.0
60603,-0.207,-1.069,0.148,-6.519,1.954,-10.924,130.0,134.0
60652,-0.233,-1.054,0.161,-2.908,-5.557,-6.969,101.0,87.0
60700,-0.200,-0.951,0.159,0.206,-14.695,0.450,101.0,84.0
60750,-0.155,-0.915,0.135,-1.053,-11.389,10.321,101.0,137.0
60800,-0.130,-0.914,0.117,2.695,1.145,17.328,101.0,85.0
60853,-0.177,-0.955,0.126,2.786,9.641,14.718,101.0,185.0
60902,-0.213,-0.983,0.121,0.351,6.489,1.954,100.0,86.0
60958,-0.197,-0.957,0.103,-4.214,2.664,-6.504,100.0,32.0
61005,-0.178,-0.923,0.096,-7.863,4.527,-3.366,100.0,31.0
61053,-0.183,-0.909,0.092,-12.336,4.947,3.366,100.0,31.0
61101,-0.191,-0.891,0.085,-16.015,4.443,6.168,100.0,30.0
61148,-0.188,-0.889,0.070,-19.573,5.779,4.611,100.0,29.0
61195,-0.175,-0.901,0.038,-21.420,9.237,-1.336,89.0,30.0
61242,-0.131,-0.768,0.033,-24.351,19.214,0.153,89.0,30.0
61288,-0.148,-0.727,0.030,-28.489,29.588,2.252,89.0,31.0
61335,-0.129,-0.640,-0.004,-26.038,39.481,2.580,88.0,33.0
61389,-0.159,-0.658,0.010,-19.504,48.634,2.771,87.0,110.0
61440,-0.232,-1.034,0.116,-11.458,28.885,-6.412,87.0,91.0
61487,-0.387,-1.450,-0.079,15.176,-9.153,-43.962,88.0,33.0
61534,-0.186,-1.492,-0.222,25.969,-4.000,-59.756,90.0,32.0
61583,0.098,-1.256,-0.158,1.992,39.290,-14.137,124.0,33.0
61632,0.040,-1.039,0.025,-39.748,84.443,59.824,125.0,35.0
61686,-0.260,-1.144,0.149,-36.710,50.458,83.023,0.0,39.0
61743,-0.331,-1.384,0.096,1.244,-14.504,44.092,0.0,84.0
61796,-0.166,-1.112,-0.079,6.351,-32.435,-18.336,0.0,35.0
61852,-0.146,-1.024,-0.118,-8.160,-27.824,-20.511,129.0,93.0
61902,-0.255,-1.090,-0.110,-11.550,-34.901,-45.130,130.0,32.0
61955,-0.182,-1.152,-0.275,5.779,-43.702,-52.336,130.0,83.0
62006,0.010,-0.928,-0.258,14.733,-14.122,-20.565,96.0,101.0
62056,-0.108,-0.875,-0.161,-10.885,13.046,16.000,95.0,66.0
62104,-0.261,-1.088,-0.064,-27.863,-8.267,28.573,96.0,61.0
62156,-0.303,-1.171,-0.110,-13.420,-63.588,30.947,96.0,101.0
62205,-0.140,-0.978,-0.159,-0.664,-84.145,26.595,95.0,55.0
62257,0.011,-0.939,-0.265,-7.076,-26.466,23.031,95.0,53.0
62313,-0.111,-0.963,-0.151,-7.710,35.450,17.954,97.0,185.0
62360,-0.284,-0.989,-0.054,11.885,44.473,-3.779,99.0,23.0
62407,-0.288,-0.935,-0.049,20.939,25.198,-21.603,101.0,21.0
62455,-0.290,-0.897,-0.031,15.481,11.870,-29.137,102.0,20.0
62502,-0.361,-0.983,0.017,9.191,-21.031,-31.267,103.0,19.0
62550,-0.306,-1.016,-0.017,17.237,-49.160,-29.130,103.0,18.0
62597,-0.244,-1.033,-0.039,22.153,-58.679,-24.473,104.0,18.0
62644,-0.161,-1.012,-0.081,24.779,-42.695,-20.817,104.0,18.0
62695,-0.159,-0.990,-0.055,23.687,-15.366,-16.206,104.0,18.0
62750,-0.174,-0.977,-0.032,30.153,5.931,-14.221,104.0,160.0
62806,-0.213,-0.934,-0.003,36.305,18.351,-10.130,105.0,159.0
62862,-0.292,-0.939,0.037,27.870,-1.611,-12.344,105.0,161.0
62917,-0.310,-1.235,-0.044,20.542,-39.565,-14.450,104.0,161.0
62972,-0.113,-0.687,-0.054,15.557,-39.588,-12.603,101.0,163.0
63029,-0.118,-0.786,0.061,-11.947,-10.229,25.214,98.0,167.0
