Timestamp(ms),AccelX(g),AccelY(g),AccelZ(g),GyroX(deg/s),GyroY(deg/s),GyroZ(deg/s),DistanceLeft(cm),DistanceRight(cm)
33961,0.019,-0.036,0.980,-2.366,2.176,-0.099,0.0,0.0
34008,0.003,-0.037,0.999,-2.931,3.008,-0.901,0.0,0.0
34054,-0.005,-0.054,0.994,-2.466,1.328,-1.267,0.0,0.0
34101,-0.002,-0.051,0.996,-3.031,0.695,0.046,0.0,0.0
34147,0.003,-0.038,0.994,-1.573,1.893,-0.290,0.0,0.0
34193,0.021,-0.053,0.990,-0.084,3.802,-0.565,0.0,0.0
34239,0.000,-0.034,0.983,-1.527,5.053,-0.748,0.0,0.0
34285,-0.001,-0.035,1.013,-1.985,1.626,-0.649,0.0,0.0
34334,0.007,-0.037,0.997,-1.260,0.939,-0.977,0.0,0.0
34381,0.011,-0.036,0.996,-0.908,2.298,0.160,0.0,0.0
34427,-0.003,-0.040,1.002,-2.122,0.802,-0.336,0.0,0.0
34473,0.005,-0.039,1.003,-1.763,-1.366,0.542,0.0,0.0
34520,-0.013,-0.011,1.038,-2.053,-4.641,0.748,0.0,0.0
34567,-0.272,0.013,1.263,-3.855,-54.809,12.687,0.0,0.0
34613,-0.090,-0.117,1.174,5.802,-138.153,20.206,0.0,0.0
34660,0.078,-0.032,1.056,15.038,-155.878,38.618,0.0,0.0
34706,0.614,-0.116,0.747,26.282,-145.496,4.992,0.0,0.0
34755,1.207,0.090,0.424,15.588,31.069,-34.351,0.0,0.0
34802,0.687,-0.003,0.416,-4.405,249.145,-54.763,0.0,0.0
34848,-0.277,-0.003,0.929,-6.359,250.130,-35.313,0.0,0.0
34895,-0.608,-0.112,1.140,7.954,94.603,-31.489,0.0,0.0
34941,-0.604,0.060,1.126,5.557,-57.481,-10.084,0.0,0.0
34988,-0.081,0.030,0.913,-4.145,-122.725,23.763,0.0,0.0
35035,0.382,-0.071,0.802,6.565,-76.214,15.809,0.0,0.0
35081,0.422,0.098,0.846,7.924,22.786,-0.832,0.0,0.0
35128,0.041,0.108,1.001,-10.076,62.389,5.427,0.0,0.0
35194,-0.095,0.001,1.086,-7.290,-4.267,-0.275,0.0,0.0
35241,0.135,0.046,0.950,-5.221,4.359,0.771,0.0,0.0
35288,0.029,-0.011,1.020,-4.122,25.160,5.260,0.0,0.0
35334,-0.021,0.007,1.040,0.481,-3.229,5.183,0.0,0.0
35381,0.121,0.054,0.969,-0.611,-6.153,1.176,0.0,0.0
35427,0.100,0.056,0.983,-4.893,16.756,-0.947,0.0,0.0
35474,-0.012,-0.011,1.035,-3.550,5.870,0.000,0.0,0.0
35520,0.038,0.020,1.001,-2.328,-5.679,0.847,0.0,0.0
35567,0.097,0.028,0.966,-3.679,6.962,-0.176,0.0,0.0
35613,0.049,0.019,0.975,-3.527,18.527,-1.550,0.0,0.0
35680,-0.029,-0.000,1.030,-3.939,5.603,-0.473,0.0,0.0
35727,0.042,0.010,0.986,-3.542,-2.168,-0.443,0.0,0.0
35774,0.059,0.030,0.987,-3.137,8.763,-0.336,0.0,0.0
35820,0.049,0.004,0.997,-2.824,7.206,-2.771,0.0,0.0
35867,0.086,0.058,1.006,-5.069,12.916,-3.679,0.0,0.0
35913,-0.075,0.100,1.115,-13.679,9.534,-4.290,0.0,0.0
35960,-0.445,0.067,1.337,-19.450,-98.580,1.969,0.0,0.0
36006,-0.278,-0.075,1.018,-17.145,-216.229,24.603,0.0,0.0
36054,0.362,-0.196,0.689,1.107,-250.137,32.809,0.0,0.0
36104,1.201,-0.034,0.400,14.527,-103.603,-1.489,0.0,0.0
36150,1.239,0.032,0.345,-3.557,150.863,-33.473,0.0,0.0
36197,0.492,0.013,0.540,-25.321,250.130,-38.237,0.0,0.0
36244,-0.372,-0.091,1.001,-21.282,250.130,-33.397,0.0,0.0
36291,-0.771,-0.095,1.301,-6.534,61.298,-23.481,0.0,0.0
36395,-0.071,-0.222,0.876,-6.519,-250.137,38.168,0.0,0.0
36442,1.005,-0.034,0.588,27.008,-137.794,25.008,0.0,0.0
36488,1.074,0.069,0.597,5.366,58.183,-8.641,0.0,0.0
36535,0.659,-0.019,0.687,-16.618,186.573,-35.191,0.0,0.0
36602,-0.051,-0.073,0.840,-22.221,245.107,-21.947,0.0,0.0
36649,-0.823,-0.135,1.364,-3.397,-14.473,5.122,0.0,0.0
36697,-0.226,-0.118,0.976,12.550,-197.550,10.908,0.0,0.0
36743,0.677,0.016,0.617,12.664,-120.573,13.427,0.0,0.0
36790,0.686,0.031,0.737,-9.496,52.069,6.947,0.0,0.0
36837,0.199,-0.029,1.042,-16.099,100.313,0.702,0.0,0.0
36884,-0.032,-0.083,1.146,-6.588,42.290,-8.588,0.0,0.0
36931,0.111,-0.046,1.012,-3.382,-0.656,-11.244,0.0,0.0
36977,0.131,-0.075,0.965,-5.053,17.099,-0.565,0.0,0.0
37027,0.072,-0.085,1.005,-1.099,16.611,-0.267,0.0,0.0
37074,0.058,-0.092,0.999,0.015,5.847,0.038,0.0,0.0
37122,0.108,-0.024,0.968,-0.817,8.962,1.595,0.0,0.0
37168,0.090,-0.060,0.962,-3.221,20.779,-0.527,0.0,0.0
37215,-0.001,-0.064,1.024,-5.298,8.046,0.809,0.0,0.0
37262,0.085,-0.059,0.981,-4.099,-2.710,0.130,0.0,0.0
37309,0.096,-0.073,0.980,-5.802,5.168,-0.550,0.0,0.0
37356,0.068,-0.077,1.008,-4.550,12.008,0.870,0.0,0.0
37402,0.038,-0.077,1.018,-3.550,1.374,0.802,0.0,0.0
37449,0.062,-0.070,1.004,-2.405,-5.031,-0.191,0.0,0.0
37499,0.123,-0.065,0.961,-3.809,3.069,-0.176,0.0,0.0
37547,0.053,-0.073,1.023,-3.481,13.084,0.336,0.0,0.0
37594,0.051,-0.076,1.012,-1.779,4.580,-1.137,0.0,0.0
37641,0.074,-0.062,0.996,-1.221,1.382,-0.611,0.0,0.0
37688,0.053,-0.061,1.021,-2.473,3.427,1.412,0.0,0.0
37735,0.044,-0.080,1.069,-0.802,-8.344,-2.099,0.0,0.0
37782,-0.417,-0.057,1.307,17.466,-100.107,-0.611,0.0,0.0
37829,-0.067,0.033,0.992,5.573,-197.779,27.000,0.0,0.0
37876,0.342,-0.118,0.891,7.603,-207.099,51.221,0.0,0.0
37944,1.243,-0.109,0.323,20.290,-79.634,-9.626,0.0,0.0
37987,0.860,-0.042,0.394,-9.893,245.061,-26.756,123.0,0.0
38047,0.069,-0.075,0.708,-18.557,250.130,-22.489,0.0,0.0
38094,-0.560,-0.062,1.208,4.405,94.519,-25.817,0.0,0.0
38141,-0.531,0.030,1.124,-7.237,-79.244,-17.534,0.0,0.0
38190,-0.138,-0.080,0.971,-18.588,-147.336,36.420,0.0,0.0
38237,0.245,-0.190,0.942,9.534,-170.931,43.435,0.0,0.0
38284,0.917,-0.044,0.719,22.786,-98.840,15.443,0.0,0.0
38331,1.078,0.024,0.604,4.076,104.832,-24.901,0.0,0.0
38381,0.318,-0.078,0.788,-0.832,247.046,-41.939,0.0,0.0
38428,-0.439,-0.060,1.059,12.878,196.740,-28.153,0.0,0.0
38476,-0.843,0.051,1.255,-0.748,19.412,-4.519,0.0,0.0
38523,-0.658,-0.087,1.085,-8.115,-200.321,34.092,0.0,0.0
38571,0.202,-0.126,0.748,4.947,-250.137,45.969,0.0,0.0
38618,0.986,0.015,0.559,13.969,-115.786,28.427,0.0,0.0
38665,0.910,0.022,0.714,-2.977,66.832,-6.840,0.0,0.0
38712,0.501,-0.001,0.776,-14.282,176.466,-37.076,0.0,0.0
38759,-0.177,0.001,1.008,-15.267,162.275,-27.847,0.0,0.0
38866,-0.025,-0.077,1.004,-9.802,-105.069,-1.977,0.0,0.0
38915,0.439,-0.021,0.840,-4.351,-16.511,8.099,0.0,0.0
38962,0.190,-0.039,1.031,-7.031,37.939,7.473,0.0,0.0
39009,0.073,-0.089,1.076,0.771,4.305,0.710,0.0,0.0
39056,0.208,-0.023,0.962,-1.878,0.031,-1.870,0.0,0.0
39103,0.180,-0.048,0.960,-5.260,21.580,-1.611,0.0,0.0
39151,0.062,-0.093,1.038,-7.275,3.550,1.092,0.0,0.0
39198,0.148,-0.068,0.999,-2.740,-14.206,-0.702,0.0,0.0
39245,0.248,-0.052,0.920,-4.099,3.603,-3.328,0.0,0.0
39292,0.100,-0.072,1.011,-7.435,16.412,-2.000,0.0,0.0
39337,0.104,-0.059,1.010,-4.046,2.534,-0.321,0.0,0.0
39385,0.144,-0.075,0.980,-3.244,-6.840,-0.687,0.0,0.0
39432,0.181,-0.072,0.958,-3.870,3.496,0.855,0.0,0.0
39480,0.128,-0.056,1.000,-4.015,8.901,-0.031,0.0,0.0
39527,0.120,-0.083,1.003,-2.290,0.649,-0.595,0.0,0.0
39574,0.146,-0.070,0.987,-2.962,-1.618,0.931,0.0,0.0
39621,0.151,-0.066,0.998,-1.351,3.649,1.893,0.0,0.0
39669,0.140,-0.085,0.996,-0.321,2.031,1.328,0.0,0.0
39716,0.133,-0.077,0.985,0.282,2.160,2.076,0.0,0.0
39767,0.146,-0.089,0.982,1.382,2.885,1.947,0.0,0.0
39815,0.139,-0.061,0.987,0.267,4.939,3.176,0.0,0.0
39862,0.140,-0.084,0.975,0.618,0.076,1.221,0.0,0.0
39909,0.177,-0.065,0.944,0.687,0.244,0.550,0.0,0.0
39956,0.158,-0.067,0.969,-2.939,7.725,1.229,0.0,0.0
40004,0.169,-0.062,0.972,-2.802,7.817,-0.573,0.0,0.0
40057,0.304,-0.103,0.923,-2.489,32.931,-9.206,0.0,0.0
40103,0.425,-0.040,0.758,-4.863,115.878,-23.916,0.0,0.0
40150,0.192,-0.027,0.684,-25.023,230.313,-35.931,0.0,0.0
40197,-0.476,-0.122,0.858,-31.672,250.130,-27.443,0.0,0.0
40253,-0.827,-0.214,1.000,-3.718,134.710,-2.344,0.0,0.0
40300,-1.162,-0.155,1.128,12.176,-6.435,7.969,0.0,0.0
40346,-1.077,-0.067,1.078,4.412,-153.351,21.481,0.0,0.0
40392,-0.814,-0.132,0.982,9.504,-250.137,45.840,0.0,0.0
40439,-0.066,-0.186,0.684,28.137,-250.137,47.916,0.0,0.0
40485,0.584,-0.016,0.541,29.580,-199.099,52.046,0.0,0.0
40532,0.607,-0.066,0.684,15.870,-91.443,43.252,0.0,0.0
40579,0.745,-0.111,0.686,10.160,-27.611,5.641,0.0,0.0
40625,1.060,0.026,0.358,3.641,155.878,-39.214,0.0,0.0
40674,0.261,0.024,0.491,-27.702,250.130,-31.519,0.0,0.0
40721,-0.673,-0.122,0.968,-20.435,250.130,-20.252,0.0,0.0
40767,-1.067,-0.128,1.346,8.641,73.565,-15.634,0.0,0.0
40813,-0.632,-0.011,1.042,3.153,-68.634,-19.649,0.0,0.0
40860,-0.254,-0.040,0.870,-4.565,-85.588,-4.008,0.0,0.0
40906,-0.251,-0.052,0.951,1.626,-54.031,6.130,0.0,0.0
40952,-0.123,-0.016,0.941,0.183,-46.374,3.992,0.0,0.0
40999,-0.077,-0.010,0.944,-1.267,-32.290,0.168,0.0,0.0
41046,-0.030,-0.013,0.903,-5.817,3.824,0.779,0.0,0.0
41095,-0.135,-0.078,0.961,-6.191,9.969,-2.702,0.0,0.0
41141,-0.114,-0.016,0.980,-5.969,14.435,0.771,0.0,0.0
41188,-0.204,-0.072,1.029,-4.489,-2.328,0.870,0.0,0.0
41291,-0.107,-0.057,0.997,-2.046,6.107,1.824,0.0,0.0
41337,-0.136,-0.042,0.986,-2.328,6.015,-0.588,0.0,0.0
41384,-0.130,-0.058,0.978,-3.473,1.481,-3.260,0.0,0.0
41431,-0.123,-0.062,0.977,-2.695,1.031,-3.015,0.0,0.0
41477,-0.126,-0.059,0.960,-3.351,3.672,-2.786,0.0,0.0
41524,-0.131,-0.076,0.974,-4.573,1.809,-1.710,0.0,0.0
41590,-0.123,-0.056,0.969,-2.756,3.550,-2.519,0.0,0.0
41637,-0.127,-0.077,0.967,-4.023,1.878,-2.122,0.0,0.0
41683,-0.149,-0.063,0.995,-5.122,1.824,-1.382,0.0,0.0
41731,-0.096,-0.062,0.991,-3.427,1.130,-2.420,0.0,0.0
41777,-0.170,-0.064,1.089,-3.573,-3.595,-1.641,0.0,0.0
41824,-0.281,-0.055,1.188,1.672,-15.031,-7.092,0.0,0.0
41870,-0.572,-0.122,1.267,18.954,-107.168,1.794,0.0,0.0
41917,-0.431,-0.097,1.017,25.031,-212.878,31.092,0.0,0.0
41964,0.192,-0.128,0.687,30.198,-250.137,39.863,0.0,0.0
42013,1.085,0.001,0.338,34.198,-128.886,9.298,0.0,0.0
42060,1.112,0.035,0.419,6.954,90.901,-0.252,0.0,0.0
42106,0.660,0.076,0.567,-14.267,242.649,-15.313,0.0,0.0
42153,0.033,0.050,0.833,-26.374,250.130,-19.557,0.0,0.0
42200,-0.620,-0.129,1.172,-11.511,175.618,-34.450,0.0,0.0
42247,-0.903,-0.045,1.351,-0.244,-20.542,-37.069,0.0,0.0
42294,-0.767,-0.007,1.153,-6.779,-225.740,10.702,0.0,0.0
42340,0.108,-0.201,0.694,6.809,-250.137,43.595,0.0,0.0
42387,0.739,-0.008,0.599,25.275,-152.855,39.847,0.0,0.0
42455,1.101,0.042,0.515,-2.015,13.664,0.008,0.0,0.0
42501,0.799,0.051,0.375,-41.550,250.130,-33.550,0.0,0.0
42548,-0.361,-0.124,0.738,-46.298,250.130,-23.817,0.0,0.0
42595,-1.134,-0.225,1.213,-6.756,211.206,3.908,0.0,0.0
42641,-1.550,-0.118,1.479,12.641,-113.618,-7.282,0.0,0.0
42688,-1.006,-0.144,0.926,7.527,-250.137,1.061,0.0,0.0
42735,-0.015,-0.127,0.452,14.740,-250.137,19.000,0.0,0.0
42782,1.365,0.073,0.311,34.374,-209.115,11.924,0.0,0.0
42828,1.184,0.083,0.463,0.405,97.496,3.519,0.0,0.0
42878,0.333,-0.013,0.823,-22.107,216.817,-10.695,0.0,0.0
42926,-0.281,-0.110,1.212,-9.573,106.115,-9.450,0.0,0.0
42972,-0.173,-0.086,1.113,-4.756,-33.252,-11.359,0.0,0.0
43019,0.266,-0.042,0.891,-6.878,-55.878,-5.656,0.0,0.0
43066,0.339,-0.089,0.900,-7.573,5.672,4.130,0.0,0.0
43113,0.207,-0.050,0.988,-7.214,29.809,5.031,0.0,0.0
43159,0.190,-0.096,1.000,-5.458,18.137,-0.802,0.0,0.0
43206,0.200,-0.092,0.963,-3.481,19.718,-5.870,0.0,0.0
43253,0.180,-0.066,0.972,-7.863,30.427,-3.053,0.0,0.0
43300,0.097,-0.092,1.012,-8.573,30.519,0.000,0.0,0.0
43344,0.053,-0.106,1.040,-2.626,2.664,-1.000,0.0,0.0
43392,0.135,-0.075,0.977,-1.412,-2.870,-2.061,0.0,0.0
43439,0.126,-0.093,0.979,-3.412,7.702,0.267,0.0,0.0
43485,0.108,-0.078,1.005,-2.244,11.969,2.908,0.0,0.0
43532,0.091,-0.099,1.001,-2.168,2.534,0.962,0.0,0.0
43579,0.140,-0.085,0.962,-1.481,1.336,0.557,0.0,0.0
43625,0.115,-0.083,0.977,-4.725,7.992,0.550,0.0,0.0
43729,0.128,-0.095,0.987,-3.053,-0.748,-0.740,0.0,0.0
43777,0.135,-0.095,0.996,-2.008,9.649,-0.130,0.0,0.0
43843,0.131,-0.063,0.978,-3.847,14.130,-1.977,0.0,0.0
43891,0.349,-0.110,0.863,-5.969,50.351,-11.046,0.0,0.0
43937,0.240,-0.057,0.847,-13.198,115.336,-28.504,0.0,0.0
43984,-0.168,-0.119,0.873,-32.824,162.832,-34.504,0.0,0.0
44032,-1.119,-0.174,1.355,-18.603,14.901,2.618,0.0,0.0
44079,-1.083,-0.272,1.190,-10.565,-250.137,20.863,0.0,0.0
44127,0.308,-0.337,0.417,25.809,-250.137,11.084,0.0,0.0
44174,1.431,-0.003,0.291,34.718,-101.595,25.710,0.0,0.0
44221,1.061,0.009,0.521,-12.344,171.130,0.382,0.0,0.0
44271,0.229,-0.156,0.832,-27.313,250.130,-23.817,0.0,0.0
44318,-0.471,-0.204,1.146,-12.397,181.298,-18.038,0.0,0.0
44365,-0.856,-0.210,1.297,-4.893,-24.305,-4.740,0.0,0.0
44412,-0.443,-0.234,1.032,-3.779,-192.824,33.496,0.0,0.0
44460,0.285,-0.308,0.759,21.733,-212.832,39.206,0.0,0.0
44507,1.083,-0.157,0.572,37.977,-87.656,11.885,0.0,0.0
44554,1.151,0.107,0.506,2.634,166.015,-27.786,0.0,0.0
44601,0.277,-0.091,0.549,-32.954,250.130,-38.038,0.0,0.0
44648,-0.737,-0.219,1.040,-17.099,250.130,-10.366,0.0,0.0
44717,-1.500,-0.259,1.419,8.855,-19.252,16.412,0.0,0.0
44764,-0.530,-0.211,0.756,-1.740,-250.137,8.580,0.0,0.0
44811,0.559,-0.195,0.423,14.389,-250.137,9.977,0.0,0.0
44858,1.178,0.034,0.480,9.405,-21.702,-8.992,0.0,0.0
44905,0.492,-0.054,0.737,-20.901,169.924,-12.099,0.0,0.0
44952,-0.078,-0.155,1.034,-24.985,163.916,-14.412,0.0,0.0
44999,-0.536,-0.228,1.271,-4.122,15.832,-4.267,0.0,0.0
45047,-0.093,-0.156,1.010,-3.672,-99.870,-1.359,0.0,0.0
45094,0.448,-0.135,0.769,-0.588,-42.366,3.557,0.0,0.0
45145,0.218,-0.123,0.958,-3.832,55.290,9.206,0.0,0.0
45192,0.001,-0.135,1.076,-3.412,48.954,4.939,0.0,0.0
45239,-0.019,-0.156,1.038,0.084,7.290,-2.679,0.0,0.0
45286,0.077,-0.138,0.946,-2.908,-0.634,-2.450,0.0,0.0
45333,0.077,-0.190,0.957,-2.771,12.481,2.855,0.0,0.0
45381,0.016,-0.168,1.013,-1.290,10.008,4.573,0.0,0.0
45428,0.055,-0.128,0.988,-0.099,2.565,0.969,0.0,0.0
45475,0.054,-0.166,0.975,-2.076,3.191,-0.634,0.0,0.0
45522,0.063,-0.152,0.964,-3.527,9.443,-1.305,0.0,0.0
45590,0.044,-0.154,0.974,-1.504,12.550,-1.687,0.0,0.0
45638,0.010,-0.173,0.986,-1.641,4.473,-1.756,0.0,0.0
45685,0.021,-0.151,0.993,-2.557,1.191,-0.832,0.0,0.0
45732,0.035,-0.145,0.989,-2.458,0.573,-2.290,0.0,0.0
45779,0.035,-0.180,0.977,-1.695,4.321,-0.168,0.0,0.0
45827,0.007,-0.139,0.989,-0.763,3.817,0.756,0.0,0.0
45875,0.031,-0.171,0.972,-2.130,1.641,-0.076,0.0,0.0
45922,0.055,-0.135,0.960,-2.221,10.710,0.550,0.0,0.0
45969,0.074,-0.149,0.954,-4.084,21.443,-1.466,0.0,0.0
46016,0.163,-0.168,0.961,-3.756,44.420,-6.527,0.0,0.0
46085,0.278,-0.167,0.818,6.038,100.763,-23.366,0.0,0.0
46132,-0.460,-0.155,0.994,-15.977,159.206,-33.779,0.0,0.0
46236,-1.091,-0.233,1.196,2.924,-247.031,17.595,0.0,0.0
46284,0.277,-0.189,0.546,27.595,-250.137,24.542,0.0,0.0
46331,0.955,-0.118,0.485,27.458,-113.504,29.969,0.0,0.0
46379,1.010,-0.013,0.512,-1.305,101.092,-10.084,0.0,0.0
46427,0.414,-0.095,0.592,-33.649,250.130,-25.641,0.0,0.0
46474,-0.625,-0.225,1.125,-20.962,216.962,-3.679,0.0,0.0
46541,-0.919,-0.254,1.279,-7.229,-21.817,-0.527,0.0,0.0
46590,-0.300,-0.219,0.961,0.481,-231.710,22.397,0.0,0.0
46637,0.450,-0.180,0.740,13.015,-207.908,19.824,0.0,0.0
46684,0.879,-0.130,0.738,10.244,-71.481,6.260,0.0,0.0
46730,0.877,-0.091,0.669,-4.099,105.282,-28.321,0.0,0.0
46776,0.279,-0.149,0.708,-15.504,243.519,-32.740,0.0,0.0
46822,-0.556,-0.206,1.016,-13.359,203.908,-7.481,0.0,0.0
46869,-0.953,-0.235,1.303,-3.145,-24.756,7.931,0.0,0.0
46915,-0.490,-0.192,0.989,-0.649,-209.313,18.802,0.0,0.0
46961,0.319,-0.224,0.708,6.443,-218.084,25.351,0.0,0.0
47010,0.936,-0.094,0.601,12.366,-60.031,9.282,0.0,0.0
47057,0.803,-0.039,0.647,-17.160,138.916,-12.267,0.0,0.0
47104,0.116,-0.142,0.889,-29.832,228.183,-12.908,0.0,0.0
47150,-0.532,-0.294,1.203,-13.145,125.771,-4.550,0.0,0.0
47197,-0.528,-0.237,1.205,-0.053,-38.626,-12.137,0.0,0.0
47243,-0.041,-0.181,0.910,-1.817,-87.191,0.389,0.0,0.0
47289,0.212,-0.217,0.849,-0.176,-30.855,8.481,0.0,0.0
47336,0.138,-0.202,0.944,1.366,25.542,5.931,0.0,0.0
47382,0.005,-0.191,1.023,-1.618,33.145,0.481,0.0,0.0
47431,-0.051,-0.182,1.021,-2.305,9.374,-4.740,0.0,0.0
47478,0.022,-0.173,0.952,-1.786,4.527,-4.237,0.0,0.0
47524,0.014,-0.202,0.937,-4.145,19.183,-0.664,0.0,0.0
47570,-0.092,-0.218,1.013,-0.053,13.405,3.053,0.0,0.0
47618,-0.054,-0.177,0.977,1.061,-3.702,0.740,0.0,0.0
47664,-0.021,-0.163,0.969,-1.992,-1.863,2.260,0.0,0.0
47710,-0.007,-0.194,0.982,-2.115,-4.313,1.473,0.0,0.0
47757,-0.001,-0.196,0.979,1.290,4.992,2.168,0.0,0.0
47803,-0.031,-0.180,0.987,1.031,5.481,3.595,0.0,0.0
47869,-0.035,-0.171,0.985,0.771,1.710,2.863,0.0,0.0
47917,0.021,-0.170,0.956,1.137,3.031,3.336,0.0,0.0
47963,0.024,-0.182,0.979,-0.748,10.405,-0.298,0.0,0.0
48009,0.060,-0.147,0.964,-0.359,21.405,-3.992,0.0,0.0
48056,0.016,-0.152,1.028,-3.023,35.519,-6.206,0.0,0.0
48102,-0.367,-0.230,1.230,4.023,-25.412,-7.740,0.0,0.0
48149,-0.405,-0.158,1.151,12.008,-146.229,-9.779,0.0,0.0
48195,-0.114,-0.144,0.885,5.267,-221.603,9.336,0.0,0.0
48242,0.617,-0.226,0.598,11.786,-187.107,4.855,0.0,0.0
48284,1.244,-0.167,0.380,14.985,22.664,-21.840,111.0,0.0
48348,0.781,-0.023,0.376,-6.969,250.130,-19.649,0.0,0.0
48394,-0.599,-0.149,1.042,-16.031,250.130,6.740,0.0,0.0
48441,-1.084,-0.216,1.398,3.229,38.221,-1.328,0.0,0.0
48488,-0.718,-0.114,1.078,-5.794,-188.038,-1.023,0.0,0.0
48534,-0.036,-0.252,0.811,0.069,-246.221,35.000,0.0,0.0
48581,0.651,-0.177,0.683,22.275,-150.634,36.672,0.0,0.0
48685,0.736,0.021,0.698,-1.214,164.305,-13.916,0.0,0.0
48732,-0.195,-0.118,1.014,-12.557,216.840,-21.046,0.0,0.0
48778,-0.726,-0.208,1.258,0.084,57.198,-13.366,0.0,0.0
48828,-0.614,-0.136,1.093,-0.511,-155.359,-2.061,0.0,0.0
48875,0.109,-0.188,0.784,-0.718,-197.481,20.695,0.0,0.0
48922,0.727,-0.122,0.688,15.649,-78.450,9.336,0.0,0.0
48968,0.725,0.005,0.687,0.145,85.763,-9.931,0.0,0.0
49015,0.214,-0.049,0.882,-26.282,172.656,-24.443,0.0,0.0
49061,-0.269,-0.219,1.107,-22.473,116.435,-24.344,0.0,0.0
49108,-0.597,-0.246,1.219,-3.763,-4.183,-15.481,0.0,0.0
49156,-0.260,-0.161,1.021,-1.130,-127.153,4.618,0.0,0.0
49203,0.207,-0.181,0.866,6.153,-118.710,16.786,0.0,0.0
49269,0.523,-0.091,0.769,5.695,-15.702,9.969,0.0,0.0
49316,0.171,-0.111,0.982,-9.519,71.244,1.107,0.0,0.0
49363,-0.001,-0.167,1.065,-8.237,36.595,-7.076,0.0,0.0
49411,0.039,-0.162,1.007,-4.962,3.275,-10.313,0.0,0.0
49458,0.074,-0.204,0.956,-1.954,3.008,-1.534,0.0,0.0
49504,0.054,-0.179,0.976,-0.901,6.992,4.924,0.0,0.0
49551,0.068,-0.140,0.989,0.450,14.450,6.191,0.0,0.0
49598,0.053,-0.135,0.971,0.252,13.985,3.053,0.0,0.0
49644,0.032,-0.153,0.979,-3.481,4.435,1.672,0.0,0.0
49694,0.067,-0.137,0.987,-1.802,1.137,2.298,0.0,0.0
49741,0.083,-0.156,0.961,-3.321,8.351,2.160,0.0,0.0
49787,0.044,-0.163,0.988,-2.901,11.595,2.191,0.0,0.0
49835,0.034,-0.162,0.992,-1.527,6.611,3.656,0.0,0.0
49882,0.049,-0.150,0.989,-0.916,5.748,2.107,0.0,0.0
49929,0.037,-0.163,0.962,-0.641,6.763,5.099,0.0,0.0
49975,0.038,-0.143,0.984,-2.893,7.023,0.863,0.0,0.0
50022,0.042,-0.178,0.972,-3.061,10.489,-0.321,0.0,0.0
50069,0.016,-0.155,0.981,-3.870,10.672,0.130,0.0,0.0
50116,0.024,-0.152,0.964,-3.779,12.191,-0.786,0.0,0.0
50166,-0.007,-0.173,0.997,-6.160,8.351,0.573,0.0,0.0
50212,-0.015,-0.159,1.035,-4.252,1.076,-1.313,0.0,0.0
50259,0.064,-0.156,1.002,-0.634,3.824,-2.618,0.0,0.0
50307,0.084,-0.157,1.021,1.053,20.053,-6.290,0.0,0.0
50354,-0.027,-0.134,1.036,0.573,44.687,-11.924,0.0,0.0
50401,-0.345,-0.170,1.074,5.489,31.687,1.931,0.0,0.0
50448,-0.722,-0.200,1.242,10.710,-92.863,41.885,0.0,0.0
50495,-0.356,-0.313,0.964,28.420,-250.137,46.023,0.0,0.0
50542,0.744,-0.070,0.441,41.466,-246.809,24.359,0.0,0.0
50610,1.410,0.002,0.272,13.832,18.237,3.466,0.0,0.0
50657,0.455,-0.041,0.570,-28.382,250.130,-19.786,0.0,0.0
50704,-0.488,-0.155,1.078,-18.435,250.130,-10.092,0.0,0.0
50751,-0.894,-0.203,1.309,-2.954,60.893,-13.626,0.0,0.0
50798,-0.678,-0.108,1.080,-10.275,-153.824,-8.710,0.0,0.0
50846,-0.034,-0.232,0.871,-12.687,-224.435,18.443,0.0,0.0
50893,0.764,-0.129,0.683,18.336,-126.313,-1.779,0.0,0.0
50940,0.958,0.025,0.570,1.649,81.992,-37.145,0.0,0.0
50988,0.363,-0.104,0.776,-31.229,225.305,-48.908,0.0,0.0
51038,-0.435,-0.245,0.953,-21.282,234.962,-31.359,0.0,0.0
51142,-1.091,-0.257,1.213,4.702,-250.137,21.939,0.0,0.0
51189,0.612,-0.149,0.357,25.809,-250.137,15.473,0.0,0.0
51236,1.183,0.037,0.513,15.687,-46.053,12.824,0.0,0.0
51284,0.777,-0.066,0.636,-13.794,163.519,-24.305,0.0,0.0
51332,-0.013,-0.109,0.910,-18.115,214.046,-16.763,0.0,0.0
51379,-0.575,-0.199,1.279,-8.809,55.550,5.061,0.0,0.0
51426,-0.221,-0.166,1.062,-2.641,-98.122,-2.405,0.0,0.0
51473,0.371,-0.109,0.784,-0.397,-79.168,5.458,0.0,0.0
51542,0.415,-0.095,0.865,-5.405,33.344,11.756,0.0,0.0
51589,0.005,-0.169,1.109,-2.069,30.763,2.710,0.0,0.0
51636,0.125,-0.093,0.980,0.504,3.885,-6.191,0.0,0.0
51683,0.123,-0.141,0.984,-7.168,15.069,1.145,0.0,0.0
51730,0.072,-0.175,1.005,-0.977,10.527,3.718,0.0,0.0
51777,0.080,-0.132,1.002,0.336,-4.321,3.565,0.0,0.0
51824,0.156,-0.121,0.934,-0.435,3.237,1.901,0.0,0.0
51872,0.105,-0.132,0.978,-5.885,16.466,-0.397,0.0,0.0
51919,0.041,-0.164,1.030,-3.718,2.145,-0.198,0.0,0.0
51970,0.105,-0.147,0.973,-1.779,-1.244,0.863,0.0,0.0
52017,0.098,-0.149,0.985,-1.244,4.550,1.695,0.0,0.0
52064,0.063,-0.144,0.997,-0.824,3.679,1.870,0.0,0.0
52111,0.057,-0.167,0.999,2.053,-3.588,5.046,0.0,0.0
52159,0.072,-0.138,1.008,2.214,-19.359,4.252,0.0,0.0
52206,0.198,-0.102,0.949,0.550,-5.977,4.366,0.0,0.0
52253,0.241,-0.141,0.984,0.160,13.908,0.580,0.0,0.0
52300,0.457,-0.138,0.858,7.298,70.450,-15.870,0.0,0.0
52347,0.342,-0.057,0.726,-0.328,195.374,-26.458,0.0,0.0
52396,-0.361,-0.101,0.830,-18.397,247.733,-22.817,0.0,0.0
52447,-1.107,-0.239,1.197,-6.366,62.870,-1.947,0.0,0.0
52494,-1.084,-0.165,1.156,-5.206,-176.824,-4.015,0.0,0.0
52541,-0.504,-0.174,0.760,-6.115,-250.137,12.656,0.0,0.0
52589,0.535,-0.192,0.464,5.053,-250.137,21.168,0.0,0.0
52636,1.181,-0.152,0.523,9.771,-25.489,-0.840,0.0,0.0
52684,0.782,-0.052,0.640,-7.626,218.023,-31.344,0.0,0.0
52737,-0.195,-0.077,0.857,-28.565,250.130,-19.153,0.0,0.0
52784,-1.068,-0.301,1.317,-12.420,142.237,9.183,0.0,0.0
52830,-1.187,-0.210,1.371,-1.481,-182.137,8.756,0.0,0.0
52879,-0.172,-0.243,0.678,2.916,-250.137,18.580,0.0,0.0
52925,0.950,-0.209,0.424,20.412,-178.443,9.023,0.0,0.0
52972,1.129,-0.019,0.533,11.382,110.969,-7.099,0.0,0.0
53018,0.232,-0.057,0.733,-8.427,250.130,-17.649,0.0,0.0
53064,-0.622,-0.162,1.110,-8.031,218.725,4.840,0.0,0.0
53110,-0.971,-0.230,1.322,2.786,-1.855,3.893,0.0,0.0
53157,-0.747,-0.170,1.078,9.145,-250.137,13.802,0.0,0.0
53203,0.297,-0.206,0.556,11.115,-250.137,21.794,0.0,0.0
53250,1.046,-0.039,0.502,13.473,-59.511,13.534,0.0,0.0
53300,0.595,-0.025,0.732,-10.977,167.183,-9.191,0.0,0.0
53346,-0.103,-0.085,1.037,-22.916,183.252,-10.824,0.0,0.0
53392,-0.487,-0.260,1.264,-12.107,38.443,-6.580,0.0,0.0
53439,-0.165,-0.168,1.056,-2.504,-70.069,-14.504,0.0,0.0
53485,0.207,-0.135,0.856,-1.443,-48.550,1.473,0.0,0.0
53588,0.017,-0.151,1.019,-2.145,39.771,1.992,0.0,0.0
53635,-0.013,-0.135,0.986,-1.313,13.038,-4.885,0.0,0.0
53682,0.028,-0.134,0.973,-5.435,8.611,-5.420,0.0,0.0
53728,0.001,-0.168,0.993,-2.260,11.183,-2.802,0.0,0.0
53794,-0.036,-0.150,0.986,-0.763,12.122,-0.031,0.0,0.0
53841,-0.042,-0.161,0.994,-0.885,2.908,-2.397,0.0,0.0
53888,-0.006,-0.145,0.967,-0.954,3.870,-0.618,0.0,0.0
53935,-0.038,-0.150,0.977,-1.420,5.649,0.336,0.0,0.0
53981,-0.045,-0.135,0.998,-1.427,-2.153,3.244,0.0,0.0
54027,-0.010,-0.147,0.969,-1.305,-6.336,1.603,0.0,0.0
54074,0.016,-0.146,0.967,-0.870,0.023,3.221,0.0,0.0
54120,0.004,-0.131,0.986,-1.725,8.656,4.267,0.0,0.0
54166,-0.011,-0.144,1.000,-1.015,5.985,1.351,0.0,0.0
54216,0.004,-0.129,0.973,-1.817,6.656,-2.229,0.0,0.0
54262,0.017,-0.157,0.972,-2.290,13.824,-1.595,0.0,0.0
54309,-0.068,-0.138,0.995,0.695,15.076,-2.137,0.0,0.0
54355,-0.054,-0.134,0.985,-0.672,4.359,-1.855,0.0,0.0
54403,-0.033,-0.112,0.967,-0.427,8.389,-0.405,0.0,0.0
54449,-0.118,-0.137,1.005,-4.664,0.466,1.046,0.0,0.0
54496,-0.168,-0.149,1.054,-3.305,-30.519,3.580,0.0,0.0
54542,-0.080,-0.156,1.026,-1.466,-67.374,4.580,0.0,0.0
54589,0.244,-0.170,0.996,9.779,-69.794,4.000,0.0,0.0
54635,0.721,-0.153,0.699,26.038,55.069,-21.473,0.0,0.0
54685,0.381,0.038,0.530,5.321,250.130,-25.168,0.0,0.0
54731,-0.461,-0.009,0.590,-26.366,250.130,-9.634,0.0,0.0
54778,-1.163,-0.138,1.040,-20.763,173.351,35.130,0.0,0.0
54825,-1.504,-0.200,1.158,-9.076,-81.634,9.817,0.0,0.0
54872,-0.978,-0.109,0.904,-25.656,-250.137,1.420,0.0,0.0
54919,-0.278,-0.180,0.660,-21.229,-250.137,5.954,0.0,0.0
54965,0.642,-0.262,0.459,-5.366,-214.710,-8.840,0.0,0.0
55012,1.101,0.003,0.610,-2.412,37.595,-27.458,0.0,0.0
55059,0.266,-0.151,0.772,-11.290,220.466,-30.084,0.0,0.0
55126,-0.665,-0.188,1.193,-6.420,161.809,-3.893,0.0,0.0
55173,-0.953,-0.251,1.301,-5.443,-164.771,25.412,0.0,0.0
55220,0.022,-0.267,0.747,6.450,-250.137,20.084,0.0,0.0
55267,1.053,-0.189,0.378,27.786,-108.023,-9.779,0.0,0.0
55313,0.894,0.091,0.448,-6.084,184.481,-10.679,0.0,0.0
55360,-0.195,-0.097,0.895,-38.313,250.130,0.466,0.0,0.0
55407,-0.905,-0.356,1.327,-10.511,84.771,12.321,0.0,0.0
55454,-0.687,-0.157,1.196,4.412,-152.794,-10.992,0.0,0.0
55500,0.111,-0.162,0.805,-0.260,-202.191,3.076,0.0,0.0
55550,0.839,-0.167,0.580,7.931,-37.183,-9.985,0.0,0.0
55598,0.488,-0.032,0.702,-14.611,171.221,-8.786,0.0,0.0
55645,-0.390,-0.209,1.136,-20.588,182.779,5.359,0.0,0.0
55692,-0.703,-0.300,1.275,3.061,-1.786,-2.740,0.0,0.0
55738,-0.176,-0.135,0.958,3.061,-104.282,-5.336,0.0,0.0
55785,0.246,-0.177,0.787,-2.473,-47.160,5.420,0.0,0.0
55832,0.133,-0.168,0.905,-0.992,35.389,11.679,0.0,0.0
55879,-0.080,-0.171,1.028,-2.725,39.153,3.267,0.0,0.0
55925,-0.093,-0.171,0.994,-3.840,8.863,-3.702,0.0,0.0
56033,-0.001,-0.183,0.951,-2.595,0.237,1.389,0.0,0.0
56080,-0.036,-0.173,0.992,-2.718,12.847,2.664,0.0,0.0
56127,-0.059,-0.185,1.000,-2.084,8.221,-0.733,0.0,0.0
56173,-0.066,-0.197,0.979,-3.527,1.321,-1.626,0.0,0.0
56220,-0.048,-0.185,0.977,-2.733,2.221,0.557,0.0,0.0
56267,-0.049,-0.185,0.956,-2.527,3.099,-1.053,0.0,0.0
56314,-0.072,-0.187,0.983,-4.939,4.130,-0.168,0.0,0.0
56361,-0.050,-0.203,0.961,-2.679,3.145,-1.595,0.0,0.0
56409,-0.065,-0.188,0.959,-3.229,5.634,-0.580,0.0,0.0
56458,-0.078,-0.197,0.982,-4.061,2.718,0.046,0.0,0.0
56505,-0.046,-0.186,0.959,-3.489,1.840,-0.550,0.0,0.0
56552,-0.045,-0.181,0.934,-5.359,9.092,1.389,0.0,0.0
56599,-0.029,-0.190,0.966,-10.092,16.458,0.969,0.0,0.0
56646,0.051,-0.243,0.983,-6.290,27.260,-10.969,0.0,0.0
56693,0.141,-0.194,0.869,2.321,93.282,-24.122,0.0,0.0
56740,-0.246,-0.211,0.960,1.359,148.115,-18.305,0.0,0.0
56787,-0.756,-0.214,1.051,6.679,94.481,-0.412,0.0,0.0
56835,-1.027,-0.187,1.165,-4.160,-84.366,21.786,0.0,0.0
56882,-0.795,-0.225,0.941,-13.595,-250.137,43.603,0.0,0.0
56932,0.208,-0.409,0.541,15.473,-250.137,21.687,0.0,0.0
56979,1.236,-0.005,0.379,22.206,-99.939,-14.328,0.0,0.0
57026,0.864,-0.077,0.560,-13.168,201.282,-29.779,0.0,0.0
57073,-0.052,-0.181,0.790,-23.130,250.130,-27.031,0.0,0.0
57120,-0.990,-0.240,1.144,-15.130,186.336,10.290,0.0,0.0
57167,-1.369,-0.260,1.436,-24.397,-156.565,25.366,0.0,0.0
57214,-0.463,-0.453,0.709,1.595,-250.137,30.008,0.0,0.0
57262,1.072,-0.286,0.171,39.924,-250.137,-14.008,0.0,0.0
57313,1.437,0.079,0.299,-2.626,128.672,-16.237,0.0,0.0
57360,0.290,-0.183,0.640,-38.786,250.130,-29.618,0.0,0.0
57407,-0.782,-0.309,1.072,-8.992,246.855,-6.160,0.0,0.0
57454,-1.117,-0.223,1.398,-2.527,-21.840,-0.672,0.0,0.0
57501,-0.514,-0.248,0.988,-1.046,-225.420,21.420,0.0,0.0
57549,0.430,-0.306,0.632,20.405,-200.794,16.244,0.0,0.0
57596,0.836,-0.014,0.613,14.527,-6.863,5.748,0.0,0.0
57644,0.274,-0.104,0.908,-9.664,115.107,7.229,0.0,0.0
57691,-0.158,-0.237,1.162,-3.542,55.435,0.260,0.0,0.0
57758,0.009,-0.162,1.006,1.908,-14.298,-11.466,0.0,0.0
57805,0.113,-0.207,0.917,-2.481,7.198,4.229,0.0,0.0
57852,0.060,-0.200,0.997,-0.664,3.595,2.702,0.0,0.0
57900,0.095,-0.145,0.968,0.641,0.466,0.687,0.0,0.0
57947,0.060,-0.174,0.975,-3.519,1.198,-0.618,0.0,0.0
57995,0.109,-0.158,0.958,-3.450,9.527,-0.748,0.0,0.0
58042,0.061,-0.180,0.968,-4.565,12.847,-1.656,0.0,0.0
58089,0.015,-0.185,1.005,-4.145,3.573,0.924,0.0,0.0
58136,0.082,-0.156,0.978,-2.748,1.427,-0.840,0.0,0.0
58183,0.053,-0.185,0.984,-3.305,4.863,1.992,0.0,0.0
58252,0.055,-0.169,1.006,-1.473,0.649,0.374,0.0,0.0
58299,0.087,-0.156,0.973,-0.481,9.275,0.672,0.0,0.0
58346,0.067,-0.195,0.990,-1.588,5.092,-0.611,0.0,0.0
58393,0.034,-0.175,1.002,-1.145,4.168,0.107,0.0,0.0
58498,0.066,-0.188,0.957,-0.099,-0.397,-0.099,0.0,0.0
58545,-0.001,-0.184,0.999,0.603,-3.359,2.527,0.0,0.0
58593,-0.067,-0.195,1.052,3.954,-35.305,4.168,0.0,0.0
58640,0.192,-0.154,0.963,6.786,-54.931,2.954,0.0,0.0
58687,0.487,-0.125,0.898,4.847,11.847,-4.061,0.0,0.0
58738,0.579,-0.148,0.805,5.664,137.511,-33.870,0.0,0.0
58785,0.028,-0.139,0.832,1.573,247.214,-35.580,0.0,0.0
58832,-0.581,-0.191,0.957,0.763,206.237,-19.282,0.0,0.0
58881,-1.109,-0.184,1.125,4.725,27.702,-1.160,0.0,0.0
58928,-0.934,-0.150,0.978,-10.435,-197.611,23.382,0.0,0.0
58998,-0.177,-0.255,0.751,7.313,-250.137,38.397,0.0,0.0
59044,0.934,-0.109,0.624,23.351,-144.290,11.565,0.0,0.0
59091,1.163,0.035,0.479,-0.962,123.710,-43.702,0.0,0.0
59138,0.171,-0.067,0.520,-25.084,250.130,-47.969,0.0,0.0
59184,-1.176,-0.216,1.141,-22.374,227.656,5.534,0.0,0.0
59228,-1.600,-0.205,1.520,-22.405,-156.466,34.733,0.0,0.0
59274,-0.586,-0.379,0.670,-3.855,-250.137,34.473,0.0,0.0
59321,1.046,-0.180,0.151,34.878,-250.137,-0.702,0.0,0.0
59367,1.572,0.088,0.287,4.168,61.290,-5.748,0.0,0.0
59413,0.491,-0.084,0.690,-30.832,250.130,-28.176,0.0,0.0
59460,-0.319,-0.225,0.963,-16.405,250.130,-27.702,0.0,0.0
59506,-0.805,-0.106,1.213,-10.359,96.313,-12.260,0.0,0.0
59552,-0.761,-0.238,1.202,-17.374,-127.008,23.794,0.0,0.0
59602,0.007,-0.294,0.847,8.710,-223.237,30.435,0.0,0.0
59649,0.843,-0.119,0.652,23.145,-114.397,13.023,0.0,0.0
59695,0.754,0.013,0.715,0.603,91.084,-4.672,0.0,0.0
59741,0.066,-0.122,1.016,-15.237,138.053,-2.718,0.0,0.0
59788,-0.265,-0.213,1.197,-5.863,40.198,-4.588,0.0,0.0
59834,-0.040,-0.152,1.033,1.489,-38.420,-9.664,0.0,0.0
59881,0.174,-0.152,0.892,0.473,-19.878,5.672,0.0,0.0
59927,0.135,-0.151,0.954,2.557,14.832,9.153,0.0,0.0
59973,0.083,-0.120,0.997,1.107,13.275,3.221,0.0,0.0
60019,0.096,-0.103,0.975,-1.527,9.412,-1.649,0.0,0.0
60069,0.088,-0.152,0.969,-2.450,3.351,-2.885,0.0,0.0
60115,0.061,-0.140,0.985,-5.382,4.733,-0.481,0.0,0.0
60162,0.087,-0.149,0.984,-3.176,1.183,-0.023,0.0,0.0
60209,0.092,-0.124,0.976,-2.382,5.817,-0.443,0.0,0.0
60255,0.050,-0.155,0.999,-3.519,6.565,1.023,0.0,0.0
60301,0.057,-0.137,1.002,-0.641,-1.557,-0.153,0.0,0.0
60348,0.087,-0.151,0.958,-1.191,-0.237,0.305,0.0,0.0
60394,0.047,-0.133,0.991,-1.168,3.634,1.344,0.0,0.0
60441,0.064,-0.146,0.991,-1.115,2.282,0.802,0.0,0.0
60508,0.111,-0.141,0.965,-1.718,3.000,2.534,0.0,0.0
60554,0.416,-0.120,0.783,2.817,127.053,5.359,0.0,0.0
60601,0.069,-0.073,0.838,7.084,233.221,3.771,0.0,0.0
60647,-0.680,-0.108,1.073,6.985,208.191,2.916,0.0,0.0
60694,-1.140,-0.138,1.269,12.168,1.435,7.122,0.0,0.0
60740,-0.983,-0.082,1.013,-0.824,-242.534,0.878,0.0,0.0
60787,-0.243,-0.131,0.634,-0.031,-250.137,11.122,0.0,0.0
60833,0.655,-0.118,0.526,7.992,-224.183,5.794,0.0,0.0
60937,0.715,0.002,0.411,-20.450,250.130,-43.573,0.0,0.0
60984,-0.966,-0.169,1.077,-24.939,250.130,1.176,0.0,0.0
61028,-1.554,-0.246,1.508,-12.870,-67.847,19.099,0.0,0.0
61075,-0.767,-0.188,0.895,-10.092,-250.137,19.618,0.0,0.0
61122,0.624,-0.222,0.397,13.939,-250.137,13.137,0.0,0.0
61168,1.523,0.007,0.417,21.328,-25.405,-11.122,0.0,0.0
61215,0.772,0.020,0.552,-17.214,250.130,-38.084,0.0,0.0
61262,-0.289,-0.097,0.843,-28.779,250.130,-27.656,0.0,0.0
61308,-1.074,-0.223,1.329,-19.053,100.931,-1.031,0.0,0.0
61356,-0.994,-0.236,1.256,-6.702,-203.786,5.504,0.0,0.0
61423,0.212,-0.265,0.678,10.481,-250.137,14.656,0.0,0.0
61470,1.185,0.101,0.484,15.115,68.557,-7.771,0.0,0.0
61516,0.126,-0.009,0.895,-27.611,221.725,-3.359,0.0,0.0
61563,-0.552,-0.281,1.257,-11.496,95.473,7.282,0.0,0.0
61611,-0.344,-0.141,1.172,4.466,-64.931,-15.534,0.0,0.0
61657,0.155,-0.094,0.854,-0.366,-65.336,2.328,0.0,0.0
61704,0.209,-0.166,0.872,0.374,7.359,11.954,0.0,0.0
61751,0.031,-0.111,1.011,0.511,26.504,10.122,0.0,0.0
61797,0.000,-0.108,1.022,-1.496,-0.099,2.260,0.0,0.0
61844,0.093,-0.103,0.949,-3.878,-5.031,-6.115,0.0,0.0
61912,0.068,-0.155,0.953,-7.198,15.824,0.687,0.0,0.0
61958,-0.036,-0.147,1.031,-3.336,-1.969,2.496,0.0,0.0
62005,0.079,-0.154,0.962,-2.634,-11.603,-1.573,0.0,0.0
62052,0.073,-0.138,0.974,-3.985,5.076,0.855,0.0,0.0
62099,0.037,-0.149,1.011,-2.832,12.282,1.015,0.0,0.0
62145,-0.018,-0.177,1.025,-1.947,-5.626,-0.519,0.0,0.0
62192,0.089,-0.126,0.959,-0.053,1.740,1.229,0.0,0.0
62239,0.038,-0.151,0.983,-2.198,10.099,1.931,0.0,0.0
62286,0.005,-0.131,1.009,-0.962,2.099,-0.420,0.0,0.0
62336,0.038,-0.153,0.973,-1.588,-4.916,0.832,0.0,0.0
62383,0.043,-0.168,0.979,-0.885,-3.763,-1.656,0.0,0.0
62430,0.047,-0.131,0.990,-2.573,3.198,1.374,0.0,0.0
62477,0.046,-0.170,0.979,-0.069,4.443,0.595,0.0,0.0
62523,0.041,-0.152,0.991,-1.588,0.763,-0.321,0.0,0.0
62570,0.021,-0.134,0.981,-1.405,2.969,1.420,0.0,0.0
62617,0.057,-0.157,0.966,-1.939,-1.947,0.015,0.0,0.0
62664,0.031,-0.141,0.999,-2.695,-1.489,2.573,0.0,0.0
62711,0.203,-0.144,0.956,0.290,12.000,-1.382,0.0,0.0
62758,0.347,-0.115,0.887,-1.748,86.595,-7.756,0.0,0.0
62831,0.051,-0.087,0.820,-13.924,190.130,-20.931,0.0,0.0
62881,-0.891,-0.240,1.086,-14.954,150.588,-6.183,0.0,0.0
62948,-1.151,-0.230,1.162,-0.122,-77.275,9.634,0.0,0.0
62997,-0.417,-0.202,0.805,16.687,-250.137,16.237,0.0,0.0
63065,0.751,-0.121,0.506,26.229,-203.664,-2.435,0.0,0.0
63114,0.833,-0.011,0.493,-15.015,196.450,-28.931,0.0,0.0
63180,-0.237,-0.135,0.665,-32.321,250.130,-24.901,0.0,0.0
63230,-1.526,-0.237,1.493,-15.092,-13.992,25.458,0.0,0.0
63297,-0.857,-0.239,0.938,-3.221,-250.137,13.122,0.0,0.0
63345,1.127,-0.111,0.311,27.840,-181.412,-13.649,0.0,0.0
63412,0.967,0.055,0.484,-12.397,194.252,-16.000,0.0,0.0
