Timestamp(ms),AccelX(g),AccelY(g),AccelZ(g),GyroX(deg/s),GyroY(deg/s),GyroZ(deg/s),DistanceLeft(cm),DistanceRight(cm)
42075,-0.416,-0.978,0.077,29.443,92.733,-42.366,0.0,67.0
42131,-0.460,-0.931,0.082,39.069,79.939,-7.885,0.0,66.0
42183,-0.541,-0.997,0.012,42.176,95.290,37.328,0.0,67.0
42242,-1.055,-0.928,0.152,25.290,117.611,61.664,0.0,107.0
42300,-1.398,-0.642,0.177,-7.626,55.321,78.740,0.0,154.0
42355,-1.051,-0.275,-0.050,-23.740,-12.519,110.313,0.0,117.0
42412,-0.487,0.105,-0.493,-52.916,176.053,150.718,0.0,123.0
42463,-1.458,-0.196,0.045,-85.115,151.557,130.282,106.0,85.0
42516,-1.083,-0.249,0.015,-103.763,-52.313,89.351,0.0,84.0
42568,-1.017,-0.619,-0.365,-118.092,-203.099,63.122,161.0,82.0
42617,-0.864,-1.040,-0.601,-86.107,-232.305,24.321,160.0,48.0
42667,-0.490,-1.156,-0.404,-24.725,-141.634,-33.931,161.0,45.0
42716,0.316,-0.679,-0.581,28.573,98.939,-75.832,160.0,46.0
42768,-0.815,-0.715,-0.308,47.130,250.130,-93.779,163.0,84.0
42821,-1.632,-0.470,-0.016,78.504,163.969,-67.924,0.0,83.0
42875,-2.000,0.054,0.389,-11.137,-250.137,86.809,164.0,85.0
42929,-1.023,-0.650,-0.453,-67.336,-250.137,46.153,0.0,75.0
42981,1.168,-1.084,-1.018,96.855,54.176,-58.817,0.0,46.0
43038,-1.250,0.398,-1.126,147.183,250.130,27.405,0.0,89.0
43090,-2.000,-0.242,0.820,-61.282,-121.351,-8.443,158.0,88.0
43140,-0.591,-0.146,-0.285,1.939,-250.137,-2.641,157.0,59.0
43192,0.034,0.486,-0.331,95.634,-111.802,38.916,0.0,55.0
43247,-0.982,0.351,0.473,-70.183,-181.328,73.023,0.0,49.0
43299,0.673,-1.967,-1.453,-30.725,224.756,-12.863,0.0,56.0
43354,-2.000,-1.121,-0.309,96.473,250.130,73.893,160.0,85.0
43406,-2.000,-0.577,0.320,-72.458,-250.137,-69.038,158.0,86.0
43457,1.341,-0.727,-1.895,-15.626,-229.634,-139.771,0.0,42.0
43512,-0.779,0.558,0.522,-31.031,238.427,19.290,0.0,53.0
43565,-1.267,-0.691,0.865,-38.099,-250.137,61.702,0.0,47.0
43620,0.818,-1.429,-1.712,156.260,126.893,-31.260,0.0,55.0
43670,-2.000,-0.598,0.879,-76.656,250.130,44.878,154.0,64.0
43721,-1.512,-0.538,0.732,-38.802,-227.504,-50.229,139.0,88.0
43773,0.177,0.271,-0.638,134.656,73.901,-69.687,141.0,59.0
43824,-1.743,0.636,0.809,-97.863,5.870,-54.183,140.0,87.0
43877,-1.135,-0.064,0.543,-124.420,-250.137,-11.122,0.0,63.0
43931,0.801,-0.572,-1.664,139.794,186.580,3.107,0.0,44.0
43982,-2.000,-0.555,0.425,-108.107,250.130,37.000,143.0,80.0
44034,-2.000,-1.606,0.102,-144.504,-250.137,-41.595,177.0,60.0
44085,0.909,-1.663,-1.244,41.473,-172.603,-38.275,171.0,63.0
44136,-0.978,0.557,0.840,-37.229,205.008,-52.954,170.0,73.0
44187,-1.733,0.155,0.472,-135.427,-250.137,-59.092,166.0,67.0
44243,1.804,-1.013,-2.000,-15.313,-250.137,-86.832,0.0,72.0
44297,-0.264,-0.033,-0.431,40.092,250.130,107.588,0.0,72.0
44349,-2.000,-1.544,0.957,-112.527,153.000,121.695,163.0,79.0
44400,-1.039,-1.200,0.194,-71.176,-189.031,32.435,157.0,88.0
44452,-0.560,-0.449,0.077,31.672,-100.000,14.160,154.0,98.0
44509,-0.513,0.110,0.266,-38.794,-182.664,-22.611,0.0,124.0
44565,0.606,0.325,-1.024,-26.725,170.511,-4.366,0.0,121.0
44621,-2.000,0.370,0.833,-163.962,137.802,130.962,0.0,124.0
44682,-2.000,-1.819,-0.509,-178.099,-250.137,-7.252,0.0,130.0
44782,-0.115,-0.709,-0.794,1.595,250.130,26.901,0.0,146.0
44840,-1.725,0.099,1.165,-27.244,0.305,-14.328,192.0,154.0
44899,-0.581,0.040,-0.598,-88.328,-250.137,-36.099,0.0,156.0
44958,0.214,-0.289,-0.441,-78.931,-250.137,-9.733,0.0,176.0
45016,0.364,-2.000,-1.369,-1.802,250.130,28.618,0.0,145.0
45072,-2.000,-1.280,0.205,-48.710,250.130,169.275,0.0,125.0
45127,-1.614,-0.547,0.228,-96.779,-250.137,65.634,0.0,103.0
45175,1.050,-0.117,-1.214,-21.924,-250.137,-13.252,57.0,112.0
45235,0.308,0.567,-0.640,-9.412,209.076,-27.756,0.0,126.0
45290,-2.000,-0.212,0.403,-177.672,-107.679,54.344,0.0,102.0
45338,-1.954,-1.075,-1.073,-199.313,-250.137,42.641,59.0,112.0
45393,0.008,-1.496,-1.813,-155.702,188.855,64.473,187.0,107.0
45445,-2.000,-1.757,-0.262,-70.924,250.130,25.214,154.0,89.0
45497,-2.000,-0.140,0.215,-95.305,-250.137,-54.237,146.0,94.0
45549,0.237,0.048,-1.877,-112.595,-250.137,-7.817,164.0,92.0
45605,1.581,0.091,-1.509,-82.466,140.008,32.221,0.0,112.0
45663,-1.949,-0.630,0.893,-80.985,146.038,98.893,159.0,118.0
45720,-1.528,-1.014,-0.303,-64.527,-227.611,53.290,0.0,143.0
45774,-0.460,-1.365,-1.294,-55.115,250.130,170.916,0.0,87.0
45830,-2.000,-0.875,1.013,-38.076,96.672,66.191,0.0,88.0
45879,-0.703,-0.588,-0.001,48.344,-250.137,-39.962,146.0,57.0
45932,0.570,0.381,-0.769,59.626,-53.969,-130.412,0.0,58.0
45990,-1.531,0.513,-0.265,-86.427,164.985,-41.351,0.0,95.0
46045,-2.000,0.072,-0.019,-148.687,-67.733,153.053,0.0,85.0
46092,-0.651,-0.400,-0.366,-167.863,-84.473,235.053,40.0,51.0
46137,0.085,-1.042,-1.084,-67.878,146.427,83.786,39.0,88.0
46183,-1.813,-1.141,0.321,60.405,142.374,-115.420,57.0,86.0
46233,-2.000,-0.274,0.462,39.893,-250.137,-182.412,131.0,88.0
46284,0.364,-0.571,-1.161,-22.718,-250.137,-88.107,177.0,52.0
46337,0.666,0.086,-1.267,26.053,250.130,13.328,179.0,56.0
46387,-2.000,-0.091,1.632,-57.099,184.046,102.840,138.0,76.0
46432,-1.856,-1.309,-0.014,-33.458,-250.137,23.634,50.0,77.0
46486,0.799,-0.892,-1.417,71.046,-123.496,-39.687,194.0,77.0
46534,-2.000,-1.576,0.870,-144.794,130.656,37.466,43.0,84.0
46580,0.103,-0.603,-0.521,51.573,134.649,-49.290,56.0,81.0
46631,-1.275,0.945,-0.394,177.977,250.130,21.198,156.0,77.0
46684,-2.000,0.464,1.126,-60.573,-250.137,-63.107,157.0,84.0
46737,0.736,-0.258,-1.231,-60.511,-250.137,15.046,187.0,80.0
46789,-0.558,0.584,-0.862,39.534,250.130,147.908,160.0,76.0
46840,-2.000,-0.465,1.236,-106.580,-151.397,8.641,160.0,77.0
46892,-1.144,-1.223,-0.551,-105.076,-250.137,-41.656,159.0,59.0
46946,0.858,-0.209,-1.458,78.397,250.130,-56.092,156.0,62.0
46998,-2.000,-0.615,1.736,-23.412,250.130,-117.466,155.0,92.0
47051,-1.826,0.320,-0.159,-84.374,-250.137,-153.374,188.0,67.0
47106,2.000,-0.580,-2.000,122.580,-250.137,-110.634,0.0,80.0
47159,-0.729,0.356,0.730,37.931,250.130,85.618,0.0,59.0
47215,-1.540,-2.000,0.734,-17.069,104.603,66.511,0.0,51.0
47266,-1.087,-0.503,-0.782,166.153,250.130,72.344,160.0,65.0
47319,-2.000,-0.024,1.651,-72.168,-120.008,-4.298,160.0,87.0
47375,0.491,-0.326,-1.163,7.725,-250.137,-37.305,0.0,54.0
47473,-2.000,0.125,1.925,-250.137,38.275,14.847,164.0,138.0
47529,-2.000,-1.104,-1.202,-240.763,-250.137,-1.252,0.0,100.0
47584,1.334,-1.249,-1.086,108.519,94.374,-97.954,0.0,71.0
47636,-1.527,-0.140,-1.541,74.084,250.130,7.611,161.0,88.0
47689,-2.000,-0.370,1.439,-222.718,-250.137,-102.420,156.0,92.0
47747,-1.322,0.074,-1.369,-221.847,-250.137,-7.290,0.0,140.0
47803,2.000,0.158,-1.447,63.969,-91.412,-20.794,0.0,109.0
47860,-0.080,-0.114,-1.180,89.176,250.130,24.992,0.0,135.0
47917,-2.000,-0.888,0.884,-122.802,111.672,60.450,158.0,88.0
47963,-1.592,-0.775,-0.420,-179.832,-250.137,33.985,43.0,93.0
48010,0.915,-0.802,-0.591,-70.725,-204.351,42.847,39.0,106.0
48062,0.814,-0.075,-0.113,38.573,250.130,12.878,154.0,99.0
48115,-0.767,0.761,-0.847,75.290,250.130,31.344,155.0,99.0
48163,-2.000,0.368,0.755,-149.779,-188.840,2.168,159.0,11.0
48212,-2.000,0.185,-2.000,-250.137,-250.137,33.611,158.0,22.0
48264,-0.598,-1.283,-0.839,-250.137,-250.137,59.198,0.0,21.0
48322,-0.127,-1.043,-0.539,-31.534,250.130,16.305,0.0,87.0
48374,-1.077,-0.041,-0.440,32.191,250.130,19.023,151.0,92.0
48427,-2.000,0.185,0.936,-85.450,-237.672,-41.359,149.0,95.0
48481,-0.666,0.281,-1.192,-142.443,-250.137,-44.802,152.0,112.0
48535,1.217,-0.306,-1.371,-102.221,-223.656,10.725,0.0,77.0
48591,-0.071,-0.027,-2.000,29.534,250.130,129.527,0.0,112.0
48640,-2.000,-0.532,0.873,-141.000,133.092,49.588,160.0,12.0
48690,-2.000,-0.212,-1.086,-216.695,-250.137,1.672,51.0,138.0
48741,0.930,-0.844,-1.247,-83.160,-154.214,47.954,36.0,136.0
48796,-0.161,-0.289,-0.635,41.069,250.130,43.321,38.0,149.0
48851,-2.000,-0.068,1.183,3.298,212.389,-48.847,153.0,149.0
48904,-2.000,0.264,-0.700,-114.779,-250.137,-63.496,160.0,100.0
48957,-0.241,-0.088,-0.795,-138.611,-250.137,39.954,0.0,86.0
49009,-0.164,-0.516,-1.368,-80.168,250.130,45.191,162.0,82.0
49060,-2.000,-1.019,0.248,-17.954,250.130,-91.855,164.0,80.0
49112,-2.000,-0.237,-0.506,-133.649,-250.137,-95.153,161.0,86.0
49167,1.133,-0.932,-1.924,-42.595,-250.137,-62.771,0.0,55.0
49224,1.111,0.240,-1.081,110.282,250.130,-33.733,0.0,90.0
49275,-2.000,0.358,0.630,-41.802,250.130,99.794,159.0,84.0
49328,-2.000,-1.075,0.310,-116.550,-250.137,-23.740,162.0,85.0
49370,-0.055,-1.388,-0.970,-4.099,-250.137,-43.244,42.0,46.0
49413,1.072,0.087,-0.741,89.603,250.130,-67.145,41.0,46.0
49464,-1.377,0.203,-1.584,48.641,250.130,-7.718,162.0,84.0
49515,-2.000,0.072,1.468,-30.076,-202.496,-57.519,167.0,84.0
49569,-0.680,0.233,-0.877,-33.954,-250.137,-36.450,0.0,88.0
49624,0.796,0.690,-1.434,69.992,250.130,62.084,0.0,48.0
49681,-2.000,-1.330,1.274,-206.756,177.656,52.908,0.0,83.0
49726,-1.975,-1.266,-0.653,-102.137,-250.137,46.260,58.0,61.0
49778,1.187,-1.240,-1.461,80.740,-54.595,-8.053,0.0,66.0
49837,-0.042,0.187,-1.241,35.733,250.130,35.939,0.0,94.0
49883,-2.000,-0.560,2.000,-28.374,21.031,-102.962,71.0,94.0
49934,-1.636,0.118,-0.499,-80.107,-250.137,-114.573,149.0,79.0
49987,1.774,-0.878,-2.000,66.725,-250.137,-63.344,0.0,70.0
50041,0.629,0.265,-1.333,145.023,250.130,87.618,173.0,72.0
50136,-2.000,-1.280,0.646,-77.786,-250.137,-30.992,158.0,89.0
50189,1.235,-0.972,-1.182,122.420,-164.206,-49.878,177.0,91.0
50241,-0.778,1.094,-0.694,73.435,250.130,-26.298,157.0,88.0
50292,-2.000,0.288,1.354,-140.290,-99.962,-90.679,159.0,86.0
50345,-1.620,0.086,0.160,-95.092,-250.137,-20.344,0.0,62.0
50401,1.458,-0.344,-1.555,181.183,100.565,-48.756,0.0,60.0
50452,-2.000,-0.115,-2.000,-56.092,250.130,100.366,142.0,81.0
50502,-2.000,-1.072,0.672,-210.588,-220.718,-77.405,143.0,83.0
50556,-0.663,-0.781,-0.551,-135.947,-250.137,-74.756,138.0,91.0
50607,1.377,-0.168,-0.877,68.145,127.313,-120.771,136.0,93.0
50658,-0.473,-0.079,-0.901,22.603,250.130,-44.595,136.0,91.0
50709,-2.000,-0.353,1.462,-190.557,-250.137,-62.527,147.0,90.0
50760,-1.511,-0.291,-0.504,-155.176,-250.137,42.573,152.0,91.0
50812,1.766,-1.484,-1.663,228.053,-116.412,-3.664,153.0,94.0
50863,-0.923,-0.146,-2.000,173.237,250.130,-28.244,136.0,88.0
50914,-2.000,-0.802,1.708,-99.771,250.130,-30.053,136.0,88.0
50969,-1.647,0.006,-0.469,-139.168,-250.137,-16.611,146.0,119.0
51022,1.273,-0.288,-0.762,3.305,-250.137,-2.908,145.0,126.0
51076,0.851,1.092,-0.540,39.603,250.130,23.519,134.0,125.0
51126,-2.000,0.785,-1.538,-54.969,250.130,36.183,135.0,87.0
51176,-2.000,-0.308,-1.609,-250.137,-250.137,-6.588,133.0,86.0
51222,-1.326,-1.143,-1.800,-250.137,-250.137,99.260,57.0,92.0
51277,0.203,-1.390,-0.104,-223.886,-180.206,76.672,0.0,98.0
51324,1.167,-0.541,-0.337,89.771,122.779,-39.947,57.0,101.0
51378,0.316,0.657,-0.787,90.527,250.130,-14.786,109.0,100.0
51434,-2.000,-0.471,1.216,-90.519,68.191,-48.649,128.0,0.0
51490,-1.510,-0.143,-0.577,-148.031,-250.137,-53.718,0.0,127.0
51549,0.708,-1.504,-1.590,-17.626,-250.137,4.450,186.0,169.0
51600,-1.147,-0.233,-2.000,80.985,250.130,101.053,138.0,88.0
51651,-2.000,-0.091,1.368,-76.542,250.130,20.962,150.0,87.0
51700,-1.784,-0.116,-0.724,-123.832,-250.137,-16.328,114.0,87.0
51756,0.282,-0.136,-0.842,-81.031,-250.137,-15.511,195.0,107.0
51812,1.070,0.294,-0.864,58.527,250.130,27.389,158.0,106.0
51862,-2.000,1.340,-1.731,-15.206,250.130,117.427,114.0,86.0
51911,-2.000,-0.472,-0.101,-250.137,-167.893,-97.183,118.0,86.0
51957,-2.000,-0.188,-1.426,-250.137,-250.137,-101.656,50.0,88.0
52012,0.115,-1.035,-1.479,-134.313,-250.137,-81.733,155.0,125.0
52064,0.583,-0.050,-0.911,19.947,250.130,-57.504,152.0,104.0
52115,-1.561,0.398,-0.598,-70.679,250.130,1.198,132.0,93.0
52167,-2.000,-0.222,0.610,-174.382,-238.336,-41.458,136.0,110.0
52222,-0.825,-0.390,-0.390,-112.298,-250.137,15.786,147.0,109.0
52276,0.843,-0.812,-1.308,72.580,7.527,-27.282,176.0,83.0
52326,-2.000,-0.691,-1.100,-25.985,250.130,65.344,137.0,83.0
52377,-2.000,-1.258,0.752,-130.275,-21.756,10.252,136.0,86.0
52427,-1.201,-0.507,-0.295,-64.718,-250.137,-7.214,134.0,90.0
52482,0.351,-0.038,-0.743,55.176,-250.137,-73.611,161.0,120.0
52536,0.200,1.079,-0.714,-25.214,195.595,-72.053,158.0,115.0
52590,-2.000,0.000,0.412,-205.176,66.557,8.130,0.0,89.0
52644,-1.699,-1.515,0.108,-96.931,-250.137,48.771,0.0,85.0
52701,-0.095,-1.217,-1.135,47.443,-67.679,-110.969,0.0,54.0
52799,-1.654,-2.000,0.411,-213.870,-7.794,-115.534,0.0,96.0
52856,0.713,-1.134,-1.496,58.244,-142.496,-163.779,0.0,145.0
52909,-1.276,0.752,1.055,-26.443,4.107,-134.824,0.0,42.0
52965,-0.734,-0.757,0.015,-3.229,-250.137,150.756,0.0,44.0
53017,0.948,-1.473,-1.384,138.939,30.412,106.679,0.0,49.0
53073,-1.030,-0.563,0.399,-43.885,250.130,80.611,0.0,59.0
53127,-1.391,-1.763,0.702,-31.893,-93.817,78.542,0.0,58.0
53182,-0.477,-0.452,-0.557,102.542,77.244,-54.092,0.0,61.0
53240,-1.885,-0.160,1.185,-161.237,-133.817,-34.008,0.0,85.0
53295,-0.733,-1.059,-0.257,41.252,-250.137,0.962,0.0,76.0
53348,0.234,1.690,0.177,64.473,233.893,-28.466,0.0,69.0
53402,-1.595,-0.403,0.596,-167.740,101.786,155.374,0.0,80.0
53457,-1.607,-1.892,-0.573,26.931,-167.550,28.557,0.0,101.0
53513,-1.633,0.021,0.582,-81.756,-73.985,-49.893,0.0,89.0
53567,-0.875,-1.559,0.804,-166.099,-250.137,154.405,0.0,81.0
53621,0.679,-0.927,-0.955,134.634,8.084,-140.817,0.0,87.0
53681,-0.908,0.639,0.769,-92.412,160.466,-37.145,0.0,103.0
53735,-1.328,-1.312,1.043,-74.916,-250.137,12.763,0.0,89.0
53789,0.877,-1.090,-0.969,237.328,-127.939,-177.893,0.0,61.0
53844,-0.878,0.024,1.004,11.267,192.214,41.618,0.0,114.0
53900,-0.965,-2.000,1.417,-67.374,-206.397,151.397,0.0,79.0
53960,0.757,-0.873,-0.229,187.435,223.565,-196.733,0.0,0.0
54014,-2.000,0.974,0.990,-101.076,250.130,-101.863,0.0,66.0
54068,-2.000,-0.641,1.242,-100.153,-250.137,9.855,0.0,65.0
54127,0.617,-0.957,-1.426,152.504,-249.847,-116.313,0.0,109.0
54180,-1.857,0.797,1.172,-210.420,151.046,58.618,0.0,54.0
54234,-2.000,-2.000,0.977,-202.466,-189.748,136.214,0.0,69.0
54288,0.570,-1.787,-1.038,161.176,-66.137,-182.405,0.0,72.0
54341,-1.217,0.821,0.478,-92.420,250.130,-111.397,0.0,68.0
54395,-0.760,-0.568,0.974,-241.786,-49.511,32.420,0.0,70.0
54449,0.380,-2.000,-0.575,131.252,-99.924,-8.214,0.0,67.0
54503,0.051,1.109,0.344,131.237,94.527,32.817,0.0,74.0
54556,-1.204,-1.560,0.685,-148.427,14.275,120.702,0.0,64.0
54616,-1.290,-2.000,0.258,-26.710,-222.733,133.916,0.0,117.0
54673,0.442,-0.884,-0.297,216.053,18.901,-113.176,0.0,121.0
54727,-1.173,1.140,-0.132,24.710,250.130,-7.092,0.0,84.0
54789,-1.949,-0.398,0.812,-184.260,27.748,84.023,0.0,187.0
54849,-1.132,-0.728,0.262,-2.656,-250.137,18.221,0.0,192.0
54906,-0.219,1.350,-0.729,108.748,81.160,-33.641,0.0,119.0
54964,-2.000,-0.477,-0.676,-250.137,135.695,173.542,0.0,138.0
55021,-1.888,-1.707,0.238,-250.137,-228.412,65.550,0.0,117.0
55077,-0.032,-1.656,0.574,-1.718,-250.137,10.809,0.0,56.0
55134,0.763,-0.254,-0.470,111.267,-107.992,-111.947,0.0,55.0
55187,0.084,0.282,-0.619,38.534,198.977,-48.695,0.0,52.0
55247,-1.657,-0.306,0.730,-205.817,-51.794,154.168,0.0,119.0
55303,-1.297,-1.887,-0.188,-102.137,-250.137,122.321,0.0,99.0
55351,0.352,-1.127,-0.324,70.756,-69.084,-65.634,51.0,102.0
55406,-0.435,-0.323,-0.627,73.534,250.130,-66.695,0.0,103.0
55462,-2.000,-0.281,0.272,-210.191,250.130,98.771,0.0,103.0
55519,-1.542,-0.354,0.543,-185.649,-186.710,78.672,0.0,109.0
55623,0.291,0.175,-0.895,32.786,-47.038,-41.458,0.0,135.0
55682,-1.936,-0.180,-0.475,-250.137,-50.695,54.588,0.0,149.0
55743,-1.883,-1.575,-0.077,-250.137,-250.137,-69.015,0.0,84.0
55795,-0.063,-1.360,-0.451,51.420,-250.137,-114.122,0.0,57.0
55852,0.196,0.011,-0.512,4.069,72.992,-69.931,0.0,62.0
55903,-0.457,0.009,0.162,-181.374,88.176,122.763,0.0,55.0
55958,-0.729,-1.868,0.530,-35.893,-98.237,85.366,0.0,44.0
56009,-0.276,-0.302,-0.528,207.313,97.664,-18.756,0.0,45.0
56064,-1.445,-0.718,0.635,-176.176,-122.886,64.832,0.0,44.0
56119,-1.143,-2.000,0.120,-45.840,-232.420,58.527,0.0,40.0
56160,0.545,0.281,-0.385,250.130,139.450,-131.229,34.0,38.0
56211,-1.471,1.241,0.703,-52.618,250.130,-41.130,0.0,41.0
56268,-1.335,-0.722,0.806,-213.748,-91.824,66.244,0.0,89.0
56322,-0.297,-2.000,-0.180,84.916,-250.137,-10.947,0.0,74.0
56374,-0.764,0.777,0.402,82.565,207.931,-69.985,0.0,42.0
56428,-1.046,-0.837,0.152,-250.137,59.053,109.458,0.0,37.0
56480,-1.520,-2.000,-0.051,-115.718,-90.458,-34.336,0.0,53.0
56535,0.103,-0.912,-0.872,250.130,-73.214,-70.107,0.0,50.0
56591,-0.609,1.199,0.767,-66.656,15.611,-85.786,0.0,62.0
56643,-0.480,-0.162,0.602,-177.939,-234.794,55.618,0.0,53.0
56697,0.257,-1.878,-0.441,103.710,-249.870,24.901,0.0,40.0
56740,0.160,-0.747,-0.497,228.878,1.756,-68.916,44.0,41.0
56792,-0.603,-0.203,0.842,-23.458,153.450,21.473,0.0,41.0
56846,-0.752,-1.710,1.231,-110.634,-15.183,146.740,0.0,42.0
56898,0.048,-1.103,0.105,227.198,125.878,-132.099,0.0,39.0
56952,-0.991,1.353,-0.157,62.939,250.130,-82.756,0.0,51.0
57008,-1.764,0.194,1.130,-244.489,20.542,0.046,0.0,46.0
57059,-1.542,-2.000,-0.028,6.336,-250.137,-2.206,0.0,41.0
57110,0.383,-0.479,-0.663,250.130,-110.748,-93.244,0.0,39.0
57166,-1.083,-0.308,0.588,-191.710,92.817,9.824,0.0,70.0
57220,-1.041,-2.000,-0.057,-205.878,-28.458,119.290,0.0,60.0
57272,-0.132,-1.265,0.117,137.321,-50.641,2.397,0.0,70.0
57326,0.080,0.808,-0.130,61.458,25.328,-3.511,0.0,77.0
57378,-0.305,0.270,0.229,-138.290,-69.763,26.588,0.0,72.0
57436,-1.008,-1.559,0.535,-102.023,-231.000,6.893,0.0,79.0
57490,-0.192,-1.580,-0.570,236.618,-102.947,14.679,0.0,91.0
57544,-0.896,-0.275,0.551,-77.328,93.939,63.511,0.0,96.0
57600,-1.023,-1.112,1.036,-134.740,3.725,100.557,0.0,107.0
57656,-0.168,-1.051,0.832,157.771,-95.282,-30.321,0.0,112.0
57702,0.539,0.980,-0.197,161.542,104.725,-83.702,43.0,115.0
57758,-1.327,0.908,0.004,-65.160,250.130,-24.656,0.0,121.0
57816,-2.000,-1.425,-0.604,-250.137,-109.321,185.366,0.0,133.0
57876,-1.588,-1.465,-0.094,-245.779,-250.137,-19.145,0.0,144.0
57934,-0.488,-1.434,0.054,-34.099,-242.794,3.740,0.0,154.0
57993,0.478,-0.287,-0.367,81.718,72.908,-55.649,0.0,153.0
58051,-0.369,0.271,-0.253,-51.565,250.130,-25.496,0.0,158.0
58109,-1.838,-0.492,0.557,-209.244,-250.137,58.924,0.0,174.0
58170,-1.031,-1.169,-0.527,-96.336,-250.137,80.718,0.0,183.0
58219,0.677,-1.312,-0.310,133.313,-136.794,-8.786,42.0,162.0
58278,-0.100,-1.097,-0.427,72.015,250.130,22.351,0.0,177.0
58378,-1.914,-0.480,0.703,-181.557,-250.137,76.107,196.0,114.0
58438,0.327,-0.750,-0.228,-13.893,-250.137,14.191,0.0,145.0
58496,1.048,0.144,-0.404,113.206,81.328,-53.893,0.0,134.0
58551,-2.000,0.208,-0.765,-170.916,250.130,66.389,196.0,102.0
58604,-2.000,-2.000,-0.007,-250.137,-250.137,-4.588,162.0,110.0
58657,-1.170,-1.210,-0.735,-167.458,-250.137,-18.603,0.0,61.0
58715,1.301,-0.022,-0.667,65.939,-95.771,-56.160,0.0,77.0
58774,-0.499,1.093,-0.009,-141.038,250.130,30.046,0.0,173.0
58830,-2.000,-1.642,0.744,-206.893,-250.137,61.244,0.0,113.0
58881,0.290,-2.000,-1.089,131.656,-250.137,-81.840,38.0,120.0
58936,1.015,0.041,-0.304,142.511,71.977,-96.969,0.0,115.0
58993,-1.161,-0.143,0.423,-181.626,227.756,135.267,0.0,122.0
59049,-1.885,-1.988,1.012,-105.237,-136.557,2.550,0.0,133.0
59101,0.729,-0.817,-0.612,184.817,-175.618,-131.183,0.0,29.0
59156,-0.375,1.032,0.213,-49.595,250.130,-17.962,0.0,34.0
59217,-1.338,-0.795,0.932,-189.000,7.282,121.450,0.0,0.0
59265,-0.264,-2.000,-0.606,169.786,-61.038,-52.527,0.0,0.0
59319,-1.877,0.051,0.383,-90.107,152.695,41.397,0.0,32.0
59370,-1.885,-2.000,0.193,-247.290,-170.626,185.519,0.0,35.0
59425,-0.850,-1.582,0.183,-26.473,-250.137,39.908,0.0,47.0
59478,1.127,0.190,-0.761,169.435,3.695,-147.779,0.0,51.0
59530,-0.148,0.942,-0.137,-45.901,250.130,-58.992,0.0,52.0
59583,-1.307,-0.682,0.542,-200.229,53.023,54.397,0.0,57.0
59639,-1.206,-1.541,0.755,-38.366,-250.137,103.870,0.0,66.0
59693,0.867,-1.561,-1.030,244.992,-250.137,-91.603,0.0,70.0
59747,0.192,-0.564,-0.816,98.710,250.130,-107.893,0.0,81.0
59805,-1.941,-0.150,0.828,-250.137,250.130,60.328,0.0,86.0
59859,-1.754,-0.626,1.290,-120.130,-250.137,33.756,0.0,90.0
59914,0.559,-0.489,-0.402,204.466,-250.137,-156.985,0.0,76.0
59967,-0.022,0.478,-0.259,29.359,250.130,-53.061,0.0,71.0
60024,-2.000,-1.465,-0.452,-249.611,250.130,148.260,0.0,125.0
60079,-2.000,-1.460,1.330,-177.763,-204.435,9.298,0.0,79.0
60137,-0.574,-1.808,-0.048,64.725,-250.137,-49.435,199.0,160.0
60198,0.954,0.528,-0.544,76.313,-6.382,-230.000,0.0,0.0
60257,-0.675,-0.063,0.070,-147.802,250.130,-114.992,0.0,91.0
60312,-1.516,-0.767,0.672,-119.595,-208.206,98.924,0.0,105.0
60365,-1.079,-2.000,0.275,8.122,-250.137,218.924,0.0,51.0
60408,1.318,-1.177,-0.837,152.374,-120.962,-143.756,45.0,53.0
60453,0.835,-0.886,-0.644,125.672,250.130,-184.634,45.0,61.0
60506,-1.705,0.540,-0.078,-13.641,250.130,18.466,0.0,53.0
60558,-2.000,-0.751,1.679,-124.924,-32.115,106.656,0.0,39.0
60613,-1.394,-0.730,0.323,58.687,-250.137,-6.534,0.0,40.0
60658,0.687,0.652,-0.735,106.168,-62.427,-129.878,40.0,76.0
60712,-1.350,-1.317,-0.111,-176.702,243.863,54.122,0.0,32.0
60765,-1.770,-1.999,0.041,-211.160,221.206,56.031,0.0,38.0
60821,-0.817,-1.151,0.809,-57.282,-46.962,45.763,0.0,54.0
60874,0.396,-0.637,0.098,136.206,-139.786,-82.702,0.0,59.0
60931,0.645,0.253,-0.714,114.214,120.641,-202.618,0.0,125.0
60988,-1.545,0.042,0.743,-83.305,45.618,-96.916,0.0,135.0
61048,-1.593,-1.410,-0.530,-38.473,-250.137,204.206,200.0,179.0
61146,1.867,-1.137,-1.216,95.992,87.779,-2.359,0.0,83.0
61210,-0.270,-0.480,-1.001,111.427,250.130,-65.733,0.0,187.0
61271,-2.000,-0.026,1.831,-195.244,82.832,24.519,0.0,192.0
61326,-1.601,-0.532,-0.465,-116.534,-250.137,98.389,0.0,93.0
61373,0.266,-1.168,-0.560,2.450,-250.137,55.580,30.0,116.0
61425,-0.739,-0.613,0.101,-83.382,154.122,117.046,0.0,51.0
61480,-1.719,-1.817,0.337,-199.473,82.229,114.321,0.0,32.0
61533,-0.555,-1.141,0.169,-72.496,-128.496,-17.954,0.0,42.0
61592,0.181,-0.217,-0.452,61.664,54.977,-85.947,0.0,94.0
61643,-0.887,0.631,0.572,-119.573,-98.168,9.954,0.0,26.0
61699,-1.208,-1.008,0.144,-98.641,-250.137,36.725,0.0,43.0
61757,0.039,-1.726,-0.641,70.275,-250.137,-99.351,0.0,80.0
61811,-0.051,-0.889,0.019,63.305,169.550,48.122,0.0,81.0
61867,-1.334,-1.040,0.235,-86.840,148.817,200.450,0.0,86.0
61921,-1.239,-0.880,0.735,-75.733,-85.191,105.229,0.0,88.0
61976,-0.164,-0.550,0.592,16.817,-250.137,10.924,0.0,89.0
62021,0.949,0.397,-0.088,52.168,3.779,-99.916,33.0,88.0
62076,-0.310,-0.119,-0.343,-10.374,250.130,-63.435,0.0,88.0
62135,-2.000,-0.703,0.342,-202.053,31.046,162.786,0.0,92.0
62191,-1.644,-1.396,-0.320,-226.763,-250.137,128.863,0.0,101.0
62247,-0.164,-1.656,-0.349,-66.969,-243.053,-8.229,0.0,111.0
62304,0.250,-0.814,-0.471,86.626,182.229,-180.527,0.0,103.0
62360,-1.831,0.086,0.464,-119.786,250.130,-74.962,0.0,115.0
62417,-1.845,-1.295,0.397,-142.473,-250.137,131.534,0.0,125.0
62471,-0.206,-1.377,-0.140,81.847,-250.137,24.084,0.0,55.0
62527,1.272,-0.145,-0.903,176.359,74.023,-86.931,0.0,59.0
62585,-1.824,-0.383,-0.036,-89.336,250.130,35.000,0.0,132.0
62646,-2.000,-1.605,0.946,-139.580,-218.969,91.603,0.0,134.0
62699,-0.536,-1.132,0.177,49.893,-250.137,5.992,0.0,44.0
62749,1.516,0.543,-0.796,84.985,73.672,-108.046,38.0,54.0
62801,-0.372,0.593,-0.702,-28.695,250.130,-44.718,0.0,73.0
62860,-2.000,-0.472,0.585,-219.130,200.527,94.046,0.0,92.0
62912,-1.910,-1.094,-0.061,-196.458,-250.137,126.176,0.0,57.0
62967,-0.337,-1.379,0.142,-101.473,-250.137,102.137,0.0,61.0
63020,0.619,-0.723,-0.387,79.725,119.656,-107.267,0.0,57.0
63075,-0.893,-0.395,-0.351,33.832,250.130,-152.886,0.0,66.0
63131,-1.407,-0.462,0.576,-150.649,-48.649,-108.641,0.0,66.0
63183,-1.028,-0.535,0.482,-191.832,-250.137,-94.328,0.0,58.0
63239,1.959,-2.000,-1.659,111.534,-250.137,-59.779,0.0,45.0
63292,0.270,-0.701,0.033,148.176,250.130,25.321,0.0,69.0
63348,-1.934,-0.863,-0.284,32.099,250.130,69.649,0.0,79.0
63403,-2.000,-0.764,0.665,-90.664,-250.137,1.756,0.0,85.0
63455,-0.653,-0.376,-0.163,-50.824,-250.137,-15.176,0.0,51.0
63510,1.802,0.096,-0.708,96.733,60.160,-54.771,0.0,50.0
63565,-0.836,0.303,-1.057,74.198,250.130,21.725,0.0,60.0
63623,-2.000,-0.917,1.527,-152.267,115.763,120.542,0.0,96.0
63676,-1.632,-1.400,-0.849,-158.702,-250.137,65.412,0.0,63.0
63731,0.454,-1.467,-0.477,-45.756,-250.137,34.176,0.0,60.0
63784,0.739,-0.431,-0.607,92.756,250.130,-112.153,0.0,59.0
63837,-0.920,-0.192,-0.369,21.252,250.130,-140.267,160.0,106.0
63933,-1.636,-0.930,-0.367,-112.595,-250.137,43.893,0.0,76.0
63987,0.717,-2.000,-0.702,86.092,-250.137,53.382,0.0,79.0
64044,1.130,-0.895,0.224,170.863,217.908,-1.382,0.0,89.0
64098,-0.613,-0.201,-0.284,182.313,250.130,-39.176,0.0,90.0
64152,-2.000,0.768,1.243,30.260,235.718,-83.527,0.0,89.0
64206,-1.908,0.009,0.424,-128.275,-250.137,-74.450,0.0,94.0
64251,0.583,-0.534,-1.066,-37.031,-250.137,-89.725,46.0,72.0
64295,1.410,0.045,-0.240,114.069,167.794,-19.626,44.0,71.0
64350,-1.622,-1.033,-0.753,54.840,250.130,73.244,0.0,94.0
64403,-2.000,-1.225,0.889,-228.847,177.511,39.130,154.0,114.0
64458,-1.347,-1.212,-0.208,-214.771,-250.137,11.771,0.0,113.0
64517,0.467,-0.822,0.205,-86.252,-250.137,39.771,0.0,106.0
64572,1.369,-0.170,-0.251,75.603,108.550,-22.786,0.0,105.0
64628,0.166,-0.211,-0.363,132.420,250.130,-18.267,0.0,126.0
64683,-2.000,-0.508,0.473,97.023,230.244,75.695,0.0,91.0
64739,-2.000,-1.586,-0.553,-150.405,-250.137,40.985,0.0,119.0
64795,-0.755,-1.556,-0.352,-86.267,-250.137,47.939,0.0,125.0
64855,0.737,-0.717,-0.021,92.855,-57.702,6.405,0.0,167.0
64911,0.200,0.120,-0.113,86.130,250.130,-46.962,0.0,121.0
64968,-1.568,0.658,0.057,-36.679,250.130,-35.092,183.0,120.0
65022,-2.000,-0.245,-0.119,-250.137,-250.137,2.542,175.0,101.0
65076,-1.249,-0.727,-0.331,-229.878,-250.137,55.809,170.0,97.0
65128,-0.443,-1.101,-0.378,44.489,-138.618,43.351,166.0,98.0
65182,-1.294,-0.864,-0.648,-1.855,210.779,-7.992,162.0,117.0
65238,-2.000,-0.736,0.004,-209.160,-54.527,62.634,197.0,118.0
65291,-0.849,-0.624,-0.222,-175.076,-250.137,53.672,147.0,104.0
65343,0.173,-0.477,0.187,-57.931,-250.137,22.603,149.0,108.0
65402,0.773,-0.207,-0.380,30.046,10.008,-117.260,182.0,135.0
65458,-1.138,-0.907,-0.302,-2.580,250.130,-63.214,0.0,117.0
65511,-2.000,-1.610,0.257,-179.824,-11.687,185.000,154.0,99.0
65563,-1.368,-1.054,0.058,-139.069,-250.137,136.672,147.0,110.0
65618,-0.542,-0.879,0.659,-13.924,-250.137,91.611,170.0,134.0
65676,0.875,-0.226,-0.362,112.466,-97.855,-125.420,0.0,135.0
65730,-1.034,0.346,-0.104,-83.924,250.130,-78.664,165.0,127.0
65784,-1.839,-0.429,0.038,-246.275,-1.947,104.931,160.0,112.0
65839,-0.845,-0.185,0.628,-153.168,-245.924,90.878,157.0,128.0
65898,0.310,-0.315,-0.708,58.962,-115.573,-8.344,0.0,110.0
65952,-2.000,-0.022,0.195,-204.229,107.489,61.160,183.0,104.0
66007,-2.000,-2.000,0.775,-228.817,-138.473,46.275,0.0,92.0
66061,0.427,-1.752,-0.244,111.550,-250.137,-102.145,0.0,89.0
66116,0.376,0.593,-0.614,16.000,225.237,-180.817,0.0,97.0
66171,-1.871,-1.091,0.500,-250.137,40.374,73.145,0.0,102.0
66226,-1.319,-1.323,1.118,-23.198,-250.137,138.076,0.0,76.0
66278,0.867,-0.641,-0.905,250.130,-167.954,-140.137,0.0,52.0
66335,-0.871,-0.023,0.431,-81.901,250.130,13.389,0.0,82.0
66391,-1.469,-1.714,0.620,-230.069,113.092,147.954,0.0,101.0
66444,-1.233,-1.565,0.750,30.863,-220.863,-51.756,0.0,74.0
66504,0.425,0.640,-0.478,183.710,-38.267,-164.603,0.0,182.0
66556,-0.639,0.935,0.625,-208.725,-43.481,50.420,0.0,53.0
66609,-1.446,-1.386,0.987,-153.145,-250.137,53.969,0.0,49.0
66705,-1.220,0.095,0.370,-48.366,250.130,-74.015,0.0,56.0
66758,-1.100,-1.661,0.483,-242.496,-39.038,89.290,0.0,64.0
66814,-0.833,-1.711,0.376,8.634,-176.847,14.489,0.0,70.0
66869,0.672,0.406,-0.358,78.985,-33.061,-49.580,0.0,78.0
66923,0.019,0.549,0.296,-93.634,36.634,67.290,0.0,82.0
66977,-0.462,-1.388,0.976,-56.069,-83.397,57.542,0.0,85.0
67033,-0.187,-1.990,-0.176,198.336,-26.397,-93.771,0.0,99.0
67088,-0.964,-0.433,0.917,-74.427,96.634,59.611,0.0,111.0
67145,-0.874,-1.534,1.315,-140.725,-238.977,201.160,0.0,122.0
67200,0.987,-0.620,0.162,131.366,-52.061,-174.092,0.0,92.0
67256,0.373,0.158,-1.001,81.344,250.130,-139.473,0.0,102.0
67315,-2.000,0.124,1.734,-221.504,225.863,52.756,0.0,117.0
67369,-2.000,-1.725,0.690,-98.305,-250.137,93.588,0.0,87.0
67417,0.659,-2.000,-1.289,101.756,-250.137,-167.115,45.0,107.0
67472,0.782,-0.786,-0.809,51.817,250.130,-214.244,0.0,93.0
67526,-1.621,0.115,0.385,-215.557,250.130,-30.198,0.0,94.0
67582,-2.000,-1.512,0.778,-118.916,-250.137,-32.382,0.0,101.0
67635,0.264,-1.061,-0.710,111.405,-250.137,-84.000,0.0,56.0
67688,1.266,-0.003,-0.794,71.931,122.099,-93.725,0.0,58.0
67743,-0.485,-1.570,0.126,-18.534,250.130,53.031,0.0,47.0
67796,-1.978,-2.000,0.747,-26.626,4.015,228.718,0.0,54.0
67849,-0.635,-1.748,0.421,49.198,-206.191,120.137,0.0,53.0
67905,0.596,-0.585,0.337,91.427,-78.183,-25.008,0.0,50.0
67957,0.648,0.123,-0.262,91.435,250.130,-81.710,0.0,59.0
68018,-0.851,0.365,-0.618,74.840,250.130,-68.939,0.0,118.0
68069,-2.000,-0.113,0.961,-139.756,-183.779,-18.244,0.0,37.0
68125,-1.636,-0.851,-1.564,-174.649,-250.137,136.389,0.0,49.0
68187,-0.391,-1.390,-0.174,-131.679,-250.137,121.031,0.0,191.0
68249,0.239,-1.871,-0.952,72.550,215.321,-136.397,0.0,160.0
68307,-1.808,-0.242,0.184,-52.710,250.130,-68.221,0.0,158.0
68367,-1.870,-0.545,0.277,-199.962,-250.137,-32.183,0.0,169.0
68422,-0.609,-0.618,-0.643,-98.412,-250.137,84.863,0.0,84.0
68477,1.416,-0.247,-0.965,78.229,-185.122,-35.588,0.0,105.0
68533,-0.798,-2.000,-0.382,-8.779,250.130,-50.710,0.0,80.0
68588,-2.000,-1.630,0.660,-124.863,65.618,250.130,0.0,108.0
68641,-1.135,-1.264,0.748,-24.756,-197.198,147.008,0.0,50.0
68697,0.507,-0.739,-0.103,111.962,-171.137,-16.847,0.0,46.0
68753,0.471,0.458,-0.522,98.863,216.618,-24.473,0.0,38.0
68805,-1.216,0.600,0.210,-125.702,202.718,92.282,0.0,46.0
68859,-1.823,-0.550,0.331,-181.832,-91.198,33.916,0.0,27.0
68911,-1.924,-1.742,-0.229,-93.237,-185.122,45.542,0.0,16.0
68965,-1.296,-0.431,0.586,-23.420,-82.260,177.924,0.0,21.0
69016,-0.563,-0.191,0.315,-51.229,-90.389,123.290,0.0,21.0
69071,0.355,-0.108,-0.163,-62.649,-26.099,-78.145,0.0,23.0
69126,-0.340,-0.407,-0.019,-24.916,99.550,-225.771,0.0,79.0
69183,-2.000,-0.761,0.545,-98.748,-105.969,-36.053,0.0,79.0
69238,-1.255,-1.157,-0.153,-76.634,-250.137,211.023,0.0,82.0
69293,0.324,-1.028,0.028,15.244,-250.137,14.985,0.0,81.0
69347,0.303,-0.508,-0.271,57.244,143.824,-187.328,0.0,83.0
69402,-1.960,-0.224,0.890,-156.176,250.130,-82.786,0.0,83.0
69491,-0.653,-0.950,0.103,-33.779,-250.137,54.718,38.0,98.0
69537,1.336,0.363,-0.747,47.656,-31.550,-108.863,36.0,88.0
69593,-0.840,0.590,0.269,-66.214,250.130,12.802,0.0,92.0
69651,-2.000,-2.000,0.205,-176.870,-128.802,209.802,0.0,93.0
69704,-1.147,-1.685,0.024,-97.679,-250.137,94.282,0.0,55.0
69760,0.651,-1.187,-0.629,-26.580,-143.611,-3.779,0.0,35.0
69821,-0.172,-0.406,-0.593,-50.710,250.130,-119.985,0.0,84.0
69875,-2.000,-0.885,1.098,-185.718,104.603,-92.855,0.0,92.0
69926,-1.496,-0.715,0.215,-90.794,-250.137,15.779,0.0,51.0
69981,1.763,-1.327,-1.910,160.947,-250.137,-70.496,0.0,27.0
70031,0.326,-0.802,-0.388,52.382,250.130,-19.542,0.0,27.0
70085,-2.000,-1.562,1.203,-85.344,150.145,155.389,0.0,35.0
70129,-1.313,-1.813,0.532,31.916,-250.137,94.489,39.0,24.0
70170,1.408,-0.841,-0.548,68.931,-208.779,-72.511,35.0,23.0
70211,0.725,0.165,-0.513,38.389,250.130,-67.809,38.0,22.0
70263,-1.088,0.773,0.346,-123.229,250.130,-7.771,0.0,57.0
70317,-2.000,-1.114,1.266,-177.191,-222.458,-20.573,0.0,22.0
70359,0.022,-1.243,-0.374,54.145,-250.137,-55.550,39.0,27.0
70409,1.012,-0.083,-0.620,106.275,108.290,-55.305,0.0,25.0
70463,-1.431,-0.673,0.530,-144.099,250.130,97.221,0.0,33.0
70517,-1.689,-2.000,0.835,-72.725,-133.038,39.519,0.0,44.0
70572,0.449,-1.216,-0.477,140.863,-156.137,-108.282,0.0,30.0
70622,-0.351,0.558,0.048,-39.435,202.573,-80.687,0.0,31.0
70676,-0.948,-0.367,0.789,-163.260,-72.611,64.244,0.0,32.0
70727,-0.660,-1.998,-0.161,79.450,-250.137,-4.794,0.0,34.0
70781,1.379,-0.600,-0.611,232.473,-25.153,-97.809,0.0,35.0
70833,-0.554,-0.796,0.397,-51.931,250.130,56.702,0.0,38.0
70888,-0.834,-1.812,0.727,-39.443,12.115,71.023,0.0,38.0
70939,0.174,-0.659,-0.196,129.137,107.832,-117.076,0.0,37.0
70992,-1.476,0.835,0.749,-92.046,183.962,-27.679,0.0,38.0
71048,-1.239,-0.604,0.830,-92.359,-250.137,49.916,0.0,36.0
71099,0.603,-0.565,-0.592,129.443,-131.573,-96.947,0.0,36.0
71154,-1.118,0.001,0.078,-61.328,238.847,79.634,0.0,42.0
71205,-1.899,-2.000,0.610,-148.031,-15.267,115.603,0.0,42.0
71261,-0.592,-1.961,0.416,21.840,-198.817,-4.168,0.0,46.0
71313,0.666,-0.286,-0.342,61.802,143.634,-66.702,0.0,48.0
71372,-1.122,0.425,0.849,-172.321,130.550,-53.725,0.0,62.0
71437,-1.288,-0.864,0.317,-51.580,-250.137,-63.031,0.0,68.0
71492,1.543,-0.389,-1.209,233.267,-101.824,-167.237,0.0,69.0
71546,-0.346,-0.916,0.095,21.534,250.130,120.214,0.0,71.0
71603,-1.599,-2.000,0.387,-51.527,138.756,189.786,0.0,76.0
71658,-0.440,-1.149,0.385,124.725,-22.443,0.366,0.0,76.0
71713,-0.385,0.041,-0.103,95.092,146.588,-102.626,0.0,76.0
71770,-1.437,0.444,0.612,-111.076,-40.244,-50.473,0.0,81.0
71826,-1.130,-0.524,0.402,-81.168,-250.137,-42.947,0.0,82.0
71881,0.948,-0.336,-0.715,137.886,-80.740,-80.847,0.0,84.0
71942,-1.652,-0.539,-0.343,-72.221,250.130,52.802,0.0,104.0
72001,-2.000,-2.000,0.033,-194.595,-148.298,66.580,0.0,128.0
72059,-0.705,-1.471,-0.319,-81.511,-250.137,11.389,0.0,120.0
72117,1.175,0.298,-0.186,-65.725,-128.580,-22.878,0.0,120.0
72217,-0.456,-0.067,0.257,15.954,101.832,24.374,165.0,131.0
72276,-1.163,-0.683,0.360,-30.237,-177.702,125.634,0.0,133.0
72339,-1.281,-2.000,-0.094,-67.840,-250.137,130.748,0.0,0.0
72388,1.026,-1.842,-0.289,156.160,-119.290,98.672,0.0,0.0
72456,0.398,-0.612,-0.310,178.053,250.130,-53.298,0.0,168.0
72516,-2.000,0.710,0.982,-121.145,216.527,11.374,0.0,158.0
72580,-1.806,-0.870,0.346,-125.267,-250.137,37.061,0.0,0.0
72629,1.302,-0.043,-1.022,105.229,-99.313,-109.046,0.0,0.0
72678,-0.755,1.110,-0.409,-5.748,250.130,31.389,0.0,0.0
72726,-2.000,-1.798,0.565,-250.137,-18.069,150.687,0.0,0.0
72773,-2.000,-1.916,-0.131,-128.008,-250.137,38.725,0.0,166.0
72836,0.126,-1.818,-1.038,3.397,-250.137,-38.718,0.0,198.0
72898,-0.095,0.340,-0.156,-90.489,196.168,60.160,0.0,187.0
72957,-1.217,-1.670,0.670,-155.504,-223.305,73.023,0.0,90.0
73015,0.841,-0.680,-0.483,118.450,-159.412,-103.588,0.0,93.0
73072,-0.473,-0.048,0.319,-47.290,92.183,42.466,0.0,94.0
73129,-1.182,-2.000,0.604,-63.992,-180.282,63.344,0.0,104.0
73187,0.669,-1.320,-0.366,175.252,-26.282,-89.183,0.0,109.0
73245,-1.255,0.759,0.379,-89.550,250.130,52.305,0.0,112.0
73305,-2.000,-1.518,0.623,-129.916,-164.511,-3.664,0.0,147.0
73359,0.493,-0.594,-0.244,65.756,-210.511,-72.260,0.0,34.0
73415,-0.214,0.470,-0.100,-19.015,239.504,5.122,0.0,46.0
73469,-1.867,-0.934,0.757,-156.305,12.611,120.763,0.0,45.0
73523,-1.408,-2.000,0.210,-47.191,-250.137,65.550,0.0,36.0
73577,0.304,-1.886,-0.277,21.855,-203.260,38.313,0.0,37.0
73630,0.420,-0.623,-0.591,-10.282,158.603,15.031,0.0,42.0
73684,-1.203,-0.247,1.013,-169.733,119.702,-96.305,0.0,51.0
73741,-1.466,-0.758,0.022,-60.130,-250.137,-141.206,0.0,83.0
73797,1.480,-0.005,-1.137,129.893,-250.137,-82.061,0.0,74.0
73852,0.861,-0.080,-0.519,90.298,226.511,100.618,0.0,74.0
73912,-0.659,-1.767,0.243,-41.542,250.130,177.969,0.0,75.0
73968,-1.185,-1.911,0.389,54.542,139.878,127.443,0.0,89.0
74025,-0.552,-0.997,0.444,81.099,15.855,26.595,0.0,86.0
74082,-0.205,-0.226,-0.047,92.099,146.779,-72.496,0.0,92.0
74139,-0.829,0.290,0.338,-16.420,165.969,-95.565,0.0,99.0
74196,-1.687,-0.201,0.607,-88.595,-250.137,-34.802,0.0,103.0
74252,-0.350,-0.479,-0.198,-23.718,-250.137,30.878,0.0,60.0
74306,-0.033,-1.486,-0.460,27.847,97.771,37.618,0.0,39.0
74368,-1.869,-1.766,0.846,-110.191,67.260,5.794,0.0,123.0
74424,-0.904,-1.316,0.155,-85.901,-250.137,16.435,0.0,85.0
74487,1.097,-0.796,-0.607,25.885,-149.695,-25.115,0.0,0.0
74545,-0.119,0.113,-0.029,-9.916,250.130,-38.931,0.0,99.0
74602,-1.694,-0.644,1.085,-76.511,-217.130,88.473,0.0,110.0
74658,-0.032,-1.822,-0.852,39.954,-250.137,72.802,0.0,63.0
74713,0.982,-1.361,-0.785,107.481,178.221,-93.916,0.0,58.0
74768,-1.203,-0.282,0.535,-83.672,250.130,69.527,0.0,54.0
74823,-1.954,-1.561,1.519,-112.275,-206.450,-21.901,0.0,56.0
74882,0.885,-1.110,-0.645,168.802,-222.977,-86.649,0.0,62.0
74937,0.177,0.692,-0.427,44.748,250.130,-75.557,0.0,76.0
74992,-2.000,-0.519,1.175,-138.985,14.534,59.664,0.0,63.0
