Timestamp(ms),AccelX(g),AccelY(g),AccelZ(g),GyroX(deg/s),GyroY(deg/s),GyroZ(deg/s),DistanceLeft(cm),DistanceRight(cm)
36721,-1.147,0.043,-0.490,19.389,-141.130,26.481,65.0,14.0
36768,-1.313,0.152,0.057,40.771,-250.137,31.252,64.0,102.0
36813,-0.854,0.287,-0.245,42.939,-250.137,14.389,51.0,74.0
36856,-0.244,0.364,-0.615,22.924,-250.137,5.763,36.0,69.0
36899,0.504,0.427,-0.744,-22.344,-250.137,26.229,36.0,69.0
36941,0.149,0.543,-1.354,-70.618,250.130,108.580,34.0,46.0
36987,-2.000,0.149,-2.000,-149.534,250.130,150.672,52.0,96.0
37039,-2.000,-0.781,-0.630,-38.099,250.130,64.221,85.0,97.0
37087,-2.000,-0.116,0.091,-51.076,-250.137,-7.176,86.0,101.0
37136,-1.054,0.063,-0.292,-78.611,-250.137,-65.580,138.0,80.0
37182,0.744,-0.530,-0.617,-62.656,-250.137,-70.695,36.0,110.0
37233,1.925,-0.016,-1.503,0.740,250.130,-16.382,135.0,108.0
37282,-0.688,0.298,-1.443,-45.977,250.130,121.137,117.0,76.0
37329,-2.000,-0.368,0.880,5.397,153.954,114.290,72.0,100.0
37378,-2.000,-0.470,-1.292,65.542,-250.137,23.802,89.0,98.0
37437,-0.744,0.332,-0.914,54.214,-250.137,-28.229,121.0,75.0
37481,0.441,0.296,-0.522,-1.863,140.130,-48.260,38.0,87.0
37531,-0.180,0.379,-1.040,22.122,250.130,-41.977,117.0,104.0
37583,-2.000,0.287,0.863,93.802,250.130,2.198,67.0,0.0
37625,-1.396,0.530,0.109,-17.290,-250.137,-58.000,118.0,0.0
37671,0.243,0.672,-1.447,-73.855,-250.137,-49.366,50.0,100.0
37722,0.551,1.504,-2.000,-147.450,250.130,75.145,122.0,97.0
37769,-2.000,-0.516,-2.000,-186.977,250.130,67.092,71.0,99.0
37822,-2.000,-0.210,-0.201,-118.252,-235.275,-60.603,76.0,0.0
37867,-1.139,0.185,-1.207,-138.695,-250.137,-83.435,117.0,0.0
37917,0.241,-0.072,-0.856,-161.832,-239.496,-69.359,112.0,109.0
37965,0.976,-0.414,-0.906,-136.168,250.130,-61.618,109.0,82.0
38016,-0.204,-0.393,-0.109,-46.237,250.130,-21.847,110.0,113.0
38071,-1.365,-0.697,0.554,108.053,40.366,17.595,110.0,0.0
38113,-2.000,-0.128,-1.020,67.160,-250.137,-114.305,108.0,0.0
38159,-0.899,-0.271,-2.000,82.122,-250.137,-26.099,50.0,101.0
38208,-0.320,0.594,-1.728,9.244,250.130,10.679,104.0,102.0
38265,-1.804,0.390,-1.579,-57.664,250.130,93.870,103.0,0.0
38312,-2.000,0.141,0.740,53.626,250.130,44.947,0.0,0.0
38359,-2.000,0.046,0.689,60.405,-250.137,-16.908,0.0,0.0
38400,-1.716,0.579,-1.733,20.244,-250.137,-63.580,98.0,0.0
38446,0.652,0.546,-2.000,-40.397,-250.137,-58.260,47.0,107.0
38492,0.528,1.131,-2.000,-175.031,250.130,175.992,48.0,103.0
38547,-2.000,-0.750,-2.000,-156.481,250.130,56.916,112.0,0.0
38589,-2.000,0.421,0.325,-77.206,-250.137,-122.794,111.0,0.0
38641,-1.330,0.435,-1.535,-121.733,-250.137,-158.237,99.0,102.0
38689,1.082,-0.170,-1.979,-140.359,-151.176,-132.443,94.0,82.0
38738,0.348,-0.106,-0.983,-141.504,250.130,-16.130,96.0,108.0
38789,-1.651,-0.530,1.134,-42.763,153.489,13.237,101.0,113.0
38834,-1.443,0.075,0.218,-65.496,-250.137,-62.107,102.0,26.0
38882,-0.525,-0.604,-1.979,-68.878,-250.137,-97.466,100.0,79.0
38931,-0.479,0.572,-1.186,-74.168,250.130,82.916,104.0,99.0
38986,-2.000,-0.806,-0.298,-55.015,250.130,65.725,108.0,0.0
39027,-1.761,0.145,-0.374,-66.626,-250.137,-11.435,104.0,0.0
39080,0.182,0.150,-0.830,-39.015,-190.137,-56.664,99.0,110.0
39170,-1.318,0.319,-0.430,26.740,250.130,-5.710,147.0,8.0
39228,-2.000,0.229,0.953,-16.718,-220.519,-63.672,158.0,0.0
39269,-1.516,1.153,-2.000,-202.038,-250.137,-1.450,100.0,0.0
39320,0.483,0.166,-2.000,-234.328,-247.733,40.687,122.0,102.0
39369,0.012,-0.178,-2.000,-169.305,250.130,17.313,108.0,98.0
39416,-2.000,-1.051,-1.075,77.053,250.130,-19.008,57.0,107.0
39468,-2.000,0.356,0.158,19.985,-250.137,-131.092,142.0,101.0
39521,-0.325,0.441,-1.693,-82.634,-250.137,-149.328,113.0,100.0
39571,1.584,0.027,-1.591,-69.931,149.489,-79.252,114.0,101.0
39617,-1.054,-0.113,-0.712,-113.626,250.130,76.626,120.0,13.0
39663,-1.616,-0.309,-0.621,-123.687,-58.076,9.267,150.0,12.0
39715,-0.769,0.269,-1.503,-150.580,-67.557,111.053,149.0,96.0
39772,-1.460,-0.641,-0.902,-123.740,111.771,122.229,126.0,0.0
39815,-1.316,0.036,0.099,-53.420,-110.718,-31.718,122.0,0.0
39870,-0.081,-0.011,-0.662,23.244,-71.168,-131.115,117.0,0.0
39917,-0.130,0.472,-0.593,64.580,250.130,-70.542,147.0,0.0
39977,-1.729,0.279,-0.149,55.458,223.313,35.313,0.0,0.0
40022,-1.644,0.583,-0.505,-71.221,-250.137,1.008,149.0,0.0
40072,-0.646,0.473,-1.200,-114.206,-250.137,32.794,146.0,72.0
40118,0.834,-0.120,-2.000,-53.878,134.656,-48.870,47.0,95.0
40170,-1.604,0.701,-2.000,-59.069,250.130,93.916,151.0,96.0
40230,-2.000,-0.174,0.999,-5.802,-21.962,-50.008,0.0,0.0
40274,-0.830,0.398,-1.168,-38.382,-250.137,-144.427,144.0,0.0
40325,1.872,-0.154,-2.000,-8.740,-161.473,-201.336,118.0,101.0
40380,-0.066,0.205,-0.810,-42.962,250.130,27.908,147.0,100.0
40433,-2.000,-0.553,0.426,-71.420,-52.756,45.718,162.0,99.0
40483,-2.000,-0.238,-1.008,-30.000,-250.137,107.420,125.0,98.0
40529,-1.332,-0.546,-0.809,-26.687,-250.137,95.710,44.0,91.0
40574,0.284,0.046,-0.625,40.084,-37.237,13.107,41.0,91.0
40624,0.136,0.271,-1.046,86.718,250.130,-37.458,110.0,93.0
40684,-1.315,0.746,-1.083,119.473,250.130,19.038,0.0,0.0
40731,-2.000,0.180,1.031,31.947,-155.405,14.954,0.0,0.0
40793,-0.640,0.558,-0.609,-51.954,-250.137,-82.824,0.0,89.0
40844,1.741,0.609,-2.000,-95.924,-10.466,-132.038,146.0,87.0
40894,-1.052,-0.048,-2.000,-22.420,250.130,-18.992,0.0,12.0
40947,-2.000,-0.139,-1.850,-50.550,239.916,11.176,0.0,11.0
40998,-1.729,-0.194,-1.284,-107.298,-250.137,-36.779,36.0,0.0
41043,-0.432,-0.120,-1.071,-68.420,-250.137,-41.031,146.0,0.0
41094,1.343,-0.196,-0.828,-36.817,-67.733,-81.573,141.0,75.0
41146,0.760,-0.324,-0.845,12.427,250.130,-42.321,143.0,102.0
41189,-0.690,-0.188,-1.652,95.145,250.130,107.511,38.0,10.0
41230,-2.000,0.518,0.912,-36.504,-135.267,53.221,38.0,7.0
41277,-2.000,-0.312,-1.351,-78.397,-250.137,51.534,65.0,97.0
41329,-1.189,-0.499,-2.000,-12.191,-250.137,11.130,145.0,97.0
41380,0.988,0.041,-1.856,117.031,205.359,-6.863,144.0,98.0
41427,-1.136,0.633,-1.861,101.718,250.130,83.916,149.0,15.0
41480,-2.000,0.570,0.448,137.672,250.130,108.641,47.0,0.0
41527,-2.000,-0.094,0.255,70.168,-250.137,-12.763,0.0,0.0
41569,-0.818,0.658,-1.530,-14.015,-250.137,-83.878,0.0,99.0
41623,1.238,0.685,-2.000,-98.443,-151.427,-81.802,146.0,96.0
41728,-2.000,-0.565,0.121,-91.229,146.985,37.214,0.0,0.0
41772,-2.000,0.144,-1.645,-125.191,-250.137,-34.122,146.0,0.0
41824,0.114,-0.305,-1.959,-92.794,-250.137,-32.076,139.0,103.0
41876,1.000,-0.072,-1.270,-86.985,250.130,-19.779,137.0,105.0
41933,-0.647,-0.417,-0.467,-62.847,250.130,-25.473,141.0,0.0
41980,-1.491,-0.514,0.920,91.359,57.756,27.351,0.0,0.0
42028,-1.694,-0.329,-0.846,41.107,-250.137,-67.588,0.0,0.0
42075,-1.351,-0.293,-2.000,45.153,-250.137,-24.450,144.0,0.0
42127,0.311,0.146,-1.971,9.397,97.664,8.000,143.0,102.0
42174,-1.251,0.329,-1.575,-8.435,250.130,55.008,146.0,9.0
42234,-1.806,0.410,-0.320,66.725,250.130,72.794,0.0,0.0
42279,-2.000,0.072,0.156,52.473,-250.137,-45.649,150.0,0.0
42331,-1.129,0.719,-1.707,-5.000,-250.137,-53.863,143.0,100.0
42383,1.644,0.696,-2.000,-95.359,14.870,8.527,143.0,100.0
42436,-1.443,0.094,-2.000,-224.214,250.130,119.313,148.0,102.0
42483,-2.000,-0.934,-0.404,-94.939,60.420,-63.947,153.0,9.0
42539,-2.000,0.515,-1.115,-140.344,-250.137,-182.733,146.0,98.0
42586,-0.224,-0.331,-2.000,-119.145,-250.137,-165.336,43.0,102.0
42628,1.536,-0.019,-1.076,-125.374,100.992,-94.412,35.0,42.0
42680,-0.068,-0.326,-1.705,-124.557,250.130,-10.473,141.0,101.0
42729,-1.385,-0.200,-0.932,-78.328,250.130,41.145,81.0,102.0
42777,-2.000,-0.583,0.958,-24.985,-85.206,-44.954,62.0,116.0
42829,-1.414,0.056,-2.000,-96.947,-250.137,-99.733,150.0,98.0
42882,-0.110,0.200,-2.000,-171.840,-166.809,64.481,146.0,99.0
42943,-0.799,-0.517,-1.357,-134.557,250.130,34.191,146.0,0.0
42991,-1.757,-0.348,0.452,34.145,148.702,1.328,0.0,0.0
43040,-1.292,0.050,0.345,53.481,-250.137,-94.573,0.0,8.0
43092,-0.080,0.359,-0.956,47.840,-250.137,-145.771,143.0,104.0
43140,0.755,0.687,-1.562,-26.046,158.153,-76.557,145.0,11.0
43190,-0.195,0.348,-2.000,-96.267,250.130,6.107,0.0,6.0
43251,-2.000,-0.932,-0.242,-51.954,104.282,-125.832,0.0,0.0
43295,-2.000,1.054,-2.000,-188.214,-250.137,-250.137,151.0,0.0
43352,0.076,0.227,-2.000,-204.405,-250.137,-126.008,146.0,97.0
43404,0.381,-0.083,-2.000,-194.947,250.130,78.405,143.0,99.0
43450,-1.585,-0.500,-1.215,-150.641,250.130,48.115,134.0,6.0
43503,-1.198,-0.424,0.369,-60.679,111.466,-88.153,60.0,0.0
43545,0.127,-0.220,-0.425,-118.931,5.603,-90.374,106.0,0.0
43596,-0.997,-0.235,-0.350,-93.527,-93.519,8.565,136.0,88.0
43648,-1.968,0.532,-1.325,-153.046,-250.137,-44.985,126.0,101.0
43700,0.040,0.087,-2.000,-79.595,-250.137,-32.015,141.0,100.0
43760,0.005,0.380,-2.000,-31.023,250.130,-6.214,123.0,0.0
43801,-2.000,0.026,1.039,57.069,250.130,61.481,88.0,0.0
43864,-1.970,0.164,-0.020,-5.107,-250.137,-46.344,123.0,0.0
43905,0.412,0.001,-1.108,-10.046,-250.137,-116.267,118.0,0.0
43955,0.939,0.265,-0.854,27.649,175.405,-59.672,120.0,107.0
44005,-1.995,0.341,0.236,-59.634,204.832,37.809,119.0,102.0
44055,-1.121,0.225,-1.238,-91.008,-49.840,-41.656,120.0,100.0
44102,-0.373,0.470,-1.704,-111.901,236.389,-23.870,72.0,100.0
44149,-1.431,-0.025,-1.323,-40.718,250.130,1.275,72.0,103.0
44206,-1.016,-0.112,-0.263,18.397,7.344,-59.336,69.0,0.0
44295,-1.087,-0.011,-0.227,51.756,-250.137,-87.099,64.0,103.0
44347,-0.224,-0.494,-1.569,21.626,-250.137,-93.687,139.0,102.0
44398,1.041,0.184,-1.832,2.237,250.130,93.183,141.0,100.0
44444,-2.000,0.150,-2.000,-43.389,250.130,182.504,58.0,99.0
44496,-2.000,-0.329,0.542,48.786,150.405,87.099,60.0,0.0
44534,-1.820,-0.273,-0.975,66.687,-250.137,-59.641,59.0,0.0
44576,-0.203,0.164,-1.567,92.527,-250.137,-81.450,57.0,16.0
44625,1.138,0.680,-1.677,73.046,189.443,-25.099,57.0,98.0
44666,-0.879,0.589,-1.287,12.969,250.130,42.191,61.0,8.0
44706,-2.000,0.487,1.163,-63.870,69.664,0.626,36.0,9.0
44752,-2.000,0.367,-0.478,-117.725,-250.137,-62.450,51.0,98.0
44798,-0.968,0.742,-2.000,-180.183,-250.137,0.824,59.0,95.0
44846,0.584,-0.585,-2.000,-127.969,37.809,37.863,78.0,96.0
44893,-0.764,0.092,-2.000,-62.855,250.130,72.321,69.0,98.0
44934,-2.000,-1.245,0.513,104.855,250.130,72.664,55.0,11.0
44986,-2.000,0.171,0.306,36.092,-250.137,-86.595,62.0,0.0
45031,-0.246,0.146,-1.476,-0.198,-250.137,-147.954,123.0,0.0
45081,1.733,0.065,-1.809,16.664,27.771,-80.534,143.0,75.0
45130,-0.432,-0.028,-0.716,-24.344,250.130,55.733,98.0,99.0
45178,-2.000,-1.097,-0.315,57.595,34.374,64.359,90.0,96.0
45225,-1.757,-0.425,-1.393,33.695,-250.137,66.145,88.0,94.0
45275,-0.952,-0.157,-1.178,74.237,-173.771,90.389,96.0,97.0
45323,-0.335,0.403,-0.631,54.687,78.985,23.969,106.0,87.0
45371,0.017,0.479,-0.716,73.336,250.130,-5.962,79.0,104.0
45425,-0.568,0.443,-0.791,102.061,250.130,19.763,58.0,0.0
45464,-2.000,0.333,0.808,45.710,86.008,20.168,46.0,0.0
45505,-1.867,0.329,-0.655,-52.679,-250.137,-33.878,56.0,9.0
45546,-0.768,0.920,-2.000,-153.908,-250.137,-14.702,54.0,11.0
45592,0.733,0.180,-2.000,-170.313,-68.221,15.015,57.0,95.0
45638,-0.254,-0.145,-2.000,-98.313,250.130,39.649,56.0,99.0
45690,-2.000,-0.989,-1.002,126.748,250.130,11.000,56.0,0.0
45729,-1.705,0.112,-0.668,64.435,-250.137,-153.931,60.0,0.0
45776,-0.503,0.430,-1.567,-19.481,-250.137,-184.886,61.0,99.0
45830,1.573,0.070,-1.712,-39.015,78.870,-110.779,123.0,100.0
45872,-0.118,-0.034,-0.634,-84.870,250.130,44.244,68.0,12.0
45914,-2.000,-0.811,-1.124,-26.740,119.221,151.374,71.0,7.0
45958,-2.000,-0.158,-0.783,-30.702,-250.137,68.679,98.0,11.0
46006,-1.126,-1.021,-2.000,67.145,-250.137,56.863,124.0,69.0
46057,1.043,0.236,-1.827,99.809,213.809,16.420,121.0,100.0
46111,-1.225,0.604,-2.000,-12.214,250.130,76.947,100.0,0.0
46154,-2.000,0.244,0.695,34.924,250.130,48.550,123.0,0.0
46212,-1.740,0.237,0.788,32.763,-250.137,-55.901,108.0,0.0
46254,-0.769,0.727,-1.236,-14.748,-250.137,-126.458,115.0,0.0
46304,1.131,1.163,-2.000,-113.924,-203.053,-119.794,110.0,95.0
46348,-0.583,0.495,-2.000,-222.992,250.130,41.580,113.0,8.0
46398,-2.000,-1.283,0.085,-80.458,240.878,-36.702,0.0,6.0
46452,-1.661,-0.028,-1.255,-88.252,-250.137,-144.420,0.0,95.0
46502,0.793,-0.201,-2.000,-70.733,-145.351,-151.305,114.0,97.0
46550,0.094,-0.145,-1.059,-76.534,250.130,-36.695,151.0,13.0
46599,-1.670,-0.630,-0.111,1.611,250.130,-4.458,0.0,9.0
46695,-0.219,-0.215,-1.809,-50.313,-250.137,-97.420,108.0,98.0
46744,0.085,0.283,-1.776,-18.855,172.557,74.580,108.0,98.0
46789,-2.000,-0.560,-0.484,-46.015,110.061,43.511,110.0,12.0
46844,-0.728,0.005,-1.084,-23.771,-109.053,-31.740,109.0,0.0
46886,0.364,0.237,-1.885,-3.527,250.130,-35.824,109.0,0.0
46936,-1.520,0.378,-0.004,13.656,250.130,14.168,0.0,5.0
46971,-1.668,0.202,0.479,10.771,-250.137,-65.740,0.0,4.0
47027,-0.502,0.447,-0.854,-17.008,-250.137,-115.115,110.0,0.0
47072,0.724,0.621,-1.356,-96.634,10.817,-69.672,110.0,0.0
47124,-1.648,0.360,-0.653,-179.092,44.977,-7.840,144.0,106.0
47174,-1.682,-0.030,-1.496,-202.611,-250.137,-66.802,110.0,105.0
47222,0.242,-0.465,-2.000,-118.282,-44.809,-109.916,108.0,77.0
47272,-0.414,-0.604,-2.000,-44.794,250.130,-68.107,112.0,98.0
47322,-2.000,-0.480,0.077,-100.832,250.130,-5.748,183.0,6.0
47370,-1.405,0.008,0.111,-99.733,-250.137,-133.237,177.0,9.0
47419,0.151,0.030,-0.742,-129.863,-250.137,-171.916,91.0,105.0
47471,0.612,-0.277,-0.596,-40.511,80.908,7.298,103.0,102.0
47521,-2.000,-0.507,0.148,-33.176,-110.527,43.366,104.0,100.0
47570,-0.957,-0.121,-1.767,-79.183,-250.137,-55.351,105.0,103.0
47626,-0.921,0.019,-1.012,-69.847,13.824,18.351,106.0,0.0
47668,-0.654,0.053,-0.629,-40.420,85.931,-46.084,106.0,0.0
47723,-0.062,-0.036,-1.059,-3.809,250.130,-84.710,106.0,0.0
47763,-1.664,0.519,-0.054,-32.863,250.130,57.687,68.0,0.0
47809,-2.000,0.258,0.546,-95.626,-242.634,-78.481,130.0,10.0
47864,-0.040,0.501,-1.513,-132.924,-250.137,-107.519,110.0,0.0
47911,-0.174,0.527,-1.343,-159.489,163.344,-5.252,135.0,0.0
47963,-1.737,-0.054,-0.777,-138.580,37.137,-38.855,136.0,99.0
48015,-0.310,0.197,-1.665,-73.061,-25.489,-90.313,147.0,99.0
48063,-0.154,-0.013,-1.420,-32.137,250.130,-72.015,148.0,29.0
48113,-1.172,-0.106,0.050,-18.023,244.092,-69.328,0.0,7.0
48178,-0.691,-0.275,-0.387,25.061,-163.397,-94.802,0.0,0.0
48222,-0.304,0.052,-0.665,-29.931,-82.931,22.290,153.0,0.0
48274,-1.761,-0.289,-0.320,-49.389,-250.137,-0.405,149.0,97.0
48327,-0.211,-0.393,-1.661,26.504,-137.221,-54.153,121.0,95.0
48386,-0.493,0.378,-1.459,-2.977,250.130,54.550,151.0,0.0
48433,-1.833,-0.131,-0.391,17.916,166.718,66.458,0.0,0.0
48480,-0.198,0.296,-0.683,48.962,-23.321,41.580,0.0,0.0
48527,-0.247,0.500,-0.211,48.427,85.794,24.198,0.0,0.0
48563,-1.240,0.411,0.395,-8.374,-247.046,-56.817,0.0,8.0
48621,-0.310,0.256,-1.377,-45.771,-250.137,-91.863,152.0,0.0
48666,-0.282,0.588,-1.734,-132.374,149.786,2.214,155.0,0.0
48719,-2.000,-0.145,-0.436,-134.550,-62.885,-75.214,155.0,109.0
48775,-0.637,0.139,-1.441,-13.282,-250.137,-111.084,150.0,96.0
48827,0.447,0.035,-1.597,56.168,250.130,-49.611,149.0,98.0
48877,-0.864,0.034,-1.115,-15.099,250.130,-31.992,0.0,6.0
48930,-1.643,-0.813,0.526,-5.275,20.534,-84.527,0.0,6.0
48992,-0.348,-0.246,-0.517,-8.435,-250.137,-17.931,0.0,0.0
49039,-1.516,-0.635,-0.884,61.405,-250.137,81.931,0.0,0.0
49080,-0.476,-0.388,-1.671,80.336,-244.718,-28.870,0.0,93.0
49135,0.089,0.119,-1.763,79.359,185.924,89.145,0.0,86.0
49242,-0.962,0.199,-0.212,7.053,-25.412,35.321,0.0,0.0
49290,-0.019,0.294,-0.407,68.145,54.023,21.908,0.0,0.0
49326,-0.305,0.447,0.004,29.557,121.366,-14.634,0.0,14.0
49387,-0.381,0.342,-0.138,5.962,71.466,-3.718,0.0,0.0
49425,-0.531,0.219,-1.426,-60.641,4.695,-72.084,48.0,0.0
49466,-1.104,0.145,-1.884,-140.618,-41.092,-88.244,44.0,7.0
49512,-1.268,-0.352,-2.000,-124.931,-197.481,-74.580,36.0,95.0
49557,-0.591,-0.119,-1.155,-46.779,-157.298,-63.504,31.0,97.0
49603,0.045,-0.234,-0.769,44.260,22.916,-23.802,34.0,99.0
49658,-0.025,-0.040,-0.460,94.366,202.069,-15.740,31.0,0.0
49696,-0.707,-0.534,-0.824,57.450,210.328,-29.252,45.0,0.0
49748,-1.319,-0.628,-0.398,-49.321,-43.260,-48.382,36.0,0.0
49796,-0.355,-0.631,-0.897,-100.366,-196.405,-18.573,0.0,0.0
49838,-0.634,-0.704,-0.927,-21.420,-152.832,49.099,0.0,98.0
49890,-0.486,0.055,-0.964,75.084,-80.214,30.794,149.0,99.0
49948,-0.399,2.000,-0.596,124.672,87.076,60.679,151.0,0.0
49996,-1.022,-0.587,-1.354,6.901,216.733,30.603,0.0,0.0
50064,-1.743,-1.947,-0.951,-43.015,152.855,-22.748,0.0,0.0
50111,-0.705,-0.176,-0.208,-62.718,-113.496,-47.687,0.0,0.0
50182,-0.056,2.000,-0.517,-75.267,-210.069,-52.901,0.0,0.0
50225,-0.236,-0.224,-2.000,-90.443,-57.550,-30.786,150.0,0.0
50277,-1.177,-2.000,-2.000,-18.359,124.198,-122.061,153.0,99.0
50328,-1.740,-0.651,-0.211,10.435,-143.435,-154.802,149.0,98.0
50380,-0.440,1.833,-0.673,36.634,-223.580,-203.237,145.0,99.0
50432,0.396,0.947,-0.320,-29.450,-26.290,-36.107,145.0,99.0
50483,0.028,-1.174,-1.196,-81.183,177.832,48.229,149.0,98.0
50537,-1.287,-1.824,-0.866,-71.771,135.137,12.931,153.0,96.0
50597,-1.012,-0.437,-0.651,42.756,-4.099,-5.198,0.0,0.0
50641,-0.699,1.411,-0.471,198.847,-115.550,4.053,154.0,0.0
50699,-1.614,-0.012,-0.522,67.855,-250.137,-87.359,153.0,0.0
50743,-1.348,-0.377,-0.517,-71.626,-250.137,-196.977,154.0,0.0
50800,0.305,-0.472,-0.423,3.183,-250.137,-29.282,153.0,0.0
50847,-0.248,0.215,-0.479,41.595,40.115,-14.176,0.0,0.0
50893,-0.778,-0.078,-1.646,-109.275,250.130,-39.511,0.0,0.0
50942,-2.000,-1.520,-1.056,-213.519,212.038,-34.450,0.0,0.0
50982,-1.467,-1.355,-0.144,-153.786,-89.321,-58.832,0.0,88.0
51037,-0.239,-0.762,-0.369,-20.099,-151.145,-36.855,0.0,90.0
51091,0.138,-0.001,-0.705,126.527,40.290,-53.038,0.0,94.0
51151,-1.178,0.043,-0.192,-179.374,29.786,-127.771,0.0,0.0
51206,-0.776,-0.187,0.331,-223.969,-250.137,-23.733,0.0,91.0
51257,-0.041,-1.828,-0.647,32.626,-250.137,59.214,157.0,89.0
51309,-0.686,-1.116,-2.000,250.130,134.916,-40.817,159.0,90.0
51373,-1.008,0.030,-0.924,-124.977,250.130,83.664,0.0,0.0
51419,-1.413,-0.928,0.113,-160.099,155.641,-75.351,0.0,0.0
51473,-0.751,0.125,0.848,24.168,-112.443,-31.885,0.0,95.0
51529,-0.139,-0.089,-0.881,247.267,-136.420,11.939,0.0,129.0
51579,-0.738,0.568,-0.944,-174.840,-27.351,-72.756,0.0,9.0
51637,-0.598,-0.407,-1.125,-250.137,-118.282,-18.321,160.0,0.0
51682,-0.552,-1.549,-1.017,-146.504,-82.718,-115.244,160.0,0.0
51736,-0.124,-0.905,-1.658,135.840,10.733,-96.618,0.0,88.0
51830,-0.722,-0.430,-1.022,-250.137,-197.450,-75.641,157.0,90.0
51888,-0.057,0.052,0.307,-208.687,-181.115,-97.863,199.0,92.0
51940,0.345,-0.802,-0.642,81.443,-92.702,0.099,159.0,88.0
51987,-1.725,-0.890,-2.000,79.802,213.435,45.427,152.0,9.0
52033,-1.241,-0.543,-1.076,-189.000,8.313,80.290,152.0,9.0
52081,-0.830,-0.941,-0.241,-155.198,13.023,1.710,168.0,8.0
52139,-0.302,-0.886,-0.595,97.000,11.237,7.481,158.0,0.0
52185,-1.088,0.135,-1.583,158.893,222.573,-43.939,188.0,0.0
52240,-1.304,0.146,-0.591,-129.084,-67.817,-86.237,100.0,0.0
52287,-0.361,0.445,0.206,-203.405,-200.855,-88.565,159.0,0.0
52345,0.381,0.138,-0.590,-43.573,-142.496,-0.458,158.0,0.0
52388,-0.990,-0.615,-2.000,71.580,231.351,-5.702,144.0,0.0
52444,-1.281,-0.709,-1.998,-206.000,131.481,-67.397,108.0,0.0
52486,-0.834,-0.847,-0.924,-196.366,-15.817,-159.672,122.0,0.0
52532,-0.213,-0.288,-0.140,-21.969,-80.992,-92.420,133.0,8.0
52582,0.216,-0.584,-1.015,181.634,-43.962,-6.214,132.0,89.0
52626,-1.071,-0.301,-0.612,-39.053,74.130,-79.260,90.0,9.0
52669,-0.585,-0.348,-0.725,-231.740,-132.198,-32.351,90.0,8.0
52726,-0.557,-0.439,-0.478,-234.534,-78.305,-9.695,100.0,0.0
52767,-0.173,-1.218,-0.826,162.794,-44.634,160.748,90.0,0.0
52807,-0.570,-0.640,-1.566,250.130,116.603,142.359,37.0,11.0
52848,-0.974,0.586,-1.186,18.977,87.672,-35.626,38.0,8.0
52888,-0.861,-0.219,-1.206,-125.878,-51.817,-80.191,44.0,7.0
52932,-0.597,0.271,0.114,-121.656,-70.160,-121.389,94.0,5.0
52974,-0.191,0.132,0.072,11.397,-87.382,-10.748,78.0,7.0
53016,0.095,0.118,-0.802,184.427,-10.557,53.053,68.0,6.0
53060,-1.310,0.290,-0.881,-63.870,92.908,-56.771,55.0,10.0
53102,-1.150,-0.423,-1.675,-233.344,-87.191,-57.221,51.0,10.0
53143,-0.589,-0.819,-1.409,-244.397,-142.046,-92.336,57.0,9.0
53190,-0.803,-0.837,-0.625,-153.160,0.427,-109.771,74.0,90.0
53238,-0.230,-0.612,-0.622,141.985,-17.351,40.824,76.0,95.0
53287,-0.261,-0.177,-0.287,244.076,66.542,20.435,106.0,92.0
53332,-0.715,-0.095,-0.780,-17.725,64.863,-142.069,116.0,14.0
53384,-0.413,-0.078,-0.530,-175.672,-141.992,-143.947,124.0,109.0
53440,-0.262,-0.403,-0.448,-178.672,-59.977,-55.145,178.0,92.0
53490,-0.688,-0.893,-0.738,135.618,-8.252,150.886,115.0,88.0
53534,-0.810,-0.417,-1.597,250.130,77.702,207.992,107.0,12.0
53577,-1.092,0.213,-1.395,68.748,37.954,121.344,69.0,12.0
53619,-0.698,-0.308,-1.075,-82.252,3.977,-2.008,75.0,10.0
53662,-0.499,0.069,-0.049,-116.473,66.282,-85.779,72.0,8.0
53703,-0.503,-0.129,0.422,4.855,10.870,25.466,60.0,7.0
53745,-0.232,0.024,-0.171,166.634,-12.695,95.664,68.0,12.0
53788,-0.438,0.285,-1.563,178.145,92.542,88.389,68.0,13.0
53843,-1.005,-0.356,-2.000,-114.160,58.649,-78.321,61.0,0.0
53883,-0.622,-0.743,-1.665,-211.206,-68.122,-162.214,59.0,0.0
53924,-0.834,-0.474,-0.367,-149.153,68.137,-166.695,57.0,12.0
53972,-0.581,-0.296,-0.076,95.420,3.328,30.565,67.0,97.0
54025,-0.144,0.074,-0.112,250.130,-27.756,113.718,60.0,0.0
54064,-0.550,-0.184,-1.001,20.618,-45.519,-72.794,63.0,0.0
54112,-0.572,-0.297,-0.979,-173.847,-115.183,-120.107,76.0,95.0
54203,-0.530,-0.625,-0.120,-124.191,-34.511,62.519,97.0,74.0
54253,-0.647,-1.088,-0.962,203.588,-56.405,179.886,62.0,91.0
54295,-1.078,-0.175,-2.000,250.130,118.481,122.290,60.0,13.0
54347,-0.764,-0.177,-1.464,-24.504,87.794,60.504,60.0,0.0
54387,-0.659,0.056,-0.216,-111.267,147.687,-93.374,59.0,0.0
54428,-1.016,0.418,0.470,-51.450,71.481,-43.863,61.0,5.0
54473,-0.724,0.420,0.516,51.198,-96.053,53.023,119.0,8.0
54530,-0.159,0.371,-0.420,100.412,-169.939,32.435,119.0,0.0
54573,-0.271,-0.196,-2.000,-115.756,-123.656,-116.290,126.0,0.0
54622,-0.454,-0.784,-2.000,-191.305,-12.710,-164.145,129.0,11.0
54668,-0.815,-0.885,-1.428,-163.649,150.786,-199.328,124.0,8.0
54713,-0.797,-0.268,-0.232,-41.634,85.084,-60.321,120.0,9.0
54758,-0.583,-0.373,0.289,84.000,-5.427,81.916,115.0,9.0
54803,-0.101,-0.182,0.184,155.092,-121.008,62.076,116.0,10.0
54853,0.267,-0.464,-1.558,26.511,-114.031,-42.427,0.0,14.0
54918,-0.395,-0.327,-1.287,-198.588,-52.191,-144.527,0.0,0.0
54966,-1.156,-0.923,-0.722,-170.107,33.794,-98.786,0.0,0.0
55002,-0.936,-0.560,-0.551,16.939,-16.916,61.489,0.0,7.0
55053,-0.619,-0.291,-0.433,138.069,3.824,125.351,158.0,9.0
55100,-0.586,-0.110,-0.975,191.168,37.244,113.656,166.0,9.0
55159,-0.389,0.809,-1.154,-23.397,-105.947,-9.603,164.0,0.0
55204,-0.110,0.431,-0.874,-225.496,-65.634,-132.656,160.0,0.0
55249,-0.487,0.007,-0.181,-250.137,21.191,-142.992,115.0,8.0
55308,-0.432,-0.290,-0.494,-106.374,-53.298,-22.153,153.0,0.0
55351,-1.417,-0.517,-2.000,85.740,-0.779,-26.443,117.0,0.0
55396,-0.682,-0.622,-2.000,-143.450,-76.695,-84.992,116.0,14.0
55449,-0.202,-0.374,-0.875,-209.015,28.534,-171.794,112.0,97.0
55505,-0.284,0.008,0.572,-88.252,70.412,-126.924,111.0,0.0
55548,0.039,-0.587,-1.238,202.641,-20.237,43.573,113.0,0.0
55604,-1.100,0.583,-0.159,-35.321,-31.466,-37.611,113.0,0.0
55647,-0.229,-0.297,-1.325,-248.389,-147.176,-38.573,113.0,0.0
55692,-0.752,-0.529,-0.059,-229.595,11.740,-77.855,114.0,12.0
55738,-0.686,-0.902,-0.642,39.130,-12.473,48.824,119.0,14.0
55797,-0.657,-0.403,-1.440,250.130,94.603,97.679,163.0,0.0
55845,-0.920,-0.067,-1.397,-90.031,-9.015,-55.023,163.0,0.0
55894,-0.382,0.129,-0.325,-172.153,-69.153,-160.023,163.0,8.0
55955,-0.254,0.367,0.383,-73.328,-40.748,-130.962,0.0,0.0
56000,0.051,0.339,-0.783,176.382,19.153,24.069,165.0,0.0
56058,-0.845,0.628,-1.519,-149.023,-24.443,-77.763,162.0,0.0
56102,-0.501,-0.503,-1.791,-250.137,-109.954,-183.893,137.0,0.0
56156,-0.610,-0.503,-0.614,-207.748,41.092,-203.962,154.0,96.0
56214,-0.545,-0.332,-0.312,33.611,9.588,5.809,152.0,0.0
56257,-0.239,-0.467,-0.820,184.481,26.412,54.794,129.0,0.0
56314,-0.483,-0.232,-1.236,-92.618,-61.870,-110.595,172.0,99.0
56364,-0.035,-0.111,-0.663,-250.137,-117.031,-148.183,172.0,11.0
56414,-0.187,-0.180,-0.016,-215.084,4.275,-36.084,0.0,11.0
56468,-0.650,-0.898,-0.860,193.771,-9.939,156.725,172.0,10.0
56526,-1.426,0.030,-1.935,207.557,134.748,116.053,172.0,0.0
56573,-0.944,-0.455,-1.646,-88.824,-10.656,-46.779,0.0,0.0
56608,-0.485,0.287,0.175,-138.794,-9.237,-146.542,0.0,9.0
56712,-0.183,-0.388,-0.516,154.863,-85.214,66.771,0.0,0.0
56761,-0.724,0.949,-0.962,-37.908,30.389,-36.389,0.0,0.0
56797,-0.585,-0.426,-1.872,-237.237,-57.931,-121.107,0.0,12.0
56846,-0.299,-0.475,-1.479,-250.137,-45.924,-223.015,0.0,14.0
56899,-0.801,-0.270,-0.761,-116.122,114.718,-195.313,0.0,10.0
56960,-0.542,-0.311,-0.460,157.122,19.656,63.756,0.0,0.0
57007,-0.399,-0.580,-1.440,162.779,21.214,59.153,0.0,0.0
57053,-0.394,-0.545,-1.150,-124.023,-64.084,-120.252,0.0,0.0
57099,0.024,-0.400,-0.688,-250.137,-83.672,-151.053,0.0,0.0
57140,-0.439,-0.684,-0.648,-169.038,55.573,-22.679,0.0,97.0
57202,-0.978,-0.789,-0.430,97.718,-7.779,176.740,0.0,0.0
57247,-0.845,-0.494,-1.719,250.130,39.214,207.053,172.0,0.0
57306,-0.567,0.265,-1.850,7.473,2.718,35.756,170.0,0.0
57353,-0.396,0.201,-0.559,-122.542,5.855,-152.924,0.0,0.0
57388,-0.728,0.521,0.530,-58.374,41.366,-115.069,0.0,5.0
57448,-0.591,0.086,0.344,62.710,-88.214,78.710,0.0,0.0
57494,-0.292,0.334,-1.450,108.107,22.802,91.588,0.0,0.0
57530,-0.538,-0.433,-2.000,-118.214,29.267,-69.534,0.0,11.0
57574,-0.716,-0.756,-1.840,-177.000,-54.763,-123.687,57.0,11.0
57615,-0.656,-0.669,-1.482,-141.115,38.885,-165.985,41.0,8.0
57661,-0.898,-0.089,-0.417,-28.885,66.832,-23.802,39.0,110.0
57701,-0.636,-0.323,-0.124,96.473,0.992,91.733,40.0,9.0
57752,-0.185,-0.267,-0.161,128.008,-58.382,37.588,41.0,0.0
57789,-0.090,-0.681,-1.378,-6.618,-69.290,-84.290,36.0,0.0
57829,-0.199,-0.396,-0.809,-166.870,-88.802,-122.664,36.0,12.0
57870,-0.502,-0.495,0.167,-188.435,11.756,-61.687,37.0,12.0
57921,-0.968,-0.745,-0.553,0.664,41.046,114.710,50.0,0.0
57962,-0.943,-0.032,-0.919,250.130,101.214,234.000,37.0,0.0
58013,-1.116,0.333,-1.516,171.924,32.107,201.702,35.0,0.0
58050,-0.474,-0.012,-1.632,-76.634,-55.947,-13.267,36.0,0.0
58090,-0.086,0.389,-0.461,-151.641,-14.695,-103.672,38.0,6.0
58140,-0.635,0.485,0.342,-93.641,40.122,-120.687,0.0,10.0
58204,-0.409,-0.114,-0.114,125.886,-104.160,52.679,0.0,0.0
58248,-0.967,0.479,-1.414,17.405,9.786,6.786,156.0,0.0
58302,-0.753,-0.698,-2.000,-199.092,-66.992,-112.061,0.0,95.0
58352,-0.377,-0.505,-1.478,-206.061,52.824,-235.992,154.0,9.0
58402,-0.799,-0.125,-0.216,-57.397,94.817,-68.405,0.0,12.0
58456,-0.518,-0.373,0.309,86.855,-3.718,99.901,0.0,8.0
58510,-0.208,-0.590,-0.333,112.107,-85.695,0.176,0.0,100.0
58564,-0.279,-0.070,-1.441,-85.282,-104.153,-130.580,0.0,99.0
58616,-0.121,-0.329,-1.219,-210.908,-67.229,-103.511,152.0,99.0
58678,-0.702,-0.616,-0.767,-61.672,84.405,-14.504,0.0,0.0
58724,-0.640,-0.026,-0.906,203.641,105.023,170.023,0.0,0.0
58760,-1.148,-0.108,-1.529,149.908,82.886,125.649,0.0,6.0
58812,-0.716,-0.025,-1.262,-59.718,-74.855,-6.420,0.0,4.0
58848,-0.219,0.421,-0.829,-154.000,-81.977,-123.412,0.0,5.0
58898,-0.378,0.404,-0.378,-155.580,47.038,-129.122,0.0,13.0
58947,-0.636,0.336,0.240,-49.153,-20.168,8.153,0.0,7.0
58994,-0.210,0.011,-0.670,55.176,-89.008,-2.389,153.0,11.0
59044,-0.021,-0.077,-2.000,-107.450,-117.748,-158.099,0.0,15.0
59137,-0.355,-0.601,-0.703,-218.069,123.435,-196.076,0.0,9.0
59193,-0.834,-0.264,0.463,-56.817,32.267,-63.550,0.0,109.0
59245,-0.122,-0.352,-0.145,163.305,-116.298,27.145,0.0,11.0
59305,-0.127,-0.427,-1.583,7.733,-62.359,-67.947,0.0,0.0
59353,-0.398,-0.553,-1.564,-250.137,-64.763,-185.420,0.0,0.0
59413,-1.234,-0.636,-0.335,-191.939,103.595,-168.504,0.0,0.0
59463,-0.915,-0.535,-0.335,116.809,-65.389,119.374,0.0,10.0
59513,-0.578,-0.220,-1.337,208.817,15.061,123.183,0.0,10.0
59571,-0.323,0.542,-1.435,-52.595,-26.130,2.511,151.0,0.0
59615,-0.191,0.277,-0.771,-215.855,-49.664,-127.824,147.0,0.0
59675,-0.500,0.040,-0.097,-229.496,67.542,-157.458,0.0,0.0
59723,-0.490,-0.358,-0.710,13.481,-77.947,15.580,151.0,0.0
59770,-1.346,0.462,-2.000,32.229,-94.397,-48.641,149.0,17.0
59822,-0.340,0.088,-2.000,-229.282,-114.229,-109.672,147.0,99.0
59874,-0.096,-0.571,-0.688,-250.137,114.832,-162.405,140.0,101.0
59926,-0.565,-0.564,0.286,-54.824,67.412,-42.641,136.0,104.0
59977,-0.084,-0.536,-0.521,198.214,-38.489,23.527,145.0,102.0
60027,-0.744,0.298,-1.084,-6.046,-37.939,-47.748,134.0,78.0
60079,-0.352,-0.133,-1.511,-227.321,-86.076,-59.550,131.0,102.0
60139,-0.967,-0.574,-1.039,-211.718,125.023,-95.282,133.0,0.0
60183,-1.395,-0.512,-0.370,65.771,-38.031,85.130,134.0,0.0
60239,-0.686,0.084,-0.789,173.176,-21.321,87.756,128.0,0.0
60282,-0.436,0.661,-0.796,57.947,-55.099,27.855,124.0,0.0
60339,-0.233,0.207,-1.137,-81.229,-74.641,-80.733,123.0,0.0
60382,-0.334,0.044,-0.308,-170.450,42.977,-169.038,125.0,0.0
60438,-0.777,0.033,0.051,-93.557,41.542,-78.977,131.0,0.0
60481,-0.885,0.003,-0.973,37.893,-10.305,35.985,124.0,0.0
60534,-0.786,0.416,-1.840,-20.656,-80.420,-18.916,121.0,99.0
60582,-0.493,-0.284,-2.000,-184.603,25.802,-101.115,71.0,100.0
60636,-0.281,-0.349,-0.719,-213.718,91.466,-167.969,68.0,0.0
60675,-0.632,-0.315,0.675,-70.832,7.290,-63.305,51.0,0.0
60722,-0.353,-0.760,0.305,124.000,-120.023,46.611,51.0,105.0
60769,0.034,-0.719,-0.720,242.748,-107.908,28.145,57.0,101.0
60814,-0.509,0.201,-1.684,-19.931,47.824,-39.885,30.0,99.0
60862,-0.644,-0.578,-1.692,-160.389,75.802,-31.771,72.0,96.0
60915,-1.166,-0.589,-0.756,-118.069,194.427,-94.160,77.0,0.0
60956,-1.223,-0.299,-0.477,113.267,55.573,76.015,30.0,0.0
60996,-0.571,0.201,-0.554,164.534,90.504,98.115,27.0,9.0
61036,-0.356,0.413,-1.125,156.237,119.031,113.046,26.0,10.0
61076,-0.482,0.657,-1.038,-22.969,-39.427,25.115,28.0,9.0
61116,-0.313,0.204,-1.171,-161.947,-129.237,-103.786,25.0,8.0
61157,-0.276,0.011,-0.573,-250.137,-89.076,-175.435,30.0,10.0
61209,-0.619,0.139,-0.267,-196.618,12.947,-140.046,46.0,0.0
61246,-0.416,-0.500,-1.764,104.634,57.641,107.931,27.0,0.0
61291,-0.865,0.466,-1.539,73.443,22.008,98.397,47.0,13.0
61343,-0.490,-0.535,-1.629,-56.893,-100.863,-4.290,59.0,0.0
61383,-0.231,-0.275,-0.344,-105.122,-55.931,-120.511,57.0,0.0
61430,-0.215,-0.045,0.484,-24.382,-21.397,-115.473,57.0,104.0
61477,0.247,-0.779,-0.629,179.076,-17.992,24.916,60.0,101.0
61530,-0.851,-0.124,-2.000,152.328,128.130,58.779,53.0,0.0
61621,-0.399,-0.453,-1.213,-151.069,12.458,-59.412,61.0,98.0
61674,-0.980,-0.151,-0.510,-11.832,95.053,28.038,62.0,0.0
61716,-0.653,0.053,-0.521,200.748,87.275,146.389,51.0,0.0
61757,-0.927,0.117,-0.957,192.458,48.664,121.718,51.0,9.0
61799,-0.532,0.393,-1.174,5.458,-138.893,7.366,58.0,9.0
61841,-0.158,0.328,-1.025,-127.443,-138.000,-86.695,53.0,8.0
61883,-0.147,0.097,-0.353,-188.160,-20.137,-120.053,48.0,11.0
61924,-0.465,0.192,-0.003,-90.947,36.435,-44.206,50.0,9.0
61976,-0.604,-0.417,-1.715,99.160,123.977,41.313,46.0,0.0
62015,-1.237,-0.092,-1.908,10.893,-107.886,2.084,51.0,0.0
62061,-0.550,-0.246,-2.000,-139.878,-195.916,-104.412,46.0,98.0
62111,0.226,-0.098,-0.564,-186.389,-58.298,-172.420,51.0,100.0
62158,0.104,-0.024,0.800,-82.977,24.550,-137.313,52.0,102.0
62206,-0.049,-0.608,0.019,170.267,-38.740,7.878,58.0,101.0
62259,-0.017,-0.149,-0.807,185.954,100.916,39.763,57.0,0.0
62299,-0.913,-0.624,-1.878,-73.443,-20.695,48.885,59.0,0.0
62346,-0.646,-0.808,-1.861,-132.427,-45.924,-5.840,59.0,97.0
62402,-0.758,-0.442,-0.644,-109.992,130.603,-58.313,123.0,0.0
62445,-0.914,-0.117,-0.309,67.969,77.427,95.901,117.0,0.0
62492,-0.695,0.208,-0.048,143.794,41.145,125.153,90.0,6.0
62537,-0.455,0.147,-0.426,162.679,-45.916,124.122,110.0,6.0
62581,-0.381,0.570,-1.133,20.847,-171.939,25.748,107.0,8.0
62639,0.038,0.543,-1.737,-194.870,-120.771,-65.328,121.0,0.0
62687,-0.303,-0.134,-1.202,-250.137,102.954,-163.886,120.0,0.0
62732,-1.124,-0.360,-0.819,-134.908,107.588,-167.733,117.0,10.0
62776,-1.093,-0.499,-1.264,113.122,-43.679,-31.290,114.0,10.0
62830,-1.096,-0.050,-2.000,124.183,-122.817,14.748,0.0,98.0
62879,-0.072,-0.011,-1.511,-160.046,-145.107,-24.374,105.0,102.0
62937,0.340,-0.225,0.333,-244.740,-0.198,-113.122,0.0,103.0
62992,0.006,-0.828,0.531,-79.878,-43.053,-49.786,0.0,102.0
63041,0.235,-0.666,-1.095,209.389,-28.435,19.977,107.0,96.0
63098,-2.000,-0.149,-1.618,130.244,250.130,17.206,156.0,0.0
63142,-1.346,-0.523,-1.775,-112.328,67.130,-66.130,156.0,0.0
63190,-0.906,0.081,-0.869,-120.046,22.885,-128.405,164.0,7.0
63237,-0.891,0.371,-0.099,-54.405,3.366,-55.809,161.0,4.0
63294,-0.614,0.243,0.261,38.389,-32.260,53.824,154.0,0.0
63348,-0.095,0.425,-0.431,103.847,-61.870,41.794,150.0,0.0
63406,-0.455,0.444,-1.755,-74.061,-108.115,-33.069,112.0,0.0
63451,-0.322,-0.177,-2.000,-250.137,23.962,-161.336,113.0,0.0
63497,-0.403,-0.750,-1.605,-250.137,82.794,-220.496,113.0,10.0
63546,-1.022,-0.280,-0.190,-89.153,91.641,-160.603,153.0,7.0
63600,-0.838,-0.230,-0.108,80.740,-72.389,-16.519,152.0,100.0
63654,-0.455,-0.187,-1.375,93.031,-175.344,-19.282,157.0,99.0
63708,-0.012,0.090,-1.769,-218.542,-118.863,-118.656,115.0,102.0
63768,0.067,-0.411,-0.329,-250.137,34.779,-96.886,104.0,0.0
63813,-0.879,-0.564,0.039,-61.527,-50.389,66.237,134.0,0.0
63870,-0.376,-0.701,-1.557,236.542,-8.916,92.420,108.0,0.0
63915,-0.704,0.144,-2.000,-54.405,24.847,-22.969,116.0,0.0
63973,-0.559,-0.216,-1.342,-193.618,39.924,-148.389,126.0,0.0
64020,-0.863,0.296,0.516,-106.771,85.313,-97.305,153.0,0.0
64122,-0.154,0.211,-0.246,152.053,-53.069,40.191,146.0,0.0
64166,-0.095,0.211,-1.998,-172.328,-71.595,-128.206,113.0,0.0
64225,-0.185,-0.117,-1.768,-250.137,-9.290,-196.901,125.0,0.0
64277,-1.091,-0.148,-1.009,-119.481,164.618,-194.328,0.0,0.0
64321,-0.896,-0.221,-0.485,59.061,25.099,-25.282,0.0,104.0
64384,-0.355,-0.338,-0.759,122.366,-14.046,25.954,0.0,0.0
64433,-0.135,-0.151,-1.270,-104.397,-188.313,-83.038,0.0,0.0
64476,0.330,-0.242,-0.670,-230.328,-97.809,-124.153,0.0,100.0
64533,-0.555,-0.287,-0.191,-176.527,78.344,-64.992,0.0,99.0
64590,-0.858,-0.769,-0.654,174.015,-0.779,149.137,0.0,97.0
64653,-1.288,0.447,-1.516,177.382,69.366,130.588,0.0,0.0
64702,-0.401,-0.113,-1.565,-117.573,-49.595,-45.473,151.0,0.0
64754,-0.218,-0.048,-0.133,-155.496,85.511,-134.626,0.0,11.0
64811,-0.891,0.140,0.961,-1.733,52.748,-12.137,0.0,9.0
64873,-0.260,0.115,-0.848,243.458,-3.061,83.496,0.0,0.0
64920,-1.077,-0.101,-2.000,-120.130,-133.977,-65.511,157.0,0.0
64969,-0.317,-0.265,-2.000,-250.137,-78.595,-145.053,155.0,18.0
65027,-0.780,-0.471,-0.438,-216.893,152.580,-161.122,0.0,97.0
65090,-0.700,-0.424,-0.081,42.176,63.840,57.763,0.0,0.0
65142,-0.240,-0.326,0.027,161.908,-54.252,66.137,0.0,0.0
65191,-0.264,-0.528,-1.503,11.519,-114.290,-86.221,0.0,0.0
65241,-0.160,-0.272,-1.187,-198.382,-70.855,-125.527,0.0,0.0
65278,-0.661,-0.538,-1.019,-201.321,98.504,-27.275,0.0,11.0
65342,-1.433,-0.905,-0.669,7.412,77.656,101.718,0.0,0.0
65391,-0.770,-0.120,-0.677,237.794,29.756,227.878,0.0,0.0
65440,-0.777,0.146,-1.264,169.725,-45.756,133.527,0.0,0.0
65489,-0.240,0.403,-1.494,-61.885,-58.191,-57.336,0.0,0.0
65539,-0.250,0.341,-0.360,-185.374,58.275,-150.832,0.0,0.0
65582,-0.896,0.094,0.875,-121.046,-6.000,-51.328,39.0,0.0
65635,-0.728,-0.360,-0.212,69.626,-112.687,50.992,37.0,0.0
65675,-1.615,-0.341,-2.000,114.527,-43.634,19.550,37.0,0.0
65722,-0.728,-0.392,-2.000,-147.290,-47.275,-43.832,35.0,94.0
65770,-0.321,-0.478,-1.123,-215.702,49.893,-159.183,36.0,99.0
65827,-0.645,-0.495,0.373,-164.275,120.115,-150.672,0.0,105.0
65891,-0.639,-0.835,0.640,65.779,-56.458,1.427,0.0,0.0
65937,0.127,-0.501,-0.383,221.336,-118.153,26.527,149.0,0.0
65995,-0.996,-0.399,-1.990,19.916,-21.252,-32.687,152.0,97.0
66056,-0.701,-0.366,-1.892,-149.008,50.855,-14.580,152.0,0.0
66105,-1.241,-0.271,-0.470,-35.489,130.863,54.046,0.0,0.0
66143,-1.102,-0.257,-0.019,162.542,18.237,166.603,0.0,8.0
66195,-0.637,0.041,0.015,201.115,-17.008,154.305,0.0,9.0
66251,-0.219,0.356,-1.598,181.504,-89.855,79.260,0.0,8.0
66314,-0.192,0.311,-1.534,-171.145,-10.191,-109.382,0.0,0.0
66364,-0.766,-0.377,0.020,-250.137,71.870,-192.542,0.0,0.0
66402,-1.332,-0.203,-0.570,-77.145,-85.290,-46.191,0.0,10.0
66457,-0.702,-0.355,-1.682,161.473,-94.969,46.809,0.0,10.0
66519,-0.348,0.602,-2.000,-54.252,-132.802,31.824,0.0,99.0
66573,0.121,-0.222,-0.945,-250.137,-36.786,-59.817,143.0,103.0
66627,-0.193,-0.376,0.168,-223.565,46.954,-159.046,141.0,105.0
66681,-0.240,-0.928,0.403,97.466,-121.649,-13.359,140.0,105.0
