Timestamp(ms),AccelX(g),AccelY(g),AccelZ(g),GyroX(deg/s),GyroY(deg/s),GyroZ(deg/s),DistanceLeft(cm),DistanceRight(cm)
50441,-0.900,1.071,0.001,-38.374,-61.298,45.221,55.0,0.0
50487,-1.108,1.000,-0.454,-128.420,-14.656,135.359,0.0,0.0
50528,-1.888,0.100,-1.031,-206.298,14.458,195.740,0.0,94.0
50578,-2.000,-0.640,-1.212,-189.878,-17.977,173.679,147.0,83.0
50622,-1.823,-1.064,-1.167,-166.214,-96.847,165.458,37.0,87.0
50673,-0.745,-1.058,-0.813,-120.198,-76.649,143.076,139.0,92.0
50718,-0.142,-0.801,-0.418,-98.244,-34.802,64.603,32.0,95.0
50765,0.136,-0.751,-0.201,-90.595,-24.504,-12.267,32.0,98.0
50810,-0.025,-0.573,-0.198,-34.870,13.267,-99.229,44.0,98.0
50856,-0.582,-0.309,-0.203,4.641,48.237,-167.298,48.0,94.0
50905,-1.538,-0.115,-0.292,-11.290,112.893,-184.634,104.0,91.0
50956,-1.591,-0.371,-0.303,-60.557,94.916,-140.962,144.0,92.0
51002,-1.557,-0.430,-0.237,-52.000,17.473,-142.328,146.0,9.0
51048,-1.042,-0.361,-0.291,-39.397,-49.313,-96.931,147.0,10.0
51098,-0.728,0.043,-0.047,-37.687,-42.656,-55.855,0.0,10.0
51153,-0.677,0.093,-0.015,-53.557,-25.740,-3.733,0.0,14.0
51205,-1.039,0.157,-0.060,-83.115,-50.687,63.244,148.0,91.0
51256,-1.358,-0.146,-0.625,-85.466,-70.626,149.901,146.0,90.0
51305,-1.735,-0.436,-0.923,-98.931,-30.832,210.534,144.0,61.0
51354,-1.476,-0.993,-1.070,-81.374,-45.282,191.908,105.0,91.0
51402,-0.848,-0.853,-0.657,-43.779,-34.473,109.092,101.0,94.0
51451,-0.400,-0.618,-0.354,-14.015,-12.229,25.672,98.0,98.0
51500,-0.213,-0.543,-0.009,-11.573,-16.817,-55.061,98.0,99.0
51552,0.032,-0.637,-0.104,33.527,-37.221,-118.397,133.0,70.0
51598,-0.052,-0.473,-0.316,96.389,25.405,-130.427,47.0,94.0
51643,-1.349,-0.712,-0.748,142.244,104.031,-104.977,51.0,91.0
51689,-2.000,-0.393,-0.797,149.405,188.473,-43.855,53.0,91.0
51735,-1.938,-0.218,-0.550,123.733,113.504,28.344,57.0,93.0
51786,-1.126,-0.050,-0.391,102.313,38.908,22.840,141.0,95.0
51836,-0.588,0.384,-0.126,66.641,29.389,22.885,139.0,95.0
51888,-0.486,0.931,0.181,-1.527,-10.305,28.382,138.0,96.0
51939,-0.678,0.974,-0.164,-37.634,-1.565,37.847,139.0,93.0
51993,-1.359,0.707,-0.672,-137.542,0.344,113.351,142.0,92.0
52043,-2.000,-0.326,-1.297,-159.733,-9.206,111.076,142.0,90.0
52094,-1.792,-0.726,-1.181,-154.206,-107.656,126.466,138.0,94.0
52146,-0.566,-0.883,-0.931,-105.855,-81.992,85.626,132.0,99.0
52197,0.189,-0.662,-0.583,-84.634,-14.695,34.969,129.0,103.0
52248,0.293,-0.773,-0.217,-34.664,54.504,-40.695,128.0,102.0
52298,-0.081,-0.561,0.160,37.137,60.565,-84.710,132.0,100.0
52349,-1.341,-0.747,-0.728,143.603,61.863,-127.420,137.0,93.0
52410,-2.000,-0.026,-0.479,112.809,124.947,-65.847,141.0,0.0
52453,-1.675,0.013,-0.369,94.740,38.496,-32.641,141.0,0.0
52510,-1.001,0.204,-0.245,89.427,-20.145,-15.664,140.0,0.0
52554,-0.336,0.998,-0.262,43.710,-17.863,10.275,139.0,0.0
52604,-0.490,0.953,-0.392,-18.817,19.122,55.321,140.0,93.0
52651,-1.187,0.487,-0.366,-85.908,16.466,121.145,57.0,91.0
52697,-1.882,0.183,-1.185,-112.282,14.160,144.466,57.0,91.0
52744,-2.000,-0.803,-1.198,-113.122,4.618,150.687,63.0,94.0
52795,-1.366,-0.799,-0.710,-80.840,-55.573,86.565,135.0,99.0
52845,-0.465,-0.591,-0.198,-52.656,-81.931,-3.405,56.0,102.0
52938,0.415,-0.587,-0.346,78.794,-58.786,-96.000,128.0,102.0
52987,0.208,-0.298,-0.187,120.954,13.031,-121.023,131.0,72.0
53039,-1.017,-0.805,-0.918,169.496,87.504,-134.771,138.0,93.0
53090,-2.000,-0.366,-0.889,159.344,139.886,-79.099,144.0,89.0
53141,-1.950,-0.255,-0.653,119.359,34.939,20.298,144.0,92.0
53192,-0.951,-0.009,-0.393,126.458,16.237,18.641,142.0,93.0
53243,-0.615,0.595,-0.198,119.939,20.626,0.802,139.0,93.0
53298,-0.526,1.348,-0.141,11.260,-14.427,13.000,139.0,93.0
53349,-0.895,1.109,-0.400,-107.435,19.588,88.031,139.0,91.0
53398,-1.923,0.639,-0.866,-208.176,13.389,122.443,107.0,91.0
53447,-2.000,-0.792,-1.402,-195.840,-110.458,117.939,105.0,94.0
53496,-1.239,-0.651,-1.071,-160.397,-112.992,90.130,100.0,99.0
53545,-0.304,-0.996,-0.693,-81.588,-58.954,42.901,97.0,103.0
53595,0.385,-0.967,-0.155,-12.908,-23.847,-27.344,95.0,106.0
53644,0.323,-0.800,0.043,53.466,9.427,-136.656,96.0,103.0
53697,-0.190,-0.790,-0.214,109.992,35.206,-161.504,100.0,101.0
53746,-2.000,-0.939,-1.092,174.687,107.046,-133.687,139.0,64.0
53795,-2.000,-0.325,-1.015,180.198,119.084,-32.183,101.0,91.0
53844,-1.730,0.093,-0.445,135.122,19.389,8.206,104.0,93.0
53891,-0.843,0.532,-0.369,118.886,2.328,-0.023,51.0,96.0
53939,-0.596,0.748,-0.139,86.947,3.504,19.885,91.0,97.0
53985,-0.426,0.956,-0.073,37.733,-37.511,33.282,51.0,98.0
54031,-0.233,1.190,-0.261,-31.802,-16.305,55.420,50.0,96.0
54076,-0.840,1.018,-0.664,-148.824,50.466,70.908,51.0,68.0
54128,-2.000,0.213,-1.633,-240.573,83.832,82.542,103.0,91.0
54176,-2.000,-0.504,-1.359,-250.137,-83.901,104.168,101.0,94.0
54225,-0.923,-1.075,-0.991,-206.931,-93.382,86.748,94.0,101.0
54275,-0.015,-0.925,-0.381,-145.618,-25.191,21.275,89.0,105.0
54323,0.377,-1.156,0.045,-79.695,-32.916,-49.725,87.0,79.0
54370,0.396,-1.086,-0.034,33.962,-100.931,-135.863,89.0,78.0
54419,-0.372,-0.881,-0.362,124.893,-76.115,-176.420,94.0,99.0
54465,-1.847,-0.792,-1.211,205.267,168.412,-177.489,47.0,94.0
54514,-2.000,0.034,-0.414,168.405,243.382,-61.924,51.0,93.0
54561,-1.995,0.188,-0.036,91.947,-27.229,-33.084,57.0,96.0
54610,-0.647,0.396,-0.375,67.748,-40.527,-21.985,99.0,96.0
54660,-0.458,0.920,0.042,41.275,40.069,14.672,98.0,98.0
54710,-0.619,1.325,0.193,-13.954,-13.710,54.748,127.0,97.0
54759,-0.680,1.213,-0.478,-109.069,-28.763,103.847,102.0,95.0
54808,-1.765,0.717,-1.709,-215.618,43.832,111.947,104.0,93.0
54858,-2.000,-0.397,-1.910,-250.137,-7.183,130.527,105.0,94.0
54913,-1.604,-0.743,-1.360,-250.137,-55.786,125.611,127.0,99.0
54964,-0.494,-0.863,-0.773,-206.229,10.420,54.824,123.0,105.0
55015,-0.021,-0.788,-0.169,-155.718,48.565,-3.328,121.0,110.0
55067,0.223,-0.823,0.216,-102.015,-17.656,-94.573,122.0,115.0
55119,0.290,-0.831,-0.040,-18.992,-39.298,-143.710,44.0,0.0
55171,-0.958,-1.224,-0.747,109.603,53.229,-191.527,135.0,96.0
55223,-2.000,-0.761,-1.064,163.527,210.237,-147.336,140.0,97.0
55270,-2.000,-0.084,-0.363,87.328,86.450,-58.832,58.0,98.0
55323,-1.452,0.258,-0.283,33.840,-33.206,-56.687,137.0,77.0
55372,-0.877,0.444,-0.175,0.679,-52.168,-25.939,134.0,50.0
55465,-0.479,0.724,-0.051,-71.053,-92.679,20.382,130.0,81.0
55516,-0.472,0.980,-0.296,-121.824,-74.603,51.534,130.0,90.0
55568,-1.423,0.937,-0.900,-203.618,-36.015,96.489,131.0,106.0
55619,-2.000,0.262,-1.958,-250.137,-96.855,109.252,131.0,97.0
55670,-2.000,-0.490,-2.000,-250.137,-104.626,141.031,129.0,98.0
55720,-0.908,-0.749,-1.202,-250.137,-26.328,115.351,126.0,79.0
55772,-0.380,-0.773,-0.722,-192.221,17.290,52.519,123.0,106.0
55825,0.116,-0.899,-0.275,-147.908,36.191,-21.939,123.0,80.0
55875,0.284,-0.802,-0.002,-82.130,55.985,-117.260,126.0,81.0
55926,-0.083,-0.598,0.320,-28.840,35.328,-164.702,131.0,99.0
55973,-1.600,-1.166,-0.409,49.763,46.992,-201.466,52.0,94.0
56022,-2.000,-0.959,-0.891,51.290,107.206,-132.076,58.0,111.0
56075,-2.000,-0.418,-0.429,22.015,79.679,-49.725,156.0,111.0
56128,-1.497,-0.036,-0.223,-18.275,-2.282,-44.908,142.0,116.0
56181,-0.858,0.235,-0.164,-33.992,-56.847,-15.107,139.0,122.0
56238,-0.426,0.877,0.073,-66.534,-72.855,5.107,138.0,125.0
56292,-0.320,0.831,-0.120,-127.679,-92.328,31.481,139.0,127.0
56343,-1.252,0.635,-1.084,-188.176,-58.504,57.542,141.0,93.0
56390,-2.000,-0.125,-2.000,-215.756,-49.901,140.931,57.0,90.0
56441,-1.767,-0.621,-1.814,-248.672,-66.466,149.733,135.0,93.0
56488,-0.990,-1.017,-1.105,-234.626,-50.832,85.466,47.0,96.0
56539,-0.227,-0.910,-0.617,-200.008,-37.481,17.908,130.0,75.0
56590,0.420,-1.108,-0.438,-117.198,-19.962,-59.015,127.0,102.0
56645,0.282,-0.960,-0.168,-10.855,32.458,-129.412,132.0,99.0
56696,-0.620,-1.084,-0.249,61.237,40.824,-141.191,137.0,94.0
56754,-1.761,-0.783,-0.619,119.817,50.794,-129.229,143.0,92.0
56806,-1.911,-0.515,-0.634,99.473,151.603,-66.290,52.0,0.0
56849,-1.804,0.037,-0.233,69.977,121.405,-41.405,145.0,0.0
56900,-1.406,0.265,-0.080,46.542,10.061,-7.840,144.0,97.0
56951,-0.704,0.983,-0.167,7.473,-65.305,17.565,139.0,100.0
57001,-0.527,1.234,-0.376,-68.626,-40.366,63.344,136.0,96.0
57051,-0.832,0.931,-0.705,-199.947,10.588,123.504,52.0,94.0
57101,-1.738,0.010,-1.428,-250.137,27.031,131.382,135.0,90.0
57149,-2.000,-0.862,-1.642,-213.069,-105.099,121.069,106.0,91.0
57198,-1.199,-0.949,-1.314,-173.916,-62.588,122.359,100.0,95.0
57246,-0.530,-1.015,-0.646,-107.466,3.038,59.504,96.0,99.0
57293,0.015,-1.021,-0.113,-75.969,2.473,-9.618,93.0,75.0
57340,0.329,-1.050,-0.004,9.237,-26.198,-104.611,93.0,74.0
57389,0.183,-0.745,-0.027,91.786,-5.511,-138.779,97.0,96.0
57437,-0.972,-0.870,-0.680,157.802,36.786,-152.107,103.0,91.0
57488,-2.000,-0.370,-1.146,158.489,127.275,-97.496,109.0,86.0
57537,-2.000,-0.115,-0.483,85.763,121.405,21.053,111.0,88.0
57585,-1.245,-0.083,-0.178,69.458,12.038,43.481,109.0,89.0
57634,-0.466,0.168,-0.176,86.908,6.511,38.679,107.0,89.0
57682,-0.298,0.400,-0.036,72.221,50.962,35.282,107.0,89.0
57731,-0.725,0.178,-0.102,48.794,74.183,50.496,103.0,88.0
57779,-1.370,0.309,0.026,-8.000,30.565,98.595,102.0,88.0
57827,-1.906,0.039,-0.915,-57.802,-30.802,109.221,102.0,86.0
57878,-2.000,-0.085,-1.001,-86.611,3.603,127.427,102.0,88.0
57929,-1.599,-0.304,-0.588,-100.908,-53.824,111.588,140.0,93.0
58023,0.163,-0.616,-0.359,-57.267,-21.176,18.756,130.0,103.0
58074,0.592,-0.977,-0.152,18.534,30.885,-31.634,129.0,103.0
58125,0.117,-0.936,-0.112,112.756,-5.916,-54.427,132.0,99.0
58174,-0.789,-1.164,-1.331,250.130,0.092,-103.321,138.0,71.0
58225,-2.000,-0.385,-1.388,250.130,187.275,-78.641,144.0,88.0
58276,-2.000,0.049,-0.758,171.435,46.107,-23.359,145.0,89.0
58328,-1.346,0.258,-0.698,123.863,-75.420,-31.351,143.0,91.0
58382,-0.664,0.941,-0.216,75.229,-8.634,-10.198,139.0,94.0
58432,-0.586,1.310,0.145,-1.008,-13.473,37.420,138.0,96.0
58483,-0.614,1.308,-0.175,-82.924,-47.397,98.718,137.0,95.0
58529,-1.015,0.965,-0.925,-175.824,-16.481,151.466,51.0,93.0
58578,-2.000,0.416,-1.508,-218.176,12.710,158.588,140.0,69.0
58629,-2.000,-0.443,-1.661,-224.802,-72.214,89.840,137.0,70.0
58678,-1.003,-0.947,-1.257,-177.672,-46.863,40.031,133.0,73.0
58729,-0.279,-0.761,-0.421,-106.824,34.015,-7.786,129.0,104.0
58783,0.083,-0.777,-0.179,-56.611,42.351,-81.954,128.0,104.0
58833,0.084,-0.577,-0.124,1.313,70.374,-167.992,130.0,101.0
58884,-0.660,-0.295,-0.047,-3.580,52.580,-186.687,135.0,71.0
58934,-1.347,-0.407,-0.630,28.863,20.626,-154.458,141.0,91.0
58985,-1.895,-0.473,-0.975,42.160,71.282,-71.748,145.0,90.0
59032,-2.000,-0.066,-0.322,35.855,54.298,3.000,146.0,10.0
59078,-1.297,0.155,-0.198,41.916,-17.420,46.947,144.0,8.0
59124,-0.739,0.583,-0.098,43.779,7.015,71.153,141.0,9.0
59173,-0.530,0.394,-0.185,39.298,1.420,118.000,140.0,11.0
59231,-0.567,0.138,-0.225,3.115,-2.611,134.481,139.0,200.0
59281,-1.155,-0.381,-0.464,-49.794,-43.740,112.389,140.0,91.0
59332,-1.494,-0.035,-1.100,-47.466,8.412,66.504,139.0,93.0
59383,-1.618,0.275,-1.062,-87.366,21.573,40.206,137.0,95.0
59435,-1.144,0.097,-0.416,-87.382,-13.969,29.450,133.0,100.0
59486,-0.488,-0.288,-0.160,-96.176,-32.191,7.489,129.0,103.0
59537,0.175,-0.711,0.050,-44.687,-68.046,-34.756,126.0,96.0
59586,0.454,-0.753,-0.213,34.015,-50.550,-76.427,128.0,77.0
59640,-0.500,-0.854,-0.560,105.412,14.954,-111.511,133.0,98.0
59691,-1.650,-0.393,-0.998,178.305,131.397,-120.992,139.0,91.0
59738,-2.000,-0.090,-0.888,177.336,147.466,-63.557,143.0,10.0
59789,-1.950,0.119,-0.507,141.847,22.122,-20.267,142.0,94.0
59840,-0.849,0.344,-0.447,134.504,-24.458,-14.702,140.0,93.0
59891,-0.523,0.895,-0.269,99.191,19.153,-0.977,138.0,95.0
59942,-0.606,0.915,-0.114,31.473,12.023,56.511,138.0,95.0
59988,-0.935,0.840,-0.371,-70.145,0.679,107.473,51.0,93.0
60043,-1.841,0.502,-0.913,-155.656,22.962,134.802,140.0,91.0
60094,-2.000,-0.293,-1.087,-174.191,-55.794,114.130,137.0,94.0
60145,-1.567,-0.472,-0.903,-177.420,-76.695,110.969,132.0,100.0
60195,-0.600,-0.457,-0.409,-131.435,-46.481,74.832,126.0,81.0
60247,-0.060,-0.574,-0.129,-103.130,-27.244,13.710,122.0,109.0
60298,0.045,-0.792,-0.079,-39.252,-58.664,-38.305,120.0,112.0
60347,-0.233,-0.704,-0.330,46.290,-35.511,-69.954,121.0,81.0
60396,-1.192,-0.501,-0.543,119.634,37.977,-73.489,124.0,68.0
60445,-1.666,-0.191,-0.451,162.931,80.664,-54.176,127.0,9.0
60490,-1.664,0.193,-0.297,148.779,77.618,-68.000,129.0,8.0
60580,-0.813,0.381,-0.303,103.611,-0.985,-48.260,127.0,33.0
60627,-0.324,0.535,-0.122,90.397,2.450,-37.405,126.0,33.0
60675,-0.181,1.085,0.011,42.130,15.168,-40.191,128.0,33.0
60722,-0.477,1.012,-0.057,-25.183,52.878,27.771,130.0,30.0
60770,-1.246,0.703,-0.239,-98.649,63.496,79.443,134.0,55.0
60821,-2.000,-0.388,-0.595,-117.008,-4.908,86.672,136.0,94.0
60872,-2.000,-0.539,-0.836,-78.656,-68.038,100.183,135.0,95.0
60921,-1.159,-0.553,-0.497,-36.214,-37.947,100.389,37.0,99.0
60973,-0.543,-0.497,-0.306,1.702,-2.550,60.038,127.0,103.0
61024,-0.116,-0.371,0.011,25.359,9.534,6.053,125.0,106.0
61075,0.109,-0.421,0.057,34.573,-24.053,-41.824,125.0,104.0
61126,-0.059,-0.524,-0.112,61.893,-55.962,-77.466,128.0,99.0
61177,-1.215,-1.009,-0.854,132.176,3.824,-162.626,134.0,93.0
61229,-2.000,-0.815,-1.049,177.786,130.084,-144.237,139.0,89.0
61280,-2.000,-0.373,-0.552,139.542,164.137,-53.962,141.0,90.0
61335,-1.253,0.023,-0.215,152.351,28.191,-39.099,140.0,92.0
61386,-0.633,0.625,-0.181,145.496,-3.977,-34.725,139.0,94.0
61432,-0.400,1.219,-0.311,94.557,0.542,-3.107,49.0,95.0
61478,-0.708,1.215,-0.337,-16.023,32.298,64.427,51.0,92.0
61530,-1.302,0.619,-0.602,-110.794,40.916,119.962,143.0,88.0
61581,-2.000,-0.667,-1.013,-121.382,-16.534,116.489,144.0,86.0
61633,-1.351,-0.915,-0.886,-105.206,-60.985,91.718,143.0,88.0
61682,-0.514,-0.967,-0.635,-54.015,-17.985,25.412,140.0,63.0
61735,-0.109,-1.061,-0.300,11.145,6.573,-18.061,114.0,87.0
61785,0.053,-0.961,-0.101,90.489,9.855,-76.466,114.0,89.0
61835,-0.152,-0.748,0.123,144.779,18.817,-109.656,116.0,85.0
61891,-0.828,-0.838,-0.109,210.458,2.802,-72.359,123.0,0.0
61953,-0.986,-0.418,-0.489,248.779,44.244,-32.618,0.0,0.0
62000,-1.435,0.260,0.025,102.893,9.924,-71.008,0.0,0.0
62039,-0.919,0.132,-0.204,14.718,-113.824,-33.244,0.0,69.0
62090,-0.523,-0.246,-0.444,-23.618,-99.527,0.763,142.0,73.0
62134,-0.429,-0.638,-0.404,16.756,-34.206,4.198,44.0,60.0
62181,-0.526,-0.558,0.060,39.046,-15.832,45.565,43.0,53.0
62224,-0.503,-0.786,-0.203,91.672,-33.023,66.504,43.0,48.0
62267,-0.598,-0.586,-0.039,84.443,10.229,27.473,43.0,43.0
62318,-1.156,-0.759,0.059,97.641,25.496,15.550,0.0,35.0
62360,-1.175,-0.659,0.154,135.053,50.214,2.985,36.0,31.0
62402,-1.528,-0.730,0.307,134.550,33.718,13.198,37.0,27.0
62444,-1.170,-0.508,0.244,166.481,-7.344,30.328,38.0,24.0
62485,-1.091,-0.273,0.397,155.916,-15.176,11.244,40.0,21.0
62527,-1.519,-0.780,1.139,-12.061,-31.550,-64.832,37.0,19.0
62581,-1.843,-1.201,0.343,63.824,-172.641,-90.901,37.0,185.0
62632,-1.413,-0.825,0.693,58.305,-183.832,-174.267,37.0,187.0
62684,-0.864,-1.005,0.619,92.443,-173.702,-108.061,39.0,191.0
62734,-0.583,-0.718,0.395,122.824,-138.191,-149.168,44.0,167.0
62786,-0.477,-0.893,0.149,144.000,-37.221,-142.046,72.0,161.0
62840,-0.836,-0.857,0.658,130.466,-82.458,-117.901,73.0,0.0
62894,-0.055,-0.687,0.122,150.603,-164.924,-44.504,68.0,0.0
62947,0.337,-0.292,0.222,98.260,-45.260,-48.496,62.0,0.0
62991,0.265,0.074,0.761,7.321,-11.603,-0.412,83.0,0.0
63091,-0.036,-0.480,1.208,40.405,-196.687,9.069,126.0,0.0
63134,0.814,-0.377,0.197,159.466,-204.511,-44.489,128.0,0.0
63197,1.059,0.745,0.868,146.985,-168.130,-18.634,119.0,0.0
63256,1.225,0.232,0.166,149.160,-14.244,20.374,196.0,0.0
63312,0.446,0.667,0.288,138.992,30.160,-19.802,129.0,196.0
63363,0.338,0.476,-0.101,115.580,15.565,-85.160,40.0,195.0
63414,0.296,0.443,0.148,112.969,-43.954,-54.336,37.0,195.0
63470,0.579,0.593,-0.188,89.771,-75.496,-57.214,134.0,198.0
63529,0.690,0.490,-0.067,42.290,-64.298,-42.046,134.0,0.0
63586,0.800,1.085,-0.217,42.176,9.214,-54.718,136.0,0.0
63636,0.558,1.273,0.024,-8.191,79.779,-85.137,30.0,0.0
63693,0.290,1.326,0.195,-32.588,51.069,-126.198,0.0,146.0
63744,0.094,1.124,0.512,-75.855,33.313,-120.252,123.0,104.0
63794,0.121,0.684,0.603,-92.389,3.847,-125.328,121.0,105.0
63845,0.279,0.719,0.581,-95.252,22.962,-135.603,123.0,117.0
63896,0.068,0.445,0.694,-112.420,43.382,-173.244,129.0,98.0
63952,-0.237,0.408,0.820,-122.725,49.305,-171.176,0.0,94.0
63996,-0.635,0.757,1.308,-153.405,14.855,-140.336,9.0,93.0
64048,-0.667,-0.152,1.071,-130.679,-81.809,-127.015,0.0,43.0
64102,-0.228,0.095,1.075,-107.733,-61.901,-100.344,0.0,41.0
64143,-0.291,-0.106,1.292,-66.244,-8.916,-95.275,16.0,39.0
64186,-0.233,-0.186,1.095,-28.092,35.634,-83.992,16.0,86.0
64227,-0.563,-0.154,0.974,14.649,131.672,-28.649,14.0,37.0
64277,-0.723,-0.064,0.951,7.260,66.023,-11.321,0.0,37.0
64334,-0.398,0.044,0.791,-11.450,23.298,-28.542,0.0,85.0
64378,-0.411,-0.088,0.890,-13.275,47.336,-12.382,17.0,35.0
64429,-0.555,-0.139,0.977,0.252,54.504,-1.847,0.0,35.0
64483,-0.282,-0.062,0.747,-0.313,55.664,4.863,0.0,35.0
64527,-0.606,-0.059,0.868,2.061,66.679,12.702,16.0,88.0
64580,-0.464,-0.060,0.635,7.847,72.214,-5.183,0.0,88.0
64634,-0.837,-0.050,0.726,10.908,103.084,-0.519,0.0,97.0
64690,-0.786,-0.097,0.635,9.939,64.473,0.763,0.0,107.0
64739,-0.839,-0.053,0.640,17.305,35.550,-6.015,0.0,6.0
64792,-0.775,-0.035,0.553,15.420,36.160,-4.786,0.0,86.0
64849,-1.088,-0.033,0.689,13.473,16.145,7.779,0.0,92.0
64902,-0.827,-0.094,0.437,9.962,-3.481,-2.779,0.0,64.0
64952,-0.833,-0.031,0.514,2.809,3.351,6.443,0.0,6.0
65004,-0.799,-0.042,0.542,-0.290,-5.992,3.771,0.0,65.0
65053,-0.779,-0.046,0.561,0.824,3.221,3.122,0.0,7.0
65110,-0.771,-0.063,0.547,2.725,1.298,3.130,0.0,7.0
65159,-0.794,-0.070,0.542,7.046,3.153,1.695,0.0,5.0
65207,-0.815,-0.045,0.505,5.214,-1.137,0.519,0.0,7.0
65267,-0.802,-0.053,0.568,2.679,-6.855,1.229,0.0,0.0
65324,-0.745,-0.043,0.556,2.198,-3.168,2.252,0.0,93.0
65376,-0.793,-0.050,0.567,2.206,7.985,3.489,0.0,64.0
65436,-0.798,-0.042,0.558,2.405,0.870,3.443,0.0,0.0
65485,-0.789,-0.042,0.561,2.153,1.298,3.603,0.0,7.0
65533,-0.792,-0.038,0.564,2.137,2.198,3.458,0.0,7.0
65583,-0.789,-0.044,0.549,1.656,1.168,3.702,0.0,5.0
65631,-0.795,-0.043,0.544,1.901,2.527,3.527,0.0,5.0
65723,-0.800,-0.042,0.554,2.496,0.855,2.344,0.0,5.0
65772,-0.796,-0.045,0.542,2.252,-0.794,2.779,0.0,5.0
65820,-0.802,-0.039,0.561,2.611,0.473,2.687,0.0,5.0
65872,-0.794,-0.043,0.546,2.458,0.229,2.534,0.0,5.0
65921,-0.793,-0.045,0.555,2.527,0.137,2.519,0.0,5.0
65970,-0.796,-0.048,0.543,2.229,-0.145,2.794,0.0,5.0
66019,-0.804,-0.041,0.556,2.275,0.702,2.931,0.0,5.0
66067,-0.805,-0.043,0.545,2.015,0.153,2.748,0.0,5.0
66116,-0.801,-0.045,0.544,2.382,0.573,2.595,0.0,5.0
66165,-0.810,-0.042,0.545,2.282,-0.053,2.832,0.0,5.0
66213,-0.796,-0.045,0.547,2.351,0.328,2.718,0.0,5.0
66263,-0.798,-0.043,0.549,2.260,0.580,2.756,0.0,5.0
66315,-0.801,-0.045,0.558,2.267,-0.046,2.618,0.0,5.0
66363,-0.794,-0.045,0.549,2.244,0.107,2.687,0.0,5.0
66412,-0.802,-0.041,0.540,2.305,0.092,2.878,0.0,5.0
66461,-0.797,-0.045,0.551,2.275,-0.115,2.626,0.0,5.0
66510,-0.802,-0.045,0.556,2.298,0.260,2.863,0.0,5.0
66558,-0.803,-0.044,0.559,2.313,0.885,2.748,0.0,5.0
66608,-0.803,-0.048,0.547,2.527,0.748,2.595,0.0,5.0
66657,-0.807,-0.048,0.539,2.382,0.168,2.641,0.0,6.0
66706,-0.800,-0.052,0.531,2.183,0.038,2.771,0.0,5.0
66754,-0.799,-0.047,0.537,2.435,0.183,2.725,0.0,5.0
66806,-0.801,-0.046,0.552,2.282,-0.221,2.954,0.0,5.0
66855,-0.802,-0.042,0.547,2.496,0.412,2.626,0.0,5.0
66905,-0.803,-0.044,0.542,2.344,0.336,2.511,0.0,6.0
66953,-0.794,-0.042,0.543,2.405,0.542,2.840,0.0,6.0
67002,-0.810,-0.044,0.534,2.382,1.206,2.824,0.0,6.0
67051,-0.805,-0.042,0.551,2.603,0.008,2.763,0.0,6.0
67100,-0.806,-0.044,0.545,2.458,0.466,2.954,0.0,6.0
67149,-0.800,-0.041,0.542,2.298,-0.244,2.786,0.0,6.0
67198,-0.808,-0.043,0.539,2.244,-0.084,2.687,0.0,6.0
67247,-0.795,-0.044,0.542,2.298,0.122,2.550,0.0,6.0
67299,-0.802,-0.042,0.548,2.282,-0.092,2.840,0.0,5.0
67348,-0.797,-0.046,0.548,2.298,0.382,2.725,0.0,6.0
67397,-0.810,-0.050,0.544,2.168,0.260,2.504,0.0,6.0
67446,-0.799,-0.044,0.544,2.168,-0.756,2.611,0.0,6.0
67495,-0.798,-0.046,0.542,2.313,0.130,2.954,0.0,6.0
67545,-0.802,-0.047,0.545,2.580,0.244,2.832,0.0,6.0
67594,-0.802,-0.045,0.544,2.191,-0.206,2.855,0.0,6.0
67643,-0.805,-0.042,0.546,2.351,0.282,2.863,0.0,6.0
67691,-0.804,-0.044,0.535,2.405,0.260,2.733,0.0,6.0
67743,-0.798,-0.040,0.541,2.336,0.031,2.794,0.0,6.0
67792,-0.801,-0.047,0.545,2.366,0.313,2.786,0.0,6.0
67842,-0.797,-0.046,0.538,2.290,0.260,2.740,0.0,6.0
67891,-0.803,-0.048,0.538,2.298,0.328,2.809,0.0,6.0
67940,-0.798,-0.046,0.541,2.145,-0.466,2.779,0.0,6.0
67989,-0.790,-0.042,0.542,2.229,0.565,2.702,0.0,6.0
68038,-0.809,-0.044,0.543,2.191,-0.084,2.802,0.0,6.0
68087,-0.804,-0.048,0.551,2.359,0.427,2.817,0.0,6.0
68136,-0.806,-0.045,0.536,2.198,-0.107,2.718,0.0,6.0
68229,-0.812,-0.050,0.531,2.359,0.214,2.725,0.0,6.0
68281,-0.800,-0.048,0.547,2.427,0.214,2.733,0.0,6.0
68330,-0.806,-0.050,0.539,2.229,0.053,2.893,0.0,5.0
68379,-0.799,-0.043,0.550,2.359,0.290,2.748,0.0,6.0
68428,-0.805,-0.050,0.541,2.290,-0.145,2.733,0.0,6.0
68477,-0.797,-0.041,0.550,2.191,0.092,2.786,0.0,6.0
68528,-0.805,-0.043,0.541,2.275,0.435,2.954,0.0,6.0
68577,-0.799,-0.047,0.542,2.412,-0.366,2.725,0.0,6.0
68626,-0.805,-0.045,0.537,2.191,-0.298,2.496,0.0,6.0
68675,-0.806,-0.046,0.539,2.313,-0.008,2.901,0.0,6.0
68727,-0.804,-0.040,0.541,2.290,0.229,2.863,0.0,6.0
68776,-0.801,-0.040,0.542,2.412,-0.290,2.687,0.0,6.0
68826,-0.805,-0.048,0.544,2.321,0.282,2.847,0.0,6.0
68875,-0.802,-0.046,0.549,2.244,0.168,2.679,0.0,6.0
68924,-0.802,-0.042,0.541,2.321,0.435,2.779,0.0,6.0
68974,-0.802,-0.039,0.535,2.237,0.076,2.687,0.0,6.0
69023,-0.801,-0.047,0.551,2.313,0.374,2.802,0.0,6.0
69072,-0.809,-0.049,0.544,2.427,0.008,2.779,0.0,6.0
69122,-0.805,-0.046,0.534,2.275,-0.137,2.466,0.0,6.0
69171,-0.806,-0.045,0.540,2.328,0.153,2.794,0.0,6.0
69223,-0.802,-0.048,0.542,2.252,-0.015,2.779,0.0,6.0
69273,-0.798,-0.046,0.546,2.412,0.229,2.718,0.0,5.0
69322,-0.804,-0.044,0.544,2.275,0.092,2.771,0.0,6.0
69371,-0.800,-0.046,0.540,2.267,0.168,2.840,0.0,6.0
69421,-0.800,-0.046,0.545,2.359,0.282,2.832,0.0,6.0
69470,-0.809,-0.044,0.543,2.351,0.023,2.679,0.0,6.0
69520,-0.797,-0.039,0.535,2.504,0.260,2.740,0.0,4.0
69569,-0.803,-0.043,0.549,2.328,0.198,2.863,0.0,5.0
69618,-0.813,-0.044,0.538,2.290,0.115,2.779,0.0,4.0
69667,-0.804,-0.045,0.545,2.359,0.061,2.817,0.0,4.0
69721,-0.794,-0.043,0.551,2.382,0.176,2.763,0.0,4.0
69770,-0.799,-0.044,0.539,2.298,-0.160,2.664,0.0,4.0
69819,-0.801,-0.045,0.549,2.305,0.023,2.634,0.0,6.0
69868,-0.796,-0.040,0.545,2.336,-0.076,2.794,0.0,6.0
69918,-0.801,-0.044,0.528,2.336,0.191,2.702,0.0,6.0
69967,-0.801,-0.043,0.546,2.229,0.160,2.733,0.0,6.0
70017,-0.796,-0.042,0.550,2.336,-0.221,2.863,0.0,6.0
70067,-0.802,-0.050,0.542,2.321,0.221,2.802,0.0,4.0
70116,-0.805,-0.047,0.537,2.305,-0.031,2.809,0.0,5.0
70168,-0.808,-0.045,0.550,2.382,0.069,2.725,0.0,4.0
70218,-0.804,-0.045,0.541,2.351,0.076,2.702,0.0,6.0
70267,-0.805,-0.043,0.547,2.267,0.137,2.542,0.0,5.0
70317,-0.801,-0.053,0.542,2.305,0.191,2.718,0.0,6.0
70367,-0.802,-0.042,0.539,2.328,-0.061,2.718,0.0,6.0
70416,-0.805,-0.043,0.544,2.351,0.053,2.908,0.0,4.0
70465,-0.804,-0.046,0.535,2.298,0.344,2.634,0.0,4.0
70515,-0.806,-0.048,0.536,2.405,0.252,2.710,0.0,4.0
70564,-0.801,-0.043,0.549,2.237,-0.183,2.710,0.0,6.0
70614,-0.809,-0.043,0.538,2.344,0.450,2.916,0.0,4.0
70667,-0.804,-0.042,0.545,2.298,-0.008,2.855,0.0,4.0
70759,-0.798,-0.045,0.536,2.359,-0.252,2.908,0.0,4.0
70809,-0.801,-0.036,0.546,2.321,0.061,2.771,0.0,4.0
70858,-0.808,-0.041,0.546,2.221,0.145,2.840,0.0,4.0
70908,-0.804,-0.044,0.542,2.344,-0.260,2.786,0.0,4.0
70958,-0.799,-0.043,0.542,2.183,0.015,2.824,0.0,4.0
71008,-0.799,-0.040,0.546,2.206,0.244,2.916,0.0,4.0
71057,-0.801,-0.048,0.540,2.359,-0.443,2.634,0.0,4.0
71106,-0.803,-0.042,0.544,2.397,0.183,2.947,0.0,4.0
71159,-0.806,-0.044,0.554,2.252,-0.145,2.763,0.0,4.0
71209,-0.809,-0.045,0.545,2.282,0.115,2.924,0.0,5.0
71259,-0.805,-0.042,0.544,2.313,-0.092,2.893,0.0,4.0
71309,-0.807,-0.045,0.534,2.298,-0.053,2.786,0.0,4.0
71358,-0.798,-0.042,0.549,2.237,-0.053,2.847,0.0,5.0
71408,-0.805,-0.049,0.539,2.313,-0.221,2.740,0.0,4.0
71457,-0.807,-0.046,0.541,2.244,-0.160,2.763,0.0,6.0
71507,-0.803,-0.048,0.546,2.313,-0.084,2.809,0.0,6.0
71562,-0.805,-0.049,0.549,2.260,0.031,2.893,0.0,5.0
71611,-0.795,-0.042,0.532,2.405,-0.160,2.672,0.0,6.0
71662,-0.806,-0.046,0.541,2.244,0.221,2.679,0.0,4.0
71711,-0.804,-0.048,0.544,2.160,0.145,2.847,0.0,5.0
71759,-0.802,-0.039,0.548,2.313,0.046,2.656,0.0,5.0
71809,-0.799,-0.044,0.545,2.153,0.115,2.748,0.0,4.0
71857,-0.807,-0.043,0.537,2.450,0.290,2.733,0.0,4.0
71906,-0.800,-0.043,0.533,2.160,-0.107,2.626,0.0,5.0
71954,-0.804,-0.043,0.542,2.351,0.481,2.458,0.0,5.0
72003,-0.807,-0.043,0.535,2.221,-0.206,2.443,0.0,4.0
72051,-0.805,-0.047,0.542,2.313,0.053,2.679,0.0,5.0
72100,-0.802,-0.042,0.539,2.260,-0.099,2.840,0.0,5.0
72152,-0.812,-0.043,0.554,2.305,0.229,2.626,0.0,6.0
72201,-0.803,-0.043,0.553,2.328,-0.221,2.763,0.0,6.0
72249,-0.803,-0.045,0.549,2.298,0.336,2.626,0.0,4.0
72298,-0.801,-0.045,0.544,2.313,-0.137,2.817,0.0,4.0
72347,-0.803,-0.040,0.542,2.313,0.305,2.748,0.0,6.0
72395,-0.804,-0.042,0.541,2.389,-0.153,2.588,0.0,4.0
72444,-0.800,-0.041,0.539,2.153,0.153,2.595,0.0,4.0
72493,-0.798,-0.044,0.545,2.313,0.038,2.450,0.0,5.0
72542,-0.804,-0.045,0.546,2.382,0.076,2.771,0.0,4.0
72594,-0.796,-0.048,0.550,2.344,-0.061,2.710,0.0,6.0
72642,-0.797,-0.049,0.540,2.473,0.244,2.748,0.0,5.0
72691,-0.809,-0.046,0.548,2.382,0.008,2.634,0.0,6.0
72740,-0.799,-0.042,0.548,2.107,-0.328,2.618,0.0,6.0
72788,-0.806,-0.046,0.535,2.336,0.573,2.893,0.0,6.0
72838,-0.801,-0.042,0.535,2.260,-0.389,2.947,0.0,5.0
72887,-0.800,-0.045,0.539,2.313,0.382,2.740,0.0,6.0
72936,-0.798,-0.043,0.545,2.435,0.229,2.748,0.0,6.0
72984,-0.798,-0.044,0.543,2.351,0.198,2.588,0.0,5.0
73033,-0.801,-0.044,0.551,2.298,0.023,2.771,0.0,5.0
73085,-0.802,-0.047,0.536,2.405,0.244,2.924,0.0,4.0
73134,-0.802,-0.045,0.540,2.336,-0.069,2.885,0.0,4.0
73183,-0.806,-0.053,0.535,2.382,0.420,2.802,0.0,4.0
73275,-0.797,-0.042,0.543,2.305,-0.359,2.885,0.0,4.0
73324,-0.802,-0.044,0.540,2.290,0.382,2.969,0.0,4.0
73372,-0.796,-0.043,0.544,2.252,-0.046,2.893,0.0,5.0
73421,-0.795,-0.045,0.534,2.282,-0.076,2.817,0.0,4.0
73470,-0.808,-0.046,0.545,2.366,-0.092,2.702,0.0,4.0
73520,-0.809,-0.049,0.552,2.328,-0.221,2.878,0.0,4.0
73571,-0.802,-0.046,0.544,2.473,0.336,2.885,0.0,4.0
73620,-0.802,-0.045,0.538,2.260,-0.076,2.885,0.0,4.0
73669,-0.807,-0.045,0.545,2.336,0.076,2.695,0.0,5.0
73718,-0.806,-0.044,0.537,2.290,0.183,2.924,0.0,4.0
73767,-0.804,-0.048,0.547,2.221,-0.008,2.756,0.0,4.0
73817,-0.801,-0.047,0.549,2.275,-0.298,2.756,0.0,6.0
73865,-0.803,-0.045,0.531,2.214,0.221,2.794,0.0,4.0
73914,-0.800,-0.042,0.544,2.344,-0.206,2.794,0.0,4.0
73963,-0.799,-0.042,0.532,2.282,-0.061,2.885,0.0,4.0
74012,-0.800,-0.042,0.546,2.397,0.061,2.802,0.0,4.0
74064,-0.801,-0.036,0.532,2.351,-0.092,2.878,0.0,4.0
74114,-0.802,-0.049,0.549,2.313,0.305,2.939,0.0,6.0
74163,-0.804,-0.045,0.539,2.336,-0.237,2.679,0.0,4.0
74212,-0.799,-0.042,0.545,2.237,0.160,2.954,0.0,5.0
74261,-0.799,-0.042,0.547,2.221,-0.061,3.076,0.0,6.0
74309,-0.803,-0.038,0.541,2.336,-0.008,2.924,0.0,4.0
74358,-0.800,-0.045,0.550,2.221,-0.458,2.924,0.0,4.0
74407,-0.799,-0.044,0.542,2.198,0.450,2.824,0.0,6.0
74457,-0.803,-0.044,0.543,2.267,-0.267,2.954,0.0,5.0
74509,-0.802,-0.044,0.553,2.305,-0.015,2.885,0.0,4.0
74558,-0.801,-0.041,0.540,2.382,0.069,2.748,0.0,4.0
74607,-0.805,-0.039,0.544,2.275,-0.374,2.756,0.0,6.0
74656,-0.799,-0.044,0.539,2.221,0.053,3.031,0.0,4.0
74705,-0.798,-0.042,0.539,2.321,0.046,2.855,0.0,4.0
74755,-0.805,-0.043,0.542,2.298,0.046,2.924,0.0,5.0
74804,-0.806,-0.039,0.542,2.076,0.038,2.992,0.0,6.0
74853,-0.805,-0.041,0.542,2.229,-0.046,3.038,0.0,6.0
74902,-0.797,-0.040,0.538,1.924,-0.374,2.939,0.0,4.0
74952,-0.803,-0.040,0.553,2.076,0.420,3.214,0.0,6.0
75004,-0.799,-0.044,0.537,2.153,-0.198,2.527,0.0,6.0
75054,-0.802,-0.044,0.538,2.244,0.115,2.695,0.0,6.0
75103,-0.792,-0.046,0.550,2.328,-0.153,2.595,0.0,5.0
75152,-0.798,-0.044,0.549,2.321,-0.076,2.656,0.0,6.0
75201,-0.800,-0.045,0.541,2.435,0.427,2.496,0.0,6.0
75250,-0.801,-0.043,0.539,2.183,-0.168,2.504,0.0,6.0
75299,-0.803,-0.038,0.547,2.275,-0.176,2.527,0.0,6.0
75350,-0.795,-0.044,0.542,2.183,-0.267,2.756,0.0,6.0
75399,-0.804,-0.037,0.549,2.458,0.618,2.550,0.0,6.0
75448,-0.800,-0.042,0.548,2.221,-0.290,2.397,0.0,6.0
75500,-0.799,-0.036,0.550,2.382,0.611,2.397,0.0,6.0
75549,-0.800,-0.049,0.544,2.382,-0.550,2.840,0.0,6.0
75599,-0.806,-0.041,0.545,2.366,0.374,2.824,0.0,6.0
75649,-0.797,-0.042,0.546,2.244,-0.511,2.740,0.0,6.0
75698,-0.805,-0.040,0.542,2.282,0.076,3.015,0.0,6.0
75790,-0.797,-0.042,0.529,2.107,-0.366,2.649,0.0,6.0
75840,-0.797,-0.036,0.546,2.260,0.412,2.939,0.0,6.0
75889,-0.805,-0.042,0.544,2.328,-0.061,2.580,0.0,6.0
75938,-0.801,-0.054,0.549,2.328,0.137,2.931,0.0,6.0
75991,-0.806,-0.042,0.547,2.313,-0.053,2.725,0.0,6.0
76041,-0.806,-0.037,0.549,2.237,0.267,2.908,0.0,6.0
76090,-0.799,-0.040,0.541,2.221,-0.015,2.656,0.0,6.0
76139,-0.808,-0.044,0.538,2.351,-0.145,2.786,0.0,6.0
76189,-0.797,-0.038,0.548,2.305,0.092,2.649,0.0,6.0
76238,-0.802,-0.045,0.542,2.252,-0.099,2.763,0.0,6.0
76288,-0.798,-0.047,0.549,2.542,0.321,2.733,0.0,6.0
76337,-0.806,-0.046,0.539,2.313,-0.015,2.702,0.0,6.0
76387,-0.799,-0.037,0.552,2.260,0.008,2.710,0.0,6.0
76436,-0.805,-0.045,0.547,2.366,0.115,2.679,0.0,6.0
76489,-0.797,-0.047,0.547,2.244,-0.290,2.832,0.0,6.0
76538,-0.803,-0.039,0.538,2.298,0.389,3.023,0.0,6.0
76588,-0.805,-0.041,0.541,2.412,-0.046,2.779,0.0,6.0
76638,-0.799,-0.042,0.541,2.321,0.130,2.847,0.0,6.0
76687,-0.801,-0.042,0.544,2.534,0.344,2.786,0.0,6.0
76736,-0.806,-0.042,0.547,2.252,0.008,2.672,0.0,6.0
76786,-0.799,-0.048,0.554,2.366,0.130,2.626,0.0,6.0
76835,-0.801,-0.046,0.557,2.267,-0.053,2.557,0.0,6.0
76886,-0.803,-0.050,0.551,2.412,-0.237,2.756,0.0,6.0
76938,-0.800,-0.040,0.545,2.389,0.206,2.748,0.0,6.0
76988,-0.802,-0.042,0.546,2.397,-0.458,2.550,0.0,6.0
77037,-0.794,-0.042,0.540,2.374,0.550,2.817,0.0,6.0
77086,-0.807,-0.047,0.547,2.344,-0.107,2.893,0.0,6.0
77136,-0.799,-0.044,0.553,2.305,-0.107,2.466,0.0,6.0
77186,-0.798,-0.045,0.545,2.450,0.489,2.511,0.0,6.0
77236,-0.802,-0.041,0.536,2.183,-0.664,2.595,0.0,6.0
77285,-0.811,-0.041,0.543,2.237,0.519,3.069,0.0,6.0
77335,-0.798,-0.047,0.537,2.504,-0.069,2.603,0.0,6.0
77384,-0.807,-0.040,0.543,2.183,-0.878,2.786,0.0,6.0
77437,-0.804,-0.042,0.542,2.359,1.321,2.740,0.0,6.0
77487,-0.795,-0.038,0.546,2.137,-1.351,2.557,0.0,6.0
77537,-0.797,-0.039,0.544,2.397,0.618,3.023,0.0,6.0
77586,-0.808,-0.039,0.537,2.328,-0.137,2.687,0.0,6.0
77636,-0.799,-0.043,0.544,2.160,-0.046,2.573,0.0,6.0
77686,-0.807,-0.041,0.548,2.229,0.595,2.985,0.0,6.0
77735,-0.795,-0.034,0.546,2.298,-0.328,2.649,0.0,5.0
77786,-0.798,-0.043,0.551,2.275,0.443,2.863,0.0,6.0
77835,-0.798,-0.044,0.542,2.351,-0.076,2.687,0.0,6.0
77888,-0.793,-0.042,0.549,2.321,0.069,2.672,0.0,6.0
77943,-0.806,-0.044,0.556,2.427,-0.076,2.863,0.0,6.0
77991,-0.806,-0.042,0.544,2.305,0.382,2.618,0.0,6.0
78041,-0.803,-0.040,0.547,2.282,-0.122,2.687,0.0,6.0
78089,-0.798,-0.045,0.549,2.359,0.344,2.656,0.0,6.0
78138,-0.797,-0.044,0.538,2.260,-0.084,2.603,0.0,6.0
78187,-0.803,-0.040,0.543,2.351,0.061,2.695,0.0,6.0
78235,-0.805,-0.043,0.539,2.473,-0.130,2.595,0.0,6.0
78327,-0.803,-0.045,0.542,2.282,-0.137,2.794,0.0,6.0
78376,-0.807,-0.044,0.540,2.344,0.183,2.679,0.0,6.0
78428,-0.802,-0.042,0.542,2.435,0.038,2.603,0.0,6.0
78476,-0.800,-0.044,0.539,2.260,0.115,2.901,0.0,6.0
78525,-0.806,-0.043,0.535,2.359,0.305,2.672,0.0,6.0
78574,-0.804,-0.049,0.547,2.252,0.061,2.634,0.0,6.0
78622,-0.797,-0.039,0.540,2.450,-0.191,2.542,0.0,6.0
78671,-0.800,-0.044,0.539,2.252,0.336,2.840,0.0,6.0
78721,-0.797,-0.045,0.540,2.397,0.435,2.847,0.0,6.0
78769,-0.800,-0.038,0.542,2.336,-0.374,2.511,0.0,6.0
78818,-0.808,-0.039,0.534,2.290,-0.168,2.672,0.0,6.0
78867,-0.810,-0.041,0.546,2.427,0.076,2.779,0.0,6.0
78918,-0.798,-0.045,0.539,2.313,0.168,2.947,0.0,6.0
78967,-0.797,-0.042,0.544,2.260,-0.298,2.969,0.0,6.0
79015,-0.800,-0.042,0.542,2.405,0.534,2.771,0.0,6.0
79065,-0.805,-0.045,0.544,2.328,-0.168,2.916,0.0,6.0
79114,-0.799,-0.044,0.546,2.252,0.023,2.641,0.0,6.0
79162,-0.803,-0.043,0.540,2.252,0.061,2.771,0.0,5.0
79211,-0.801,-0.047,0.544,2.298,-0.290,2.824,0.0,6.0
79260,-0.802,-0.047,0.547,2.366,-0.076,2.641,0.0,6.0
79309,-0.802,-0.041,0.542,2.244,0.122,2.710,0.0,6.0
79370,-0.799,-0.048,0.536,2.328,0.069,2.725,0.0,6.0
79421,-0.796,-0.043,0.543,2.183,-0.290,2.840,0.0,6.0
79472,-0.801,-0.045,0.539,2.389,-0.084,2.855,0.0,6.0
79523,-0.808,-0.041,0.538,2.221,-0.053,2.885,0.0,6.0
79575,-0.802,-0.043,0.537,2.328,0.191,2.809,0.0,6.0
79626,-0.802,-0.049,0.538,2.183,-0.038,2.603,0.0,6.0
79677,-0.809,-0.044,0.539,2.412,0.626,2.794,0.0,6.0
79728,-0.804,-0.042,0.542,2.298,-0.290,2.840,0.0,6.0
79780,-0.802,-0.048,0.547,2.290,0.359,2.794,0.0,6.0
79832,-0.800,-0.039,0.550,2.328,-0.435,2.695,0.0,6.0
79886,-0.802,-0.044,0.544,2.366,0.168,2.702,0.0,6.0
79937,-0.808,-0.046,0.540,2.168,0.153,2.763,0.0,6.0
79988,-0.798,-0.039,0.530,2.504,0.183,2.687,0.0,6.0
80039,-0.804,-0.047,0.545,2.328,0.344,3.031,0.0,6.0
80091,-0.811,-0.044,0.552,2.420,0.305,2.802,0.0,6.0
80143,-0.803,-0.047,0.542,2.260,-0.153,2.771,0.0,6.0
80194,-0.800,-0.042,0.547,2.305,0.382,2.481,0.0,6.0
80245,-0.800,-0.039,0.543,2.198,0.008,2.794,0.0,6.0
80296,-0.804,-0.047,0.548,2.389,0.214,2.580,0.0,6.0
80352,-0.803,-0.048,0.555,2.282,0.092,2.588,0.0,6.0
80403,-0.798,-0.040,0.542,2.374,-0.137,2.710,0.0,6.0
80454,-0.797,-0.046,0.548,2.450,0.198,2.679,0.0,6.0
80506,-0.808,-0.044,0.542,2.336,-0.145,2.794,0.0,6.0
80558,-0.802,-0.045,0.546,2.183,0.107,2.847,0.0,6.0
80610,-0.795,-0.047,0.545,2.427,0.221,2.756,0.0,6.0
80661,-0.804,-0.043,0.542,2.305,-0.427,2.748,0.0,6.0
80712,-0.804,-0.044,0.544,2.336,0.519,2.771,0.0,6.0
80764,-0.808,-0.043,0.544,2.092,-0.122,2.786,0.0,6.0
80816,-0.798,-0.041,0.543,2.313,0.160,2.733,0.0,6.0
