Timestamp(ms),AccelX(g),AccelY(g),AccelZ(g),GyroX(deg/s),GyroY(deg/s),GyroZ(deg/s),DistanceLeft(cm),DistanceRight(cm)
30127,-0.075,-0.976,0.134,2.939,-9.550,-4.962,0.0,99.0
30181,-0.130,-0.973,0.181,2.359,-0.183,-7.580,0.0,99.0
30235,-0.133,-0.981,0.187,3.992,-4.595,-9.076,0.0,99.0
30292,-0.102,-0.978,0.167,4.809,-1.565,-7.168,0.0,147.0
30347,-0.114,-0.979,0.178,5.740,6.252,-3.573,0.0,99.0
30401,-0.137,-0.974,0.185,6.099,6.130,-0.420,0.0,99.0
30455,-0.126,-0.976,0.179,5.008,4.687,1.099,0.0,87.0
30509,-0.123,-0.973,0.171,3.924,7.252,0.618,0.0,86.0
30560,-0.138,-0.961,0.178,2.137,6.519,-0.481,102.0,96.0
30608,-0.141,-0.974,0.194,0.466,2.603,-0.954,101.0,97.0
30657,-0.125,-0.977,0.187,0.580,0.504,-0.489,101.0,96.0
30704,-0.128,-0.975,0.195,-0.496,1.695,-0.115,101.0,87.0
30752,-0.134,-0.983,0.211,-0.855,-0.939,-0.824,101.0,86.0
30807,-0.127,-0.978,0.201,-0.740,-3.634,-1.389,0.0,96.0
30855,-0.127,-0.986,0.195,0.076,-2.863,-1.298,102.0,85.0
30908,-0.134,-0.974,0.207,0.412,-2.344,-0.168,0.0,85.0
30962,-0.135,-0.975,0.195,1.756,-1.718,1.191,0.0,85.0
31019,-0.133,-0.980,0.187,1.031,-4.130,1.733,0.0,84.0
31073,-0.124,-0.976,0.186,0.939,-4.534,2.802,0.0,97.0
31127,-0.125,-0.979,0.180,1.061,-3.122,4.489,0.0,97.0
31181,-0.138,-0.976,0.194,-0.008,-4.618,5.176,0.0,96.0
31229,-0.117,-0.989,0.184,0.053,-9.008,4.893,93.0,93.0
31277,-0.105,-0.982,0.170,0.748,-4.420,5.153,92.0,94.0
31325,-0.114,-0.983,0.184,1.084,-2.939,4.756,93.0,96.0
31373,-0.109,-0.984,0.177,1.260,-3.092,3.344,92.0,96.0
31421,-0.118,-0.977,0.164,0.534,-1.206,1.435,93.0,96.0
31472,-0.121,-0.983,0.180,-0.244,-1.511,-0.481,92.0,95.0
31520,-0.124,-0.976,0.198,-0.885,-2.466,-2.137,94.0,93.0
31575,-0.123,-0.991,0.186,-0.992,-2.420,-2.687,0.0,94.0
31629,-0.132,-0.984,0.181,-0.328,-1.786,-2.809,0.0,96.0
31683,-0.132,-0.980,0.186,0.061,1.359,-2.344,0.0,97.0
31736,-0.134,-0.982,0.177,0.511,2.206,-0.947,0.0,84.0
31791,-0.120,-0.971,0.176,1.115,3.580,1.214,0.0,83.0
31844,-0.141,-0.973,0.198,0.229,2.443,1.947,0.0,84.0
31897,-0.136,-0.982,0.193,0.641,-0.863,1.710,0.0,84.0
31954,-0.117,-0.971,0.195,1.634,1.573,2.382,0.0,83.0
32009,-0.137,-0.983,0.200,2.290,2.435,2.679,0.0,96.0
32057,-0.136,-0.986,0.212,3.374,-0.855,1.748,104.0,97.0
32111,-0.119,-0.969,0.200,4.344,0.725,2.321,0.0,85.0
32165,-0.134,-0.983,0.199,4.969,2.023,1.366,0.0,95.0
32214,-0.141,-0.970,0.201,5.779,0.626,-0.382,104.0,85.0
32267,-0.132,-0.978,0.188,5.382,1.863,0.511,0.0,84.0
32321,-0.126,-0.972,0.197,6.916,5.588,2.374,0.0,83.0
32374,-0.148,-0.980,0.211,5.733,6.527,1.748,0.0,86.0
32432,-0.139,-0.963,0.203,5.649,2.893,1.313,0.0,87.0
32485,-0.133,-0.973,0.219,5.435,6.847,0.504,0.0,83.0
32539,-0.150,-0.963,0.234,5.290,5.649,-1.802,0.0,88.0
32593,-0.131,-0.957,0.226,6.794,6.794,-0.710,0.0,90.0
32644,-0.161,-0.968,0.250,6.382,6.397,-0.092,113.0,115.0
32698,-0.159,-0.967,0.247,7.450,-1.527,-0.954,0.0,87.0
32795,-0.118,-0.963,0.220,9.580,7.298,2.305,0.0,87.0
32848,-0.164,-0.963,0.249,9.137,6.901,4.481,0.0,87.0
32903,-0.146,-0.951,0.231,10.565,2.298,5.718,0.0,87.0
32957,-0.121,-0.961,0.234,11.573,6.313,7.397,0.0,97.0
33009,-0.168,-0.954,0.281,11.802,8.718,7.656,105.0,86.0
33057,-0.119,-0.953,0.248,17.527,6.718,9.718,104.0,85.0
33106,-0.143,-0.940,0.275,15.519,13.771,13.641,106.0,93.0
33160,-0.147,-0.994,0.274,17.939,8.557,13.710,0.0,83.0
33214,-0.086,-0.942,0.242,19.962,17.023,19.992,0.0,88.0
33268,-0.061,-0.947,0.260,15.450,44.939,22.092,0.0,88.0
33323,-0.430,-0.884,0.655,-5.565,47.771,17.466,0.0,84.0
33378,-0.625,-1.002,0.786,2.458,3.565,59.702,0.0,107.0
33433,-0.805,-0.836,0.657,20.229,-74.046,-1.015,0.0,104.0
33489,-0.636,-0.696,0.524,36.183,-135.595,-6.611,0.0,78.0
33544,-0.208,-1.020,-0.104,86.397,-118.351,30.969,0.0,80.0
33597,-0.022,-1.281,-0.323,61.366,-63.206,67.824,0.0,71.0
33650,0.293,-0.935,-0.371,-27.969,24.985,59.237,0.0,73.0
33705,0.240,-0.234,0.635,-94.573,125.000,55.397,0.0,100.0
33759,-0.262,-1.047,0.638,-55.397,33.504,-44.435,0.0,79.0
33813,-0.345,-0.959,0.349,-35.374,6.053,-164.374,0.0,82.0
33872,-0.331,-1.076,0.234,-66.275,47.695,-186.573,0.0,166.0
33931,-0.299,-1.054,0.166,-41.824,52.336,-93.626,0.0,113.0
33987,-0.248,-1.061,0.193,-42.084,35.008,-41.473,0.0,113.0
34044,-0.229,-1.203,0.305,-45.824,28.504,-43.450,0.0,147.0
34103,-0.139,-0.829,0.311,-20.618,25.832,-44.282,0.0,150.0
34160,-0.300,-0.811,0.672,-58.901,-16.336,-22.916,193.0,144.0
34221,0.003,-1.126,0.196,-5.450,-70.870,-16.198,194.0,0.0
34278,0.099,-1.071,0.103,24.473,-12.985,-0.237,0.0,148.0
34333,0.098,-0.979,0.097,-4.573,53.824,17.366,0.0,105.0
34391,-0.095,-1.117,0.214,2.191,57.244,28.550,0.0,136.0
34459,-0.003,-0.851,0.164,17.221,24.290,57.008,0.0,135.0
34515,0.029,-1.061,0.114,9.519,20.542,64.618,0.0,134.0
34572,0.001,-1.116,0.104,9.214,28.969,37.985,0.0,134.0
34628,-0.109,-0.902,0.225,6.359,16.679,21.779,0.0,135.0
34684,-0.116,-1.023,0.142,5.374,-7.351,5.275,0.0,135.0
34741,-0.095,-1.024,0.099,6.298,1.794,-7.107,0.0,135.0
34797,-0.145,-0.967,0.154,-1.855,9.649,-10.153,0.0,135.0
34853,-0.170,-0.974,0.186,1.031,-1.740,-4.328,0.0,134.0
34911,-0.122,-1.007,0.130,3.336,-7.802,1.641,0.0,136.0
34969,-0.129,-0.972,0.164,2.115,4.718,3.588,0.0,134.0
35025,-0.144,-0.971,0.159,5.679,4.656,2.489,0.0,135.0
35083,-0.151,-0.992,0.160,2.374,-3.992,-0.099,0.0,137.0
35139,-0.108,-0.980,0.148,3.794,-0.084,1.870,0.0,137.0
35195,-0.134,-0.980,0.158,1.382,0.130,6.939,0.0,136.0
35252,-0.142,-0.990,0.175,0.397,-6.534,5.763,0.0,137.0
35308,-0.101,-0.984,0.143,-0.191,-6.252,1.992,0.0,137.0
35365,-0.120,-0.983,0.150,-1.038,-5.092,0.214,0.0,138.0
35422,-0.115,-0.986,0.146,-0.008,-2.267,-0.214,0.0,139.0
35481,-0.131,-0.994,0.152,-2.031,-3.710,-0.893,0.0,138.0
35535,-0.111,-0.986,0.159,-2.611,-5.817,-1.969,0.0,93.0
35633,-0.111,-0.994,0.155,-2.595,-4.824,-5.107,0.0,93.0
35687,-0.107,-0.977,0.148,-2.443,-1.183,-6.710,0.0,94.0
35741,-0.119,-0.982,0.158,-3.015,-2.206,-6.366,0.0,95.0
35795,-0.106,-0.986,0.139,-3.053,-2.985,-7.977,0.0,94.0
35850,-0.111,-0.990,0.137,-4.443,-1.725,-9.855,0.0,94.0
35904,-0.108,-0.963,0.150,-4.985,-2.137,-10.580,0.0,97.0
35958,-0.092,-0.981,0.135,-4.595,-3.695,-9.664,0.0,98.0
36019,-0.078,-0.958,0.129,-4.328,2.137,-9.511,0.0,145.0
36072,-0.092,-0.962,0.138,-2.374,9.382,-10.122,179.0,111.0
36130,-0.103,-1.015,0.127,-2.565,3.962,-10.504,0.0,147.0
36188,-0.053,-0.990,0.107,-2.267,13.137,-10.389,0.0,149.0
36245,-0.227,-1.346,0.412,-20.519,-2.275,-17.275,0.0,150.0
36302,-0.227,-1.370,0.501,-19.603,-78.878,-40.809,0.0,153.0
36359,-0.172,-1.131,0.486,18.634,-85.893,-93.733,0.0,116.0
36412,-0.167,-0.662,0.135,43.878,-86.000,-142.458,174.0,115.0
36465,-0.268,0.150,0.349,33.878,-116.664,-114.000,148.0,110.0
36518,-0.371,-0.861,-0.144,100.168,-231.420,-42.229,153.0,81.0
36570,0.421,-1.288,-0.437,146.130,-194.947,71.183,143.0,79.0
36621,1.028,-1.577,-0.829,132.634,10.374,212.328,0.0,49.0
36677,0.418,-0.405,-0.316,36.260,250.130,163.519,0.0,47.0
36722,0.018,-0.944,0.058,-101.832,231.038,109.000,87.0,50.0
36769,-0.409,-1.593,0.432,-84.298,99.916,1.695,85.0,88.0
36816,-0.184,-1.389,0.299,-19.031,-51.595,-58.466,82.0,88.0
36864,-0.018,-0.911,0.223,-11.725,-100.916,-42.817,81.0,89.0
36913,0.209,-0.950,-0.045,-23.695,-67.221,-1.015,79.0,71.0
36960,0.207,-1.312,-0.126,-16.527,20.351,18.511,79.0,88.0
37006,0.021,-1.279,-0.075,-22.237,82.679,8.328,77.0,74.0
37053,-0.032,-1.149,-0.039,-18.298,91.855,22.473,76.0,89.0
37100,-0.196,-1.098,0.093,-19.084,59.809,28.511,76.0,90.0
37148,-0.195,-1.103,0.074,-21.542,-7.382,24.847,75.0,108.0
37195,-0.060,-1.050,-0.045,-10.519,-41.191,16.160,74.0,92.0
37242,0.002,-0.962,-0.080,-11.405,-30.870,9.740,72.0,93.0
37289,-0.023,-1.002,-0.083,-7.885,-12.496,7.733,72.0,91.0
37339,-0.073,-1.059,-0.056,-0.656,-0.885,3.481,72.0,93.0
37389,-0.067,-1.065,-0.061,9.260,3.695,2.794,72.0,137.0
37435,-0.045,-1.027,-0.094,19.718,25.328,4.992,73.0,78.0
37484,-0.116,-0.907,-0.031,12.206,40.939,3.725,73.0,138.0
37534,-0.181,-0.907,0.037,6.206,28.733,0.458,74.0,136.0
37583,-0.214,-0.948,0.067,5.550,0.863,-6.489,74.0,137.0
37630,-0.163,-1.007,0.024,8.092,-22.267,-15.504,75.0,88.0
37678,-0.108,-1.030,-0.019,12.351,-15.565,-21.084,74.0,85.0
37728,-0.094,-1.003,-0.008,13.580,6.336,-19.817,75.0,87.0
37774,-0.112,-0.981,0.029,13.298,22.443,-11.672,76.0,83.0
37821,-0.166,-0.971,0.083,13.870,23.015,-2.649,76.0,85.0
37867,-0.190,-1.000,0.107,15.313,8.168,2.107,77.0,74.0
37913,-0.146,-0.999,0.066,17.069,3.252,4.679,77.0,74.0
37960,-0.124,-0.998,0.075,15.275,8.557,8.229,77.0,86.0
38014,-0.134,-0.996,0.076,16.397,16.740,8.733,0.0,89.0
38072,-0.177,-0.988,0.137,12.718,13.061,8.153,0.0,137.0
38127,-0.176,-0.969,0.150,11.450,0.702,7.382,0.0,116.0
38231,-0.148,-0.954,0.161,11.962,-4.878,8.191,0.0,139.0
38288,-0.152,-0.969,0.166,10.618,-6.252,7.313,0.0,141.0
38342,-0.150,-0.962,0.171,12.534,-6.710,6.626,0.0,89.0
38396,-0.149,-0.969,0.179,10.244,-6.359,6.740,0.0,90.0
38451,-0.145,-0.973,0.194,12.450,-4.160,4.435,0.0,91.0
38505,-0.159,-0.975,0.203,8.840,-5.786,3.679,0.0,90.0
38554,-0.159,-0.954,0.220,10.145,-6.580,2.038,94.0,91.0
38602,-0.161,-0.977,0.230,7.908,-9.573,0.481,94.0,91.0
38657,-0.146,-0.958,0.224,10.427,-9.550,-1.092,0.0,90.0
38714,-0.145,-0.960,0.241,8.351,-9.260,-0.313,0.0,91.0
38768,-0.142,-0.942,0.228,10.809,-2.695,2.008,0.0,94.0
38823,-0.155,-0.984,0.247,8.183,-4.397,2.321,0.0,92.0
38878,-0.152,-0.942,0.270,8.924,-2.725,1.466,0.0,91.0
38926,-0.158,-0.974,0.254,5.931,-9.588,0.603,100.0,89.0
38975,-0.157,-0.939,0.278,6.412,-9.733,0.183,99.0,90.0
39023,-0.144,-0.945,0.256,5.855,-9.542,0.977,97.0,89.0
39071,-0.150,-0.924,0.274,5.046,-6.672,1.954,98.0,89.0
39120,-0.143,-0.959,0.268,4.893,-8.191,1.679,99.0,89.0
39169,-0.144,-0.931,0.294,4.443,-6.779,2.290,109.0,87.0
39226,-0.142,-0.953,0.264,3.405,-8.794,2.656,0.0,88.0
39280,-0.158,-0.932,0.321,1.725,-7.687,2.618,0.0,83.0
39328,-0.144,-0.938,0.298,3.229,-11.038,3.458,94.0,81.0
39376,-0.138,-0.936,0.311,1.458,-12.137,3.893,93.0,83.0
39425,-0.127,-0.952,0.310,2.649,-12.351,2.260,93.0,83.0
39479,-0.127,-0.937,0.311,2.611,-9.901,2.267,0.0,91.0
39533,-0.122,-0.957,0.311,3.244,-8.076,3.046,0.0,91.0
39587,-0.136,-0.951,0.323,3.374,-7.847,2.840,0.0,91.0
39643,-0.123,-0.930,0.326,3.855,-6.542,1.809,0.0,94.0
39694,-0.130,-0.956,0.333,3.626,-7.130,0.580,93.0,93.0
39743,-0.131,-0.930,0.336,5.031,-5.359,-0.099,93.0,93.0
39791,-0.146,-0.949,0.345,4.573,-7.046,0.557,92.0,93.0
39845,-0.125,-0.945,0.354,7.427,-6.763,0.679,0.0,91.0
39900,-0.122,-0.935,0.354,8.565,-4.313,1.702,0.0,83.0
39954,-0.122,-0.934,0.376,10.046,-4.679,2.321,0.0,82.0
40008,-0.129,-0.938,0.389,11.328,-5.802,2.809,0.0,83.0
40064,-0.120,-0.926,0.373,13.962,-7.275,5.137,0.0,99.0
40119,-0.117,-0.923,0.384,15.817,-3.802,5.427,0.0,97.0
40177,-0.108,-0.922,0.381,16.351,-1.863,4.115,0.0,96.0
40231,-0.119,-0.920,0.389,16.435,2.122,6.046,0.0,84.0
40285,-0.108,-0.896,0.394,15.092,1.038,4.336,0.0,82.0
40339,-0.099,-0.858,0.390,14.313,3.412,2.962,0.0,81.0
40393,-0.132,-0.870,0.404,10.008,2.046,-2.641,0.0,81.0
40448,-0.104,-0.897,0.402,7.099,-1.466,-6.718,0.0,79.0
40502,-0.118,-0.913,0.464,2.710,-2.137,-1.557,0.0,80.0
40556,-0.090,-0.919,0.489,5.412,-10.718,4.321,0.0,79.0
40610,-0.067,-0.880,0.500,6.092,-15.901,7.122,0.0,90.0
40668,-0.041,-0.876,0.519,8.786,-15.038,1.954,0.0,84.0
40723,-0.044,-0.907,0.579,13.534,-11.176,-4.550,0.0,89.0
40777,-0.100,-0.978,0.715,21.015,-8.290,3.702,0.0,92.0
40833,-0.147,-1.007,0.781,38.443,-23.725,-0.779,0.0,90.0
40930,-0.069,-0.750,0.483,68.710,-16.817,1.405,0.0,86.0
40984,-0.068,-0.507,0.225,69.443,7.389,21.664,0.0,82.0
41038,-0.248,-0.590,0.243,26.863,-10.626,32.489,0.0,80.0
41093,-0.210,-0.764,0.175,-21.046,-63.695,7.443,0.0,79.0
41147,-0.023,-0.785,0.110,-40.656,-51.237,-20.137,0.0,78.0
41205,-0.034,-0.372,0.512,-112.847,-24.450,8.290,0.0,86.0
41256,-0.162,-1.141,0.543,-157.969,-95.496,8.160,146.0,80.0
41315,0.292,-0.885,0.312,-63.908,-83.664,-11.878,137.0,118.0
41369,0.295,-0.754,0.416,-68.313,-6.695,20.092,0.0,92.0
41423,0.206,-0.726,0.285,-11.542,67.702,19.160,0.0,99.0
41467,-0.053,-1.253,0.595,-42.771,102.908,23.122,65.0,58.0
41511,-0.379,-1.557,0.675,-92.321,64.756,-40.191,64.0,56.0
41555,-0.161,-1.392,0.410,-44.802,35.092,-65.191,64.0,57.0
41601,-0.119,-1.134,0.370,-24.160,55.023,-40.985,64.0,57.0
41648,-0.065,-0.865,0.175,-23.206,101.802,-9.321,64.0,72.0
41693,-0.170,-0.699,0.257,-28.183,137.191,33.046,64.0,70.0
41738,-0.327,-0.796,0.414,-34.130,102.534,61.260,65.0,70.0
41785,-0.274,-1.089,0.383,-22.939,22.947,58.275,65.0,110.0
41832,-0.048,-1.095,0.232,-4.038,-2.244,50.618,64.0,114.0
41880,0.101,-1.070,0.081,7.420,23.321,59.687,64.0,127.0
41927,0.043,-1.109,0.064,18.191,75.611,48.534,65.0,108.0
41980,-0.047,-1.125,-0.013,33.855,115.634,33.908,0.0,76.0
42037,-0.187,-1.006,0.069,33.595,122.733,19.061,0.0,72.0
42089,-0.266,-1.031,0.082,32.725,98.977,-7.870,0.0,70.0
42141,-0.312,-1.032,0.115,27.771,59.267,-41.313,0.0,67.0
42198,-0.287,-1.021,0.073,29.626,26.611,-74.718,0.0,67.0
42248,-0.200,-1.039,0.010,27.931,30.656,-90.221,143.0,66.0
42299,-0.116,-1.010,-0.036,30.473,54.824,-76.046,146.0,102.0
42352,-0.093,-0.826,0.053,32.382,71.756,-49.603,149.0,134.0
42405,-0.276,-1.587,0.169,35.580,52.702,-50.046,152.0,108.0
42460,-0.145,-1.484,-0.131,76.198,12.939,-71.664,155.0,138.0
42516,-0.037,-0.398,0.132,51.252,39.466,-30.779,159.0,119.0
42569,0.025,-0.578,0.145,25.489,77.992,-19.763,162.0,114.0
42622,0.012,-1.095,0.117,67.466,111.221,-11.664,164.0,113.0
42676,-0.176,-1.258,0.533,34.893,104.603,-35.015,167.0,109.0
42729,-0.218,-0.979,0.923,10.771,22.863,-52.870,168.0,107.0
42782,-0.136,-1.211,0.624,85.092,-65.840,-40.924,172.0,106.0
42836,-0.009,-0.989,0.494,87.710,-83.458,-91.252,190.0,104.0
42894,-0.078,-0.543,0.575,50.214,-18.878,-187.511,192.0,143.0
42953,-0.251,-0.506,0.511,52.038,-25.779,-225.901,124.0,0.0
43008,-0.010,-0.572,-0.121,88.107,20.504,-192.725,120.0,182.0
43064,0.027,0.000,0.085,73.985,106.252,-17.435,115.0,0.0
43118,-0.273,-0.399,0.315,-18.962,56.130,155.603,105.0,0.0
43172,-0.348,-0.471,0.454,-44.870,-22.847,222.557,92.0,0.0
43227,-0.350,-0.398,0.743,-21.160,32.901,214.718,155.0,131.0
43280,-0.754,0.161,0.895,7.168,150.817,250.130,144.0,135.0
43329,-1.534,0.231,1.379,-145.069,-68.023,250.130,132.0,54.0
43372,-0.925,-0.786,0.176,-196.221,-207.786,250.130,43.0,64.0
43418,-1.325,-2.000,-0.114,-53.038,-200.366,250.130,36.0,59.0
43461,-0.599,-1.538,-0.098,82.206,-91.382,178.099,38.0,58.0
43555,-0.764,-2.000,0.106,130.443,70.618,65.069,0.0,29.0
43606,-0.672,-1.485,1.042,75.336,24.473,-64.725,0.0,34.0
43658,-0.067,-0.948,0.933,-27.076,20.924,-101.679,0.0,40.0
43708,-0.413,0.539,1.657,-104.511,-29.366,-18.656,180.0,41.0
43759,-0.803,-0.448,1.433,-86.618,-186.282,-29.519,0.0,41.0
43803,-0.336,-0.183,1.559,-4.420,-134.145,-1.099,63.0,41.0
43849,-0.055,-0.413,0.416,-9.473,-62.771,-49.481,57.0,41.0
43891,-0.173,-0.362,0.653,-36.893,-53.901,-98.840,44.0,42.0
43934,-0.050,-0.969,0.802,-12.366,50.458,-38.053,37.0,42.0
43976,-0.349,-0.708,0.970,-16.053,34.840,-58.420,39.0,43.0
44018,-0.281,-0.415,0.549,-18.786,-34.740,-60.916,38.0,44.0
44061,-0.107,-0.668,0.946,-32.870,-17.443,-68.191,39.0,45.0
44103,-0.132,-0.640,1.050,1.412,26.748,-82.176,36.0,46.0
44145,-0.490,-0.482,0.914,-3.977,38.458,-92.802,31.0,48.0
44187,-0.698,-0.652,1.248,-21.885,-105.359,-99.649,32.0,50.0
44233,-0.209,-0.924,0.661,-56.427,-193.985,-111.748,37.0,52.0
44281,0.290,-0.992,-0.010,-42.885,-137.382,-101.802,37.0,145.0
44331,0.513,-0.898,0.016,-26.794,-5.679,-2.176,36.0,172.0
44378,0.263,-0.729,0.187,-56.122,9.641,75.298,29.0,124.0
44423,0.201,-0.818,0.183,-33.198,-2.595,11.824,34.0,103.0
44466,0.268,-0.628,0.374,-16.046,-24.939,-21.122,20.0,74.0
44510,0.468,-0.690,0.614,-18.000,-60.443,1.679,19.0,78.0
44553,0.976,-0.800,1.354,-97.336,-131.115,39.351,16.0,83.0
44612,0.935,-1.099,0.831,-11.656,-126.802,-33.252,0.0,122.0
44669,0.651,-0.893,0.468,85.992,-91.099,-111.473,0.0,141.0
44730,0.577,-0.661,0.133,98.786,-41.809,-131.595,0.0,0.0
44790,0.569,-0.556,0.158,73.832,21.000,-91.649,0.0,0.0
44851,0.540,-0.421,0.443,42.107,34.710,-51.573,0.0,0.0
44898,0.658,-0.472,0.681,25.672,-18.008,-50.237,0.0,0.0
44945,0.713,-0.479,0.749,31.794,-46.473,-89.809,0.0,0.0
45005,0.786,-0.271,0.672,37.122,-66.672,-116.641,0.0,0.0
45054,0.941,-0.066,0.484,33.351,-51.885,-102.725,5.0,0.0
45119,0.847,-0.095,0.438,31.618,-46.534,-92.847,0.0,0.0
45179,0.947,-0.020,0.046,64.908,-9.931,-79.206,0.0,0.0
45230,0.661,0.358,0.240,47.847,19.344,-78.153,19.0,0.0
45290,0.647,0.143,0.240,18.969,-29.008,-95.534,0.0,0.0
45340,0.663,0.189,0.262,10.527,-64.733,-69.977,10.0,0.0
45390,0.791,0.294,0.228,9.282,-69.053,-64.962,16.0,0.0
45441,0.822,0.379,0.187,3.298,-57.000,-96.969,10.0,0.0
45490,0.839,0.467,0.144,-0.405,-29.420,-130.420,8.0,0.0
45551,0.821,0.646,0.233,10.511,3.176,-142.595,0.0,0.0
45590,0.662,0.838,0.204,43.504,7.282,-159.000,17.0,0.0
45631,0.557,0.691,0.201,52.977,-6.130,-169.985,16.0,40.0
45673,0.553,0.891,-0.042,71.260,14.740,-185.435,26.0,41.0
45714,0.425,2.000,0.018,51.534,-0.405,-149.031,26.0,25.0
45755,0.250,0.313,0.217,30.473,0.763,-106.458,30.0,22.0
45803,0.121,0.403,-0.216,28.885,15.298,-133.763,164.0,17.0
45843,-0.004,0.789,-0.008,11.000,21.046,-164.924,36.0,11.0
45893,-0.161,1.543,-0.154,6.099,-0.321,-150.237,171.0,43.0
45943,-0.273,0.726,-0.084,12.130,-37.641,-149.580,0.0,8.0
46040,-0.390,0.822,-0.994,3.366,-76.878,-58.611,0.0,11.0
46090,-0.263,1.002,-0.026,7.389,-46.206,-14.817,0.0,10.0
46140,-0.221,0.973,0.018,2.076,11.664,7.328,0.0,12.0
46190,-0.609,1.014,0.176,1.847,7.794,10.481,0.0,11.0
46240,-0.382,0.916,0.075,-4.405,-29.275,14.183,0.0,11.0
46296,-0.143,0.942,-0.039,-3.069,-7.336,7.847,0.0,105.0
46351,-0.123,0.908,0.014,5.168,21.969,3.397,0.0,105.0
46401,-0.180,0.957,0.037,9.687,7.496,-10.618,0.0,15.0
46451,-0.201,0.960,-0.005,7.061,21.603,-10.870,0.0,9.0
46504,-0.413,0.958,0.087,4.527,14.519,-4.664,0.0,11.0
46555,-0.348,0.959,0.024,2.550,-3.427,-3.061,0.0,11.0
46604,-0.369,0.963,0.006,-0.397,-4.786,3.664,0.0,10.0
46654,-0.354,0.924,0.062,-0.939,-17.916,4.656,0.0,11.0
46705,-0.245,0.939,0.035,1.603,-12.389,1.000,0.0,16.0
46755,-0.246,0.952,0.010,3.206,-1.122,-0.107,0.0,13.0
46806,-0.214,0.943,0.006,4.275,14.908,-0.038,0.0,13.0
46855,-0.265,0.952,0.002,4.885,24.130,0.076,0.0,11.0
46905,-0.300,0.936,0.034,7.664,23.885,1.275,0.0,10.0
46958,-0.290,0.918,0.006,10.435,22.130,-0.603,0.0,11.0
47008,-0.336,0.934,0.014,16.809,14.038,-2.855,0.0,11.0
47058,-0.274,0.950,-0.059,19.366,15.145,-3.397,0.0,11.0
47114,-0.339,0.951,-0.029,21.061,18.771,-0.466,0.0,105.0
47170,-0.281,0.937,-0.091,17.954,7.695,-2.565,0.0,103.0
47225,-0.281,0.935,-0.131,18.023,16.122,-2.290,0.0,103.0
47281,-0.299,0.903,-0.127,20.137,14.031,-5.084,0.0,103.0
47335,-0.277,0.931,-0.187,20.969,9.321,-9.656,177.0,103.0
47389,-0.357,0.925,-0.123,23.206,1.748,-9.733,177.0,104.0
47447,-0.298,0.902,-0.220,20.183,-7.313,-13.565,176.0,104.0
47501,-0.295,0.901,-0.227,18.550,-1.779,-22.282,177.0,103.0
47556,-0.284,0.857,-0.234,18.718,1.374,-30.527,178.0,102.0
47610,-0.322,0.851,-0.245,21.710,4.763,-38.481,178.0,104.0
47665,-0.497,0.794,-0.303,17.672,5.649,-14.031,179.0,101.0
47719,-0.715,0.979,-0.372,-27.137,-9.519,34.626,182.0,100.0
47774,-0.659,0.799,-0.234,1.229,-18.649,-19.168,0.0,101.0
47835,-0.287,0.803,-0.254,1.908,-11.511,-5.962,181.0,101.0
47890,-0.414,0.863,-0.280,2.115,4.321,-5.023,0.0,101.0
47946,-0.559,0.828,-0.249,-2.817,8.366,5.015,0.0,101.0
48002,-0.521,0.823,-0.262,1.939,-4.939,-3.366,0.0,102.0
48056,-0.426,0.814,-0.272,6.015,-4.878,2.237,0.0,101.0
48110,-0.391,0.843,-0.329,8.038,17.237,1.947,0.0,102.0
48164,-0.473,0.831,-0.269,8.031,21.702,2.214,0.0,101.0
48218,-0.458,0.860,-0.329,6.626,17.618,4.053,180.0,101.0
48271,-0.454,0.841,-0.312,3.802,16.679,2.893,179.0,102.0
48324,-0.510,0.843,-0.304,4.840,1.664,4.672,179.0,101.0
48377,-0.421,0.824,-0.324,7.519,-9.244,4.198,179.0,101.0
48436,-0.401,0.842,-0.375,7.168,7.000,7.962,0.0,102.0
48489,-0.452,0.836,-0.312,11.847,12.573,16.321,179.0,103.0
48543,-0.416,0.825,-0.310,17.641,4.992,14.183,0.0,102.0
48598,-0.429,0.745,-0.192,31.137,-22.092,2.573,0.0,103.0
48652,-0.326,0.810,-0.371,34.191,-32.038,-3.580,178.0,104.0
48748,-0.386,0.738,-0.426,36.290,17.672,-9.802,179.0,102.0
48803,-0.486,0.721,-0.433,37.534,15.023,-8.885,0.0,103.0
48855,-0.433,0.745,-0.525,40.550,-19.695,-22.038,0.0,44.0
48907,-0.391,0.730,-0.576,30.573,-18.382,-23.802,0.0,7.0
48942,-0.497,0.708,-0.592,30.153,-5.702,-27.244,0.0,6.0
48991,-0.529,0.701,-0.569,26.634,-10.137,-26.290,0.0,4.0
49026,-0.490,0.617,-0.564,25.756,-3.435,-24.183,0.0,4.0
49075,-0.547,0.614,-0.575,30.901,-8.290,-28.160,0.0,3.0
49121,-0.520,0.627,-0.590,26.015,-11.969,-31.718,0.0,0.0
49168,-0.557,0.367,-0.887,22.015,-94.542,-51.603,0.0,0.0
49214,-0.642,0.508,-0.715,-6.603,-57.504,-16.931,0.0,0.0
49260,-0.529,0.589,-0.601,-3.969,-8.718,-0.710,0.0,0.0
49327,-0.668,0.583,-0.479,3.550,1.664,3.817,0.0,0.0
49374,-0.619,0.622,-0.485,0.954,3.504,-0.649,0.0,0.0
49420,-0.627,0.594,-0.506,3.351,6.092,2.557,0.0,0.0
49466,-0.654,0.550,-0.461,2.802,0.267,0.397,0.0,0.0
49513,-0.710,0.438,-0.369,7.168,-18.397,-2.313,0.0,0.0
49559,-0.647,0.858,-0.457,12.466,-19.924,-8.618,0.0,0.0
49605,-0.466,0.731,-0.677,13.656,-14.214,-5.267,0.0,0.0
49654,-0.677,0.590,-0.600,17.405,-1.069,-0.290,0.0,4.0
49690,-0.629,0.566,-0.537,11.511,14.542,4.580,0.0,4.0
49738,-0.686,0.525,-0.528,14.664,14.298,4.992,0.0,5.0
49795,-0.607,0.536,-0.567,20.756,3.046,2.885,0.0,4.0
49844,-0.726,0.809,-0.598,20.351,17.763,-7.153,0.0,4.0
49896,-0.654,0.529,-0.647,3.221,7.977,1.977,0.0,4.0
49945,-0.608,0.514,-0.598,-4.115,-3.832,9.229,0.0,5.0
49998,-0.602,0.535,-0.557,-5.962,-0.679,-3.573,0.0,4.0
50048,-0.618,0.547,-0.563,0.962,-9.962,-5.489,0.0,4.0
50083,-0.623,0.543,-0.574,1.817,-8.229,1.947,0.0,5.0
50132,-0.638,0.532,-0.561,0.924,0.260,0.580,0.0,5.0
50167,-0.639,0.536,-0.574,2.313,2.641,-0.427,0.0,5.0
50220,-0.634,0.525,-0.572,1.687,1.504,-0.328,0.0,5.0
50273,-0.648,0.516,-0.580,2.061,0.084,0.038,0.0,5.0
50322,-0.638,0.534,-0.577,0.023,-2.725,0.618,0.0,5.0
50374,-0.635,0.535,-0.564,0.092,-3.275,1.069,0.0,5.0
50423,-0.644,0.530,-0.562,0.275,-0.015,0.527,0.0,5.0
50477,-0.635,0.533,-0.567,1.099,0.664,0.069,0.0,4.0
50526,-0.635,0.530,-0.567,0.679,0.328,-0.046,0.0,4.0
50579,-0.634,0.527,-0.567,0.466,-0.885,0.389,0.0,4.0
50628,-0.642,0.527,-0.567,0.351,-0.908,0.435,0.0,4.0
50663,-0.633,0.534,-0.569,0.321,-2.366,0.969,0.0,4.0
50715,-0.637,0.530,-0.563,0.313,-0.710,0.466,0.0,4.0
50751,-0.633,0.529,-0.577,0.374,-0.168,0.260,0.0,5.0
50800,-0.635,0.529,-0.581,0.840,-0.427,0.344,0.0,4.0
50835,-0.636,0.527,-0.563,0.443,-1.443,0.565,0.0,4.0
50884,-0.634,0.529,-0.562,0.336,-1.374,0.603,0.0,4.0
50920,-0.631,0.529,-0.562,0.328,-2.145,0.863,0.0,4.0
50969,-0.637,0.531,-0.575,0.351,-0.366,0.336,0.0,4.0
51005,-0.641,0.529,-0.576,0.443,-0.008,0.557,0.0,4.0
51054,-0.635,0.534,-0.573,0.397,-0.733,0.427,0.0,4.0
51149,-0.638,0.537,-0.568,-0.008,0.603,0.298,0.0,5.0
51202,-0.620,0.547,-0.594,-2.939,2.458,1.183,0.0,4.0
51252,-0.558,0.616,-0.701,-9.336,13.748,10.832,0.0,4.0
51287,-0.659,0.433,-0.687,-12.931,29.038,9.939,0.0,6.0
51347,-0.709,0.554,-0.590,-16.916,19.664,13.023,0.0,0.0
51408,-0.664,0.561,-0.593,-18.466,-11.084,15.427,0.0,0.0
51458,-0.574,0.604,-0.587,-22.298,-6.893,20.603,0.0,2.0
51493,-0.565,0.630,-0.565,-24.214,3.198,22.183,0.0,2.0
51543,-0.556,0.619,-0.539,-24.756,4.634,22.565,0.0,2.0
51598,-0.535,0.652,-0.510,-23.931,3.366,19.496,0.0,3.0
51648,-0.523,0.655,-0.480,-22.664,0.053,15.015,0.0,4.0
51700,-0.489,0.652,-0.493,-16.183,0.313,9.901,0.0,5.0
51750,-0.496,0.719,-0.468,-17.153,-0.450,6.504,0.0,5.0
51804,-0.531,0.727,-0.469,-18.832,-3.779,3.214,0.0,7.0
51853,-0.529,0.708,-0.463,-19.321,-6.336,4.046,0.0,6.0
51906,-0.515,0.719,-0.450,-17.977,-3.496,4.267,0.0,10.0
51956,-0.519,0.731,-0.427,-14.656,-0.649,3.985,0.0,8.0
52012,-0.519,0.730,-0.400,-13.153,-2.542,2.641,0.0,49.0
52065,-0.513,0.688,-0.323,-4.542,-7.710,1.427,0.0,8.0
52118,-0.476,0.728,-0.349,4.550,-8.221,-1.435,0.0,9.0
52170,-0.479,0.790,-0.431,5.382,17.206,-1.870,0.0,51.0
52227,-0.560,0.768,-0.376,2.046,7.252,-2.565,0.0,51.0
52276,-0.540,0.724,-0.441,1.969,-13.153,-3.718,0.0,8.0
52329,-0.505,0.739,-0.477,2.160,-3.061,-1.527,0.0,7.0
52379,-0.551,0.733,-0.428,-0.611,4.618,-1.053,0.0,8.0
52434,-0.551,0.733,-0.410,-0.725,-4.405,-2.061,0.0,44.0
52487,-0.528,0.761,-0.424,-2.115,-5.908,-2.458,0.0,44.0
52540,-0.529,0.742,-0.426,-4.786,-2.992,-2.282,0.0,10.0
52595,-0.541,0.720,-0.384,-1.252,-1.244,-1.351,0.0,48.0
52647,-0.553,0.732,-0.392,0.473,-2.183,-1.031,0.0,48.0
52704,-0.537,0.737,-0.409,0.771,-1.366,-0.855,0.0,48.0
52761,-0.506,0.704,-0.422,2.496,1.702,-3.672,0.0,142.0
52811,-0.553,0.740,-0.398,1.924,1.969,-5.916,0.0,7.0
52867,-0.533,0.703,-0.427,1.817,0.389,-8.206,0.0,43.0
52916,-0.558,0.712,-0.406,2.855,0.748,-8.374,0.0,6.0
52971,-0.578,0.726,-0.410,3.588,1.458,-8.969,0.0,40.0
53021,-0.563,0.692,-0.432,2.122,1.137,-8.076,0.0,6.0
53080,-0.582,0.693,-0.414,2.618,2.267,-7.817,0.0,39.0
53130,-0.559,0.699,-0.421,5.817,2.947,-9.641,0.0,5.0
53183,-0.563,0.678,-0.448,5.771,6.359,-10.794,0.0,6.0
53234,-0.607,0.676,-0.416,4.916,2.779,-11.092,0.0,43.0
53288,-0.605,0.677,-0.443,6.588,-0.038,-10.229,0.0,4.0
53338,-0.586,0.655,-0.467,7.015,3.038,-9.443,0.0,5.0
53391,-0.605,0.644,-0.460,6.763,5.763,-9.206,0.0,4.0
53441,-0.598,0.641,-0.449,8.206,6.580,-9.893,0.0,3.0
53494,-0.623,0.628,-0.463,9.702,4.053,-10.023,0.0,3.0
53547,-0.615,0.628,-0.475,8.603,3.443,-9.099,0.0,3.0
53600,-0.680,0.750,-0.652,6.504,-23.351,-9.939,0.0,3.0
53650,-0.676,0.625,-0.525,3.565,-0.397,1.954,0.0,3.0
53703,-0.620,0.618,-0.467,1.603,6.565,3.076,0.0,4.0
53795,-0.612,0.600,-0.451,0.634,-5.466,-1.786,0.0,3.0
53849,-0.559,0.629,-0.499,1.649,-12.221,-4.237,0.0,3.0
53899,-0.641,0.623,-0.475,-1.473,-10.015,-5.603,0.0,4.0
53952,-0.637,0.617,-0.467,1.420,-7.260,-2.191,0.0,5.0
54002,-0.656,0.603,-0.469,1.221,2.412,1.153,0.0,4.0
54059,-0.638,0.606,-0.480,1.229,2.382,2.137,0.0,4.0
54108,-0.639,0.612,-0.470,-0.160,-1.382,0.405,0.0,5.0
54162,-0.638,0.608,-0.468,-0.466,-4.038,-0.908,0.0,4.0
54211,-0.645,0.605,-0.469,0.038,-4.275,-1.069,0.0,4.0
54264,-0.651,0.582,-0.441,1.069,-5.046,-1.160,0.0,4.0
54315,-0.644,0.677,-0.565,3.252,-7.015,-1.740,0.0,5.0
54381,-0.717,0.573,-0.338,1.939,-6.153,-2.145,0.0,0.0
54427,-0.645,0.602,-0.453,1.962,-1.443,1.519,0.0,0.0
54473,-0.699,0.577,-0.417,4.992,0.458,0.496,0.0,0.0
54519,-0.692,0.582,-0.351,3.206,-7.947,-2.046,0.0,0.0
54557,-0.646,0.600,-0.436,2.160,-6.771,-0.557,0.0,6.0
54606,-0.674,0.576,-0.445,0.595,-2.550,-0.710,0.0,5.0
54641,-0.655,0.595,-0.472,0.611,-3.802,0.084,0.0,5.0
54690,-0.667,0.589,-0.450,0.695,-4.115,-0.168,0.0,5.0
54725,-0.672,0.577,-0.448,2.031,-3.702,-0.450,0.0,5.0
54774,-0.658,0.613,-0.466,1.885,-3.710,-0.565,0.0,4.0
54809,-0.690,0.581,-0.422,1.191,-3.328,-0.282,0.0,5.0
54858,-0.673,0.584,-0.449,1.542,-1.954,0.412,0.0,5.0
54893,-0.668,0.582,-0.438,1.038,-5.160,-0.328,0.0,5.0
54945,-0.674,0.595,-0.408,1.137,-5.489,-0.450,0.0,5.0
54980,-0.687,0.554,-0.414,2.038,-6.275,-1.115,0.0,7.0
55041,-0.659,0.623,-0.471,2.626,-2.977,0.176,0.0,0.0
55087,-0.659,0.583,-0.464,3.122,-2.160,0.420,0.0,0.0
55133,-0.679,0.584,-0.465,1.649,1.687,0.802,0.0,0.0
55179,-0.678,0.592,-0.466,2.313,1.290,2.038,0.0,0.0
55225,-0.671,0.587,-0.453,0.298,0.710,0.397,0.0,0.0
55272,-0.671,0.574,-0.438,1.496,-2.840,0.435,0.0,0.0
55318,-0.673,0.582,-0.453,1.733,-3.328,-0.069,0.0,0.0
55364,-0.672,0.581,-0.448,2.695,-2.656,-0.229,0.0,0.0
55413,-0.675,0.572,-0.435,2.344,-2.374,0.061,0.0,0.0
55459,-0.677,0.592,-0.460,3.450,-0.374,0.748,0.0,0.0
55505,-0.665,0.591,-0.467,2.855,1.901,1.420,0.0,0.0
55553,-0.665,0.589,-0.474,3.435,2.290,1.191,0.0,0.0
55599,-0.672,0.573,-0.449,2.565,0.977,1.344,0.0,0.0
55645,-0.663,0.573,-0.460,4.282,-1.466,0.344,0.0,0.0
55691,-0.673,0.593,-0.454,4.198,-1.382,0.458,0.0,0.0
55737,-0.670,0.573,-0.459,3.931,1.634,0.557,0.0,0.0
55784,-0.679,0.546,-0.443,5.947,-5.023,-0.916,0.0,0.0
55846,-0.679,0.635,-0.494,4.092,-7.107,-2.183,0.0,0.0
55907,-0.663,0.573,-0.513,1.405,0.847,2.496,0.0,0.0
55967,-0.659,0.566,-0.506,1.656,1.802,2.656,0.0,0.0
56028,-0.670,0.571,-0.475,0.893,-1.115,0.748,0.0,0.0
56087,-0.668,0.569,-0.471,-0.641,-3.008,-0.656,0.0,0.0
56147,-0.666,0.572,-0.467,0.015,-1.550,0.695,0.0,0.0
56208,-0.668,0.572,-0.478,1.618,1.595,1.550,0.0,0.0
56311,-0.669,0.574,-0.481,0.504,-0.901,0.908,0.0,0.0
56372,-0.668,0.575,-0.483,0.023,-1.557,-0.076,0.0,0.0
56432,-0.669,0.575,-0.478,0.000,-2.084,0.168,0.0,0.0
56495,-0.669,0.571,-0.462,0.382,-1.328,0.336,0.0,0.0
56555,-0.666,0.571,-0.470,0.573,0.435,0.924,0.0,0.0
56592,-0.669,0.573,-0.479,0.412,-0.008,0.725,31.0,0.0
56652,-0.668,0.573,-0.478,0.389,-1.076,0.511,0.0,0.0
56713,-0.670,0.574,-0.470,0.084,-1.794,0.221,0.0,0.0
56773,-0.670,0.571,-0.476,0.321,-0.412,0.740,0.0,0.0
56820,-0.670,0.570,-0.479,0.473,-0.069,0.412,0.0,0.0
56866,-0.664,0.569,-0.465,0.084,-0.908,0.435,0.0,0.0
56927,-0.670,0.574,-0.472,0.527,-1.565,0.855,0.0,0.0
56989,-0.671,0.571,-0.480,0.168,-0.076,0.366,0.0,0.0
57050,-0.667,0.575,-0.465,0.550,-0.107,0.893,0.0,0.0
57110,-0.667,0.578,-0.467,0.267,-1.031,0.427,0.0,0.0
57170,-0.671,0.572,-0.468,0.374,-0.840,0.450,0.0,0.0
57231,-0.667,0.573,-0.476,0.618,-1.160,0.580,0.0,0.0
57291,-0.674,0.570,-0.486,0.298,-0.954,0.405,0.0,0.0
57352,-0.667,0.571,-0.481,0.359,-0.534,0.634,0.0,0.0
57412,-0.671,0.571,-0.469,0.511,-0.863,0.634,0.0,0.0
57473,-0.673,0.570,-0.479,0.084,-1.427,0.023,0.0,0.0
57533,-0.667,0.579,-0.471,0.252,-1.443,0.527,0.0,0.0
57597,-0.668,0.569,-0.473,0.504,-0.458,0.641,0.0,0.0
57644,-0.671,0.572,-0.469,0.321,-0.527,0.611,0.0,0.0
57691,-0.671,0.573,-0.471,0.145,-0.985,0.519,0.0,0.0
57751,-0.671,0.575,-0.476,0.374,-1.229,0.191,0.0,0.0
57811,-0.665,0.571,-0.479,0.130,-1.191,0.305,0.0,0.0
57858,-0.668,0.576,-0.472,0.344,-0.687,0.534,0.0,0.0
57905,-0.674,0.573,-0.484,0.305,-0.481,0.527,0.0,0.0
57965,-0.670,0.575,-0.470,0.160,-0.931,0.359,0.0,0.0
58011,-0.673,0.574,-0.474,0.550,-1.244,0.481,0.0,0.0
58079,-0.670,0.576,-0.460,0.069,-1.122,0.382,0.0,0.0
58139,-0.667,0.573,-0.476,0.542,0.130,0.611,0.0,0.0
58200,-0.668,0.572,-0.477,0.290,-0.374,0.580,0.0,0.0
58260,-0.677,0.575,-0.470,0.275,-0.985,0.595,0.0,0.0
58320,-0.667,0.581,-0.478,0.122,-0.725,0.557,0.0,0.0
58382,-0.671,0.580,-0.479,0.298,-0.214,0.489,0.0,0.0
58442,-0.663,0.571,-0.469,0.344,-0.695,0.611,0.0,0.0
58503,-0.669,0.573,-0.467,0.679,-0.435,0.611,0.0,0.0
58563,-0.675,0.578,-0.469,0.122,-0.496,0.534,0.0,0.0
58624,-0.669,0.575,-0.473,0.466,-0.405,0.527,0.0,0.0
58687,-0.672,0.576,-0.477,0.336,-0.344,0.779,0.0,0.0
58734,-0.666,0.577,-0.478,0.336,-0.985,0.366,0.0,0.0
58781,-0.673,0.575,-0.489,0.282,-1.107,0.321,0.0,0.0
58842,-0.666,0.574,-0.470,0.221,-1.122,0.420,0.0,0.0
58902,-0.675,0.577,-0.476,0.389,-0.672,0.649,0.0,0.0
58962,-0.668,0.568,-0.481,0.542,-0.298,0.748,0.0,0.0
59024,-0.664,0.576,-0.476,0.176,-0.893,0.458,0.0,0.0
59084,-0.667,0.575,-0.472,0.466,-1.084,0.649,0.0,0.0
59145,-0.663,0.576,-0.475,0.336,-0.344,0.534,0.0,0.0
59252,-0.664,0.577,-0.480,0.229,-0.687,0.916,0.0,0.0
59313,-0.667,0.573,-0.469,0.382,-0.557,0.130,0.0,0.0
59373,-0.669,0.577,-0.472,0.557,-0.832,0.748,0.0,0.0
59435,-0.665,0.576,-0.469,0.397,-0.260,0.649,0.0,0.0
59495,-0.664,0.573,-0.480,0.389,-0.763,0.634,0.0,0.0
59555,-0.667,0.571,-0.473,0.450,-0.870,0.351,0.0,0.0
59602,-0.669,0.573,-0.468,-0.321,-1.794,-0.176,0.0,0.0
59650,-0.667,0.574,-0.473,0.221,-1.198,0.321,0.0,0.0
59710,-0.669,0.578,-0.474,0.511,-0.634,0.366,0.0,0.0
59774,-0.676,0.574,-0.473,0.496,-0.618,0.672,0.0,0.0
59835,-0.669,0.574,-0.467,0.031,-1.298,0.115,0.0,0.0
59895,-0.666,0.570,-0.466,0.183,-1.389,0.214,0.0,0.0
59957,-0.668,0.576,-0.473,0.351,-0.321,0.489,0.0,0.0
60017,-0.671,0.574,-0.470,0.198,-0.473,0.756,0.0,0.0
60064,-0.665,0.573,-0.468,0.565,-1.481,0.496,0.0,0.0
60111,-0.667,0.573,-0.473,-0.076,-1.534,-0.130,0.0,0.0
60172,-0.669,0.571,-0.471,0.168,-1.840,0.275,0.0,0.0
60233,-0.674,0.576,-0.468,0.344,-0.344,0.664,0.0,0.0
60294,-0.668,0.582,-0.460,0.122,-0.015,0.450,0.0,0.0
60358,-0.674,0.569,-0.484,0.458,-1.145,0.481,0.0,0.0
60419,-0.671,0.574,-0.467,0.038,-1.985,0.229,0.0,0.0
60480,-0.664,0.576,-0.472,0.198,-1.229,0.214,0.0,0.0
60540,-0.669,0.574,-0.474,0.344,-0.634,0.992,0.0,0.0
60601,-0.673,0.573,-0.473,0.649,-0.687,0.733,0.0,0.0
60662,-0.663,0.535,-0.406,2.595,-11.099,-1.084,0.0,0.0
60723,-0.662,0.570,-0.486,0.321,-1.313,0.519,0.0,0.0
60771,-0.671,0.576,-0.468,0.641,0.305,0.977,0.0,0.0
60817,-0.668,0.573,-0.470,0.328,-1.183,0.664,0.0,0.0
60891,-0.668,0.576,-0.465,0.412,-1.305,0.321,0.0,0.0
60941,-0.675,0.570,-0.459,0.321,-0.336,0.473,0.0,0.0
61007,-0.672,0.575,-0.470,0.550,-0.038,1.130,0.0,0.0
61057,-0.681,0.565,-0.464,0.634,-1.901,1.115,0.0,0.0
61123,-0.670,0.576,-0.474,0.244,-1.351,0.366,0.0,0.0
61173,-0.668,0.572,-0.467,0.832,0.145,0.817,0.0,0.0
61240,-0.666,0.574,-0.474,0.412,-0.130,0.786,0.0,0.0
61290,-0.667,0.576,-0.467,0.282,-1.435,0.313,0.0,0.0
61357,-0.673,0.571,-0.458,0.450,-1.817,0.649,0.0,0.0
61412,-0.667,0.575,-0.462,-0.069,-1.328,0.458,0.0,0.0
61479,-0.666,0.570,-0.477,0.382,-0.756,0.618,0.0,0.0
61529,-0.673,0.568,-0.462,0.740,-0.282,0.832,0.0,0.0
61577,-0.669,0.574,-0.469,0.313,-1.328,0.351,0.0,0.0
61626,-0.675,0.570,-0.467,-0.061,-1.840,0.336,0.0,0.0
61674,-0.667,0.569,-0.464,0.420,-1.076,0.336,0.0,0.0
61722,-0.671,0.572,-0.462,0.466,-0.863,0.443,0.0,0.0
61771,-0.672,0.574,-0.466,0.519,0.000,0.832,0.0,0.0
61819,-0.662,0.577,-0.464,0.656,-0.405,0.580,0.0,0.0
61868,-0.670,0.570,-0.463,0.397,-1.160,0.534,0.0,0.0
61919,-0.669,0.573,-0.465,0.466,-1.076,0.397,0.0,0.0
61968,-0.670,0.572,-0.458,0.313,-1.198,0.481,0.0,0.0
62016,-0.672,0.577,-0.471,0.229,-1.298,0.366,0.0,0.0
