Timestamp(ms),AccelX(g),AccelY(g),AccelZ(g),GyroX(deg/s),GyroY(deg/s),GyroZ(deg/s),DistanceLeft(cm),DistanceRight(cm)
218615,-0.357,0.287,0.903,0.573,3.695,-1.496,0.0,0.0
218707,-0.342,0.281,0.905,1.718,2.649,-0.733,0.0,0.0
218801,-0.372,0.333,0.883,5.076,2.344,-1.237,0.0,0.0
218893,-0.339,0.298,0.863,17.817,-0.214,-2.229,0.0,0.0
218986,-0.374,0.269,0.889,13.160,2.763,-2.939,0.0,0.0
219079,-0.385,0.287,0.840,4.679,6.206,-8.489,0.0,0.0
219171,-0.385,0.330,0.749,43.389,18.962,-24.519,0.0,0.0
219265,-0.485,0.302,0.699,134.092,27.397,-41.351,0.0,0.0
219357,-0.620,0.453,0.555,163.542,34.557,-58.206,0.0,128.0
219447,-0.716,0.596,0.365,145.695,38.924,-76.282,0.0,151.0
219536,-0.932,0.614,0.242,88.137,20.305,-104.779,0.0,136.0
219629,-1.024,0.460,0.158,101.397,-18.313,-116.847,0.0,0.0
219723,-1.023,0.236,0.157,186.901,-68.015,-127.466,0.0,0.0
219816,-0.970,0.875,-0.138,-4.641,-9.145,-117.710,0.0,0.0
219908,-0.839,0.604,-0.044,104.504,-35.931,-24.534,162.0,0.0
219999,-1.092,-0.816,0.669,-6.008,-25.031,-47.817,164.0,0.0
220095,-1.018,0.525,-0.046,-150.282,9.832,-36.405,0.0,0.0
220188,-0.793,0.528,-0.010,87.046,2.901,-0.069,0.0,0.0
220281,-0.891,-0.238,0.397,106.611,-9.969,4.229,0.0,0.0
220376,-1.094,-0.657,0.628,16.153,-19.664,-6.321,0.0,0.0
220467,-1.143,-0.330,0.352,-100.260,-8.641,-8.771,168.0,0.0
220559,-0.851,0.528,-0.020,-46.496,7.580,-15.519,166.0,0.0
220650,-0.898,-0.030,0.164,113.802,-10.565,8.031,168.0,0.0
220742,-1.013,-1.008,0.664,-53.725,0.076,-15.313,168.0,0.0
220833,-0.936,0.228,0.072,-148.550,20.893,-41.649,170.0,0.0
220929,-0.837,0.321,0.027,55.847,-0.618,-14.244,171.0,0.0
221019,-0.952,-0.507,0.385,110.504,-5.824,0.366,139.0,0.0
221110,-1.004,-0.588,0.408,-12.069,5.450,-11.420,173.0,0.0
221202,-0.869,0.004,0.198,-63.221,15.618,-20.641,175.0,0.0
221292,-0.908,0.052,0.107,143.710,-3.351,4.206,143.0,0.0
221382,-1.009,-0.760,0.550,6.435,0.160,-15.802,141.0,0.0
221472,-0.917,-0.085,0.202,-88.550,5.511,-33.863,142.0,0.0
221563,-0.900,0.063,0.124,55.649,-13.977,-13.176,144.0,0.0
221657,-0.895,0.136,0.258,57.824,0.817,1.000,148.0,0.0
221750,-1.011,-0.613,0.541,-22.786,1.771,-8.053,0.0,0.0
221840,-0.919,0.017,0.164,-124.237,3.863,-13.603,147.0,0.0
221933,-0.785,0.214,0.021,101.038,-13.725,22.061,183.0,0.0
222026,-0.904,-0.514,0.405,58.229,-6.939,3.389,0.0,0.0
222116,-0.915,-0.421,0.324,-89.580,11.275,-8.000,147.0,0.0
222208,-0.863,0.380,0.082,-4.092,6.618,0.160,149.0,0.0
222301,-0.896,-0.302,0.340,77.542,-4.595,12.000,0.0,0.0
222391,-1.004,-1.183,0.674,6.847,2.969,1.863,141.0,0.0
222484,-0.915,-0.088,0.180,-95.351,7.626,-13.290,145.0,0.0
222575,-0.868,-0.098,0.183,72.160,-4.519,10.000,147.0,0.0
222665,-0.936,-0.720,0.491,53.053,-5.328,5.977,146.0,0.0
222755,-0.959,-0.451,0.434,-42.046,-1.145,7.237,147.0,0.0
222850,-0.905,-0.054,0.308,-1.908,-10.023,4.443,0.0,0.0
222943,-0.955,-0.417,0.397,-16.107,-5.954,5.542,0.0,0.0
223036,-0.893,-0.043,0.162,-98.809,18.687,-4.000,0.0,0.0
223130,-0.828,-0.080,0.254,121.939,-8.718,15.145,0.0,0.0
223222,-1.013,-0.789,0.560,-6.824,-3.954,-0.931,185.0,0.0
223320,-0.890,0.027,0.119,-151.282,15.969,-20.756,0.0,0.0
223413,-0.800,0.147,0.095,92.015,-0.786,18.718,0.0,0.0
223507,-0.935,-0.744,0.543,74.687,-9.672,15.756,0.0,0.0
223600,-1.023,-0.413,0.306,-98.351,5.748,-7.382,0.0,0.0
223690,-0.872,0.160,0.140,25.534,-0.649,0.046,148.0,0.0
223784,-0.885,-0.278,0.327,53.565,-4.626,9.695,0.0,0.0
223878,-0.959,-0.388,0.377,-26.237,3.061,1.893,0.0,0.0
223972,-0.870,0.058,0.216,-41.435,5.412,3.435,0.0,0.0
224062,-0.881,-0.162,0.307,78.099,-12.130,9.779,148.0,0.0
224156,-0.937,-0.654,0.500,-4.412,-7.817,-3.328,147.0,0.0
224248,-0.895,-0.076,0.249,-45.687,1.252,-9.191,180.0,0.0
224340,-0.798,0.064,0.273,53.756,-10.588,3.298,181.0,0.0
224434,-0.939,-0.671,0.531,30.489,-17.053,5.069,181.0,0.0
224526,-0.930,-0.279,0.283,-93.695,3.443,-18.160,182.0,0.0
224619,-0.801,0.076,0.216,9.229,1.481,0.015,182.0,0.0
224711,-0.872,-0.434,0.466,80.824,-15.725,9.962,182.0,0.0
224804,-0.985,-0.680,0.475,-69.275,4.351,-18.267,182.0,0.0
224897,-0.838,0.068,0.173,-49.458,7.534,-1.000,181.0,0.0
224993,-0.842,0.010,0.246,84.382,-4.901,43.290,181.0,0.0
225085,-0.985,-0.475,0.468,-14.626,-0.725,16.252,180.0,0.0
225178,-0.828,0.182,0.182,-94.847,19.786,-14.603,179.0,0.0
225270,-0.880,-0.355,0.365,154.221,-21.695,22.214,179.0,0.0
225362,-1.030,-0.691,0.445,-190.336,23.344,-20.420,179.0,0.0
225456,-0.817,0.559,-0.035,15.817,6.824,3.985,178.0,0.0
225548,-0.859,-0.595,0.475,98.702,-12.351,12.557,178.0,0.0
225641,-0.992,-0.711,0.479,-105.634,9.130,-13.099,178.0,0.0
225736,-0.867,0.094,0.161,-12.687,5.084,-2.076,178.0,0.0
225828,-0.907,-0.302,0.323,-3.779,-0.099,-10.626,178.0,0.0
225920,-0.922,-0.341,0.309,-2.977,-2.718,-4.229,145.0,0.0
226010,-0.902,-0.079,0.166,14.366,4.557,0.382,145.0,0.0
226103,-0.917,-0.242,0.276,14.061,5.466,0.710,179.0,0.0
226195,-0.906,-0.301,0.349,5.718,2.321,0.496,178.0,0.0
226287,-0.923,-0.283,0.324,-1.504,0.229,1.275,178.0,0.0
226380,-0.910,-0.233,0.295,7.634,-3.695,2.344,178.0,0.0
226472,-0.914,-0.223,0.281,2.542,-1.885,9.748,178.0,0.0
226567,-0.856,-0.078,0.222,33.771,0.466,9.176,146.0,0.0
226658,-0.909,-0.332,0.340,-26.298,0.969,-1.870,145.0,0.0
226750,-0.911,-0.073,0.246,4.916,3.748,-2.298,177.0,0.0
226842,-0.875,-0.415,0.426,40.878,-3.863,0.351,177.0,0.0
226933,-0.890,0.174,0.164,-2.489,5.878,6.809,146.0,0.0
227024,-0.911,-0.358,0.455,84.374,-12.832,16.351,146.0,0.0
227117,-0.991,-0.682,0.518,-107.824,-2.244,-15.458,177.0,0.0
227210,-0.819,0.587,-0.022,-19.687,3.809,2.534,179.0,0.0
227302,-0.885,-0.239,0.353,102.084,-7.595,17.382,178.0,0.0
227398,-0.957,-0.410,0.495,6.336,-7.817,6.840,179.0,0.0
227491,-0.843,0.398,0.069,-132.611,16.756,-12.298,179.0,0.0
227584,-0.868,-0.087,0.240,137.954,-12.695,26.015,179.0,0.0
227677,-1.042,-0.861,0.674,25.221,-4.885,9.748,178.0,0.0
227769,-0.952,0.109,0.187,-164.748,21.137,-23.565,178.0,0.0
227862,-0.780,0.466,0.037,59.351,-6.443,11.321,178.0,0.0
227955,-0.896,-0.799,0.625,85.145,-13.672,16.130,177.0,0.0
228046,-1.103,-0.393,0.377,-167.015,13.504,-27.473,144.0,0.0
228140,-0.900,0.404,0.082,-18.924,3.740,-1.382,176.0,0.0
228236,-0.874,-0.131,0.276,75.901,-6.832,9.435,176.0,0.0
228329,-0.888,-0.532,0.506,1.420,-10.489,-2.160,176.0,0.0
228420,-0.989,-0.014,0.214,-126.427,4.382,-18.786,142.0,0.0
228511,-0.851,0.160,0.136,62.733,-2.748,-0.237,142.0,0.0
228604,-0.995,-0.778,0.501,-22.725,1.099,2.740,177.0,0.0
228697,-0.930,0.164,0.089,-49.908,7.641,2.389,175.0,0.0
228790,-0.855,-0.265,0.300,63.344,-0.611,5.427,175.0,0.0
228883,-1.002,-0.344,0.376,75.931,-10.351,1.458,175.0,0.0
228979,-0.965,-0.102,0.292,-62.542,11.023,-4.000,176.0,0.0
229072,-0.912,-0.184,0.321,33.779,3.244,3.122,176.0,0.0
229163,-0.906,-0.163,0.310,15.473,-3.061,4.229,143.0,0.0
229254,-0.912,-0.104,0.296,2.519,2.420,2.763,141.0,0.0
229345,-0.913,-0.147,0.325,-11.099,5.672,2.000,140.0,0.0
229436,-0.922,-0.134,0.319,-2.557,5.229,4.389,140.0,0.0
229530,-0.913,-0.130,0.319,-5.298,4.290,4.656,0.0,0.0
229621,-0.935,-0.058,0.282,-5.885,5.061,14.130,141.0,0.0
229718,-0.911,0.082,0.239,-21.641,11.267,47.649,139.0,0.0
229812,-0.821,0.230,0.239,-11.336,13.634,70.557,170.0,0.0
229904,-0.974,0.439,0.183,-32.214,23.870,83.886,167.0,0.0
229997,-1.047,0.541,0.209,-82.069,31.153,101.107,0.0,0.0
230090,-1.229,0.386,0.249,-191.771,14.565,102.206,0.0,0.0
230183,-0.998,-0.157,0.583,153.840,-110.038,110.481,0.0,0.0
230277,-1.028,0.814,-0.197,-250.137,17.527,23.008,0.0,0.0
230368,-0.584,0.698,0.153,168.389,-29.214,66.809,0.0,153.0
230459,-0.730,-0.472,0.905,-6.672,-42.748,30.634,0.0,156.0
230549,-0.724,0.327,0.533,-136.656,-3.053,2.763,0.0,148.0
230642,-0.391,1.356,0.156,-117.718,18.183,-1.450,0.0,149.0
230734,-0.341,0.614,0.566,155.710,-20.931,22.298,0.0,162.0
230828,-0.628,-0.211,0.994,29.748,-18.038,17.099,0.0,0.0
230921,-0.700,0.016,0.743,-76.985,4.374,-18.779,0.0,0.0
231012,-0.413,0.892,0.387,-67.321,24.397,-41.931,0.0,152.0
231105,-0.378,1.042,0.448,74.450,6.870,2.206,0.0,0.0
231198,-0.544,0.333,0.769,95.000,-13.351,13.489,0.0,0.0
231291,-0.694,0.191,0.808,-13.267,-10.191,8.809,0.0,0.0
231386,-0.426,1.222,0.256,-44.443,3.198,14.573,0.0,0.0
231480,-0.417,1.108,0.345,38.130,-3.893,13.267,0.0,163.0
231573,-0.645,-0.078,0.938,61.031,-14.061,10.191,0.0,0.0
231666,-0.703,-0.013,0.739,-137.634,20.702,-21.481,0.0,0.0
231760,-0.408,1.236,0.301,-42.527,12.046,-13.351,0.0,0.0
231854,-0.546,0.521,0.614,123.282,-18.786,18.817,0.0,0.0
231947,-0.690,-0.010,0.927,26.947,-12.901,-6.298,0.0,0.0
232041,-0.512,0.639,0.524,-187.916,17.145,-37.710,0.0,0.0
232134,-0.390,1.317,0.249,41.679,-2.832,2.061,0.0,0.0
232227,-0.622,-0.001,0.910,125.542,-18.969,20.557,0.0,0.0
232324,-0.550,0.255,0.755,-38.260,3.374,-22.634,0.0,0.0
232418,-0.471,1.162,0.328,-125.389,17.214,-8.557,0.0,0.0
232511,-0.512,0.321,0.719,159.053,-21.313,28.595,0.0,0.0
232597,-0.689,-0.345,1.011,-111.672,13.435,-10.328,57.0,0.0
232690,-0.391,1.265,0.336,-12.649,4.809,1.977,0.0,0.0
232783,-0.556,0.394,0.666,196.191,-26.321,34.069,0.0,0.0
232878,-0.623,-0.088,0.917,-135.580,14.695,-19.290,0.0,0.0
232971,-0.367,1.572,0.163,-41.336,13.061,-1.000,0.0,0.0
233068,-0.534,0.087,0.792,187.733,-25.870,29.435,0.0,0.0
233161,-0.670,-0.308,0.980,-127.198,8.756,-21.344,0.0,0.0
233255,-0.349,1.606,0.061,-120.282,25.145,-10.145,0.0,0.0
233347,-0.465,0.904,0.469,161.336,-18.969,30.191,0.0,153.0
233440,-0.722,-0.210,1.013,-49.145,2.405,-0.359,0.0,0.0
233534,-0.465,1.035,0.333,-107.733,14.405,-13.473,0.0,0.0
233627,-0.363,1.144,0.354,110.771,-11.206,16.107,0.0,0.0
233721,-0.533,0.519,0.641,56.519,-3.496,8.664,0.0,0.0
233815,-0.495,0.303,0.809,-34.046,1.450,3.023,0.0,0.0
233911,-0.424,0.961,0.384,-56.260,12.397,-3.992,0.0,0.0
234005,-0.525,0.566,0.637,61.160,-9.153,1.366,0.0,0.0
234098,-0.467,0.363,0.682,-27.351,9.397,-9.137,0.0,0.0
234192,-0.498,0.434,0.548,-31.870,19.008,-4.015,0.0,0.0
234286,-0.504,0.389,0.470,16.260,38.565,-0.450,0.0,0.0
234380,-0.604,0.299,0.385,18.649,60.382,-32.374,0.0,0.0
234473,-0.809,0.317,0.289,102.901,77.313,-56.206,0.0,0.0
234566,-0.887,0.568,0.274,76.824,71.214,-79.595,0.0,0.0
234660,-1.024,0.492,0.258,85.443,56.901,-71.237,0.0,0.0
234757,-1.031,0.365,0.235,96.122,23.038,-62.176,0.0,0.0
234851,-1.084,0.469,0.072,26.076,17.282,-48.198,0.0,0.0
234945,-1.020,0.316,0.072,5.191,10.672,-14.282,0.0,0.0
235038,-0.968,0.307,0.060,-6.298,-0.901,1.924,0.0,0.0
235131,-0.933,0.288,0.039,-4.214,-7.420,9.656,0.0,0.0
235226,-0.903,0.318,0.014,-15.802,-8.824,21.855,0.0,0.0
235320,-0.836,0.417,-0.044,-35.435,6.412,21.397,0.0,0.0
235413,-0.858,0.470,-0.069,-129.573,32.557,2.450,0.0,0.0
235507,-1.289,0.366,-0.037,-107.687,-0.198,5.267,0.0,0.0
235604,-1.341,0.449,-0.097,-32.221,-10.687,194.489,0.0,0.0
235697,-0.687,0.429,-0.024,26.573,-3.687,237.573,175.0,0.0
235788,-1.208,1.520,-0.285,37.649,26.496,95.573,161.0,0.0
235879,-0.104,0.859,-0.002,-4.145,72.397,151.870,140.0,0.0
235964,-0.515,1.092,0.087,-1.435,34.145,114.527,39.0,0.0
236049,-0.148,0.641,0.187,-32.939,5.519,-10.534,147.0,108.0
236139,0.271,0.628,0.073,-8.008,-13.427,-2.542,135.0,0.0
236229,0.259,1.033,-0.014,-20.351,1.153,59.168,133.0,0.0
236314,-0.283,1.455,-0.113,-1.702,10.748,28.977,30.0,0.0
236401,-0.616,1.399,-0.061,45.725,4.855,-22.527,30.0,0.0
236485,0.519,0.086,0.321,-56.198,-1.244,-13.481,35.0,0.0
236570,-0.001,1.611,-0.181,-21.282,1.443,32.733,38.0,0.0
236655,-0.696,1.506,-0.090,82.115,13.702,-0.916,37.0,0.0
236739,0.406,-0.001,0.436,-39.992,4.038,-38.076,35.0,0.0
236824,0.075,1.400,-0.102,-68.908,15.053,29.832,37.0,0.0
236909,-0.764,1.585,-0.071,81.420,21.977,11.412,37.0,0.0
236993,0.310,0.033,0.480,-34.214,-8.252,-33.008,30.0,0.0
237078,0.018,1.247,-0.026,-50.092,-15.794,26.718,34.0,0.0
237165,-0.323,1.451,-0.072,38.611,7.573,10.450,36.0,0.0
237251,0.009,0.680,0.319,14.412,3.786,-19.931,137.0,111.0
237331,0.033,0.868,0.208,-21.710,5.740,-19.153,34.0,110.0
237416,-0.084,1.239,0.007,-13.756,9.015,1.649,134.0,110.0
237496,-0.105,0.848,0.163,14.076,-12.168,3.557,32.0,110.0
237575,-0.129,1.213,0.014,-4.374,-4.847,4.473,32.0,109.0
237660,-0.083,0.937,0.175,-18.542,2.542,0.710,35.0,0.0
237745,-0.185,0.960,0.208,5.649,-11.321,-7.695,35.0,0.0
237829,-0.039,1.149,0.100,-16.450,-13.573,18.824,36.0,0.0
237925,-0.040,0.932,0.165,-5.588,-5.748,23.863,33.0,0.0
238004,-0.015,1.088,0.148,4.931,1.252,42.458,27.0,114.0
238087,0.195,1.320,0.094,2.519,18.901,101.779,30.0,0.0
238171,0.337,0.962,0.236,-6.053,44.229,132.115,23.0,0.0
238260,0.248,0.574,0.387,-6.878,9.305,31.573,125.0,0.0
238343,0.515,0.978,0.113,-31.336,20.092,51.145,18.0,0.0
238426,0.423,0.747,0.226,-35.969,24.031,6.656,17.0,0.0
238509,0.450,0.795,0.160,13.618,2.954,8.145,23.0,0.0
238598,0.405,0.719,0.263,-12.382,13.198,-19.496,123.0,0.0
238684,0.456,0.782,0.336,-10.061,3.550,-0.153,17.0,0.0
238767,0.449,0.877,0.300,-18.489,0.824,-4.076,18.0,0.0
238850,0.430,0.959,0.248,-13.618,8.221,5.412,18.0,0.0
238932,0.399,0.876,0.277,-3.672,4.145,-1.420,20.0,0.0
239015,0.458,0.924,0.241,-6.840,1.076,3.656,20.0,0.0
239105,0.430,0.844,0.296,4.687,-1.756,5.817,129.0,0.0
239187,0.442,0.891,0.284,9.229,-1.725,5.748,22.0,0.0
239271,0.440,0.798,0.330,-2.679,0.824,1.542,25.0,0.0
239354,0.431,0.801,0.348,5.412,-5.786,-0.107,19.0,0.0
239440,0.440,0.873,0.307,-17.099,-3.191,-0.160,18.0,0.0
239523,0.444,0.917,0.276,-12.046,1.214,-5.687,22.0,0.0
239612,0.479,0.889,0.293,-3.565,3.870,1.458,122.0,0.0
239695,0.437,0.883,0.288,0.809,-4.076,-1.893,20.0,0.0
239779,0.495,0.867,0.293,-14.931,1.168,1.603,25.0,0.0
239862,0.419,1.045,0.244,0.733,-0.618,-2.206,20.0,0.0
239945,0.415,0.817,0.325,5.779,-0.237,-2.916,23.0,0.0
240029,0.427,0.759,0.334,3.969,-6.313,-8.176,23.0,0.0
240112,0.450,0.824,0.297,-4.313,-2.542,-7.511,23.0,0.0
240198,0.453,0.865,0.278,-8.145,-0.298,-8.870,22.0,0.0
240282,0.381,1.006,0.234,14.656,-4.824,-10.405,23.0,0.0
240365,0.320,0.707,0.354,16.740,-5.779,-25.802,20.0,0.0
240448,0.274,0.793,0.275,-28.450,-16.840,-55.244,20.0,0.0
240532,0.210,0.921,0.154,8.603,-30.695,-83.450,24.0,0.0
240616,0.084,0.665,0.151,-25.115,-32.000,-135.176,26.0,0.0
240700,-0.129,0.715,0.202,55.511,-16.450,-159.992,32.0,0.0
240779,-0.386,0.897,0.158,45.649,-10.954,-168.863,39.0,109.0
240867,-0.669,1.004,0.117,6.351,-2.718,-146.000,152.0,146.0
240960,-0.779,0.917,0.074,41.267,-6.740,-109.695,0.0,141.0
241050,-0.814,0.858,0.022,35.107,-11.008,-82.443,0.0,138.0
241144,-0.882,0.493,0.131,3.305,-2.634,-78.458,0.0,0.0
241238,-1.024,0.421,0.214,15.779,-11.908,-66.557,0.0,0.0
241328,-1.096,0.451,0.249,-33.221,-36.802,-34.115,0.0,132.0
241422,-1.103,0.381,0.402,-20.046,-88.886,-12.672,0.0,0.0
241515,-1.047,0.318,0.561,87.779,-159.153,9.145,0.0,0.0
241609,-0.942,0.500,0.280,-63.092,-95.634,17.931,0.0,0.0
241702,-0.733,0.507,0.239,11.130,-75.718,31.603,0.0,0.0
241800,-0.585,0.271,0.484,-28.832,-31.542,-5.115,0.0,0.0
241893,-0.601,0.249,0.648,-19.092,-20.145,3.954,0.0,0.0
241987,-0.564,0.168,0.797,-31.130,-9.153,2.473,0.0,0.0
242080,-0.534,0.380,0.745,-1.321,-6.565,-2.443,0.0,0.0
242174,-0.534,0.288,0.730,26.779,-13.160,8.252,0.0,0.0
242268,-0.527,0.274,0.742,-35.786,7.267,-17.382,0.0,0.0
242362,-0.519,0.484,0.763,-31.122,6.107,-11.527,0.0,0.0
242455,-0.582,0.147,0.928,-7.229,-6.351,-5.641,0.0,0.0
242549,-0.518,0.238,0.874,1.038,-6.366,0.282,0.0,0.0
242646,-0.470,0.366,0.743,5.817,-6.870,0.924,0.0,0.0
242740,-0.421,0.401,0.806,-8.412,0.252,-2.168,0.0,0.0
242833,-0.466,0.240,0.905,-19.473,-8.122,1.496,0.0,0.0
242927,-0.496,0.174,0.932,-39.420,-10.511,-1.763,0.0,0.0
243021,-0.360,0.218,0.840,9.252,-22.954,12.748,0.0,0.0
243115,-0.427,0.012,0.997,14.977,-16.893,9.298,0.0,0.0
243209,-0.386,0.315,0.871,-21.519,-6.824,11.908,0.0,0.0
243302,-0.394,0.373,0.862,-12.107,-11.725,1.702,0.0,0.0
243396,-0.358,0.281,0.919,-12.641,-13.809,4.511,0.0,0.0
243493,-0.303,0.161,0.924,-9.947,-13.748,0.359,0.0,0.0
243587,-0.306,0.189,0.909,10.672,-14.382,8.420,0.0,0.0
243681,-0.212,0.187,0.930,-13.397,-4.344,9.634,0.0,0.0
243774,-0.235,0.474,0.826,-13.366,-10.122,9.038,0.0,0.0
243868,-0.315,0.273,0.904,-6.595,-16.603,6.962,0.0,0.0
243962,-0.256,0.209,1.002,-9.954,-10.908,4.611,0.0,0.0
244049,-0.173,0.176,1.011,11.015,-16.893,9.176,81.0,0.0
244143,-0.190,0.050,1.064,7.710,-22.115,8.206,0.0,0.0
244237,-0.151,0.210,0.937,-7.901,-19.702,7.359,0.0,0.0
244334,-0.072,0.238,0.869,-22.557,-12.153,13.328,0.0,0.0
244427,0.060,0.327,0.921,-9.183,-7.672,-1.244,0.0,0.0
244521,-0.029,0.144,0.983,17.908,-16.221,1.359,0.0,0.0
244616,-0.014,0.024,1.036,-11.794,-3.718,-4.076,0.0,0.0
244703,-0.073,0.025,1.098,-6.405,-18.611,0.756,80.0,0.0
244790,-0.014,0.171,1.007,-20.168,-10.038,-3.786,79.0,0.0
244877,0.015,0.186,0.924,17.954,-15.237,0.611,79.0,0.0
244964,0.064,0.166,1.007,33.420,-18.885,5.817,79.0,0.0
245051,0.019,0.194,0.939,-8.191,-9.282,-1.916,78.0,0.0
245141,0.104,0.275,0.938,-17.878,-3.588,-0.573,78.0,0.0
245228,0.069,0.321,0.952,-6.359,-11.389,-0.198,78.0,0.0
245315,0.110,0.188,0.973,-15.840,-13.183,-9.168,78.0,0.0
245402,0.077,0.259,0.868,-9.771,-15.053,-6.588,81.0,0.0
245489,0.164,0.124,0.930,16.595,-15.145,-3.504,80.0,0.0
245577,0.180,-0.036,1.021,-3.817,-9.771,-1.939,81.0,0.0
245664,0.213,0.036,1.100,2.573,-11.656,8.321,78.0,0.0
245751,0.165,0.044,1.006,1.924,-10.000,0.191,77.0,0.0
245838,0.099,0.181,0.867,-8.435,-7.366,6.855,77.0,0.0
245928,0.201,0.179,1.006,-16.718,-2.847,-11.099,80.0,0.0
246016,0.245,-0.011,1.053,-10.115,-15.450,-1.786,78.0,0.0
246103,0.241,0.039,0.956,-8.397,-16.160,-0.901,79.0,0.0
246190,0.309,0.014,0.996,0.107,-9.137,-6.511,79.0,0.0
246277,0.322,-0.041,1.094,7.916,-20.817,-1.641,79.0,0.0
246371,0.343,0.086,0.936,4.832,-14.626,-3.267,0.0,0.0
246465,0.392,0.240,0.968,0.855,-10.176,-1.038,0.0,0.0
246552,0.292,0.238,0.805,-4.260,-17.351,-14.954,78.0,0.0
246639,0.368,-0.040,0.858,7.962,-12.649,11.137,76.0,0.0
246729,0.416,-0.309,0.996,7.595,-8.672,9.008,73.0,0.0
246816,0.405,0.186,0.947,-0.198,3.023,-6.221,74.0,0.0
246903,0.467,0.061,0.951,36.733,-16.725,11.328,74.0,0.0
246990,0.365,0.220,0.902,-15.496,-3.176,5.504,75.0,0.0
247077,0.480,0.266,0.825,5.702,-6.435,0.069,74.0,0.0
247163,0.404,0.144,0.790,-13.756,-0.695,10.435,73.0,0.0
247250,0.384,0.349,0.817,-27.237,5.947,5.458,75.0,0.0
247337,0.490,0.342,0.811,8.473,-0.710,-0.153,72.0,0.0
247432,0.462,0.118,0.930,5.511,-7.321,5.496,0.0,0.0
247522,0.422,-0.068,0.909,-11.282,-7.817,-2.313,72.0,0.0
247609,0.424,-0.003,0.843,-5.183,-5.244,1.908,73.0,0.0
247696,0.476,0.068,0.880,-10.924,8.168,4.916,72.0,0.0
247782,0.433,0.194,0.952,13.305,5.817,11.947,70.0,0.0
247869,0.455,0.026,0.987,12.122,-4.237,9.443,69.0,0.0
247956,0.434,0.049,0.938,16.290,-15.328,-2.832,70.0,0.0
248043,0.440,0.383,0.717,-21.702,-3.137,-7.519,72.0,0.0
248130,0.458,0.140,0.802,-3.534,-5.176,7.489,71.0,0.0
248224,0.412,0.117,0.859,5.382,-0.481,-3.878,0.0,0.0
248318,0.458,-0.061,0.982,14.756,5.321,2.420,0.0,0.0
248416,0.441,0.153,0.934,0.542,1.015,-7.267,0.0,0.0
248510,0.525,0.044,0.988,-17.298,-4.534,-3.405,0.0,0.0
248604,0.482,0.107,0.926,-8.802,-11.137,-1.771,0.0,0.0
248698,0.492,0.115,0.821,11.985,-11.802,7.855,0.0,0.0
248793,0.520,0.147,0.832,-9.733,-2.237,-2.099,0.0,0.0
248887,0.568,0.128,0.884,2.473,-4.557,-4.237,0.0,0.0
248981,0.505,0.019,0.850,-10.702,-4.198,-2.313,0.0,0.0
249075,0.538,0.100,0.780,-9.817,4.740,-13.107,0.0,0.0
249169,0.498,0.011,0.791,2.336,4.069,2.191,0.0,0.0
249265,0.246,-0.045,0.566,31.611,3.290,41.496,68.0,0.0
249351,0.405,0.152,0.565,73.969,17.962,67.511,68.0,0.0
249444,0.455,0.119,0.744,30.763,32.076,41.901,0.0,0.0
249530,0.566,0.230,0.893,4.198,66.176,-17.038,72.0,0.0
249616,0.276,0.349,0.879,55.504,96.122,-39.847,73.0,0.0
249702,0.016,0.344,0.922,80.023,89.115,-59.573,76.0,0.0
249788,-0.166,0.679,0.760,75.886,87.817,-54.870,78.0,0.0
249882,-0.401,0.453,0.689,79.504,95.748,-75.313,0.0,0.0
249971,-0.632,0.659,0.400,99.863,123.511,-106.565,182.0,144.0
250067,-1.028,0.734,0.383,116.725,126.725,-145.847,0.0,0.0
250161,-1.245,0.761,0.414,67.374,74.824,-132.489,0.0,0.0
250254,-1.022,0.683,0.264,73.237,47.198,-63.244,0.0,0.0
250348,-1.028,0.420,0.134,-1.084,16.366,-32.450,0.0,0.0
250441,-0.913,0.463,0.027,30.244,18.221,-6.794,0.0,0.0
250534,-0.943,0.414,0.011,-49.244,18.031,7.519,0.0,0.0
250628,-0.991,0.332,0.067,-55.405,-5.679,19.718,0.0,0.0
250722,-1.051,0.396,0.023,-70.916,-29.183,33.191,0.0,0.0
250815,-1.036,0.324,0.142,-88.321,-39.641,65.153,0.0,0.0
250911,-0.876,0.489,0.175,-72.939,-54.840,75.229,0.0,0.0
251000,-0.756,0.571,0.300,-73.511,-48.412,65.634,0.0,131.0
251095,-0.662,0.462,0.473,-109.802,-37.931,45.328,0.0,0.0
251185,-0.576,0.385,0.604,-74.527,-22.687,49.939,0.0,135.0
251278,-0.532,0.354,0.677,-49.275,-23.336,42.053,0.0,0.0
251368,-0.498,0.371,0.717,-15.710,-25.595,31.359,0.0,137.0
251457,-0.450,0.389,0.752,-5.489,-22.618,22.534,0.0,120.0
251547,-0.386,0.488,0.717,12.183,-18.427,13.137,0.0,138.0
251637,-0.352,0.453,0.781,0.450,-11.023,8.840,0.0,138.0
251720,-0.363,0.439,0.806,4.824,-1.733,2.634,40.0,138.0
251801,-0.364,0.447,0.807,-0.931,0.863,0.389,40.0,138.0
251882,-0.384,0.535,0.781,-3.870,2.481,0.252,41.0,137.0
251964,-0.392,0.510,0.769,9.832,1.153,3.718,42.0,137.0
252053,-0.390,0.478,0.756,11.786,6.336,3.206,0.0,136.0
252143,-0.384,0.472,0.806,-4.153,4.824,2.336,0.0,136.0
252233,-0.383,0.524,0.769,-6.649,2.962,3.260,0.0,137.0
252326,-0.398,0.541,0.755,2.656,3.672,3.176,0.0,0.0
252421,-0.399,0.502,0.768,-0.725,3.779,2.382,0.0,0.0
252505,-0.412,0.554,0.740,0.183,5.786,0.802,42.0,148.0
252587,-0.414,0.516,0.757,5.733,3.771,0.534,41.0,148.0
252676,-0.405,0.499,0.719,18.061,6.473,-4.412,0.0,136.0
252766,-0.333,0.427,0.594,38.267,21.931,-22.450,0.0,133.0
252856,-0.477,0.382,0.548,78.336,51.817,-56.634,0.0,132.0
252945,-0.730,0.706,0.238,164.489,62.557,-85.260,0.0,126.0
253039,-0.914,0.521,0.043,236.886,43.290,-92.443,0.0,0.0
253132,-0.966,0.646,-0.130,97.687,4.634,-124.450,0.0,0.0
253227,-1.113,0.404,-0.082,44.664,-7.107,-120.267,0.0,0.0
253323,-1.085,0.354,-0.079,25.168,-6.061,-45.702,0.0,0.0
253417,-1.008,0.305,-0.054,-18.290,-7.855,5.260,0.0,0.0
253510,-0.939,0.269,-0.004,0.229,-11.802,25.924,0.0,0.0
253604,-0.918,0.268,0.012,-0.794,-13.382,27.924,0.0,0.0
253698,-0.922,0.277,0.022,-10.328,-5.809,27.427,0.0,0.0
253792,-0.932,0.237,0.058,-17.771,-4.481,20.687,0.0,0.0
253885,-0.928,0.254,0.054,-9.947,-3.534,11.695,0.0,0.0
253979,-0.930,0.279,0.048,-10.031,0.870,-2.885,0.0,0.0
254072,-0.936,0.271,0.063,-4.351,2.038,-9.305,0.0,0.0
254170,-0.928,0.281,0.062,-7.397,3.992,-13.832,0.0,0.0
254263,-0.960,0.268,0.066,-0.267,1.168,-10.130,0.0,0.0
254357,-0.963,0.289,0.058,-1.069,1.573,0.611,0.0,0.0
254450,-0.941,0.268,0.065,-4.466,2.023,7.137,0.0,0.0
254544,-0.942,0.270,0.064,-3.260,2.824,6.496,0.0,0.0
254638,-0.950,0.271,0.067,-2.260,2.382,1.618,0.0,0.0
254732,-0.956,0.270,0.051,1.809,-0.450,-0.015,0.0,0.0
254825,-0.950,0.278,0.051,0.878,-2.313,1.542,0.0,0.0
254919,-0.942,0.287,0.039,4.626,-2.840,2.336,0.0,0.0
255015,-0.939,0.282,0.044,5.786,-1.824,0.679,0.0,0.0
255110,-0.928,0.301,0.032,-0.473,2.901,-0.649,0.0,0.0
255204,-0.931,0.303,0.041,4.611,4.565,-0.702,0.0,0.0
255297,-0.962,0.312,0.039,-1.992,4.702,6.031,0.0,0.0
255391,-0.943,0.294,0.044,-4.809,3.847,7.985,0.0,0.0
255484,-0.940,0.280,0.051,3.328,-1.244,5.206,0.0,0.0
255579,-0.946,0.308,0.033,11.321,-1.947,4.702,0.0,0.0
255673,-0.949,0.366,0.031,16.313,-1.336,13.626,0.0,0.0
255766,-0.910,0.294,0.044,7.504,-0.130,16.092,0.0,0.0
255863,-0.901,0.396,0.028,45.809,-11.443,32.511,0.0,0.0
255958,-0.892,0.438,-0.022,24.061,-7.832,17.405,0.0,0.0
256052,-0.893,0.440,-0.031,17.939,-7.122,12.344,0.0,0.0
256145,-0.867,0.500,-0.041,33.511,-7.550,19.252,0.0,0.0
256239,-0.824,0.652,-0.104,90.618,-14.069,46.092,0.0,0.0
256333,-0.836,0.609,-0.084,10.321,0.023,38.588,0.0,0.0
256427,-0.777,0.681,-0.153,69.282,-4.634,67.893,0.0,0.0
256521,-0.635,0.800,-0.218,90.366,3.244,88.672,0.0,0.0
256613,-0.528,0.858,-0.284,73.237,7.794,117.756,161.0,0.0
256701,-0.417,0.770,-0.406,56.740,33.580,99.939,142.0,104.0
256791,-0.202,1.030,-0.542,34.511,81.710,101.168,138.0,0.0
256881,-0.068,0.556,-0.357,21.260,27.656,32.863,135.0,0.0
256972,-0.135,0.657,-0.511,17.641,22.534,10.885,133.0,0.0
257062,-0.048,0.849,-0.535,39.947,12.321,3.466,133.0,0.0
257153,0.037,0.976,-0.635,23.359,2.962,6.969,133.0,0.0
257243,-0.017,0.594,-0.516,-4.786,1.595,7.221,133.0,0.0
257333,0.166,0.546,-0.296,24.656,14.252,17.435,132.0,0.0
257423,0.052,0.980,-0.702,-24.618,33.389,29.023,132.0,0.0
257516,0.126,1.030,-0.738,28.565,16.107,21.130,131.0,0.0
257606,0.250,0.838,-0.613,25.008,23.229,30.000,130.0,0.0
257696,0.269,0.844,-0.617,-4.595,33.084,36.748,129.0,0.0
257786,0.309,0.753,-0.548,-4.496,24.183,25.824,127.0,0.0
257876,0.333,0.760,-0.599,9.824,26.824,20.763,126.0,0.0
257967,0.396,0.782,-0.633,4.924,31.099,23.641,138.0,0.0
258058,0.445,0.626,-0.493,16.084,35.366,24.939,134.0,0.0
258148,0.551,0.598,-0.477,21.534,28.046,19.115,135.0,0.0
258238,0.510,0.493,-0.509,10.076,9.366,3.046,133.0,0.0
258331,0.582,0.613,-0.520,5.397,14.023,10.328,132.0,0.0
258421,0.613,0.630,-0.518,3.427,5.351,6.252,132.0,0.0
258512,0.580,0.717,-0.649,26.305,-9.405,3.244,134.0,0.0
258604,0.574,0.664,-0.615,20.046,-6.763,4.939,164.0,0.0
258697,0.605,0.614,-0.551,2.649,0.603,-0.565,167.0,0.0
258789,0.572,0.560,-0.551,-0.580,-4.260,-3.786,173.0,0.0
258881,0.587,0.577,-0.558,5.542,1.977,0.099,168.0,0.0
258973,0.582,0.606,-0.596,7.687,2.580,-1.038,168.0,0.0
259065,0.590,0.593,-0.552,-3.695,6.008,-5.115,167.0,0.0
259160,0.608,0.627,-0.615,2.496,0.641,1.664,139.0,0.0
259251,0.590,0.595,-0.570,1.275,5.282,3.374,137.0,0.0
259341,0.588,0.583,-0.575,4.756,3.336,2.076,137.0,0.0
259431,0.578,0.621,-0.568,4.130,12.061,-4.290,137.0,0.0
259522,0.586,0.629,-0.578,1.595,-3.130,-0.038,138.0,0.0
259613,0.606,0.629,-0.547,10.084,3.290,1.565,138.0,0.0
259703,0.559,0.671,-0.635,9.580,-13.603,-6.649,140.0,0.0
259794,0.576,0.717,-0.641,-14.038,-2.901,-6.168,139.0,0.0
259886,0.607,0.665,-0.529,3.840,3.168,-1.008,138.0,0.0
259979,0.572,0.645,-0.523,-10.298,-3.649,-2.664,138.0,0.0
260070,0.571,0.706,-0.548,-16.053,-0.458,-2.832,138.0,0.0
260161,0.599,0.894,-0.643,-26.168,2.718,-1.534,140.0,0.0
260252,0.565,0.750,-0.606,-46.649,3.420,-8.847,138.0,0.0
260342,0.584,0.685,-0.567,-9.939,3.481,1.931,138.0,0.0
260433,0.606,0.916,-0.614,-24.885,12.214,9.061,137.0,0.0
260525,0.487,0.633,-0.563,-25.366,-10.092,-3.519,137.0,0.0
260615,0.483,0.452,-0.480,15.328,-10.031,-9.176,136.0,0.0
260706,0.572,0.858,-0.580,35.099,1.870,6.290,136.0,0.0
260800,0.586,0.913,-0.556,-48.840,7.130,1.992,137.0,0.0
260896,0.539,0.462,-0.403,-16.122,0.679,-2.710,136.0,0.0
260985,0.583,0.511,-0.377,-10.153,0.107,-3.687,136.0,0.0
261075,0.560,0.683,-0.511,-2.214,-2.710,-4.771,137.0,0.0
261165,0.563,0.607,-0.473,-19.924,-2.519,-3.153,137.0,0.0
261255,0.571,0.691,-0.546,9.550,-1.382,-2.000,136.0,0.0
261345,0.522,0.662,-0.499,9.305,-5.847,-1.580,136.0,0.0
261434,0.555,0.639,-0.491,11.847,0.069,0.473,137.0,0.0
261524,0.597,0.696,-0.479,13.710,-1.939,-0.389,138.0,0.0
261616,0.571,0.732,-0.575,0.008,-3.046,5.244,138.0,0.0
261706,0.594,0.641,-0.540,14.718,0.511,0.733,138.0,0.0
261796,0.562,0.698,-0.563,1.771,0.344,0.969,137.0,0.0
261885,0.553,0.573,-0.478,-2.137,1.634,-6.985,138.0,0.0
261976,0.553,0.714,-0.623,-15.855,8.473,1.802,138.0,0.0
262066,0.543,0.759,-0.575,-12.008,5.885,-0.725,137.0,0.0
262155,0.569,0.796,-0.596,-33.687,7.466,2.611,137.0,0.0
262245,0.547,0.659,-0.457,6.802,1.634,-0.359,136.0,0.0
262335,0.541,0.616,-0.447,19.420,-3.962,-5.145,136.0,0.0
262427,0.560,0.635,-0.485,9.237,2.878,-1.031,136.0,0.0
262517,0.545,0.704,-0.531,-0.580,-2.519,-1.740,136.0,0.0
262607,0.640,1.036,-0.630,-28.244,12.481,-4.832,137.0,0.0
262696,0.543,0.735,-0.451,-68.740,-0.985,-11.802,137.0,0.0
262787,0.518,0.177,-0.273,-33.229,-2.099,-12.672,137.0,0.0
262877,0.516,0.454,-0.406,22.763,-1.336,0.153,137.0,0.0
262967,0.521,0.781,-0.578,3.298,3.267,0.603,137.0,0.0
263057,0.572,0.937,-0.631,10.099,5.489,2.580,137.0,0.0
263147,0.560,1.014,-0.637,2.573,4.870,2.313,137.0,0.0
263239,0.621,0.903,-0.516,-22.855,11.443,-9.168,137.0,0.0
263328,0.576,0.389,-0.298,-53.550,-0.313,-11.870,120.0,0.0
263417,0.486,0.377,-0.311,-14.435,6.870,-2.603,121.0,0.0
263506,0.504,0.583,-0.458,-10.908,1.267,3.397,121.0,0.0
263596,0.555,0.412,-0.344,-30.366,0.786,-5.053,120.0,0.0
263685,0.559,0.520,-0.461,-5.771,-1.015,-1.267,121.0,0.0
263774,0.597,0.619,-0.370,4.107,2.099,-1.023,120.0,0.0
263863,0.615,0.840,-0.519,-28.359,7.901,5.115,120.0,0.0
263952,0.580,0.744,-0.489,-26.969,0.473,1.756,120.0,0.0
264044,0.607,0.680,-0.434,-12.374,5.427,3.496,120.0,0.0
264133,0.584,0.614,-0.384,-6.061,3.137,2.244,120.0,0.0
264222,0.600,0.737,-0.451,-11.954,0.244,1.718,120.0,0.0
264311,0.593,0.718,-0.478,0.229,3.160,0.641,120.0,0.0
264400,0.545,0.259,-0.130,29.649,13.725,19.740,125.0,0.0
264491,0.592,0.730,-0.384,6.954,1.458,7.931,126.0,0.0
264580,0.674,0.825,-0.427,-7.374,12.069,15.053,127.0,0.0
264670,0.658,1.028,-0.725,-43.977,17.962,13.756,134.0,0.0
264759,0.598,1.004,-0.581,-4.725,10.557,8.176,127.0,0.0
264852,0.622,1.154,-0.668,1.443,4.878,9.985,127.0,0.0
264941,0.645,0.866,-0.454,3.481,2.519,2.061,127.0,0.0
265031,0.613,0.799,-0.468,2.313,2.366,3.206,128.0,0.0
265120,0.637,0.717,-0.323,-11.534,9.237,0.573,127.0,0.0
265209,0.618,0.935,-0.524,-10.198,-1.015,1.847,128.0,0.0
265299,0.598,0.681,-0.373,3.397,-3.924,-2.504,134.0,0.0
265390,0.615,0.665,-0.394,8.481,0.122,0.115,134.0,0.0
265480,0.598,0.624,-0.309,-17.038,-3.695,-4.511,135.0,0.0
265569,0.620,0.720,-0.367,-26.229,-14.427,-14.870,118.0,0.0
265661,0.562,0.747,-0.417,2.962,-8.122,-8.863,119.0,0.0
265750,0.552,0.718,-0.351,-19.840,-5.267,-8.595,118.0,0.0
265839,0.549,0.741,-0.387,-5.618,-14.000,-10.344,119.0,0.0
265928,0.531,0.761,-0.327,-8.954,-22.221,-15.748,120.0,0.0
266018,0.509,0.897,-0.491,4.275,-24.160,-18.359,120.0,0.0
266107,0.469,0.846,-0.505,2.298,-19.137,-21.168,120.0,0.0
266196,0.416,0.861,-0.472,1.344,-16.496,-21.809,121.0,0.0
266287,0.337,0.801,-0.462,-1.611,-20.176,-21.718,123.0,0.0
266379,0.296,0.807,-0.467,-4.160,-18.985,-22.061,124.0,0.0
266469,0.280,0.847,-0.482,7.634,-21.359,-22.611,125.0,0.0
266558,0.204,0.827,-0.445,-16.008,-27.435,-37.107,126.0,0.0
266648,0.072,0.921,-0.499,-50.282,-32.008,-75.588,128.0,0.0
266738,-0.091,0.735,-0.330,-46.603,-5.298,-104.015,131.0,0.0
266823,-0.151,0.912,-0.288,-44.611,-7.771,-118.443,135.0,110.0
266908,-0.396,0.917,-0.238,0.290,-18.527,-108.328,140.0,102.0
267001,-0.537,0.995,-0.237,-20.496,-15.931,-99.817,174.0,0.0
267094,-0.642,0.893,-0.161,-52.137,-3.550,-98.695,174.0,0.0
267191,-0.762,0.755,-0.081,-106.710,15.084,-81.863,0.0,0.0
267285,-0.785,0.698,0.015,-79.214,15.069,-52.122,0.0,0.0
267379,-0.813,0.626,-0.006,-153.481,28.405,-56.008,0.0,0.0
267473,-0.966,0.337,0.162,-129.664,24.061,-40.344,0.0,0.0
267567,-0.995,0.429,0.143,-147.878,1.351,-18.771,0.0,0.0
267661,-1.040,-0.107,0.355,-177.611,-20.473,-6.939,0.0,0.0
267755,-0.938,0.089,0.374,-48.466,-51.664,28.359,0.0,0.0
267849,-0.839,0.325,0.344,-50.473,-46.099,20.939,0.0,0.0
267947,-0.820,0.166,0.477,-58.901,-33.885,22.450,0.0,0.0
268032,-0.764,0.088,0.606,-42.748,-27.076,16.748,48.0,0.0
268116,-0.747,0.120,0.597,1.229,-24.374,7.153,45.0,0.0
268203,-0.784,0.077,0.660,-21.214,-29.084,7.710,45.0,0.0
268288,-0.709,0.094,0.668,-25.084,-29.786,11.221,44.0,0.0
268372,-0.656,0.118,0.654,-29.786,-20.672,16.023,43.0,0.0
268457,-0.641,0.051,0.726,-29.328,-9.137,14.351,43.0,0.0
268542,-0.598,-0.049,0.777,0.076,-3.176,7.557,43.0,0.0
268627,-0.640,0.067,0.745,-9.634,-5.183,-7.290,44.0,0.0
268717,-0.635,0.146,0.720,-0.290,-2.908,-5.298,44.0,0.0
268802,-0.644,0.068,0.758,5.015,-0.519,-0.931,44.0,0.0
268887,-0.628,0.055,0.753,3.252,2.122,-2.321,44.0,0.0
268972,-0.650,0.097,0.739,-2.870,2.374,-3.443,44.0,0.0
269057,-0.646,0.084,0.748,6.733,1.168,-1.344,45.0,0.0
269142,-0.640,0.076,0.761,8.336,-0.443,-1.863,44.0,0.0
269228,-0.635,0.078,0.775,0.397,-0.298,-2.145,44.0,0.0
269313,-0.644,0.091,0.746,0.122,-0.221,-0.588,46.0,0.0
269398,-0.636,0.077,0.746,0.901,0.542,-0.061,44.0,0.0
269486,-0.628,0.095,0.723,16.183,4.420,-2.412,45.0,0.0
269572,-0.659,0.071,0.702,40.649,6.252,-4.275,46.0,0.0
269657,-0.703,0.318,0.512,69.809,6.282,-7.939,46.0,0.0
269742,-0.698,0.154,0.698,13.473,17.924,-17.298,45.0,0.0
269828,-0.718,0.346,0.636,-0.534,23.672,-11.435,46.0,0.0
269913,-0.745,0.198,0.716,13.534,17.023,-2.580,46.0,0.0
269999,-0.711,0.188,0.649,24.290,8.687,-2.901,47.0,0.0
270084,-0.735,0.272,0.612,26.817,11.641,-1.779,48.0,0.0
270163,-0.762,0.328,0.550,53.687,4.840,4.634,48.0,110.0
270271,-0.747,0.313,0.519,41.351,9.771,7.313,0.0,0.0
270364,-0.744,0.400,0.394,57.427,19.313,-6.000,0.0,144.0
270457,-0.763,0.329,0.359,68.244,30.626,-31.221,0.0,140.0
270551,-0.841,0.264,0.305,79.244,46.183,-54.885,0.0,150.0
270648,-1.008,0.319,0.159,114.664,41.870,-60.924,0.0,0.0
270744,-1.081,0.232,0.117,86.740,15.756,-46.985,0.0,0.0
270840,-1.020,0.312,0.010,104.557,6.458,-10.107,0.0,0.0
270938,-0.961,0.404,-0.024,48.611,10.015,-1.794,0.0,0.0
271034,-0.955,0.254,0.036,39.374,1.023,0.107,0.0,0.0
271134,-0.951,0.319,0.004,57.298,-3.916,10.244,0.0,0.0
271230,-0.948,0.357,0.020,31.626,-3.695,9.038,0.0,0.0
271327,-0.979,0.312,0.010,-17.626,-4.588,15.687,0.0,0.0
271424,-0.940,0.282,-0.000,-2.511,-8.489,22.534,0.0,0.0
271520,-0.945,0.310,-0.028,4.267,-5.908,11.252,0.0,0.0
271618,-0.902,0.327,-0.017,-15.458,0.611,-3.870,0.0,0.0
271714,-0.922,0.286,0.024,3.481,-2.954,-16.145,0.0,0.0
271811,-0.966,0.318,-0.001,-19.763,3.038,-3.924,0.0,0.0
271907,-0.952,0.224,0.052,1.168,-2.672,8.634,0.0,0.0
272008,-0.911,0.312,0.030,25.740,-4.794,5.137,0.0,0.0
272104,-0.945,0.289,0.052,15.038,-4.382,-8.046,0.0,0.0
272207,-0.951,0.295,0.050,11.328,-5.313,-5.939,0.0,0.0
272303,-0.921,0.312,0.028,12.405,-5.290,-4.221,0.0,0.0
272398,-0.957,0.310,0.005,4.321,-2.595,-1.046,0.0,0.0
272494,-0.931,0.328,0.016,-1.466,2.458,-2.023,0.0,0.0
272589,-0.942,0.279,0.039,3.244,0.466,1.992,0.0,0.0
272686,-0.953,0.318,0.016,-5.931,2.305,2.931,0.0,0.0
272781,-0.944,0.284,0.024,-3.962,3.344,5.183,0.0,0.0
272876,-0.941,0.275,0.030,0.969,2.176,5.321,0.0,0.0
272975,-0.944,0.290,0.024,-2.985,2.389,1.863,0.0,0.0
273071,-0.952,0.291,0.019,-0.244,1.588,-0.687,0.0,0.0
273166,-0.935,0.308,0.018,1.802,1.031,-6.176,0.0,0.0
273262,-0.957,0.293,0.021,-3.130,0.450,-5.344,0.0,0.0
