Timestamp(ms),AccelX(g),AccelY(g),AccelZ(g),GyroX(deg/s),GyroY(deg/s),GyroZ(deg/s),DistanceLeft(cm),DistanceRight(cm)
36027,-0.269,0.193,0.963,3.595,1.015,-0.718,0.0,107.0
36082,-0.256,0.233,0.947,2.336,1.748,1.053,0.0,107.0
36136,-0.260,0.203,0.958,0.145,1.214,-0.115,0.0,107.0
36192,-0.260,0.221,0.960,4.656,1.191,-0.244,0.0,107.0
36246,-0.264,0.229,0.943,-0.267,1.275,0.053,0.0,107.0
36300,-0.256,0.216,0.953,2.275,1.122,-0.260,0.0,107.0
36356,-0.257,0.215,0.948,2.580,1.290,-0.244,0.0,107.0
36410,-0.269,0.233,0.956,0.870,1.206,-0.374,0.0,107.0
36468,-0.270,0.228,0.938,4.565,1.336,-0.206,0.0,107.0
36523,-0.255,0.201,0.957,0.275,2.298,-1.168,0.0,107.0
36577,-0.236,0.152,0.965,20.137,6.771,-4.229,0.0,107.0
36632,-0.242,0.198,0.918,42.779,14.527,-4.496,0.0,106.0
36686,-0.264,0.213,0.919,67.687,26.336,-6.450,0.0,106.0
36742,-0.362,0.378,0.820,52.916,21.954,-13.641,0.0,105.0
36796,-0.259,0.269,0.717,73.015,34.779,-28.481,0.0,104.0
36851,-0.181,0.173,0.568,129.290,72.756,-49.901,0.0,116.0
36910,-0.343,0.204,0.408,203.634,122.305,-79.099,0.0,152.0
36970,-0.932,0.676,0.214,172.992,115.832,-94.015,0.0,148.0
37029,-0.907,0.728,0.275,60.649,93.908,-126.382,0.0,0.0
37090,-1.044,0.548,0.285,34.298,76.321,-139.107,0.0,0.0
37150,-1.104,0.333,0.222,44.626,69.580,-111.260,0.0,0.0
37211,-1.146,0.366,0.145,50.878,39.679,-83.519,0.0,0.0
37271,-1.058,0.311,0.116,56.687,25.443,-52.092,0.0,0.0
37331,-1.062,0.322,0.030,37.565,16.557,-20.160,0.0,0.0
37391,-0.980,0.324,0.125,-7.305,-0.634,-2.206,0.0,0.0
37451,-0.992,0.187,0.105,7.359,0.580,17.046,0.0,0.0
37515,-0.992,0.276,0.021,-4.336,-2.947,20.550,0.0,0.0
37575,-0.903,0.231,0.033,-17.786,-6.359,13.901,0.0,0.0
37636,-0.937,0.180,0.058,-10.985,-4.282,9.466,0.0,0.0
37695,-0.934,0.227,0.037,-0.557,-1.702,6.359,0.0,0.0
37755,-0.948,0.239,0.036,-5.756,0.290,3.870,0.0,0.0
37816,-0.981,0.213,0.040,-7.733,-0.786,3.183,0.0,0.0
37876,-0.945,0.217,0.063,5.786,-1.031,6.046,0.0,0.0
37937,-0.960,0.250,0.045,2.366,0.748,3.328,0.0,0.0
37996,-0.957,0.230,0.060,-2.511,1.313,1.389,0.0,0.0
38060,-0.946,0.225,0.059,4.527,1.183,2.603,0.0,0.0
38120,-0.977,0.234,0.057,3.664,0.443,1.641,0.0,0.0
38180,-0.948,0.218,0.063,6.374,2.168,1.015,0.0,0.0
38241,-0.965,0.257,0.048,12.115,0.466,1.168,0.0,0.0
38300,-0.943,0.248,0.039,8.771,1.099,-0.695,0.0,0.0
38361,-0.960,0.257,0.039,4.870,1.786,0.115,0.0,0.0
38421,-0.960,0.234,0.057,4.611,0.282,-0.038,0.0,0.0
38481,-0.961,0.255,0.044,6.053,0.817,1.198,0.0,0.0
38542,-0.964,0.267,0.050,1.336,-0.221,1.069,0.0,0.0
38602,-0.962,0.275,0.056,1.626,-0.267,6.168,0.0,0.0
38666,-1.018,0.278,0.064,7.748,-5.618,18.153,0.0,0.0
38726,-0.936,0.355,0.066,19.695,-6.160,32.595,0.0,0.0
38787,-0.922,0.369,0.045,9.641,-6.924,29.763,0.0,0.0
38847,-0.889,0.370,0.056,-7.412,-3.298,22.443,0.0,0.0
38907,-0.878,0.337,0.077,-11.008,0.031,12.481,0.0,0.0
39010,-0.957,0.372,0.072,-7.038,0.832,2.748,0.0,0.0
39070,-0.933,0.385,0.104,-8.092,-1.672,15.321,0.0,0.0
39131,-0.920,0.435,0.105,-1.519,-3.015,20.527,0.0,0.0
39191,-0.958,0.448,0.200,19.244,-12.924,45.939,0.0,0.0
39256,-0.923,0.606,0.192,53.718,-20.374,105.496,0.0,0.0
39316,-1.114,0.198,0.381,220.046,-36.435,213.053,0.0,0.0
39374,1.001,-0.004,-1.654,250.130,140.519,250.130,168.0,0.0
39432,-0.222,0.539,-0.145,-39.962,87.290,204.191,144.0,0.0
39492,-0.780,1.707,-1.555,-9.527,109.534,99.015,196.0,0.0
39554,-0.209,0.029,-0.396,9.832,72.702,25.481,0.0,0.0
39611,0.186,0.464,-0.762,42.198,13.305,32.901,160.0,0.0
39672,0.299,0.617,-0.732,-29.969,33.366,-4.344,0.0,0.0
39733,0.326,0.926,-0.940,-19.550,45.450,12.046,0.0,0.0
39796,0.357,1.131,-0.994,-16.878,50.481,-4.893,0.0,0.0
39857,0.270,0.902,-0.974,56.359,-1.473,2.023,0.0,0.0
39917,0.318,0.338,-0.679,-4.443,6.504,-14.099,0.0,0.0
39979,0.276,0.580,-0.742,-40.366,10.282,-12.061,0.0,0.0
40039,0.384,0.974,-0.951,-16.542,15.168,-3.290,0.0,0.0
40099,0.311,0.875,-0.953,16.076,-8.595,-3.198,0.0,0.0
40160,0.318,0.581,-0.865,5.969,4.679,1.504,0.0,0.0
40221,0.348,0.548,-0.843,25.473,3.603,-0.092,0.0,0.0
40282,0.341,0.487,-0.821,25.076,1.893,6.916,0.0,0.0
40342,0.278,0.417,-0.786,9.244,3.191,-0.992,0.0,0.0
40406,0.342,0.511,-0.796,12.649,4.473,-2.664,0.0,0.0
40466,0.280,0.403,-0.698,-0.672,-2.237,-0.817,0.0,0.0
40527,0.362,0.698,-0.862,-5.679,10.206,1.664,0.0,0.0
40588,0.281,0.599,-0.865,7.443,0.244,-0.069,0.0,0.0
40648,0.292,0.510,-0.780,-4.481,-4.168,-4.542,0.0,0.0
40709,0.354,0.571,-0.763,4.145,8.443,3.412,0.0,0.0
40770,0.343,0.545,-0.850,16.260,1.718,-3.176,0.0,0.0
40830,0.305,0.356,-0.676,-0.557,2.954,-7.489,0.0,0.0
40891,0.304,0.600,-0.793,-6.672,5.061,-1.031,0.0,0.0
40955,0.281,0.534,-0.754,-2.481,-3.191,-7.832,0.0,0.0
41013,0.276,0.634,-0.778,-16.511,2.519,-5.847,154.0,0.0
41074,0.302,0.706,-0.816,2.046,7.069,4.130,0.0,0.0
41135,0.298,0.514,-0.697,5.198,-2.725,-1.328,0.0,0.0
41195,0.289,0.559,-0.784,-4.153,-2.458,-1.229,0.0,0.0
41256,0.301,0.585,-0.779,1.160,-1.046,0.000,0.0,0.0
41317,0.303,0.592,-0.797,1.046,0.153,0.641,0.0,0.0
41377,0.293,0.557,-0.764,-8.679,1.916,-0.603,0.0,0.0
41439,0.300,0.631,-0.771,-0.282,-1.359,3.802,0.0,0.0
41498,0.312,0.634,-0.769,-10.756,1.260,3.473,184.0,0.0
41562,0.326,0.635,-0.758,-1.511,-0.939,5.229,183.0,0.0
41622,0.331,0.634,-0.737,5.031,3.435,5.443,0.0,0.0
41682,0.303,0.555,-0.712,6.557,0.649,3.603,182.0,0.0
41742,0.290,0.509,-0.737,5.641,-3.473,-1.740,182.0,0.0
41801,0.293,0.575,-0.769,-2.412,1.221,-3.359,182.0,0.0
41862,0.273,0.591,-0.790,8.641,0.122,0.893,183.0,0.0
41921,0.312,0.648,-0.766,1.672,0.191,0.924,182.0,0.0
41982,0.304,0.618,-0.792,18.008,3.489,0.244,0.0,0.0
42086,0.308,0.658,-0.820,15.015,7.870,4.618,0.0,0.0
42150,0.304,0.527,-0.767,11.321,7.992,1.618,0.0,0.0
42211,0.298,0.420,-0.745,11.962,11.290,7.740,0.0,0.0
42272,0.324,0.623,-0.871,-16.260,19.481,3.748,0.0,0.0
42334,0.403,0.716,-0.789,-5.763,30.321,7.427,0.0,0.0
42394,0.391,0.932,-0.977,37.916,18.534,11.076,0.0,0.0
42456,0.343,0.364,-0.742,45.977,2.061,2.840,0.0,0.0
42516,0.360,0.266,-0.689,24.672,0.435,-6.725,0.0,0.0
42574,0.324,0.211,-0.670,24.435,-5.504,1.664,152.0,0.0
42633,0.325,0.257,-0.644,7.725,-3.931,-1.809,150.0,0.0
42694,0.405,0.590,-0.863,-4.565,14.557,3.359,150.0,0.0
42753,0.382,0.520,-0.750,14.313,0.313,-0.901,150.0,0.0
42811,0.361,0.590,-0.977,5.855,13.618,10.214,151.0,0.0
42868,0.380,0.058,-0.472,1.023,1.725,-1.573,149.0,0.0
42927,0.262,0.341,-0.797,-19.351,-15.351,-14.427,149.0,0.0
42985,0.371,0.303,-0.592,-43.672,-0.626,-11.939,149.0,0.0
43043,0.419,0.810,-0.823,-44.870,7.450,-0.969,149.0,0.0
43102,0.433,1.133,-1.168,33.771,-0.443,1.481,150.0,0.0
43160,0.342,0.161,-0.502,30.687,-11.977,-2.771,151.0,0.0
43222,0.420,0.684,-0.880,-23.618,19.389,5.427,152.0,0.0
43281,0.355,0.608,-0.842,47.061,-5.832,2.298,157.0,0.0
43339,0.341,0.235,-0.645,15.595,-3.137,3.321,157.0,0.0
43398,0.365,0.538,-0.843,-1.313,9.679,-1.939,158.0,0.0
43457,0.342,0.261,-0.769,38.405,-4.863,4.618,157.0,0.0
43515,0.343,-0.001,-0.457,-24.473,-9.198,-4.626,156.0,0.0
43580,0.367,0.542,-0.869,-28.511,10.008,-2.427,157.0,0.0
43638,0.368,0.569,-0.755,5.092,-5.412,-4.771,158.0,0.0
43696,0.386,0.624,-0.841,-1.863,5.534,12.916,157.0,0.0
43756,0.378,0.548,-0.840,13.840,-1.969,-0.038,151.0,0.0
43813,0.380,0.458,-0.694,-19.313,2.038,-7.237,150.0,0.0
43870,0.352,0.667,-0.924,16.931,0.313,7.908,151.0,0.0
43927,0.395,0.410,-0.708,6.603,-1.756,0.817,151.0,0.0
43984,0.374,0.591,-0.822,-3.137,8.336,0.038,151.0,0.0
44042,0.366,0.467,-0.795,23.008,-6.275,3.191,150.0,0.0
44099,0.359,0.429,-0.730,-18.534,2.855,-7.305,151.0,0.0
44156,0.395,0.663,-0.882,-10.962,12.374,1.977,151.0,0.0
44214,0.392,0.579,-0.737,11.366,1.145,0.664,151.0,0.0
44271,0.344,0.574,-0.843,9.137,4.214,3.443,157.0,0.0
44332,0.355,0.449,-0.749,10.511,-0.832,2.389,156.0,0.0
44389,0.359,0.457,-0.726,-6.817,2.015,-0.809,152.0,0.0
44446,0.375,0.522,-0.825,9.366,-0.214,2.244,151.0,0.0
44504,0.390,0.438,-0.730,2.038,2.786,-0.076,151.0,0.0
44561,0.375,0.497,-0.786,0.885,2.656,1.924,150.0,0.0
44618,0.373,0.540,-0.809,0.611,2.565,0.832,155.0,0.0
44676,0.382,0.516,-0.812,7.802,5.244,2.901,152.0,0.0
44733,0.394,0.447,-0.727,-0.573,3.450,1.649,151.0,0.0
44790,0.389,0.545,-0.809,7.115,6.534,3.290,151.0,0.0
44851,0.365,0.426,-0.735,8.344,-4.252,-0.702,151.0,0.0
44908,0.388,0.517,-0.780,-4.977,3.901,-0.267,154.0,0.0
44965,0.406,0.553,-0.789,0.344,-0.779,-0.687,152.0,0.0
45066,0.397,0.499,-0.739,-13.221,-1.099,-3.565,151.0,0.0
45123,0.409,0.672,-0.875,-1.206,6.015,2.786,151.0,0.0
45180,0.375,0.511,-0.805,14.053,-5.618,-0.695,151.0,0.0
45239,0.397,0.440,-0.727,-7.260,5.748,-0.939,152.0,0.0
45296,0.364,0.475,-0.818,9.313,-1.939,-0.649,156.0,0.0
45353,0.386,0.417,-0.720,-8.588,0.229,-5.489,156.0,0.0
45415,0.362,0.573,-0.836,-1.832,7.229,-3.885,158.0,0.0
45472,0.393,0.527,-0.782,5.969,-1.153,-1.618,158.0,0.0
45531,0.375,0.480,-0.789,6.389,0.359,0.641,157.0,0.0
45588,0.379,0.478,-0.767,-1.008,0.649,-2.840,157.0,0.0
45646,0.367,0.492,-0.817,5.924,0.908,-1.137,157.0,0.0
45704,0.355,0.440,-0.735,1.565,-1.344,-3.977,158.0,0.0
45762,0.402,0.573,-0.836,-5.656,7.374,-1.809,158.0,0.0
45820,0.383,0.587,-0.838,10.977,3.107,-1.977,158.0,0.0
45878,0.375,0.434,-0.751,5.908,-0.802,0.588,161.0,0.0
45939,0.376,0.476,-0.774,2.458,5.840,0.664,158.0,0.0
45998,0.361,0.491,-0.818,10.962,1.969,3.443,160.0,0.0
46055,0.407,0.395,-0.754,9.122,7.817,2.008,157.0,0.0
46113,0.353,0.465,-0.729,-8.466,-0.664,-7.893,157.0,0.0
46174,0.356,0.517,-0.831,-2.641,-0.481,0.603,0.0,0.0
46231,0.355,0.484,-0.784,-4.305,0.573,0.107,158.0,0.0
46289,0.419,0.649,-0.795,-8.191,7.122,-1.496,159.0,0.0
46347,0.368,0.663,-0.954,7.115,4.824,0.427,157.0,0.0
46405,0.351,0.263,-0.642,16.527,-10.794,-0.573,158.0,0.0
46466,0.357,0.376,-0.717,-20.252,3.550,-0.771,0.0,0.0
46521,0.387,0.696,-0.868,-14.275,1.824,-4.267,157.0,0.0
46579,0.418,0.795,-0.857,-4.237,3.206,2.763,158.0,0.0
46638,0.389,0.631,-0.948,28.511,7.901,8.550,158.0,0.0
46696,0.340,0.109,-0.603,22.870,-12.359,-2.595,157.0,0.0
46753,0.355,0.362,-0.694,-29.611,7.649,-1.870,156.0,0.0
46812,0.400,0.724,-0.911,-8.534,2.595,0.977,157.0,0.0
46870,0.385,0.428,-0.688,-3.626,-3.817,-2.473,158.0,0.0
46928,0.368,0.605,-0.800,-14.244,6.603,-0.053,158.0,0.0
46986,0.382,0.638,-0.893,15.885,1.031,4.183,159.0,0.0
47047,0.358,0.385,-0.729,8.756,-7.763,-1.947,157.0,0.0
47106,0.334,0.391,-0.718,-14.115,-2.573,-4.229,158.0,0.0
47164,0.370,0.539,-0.794,-8.443,2.550,-2.641,158.0,0.0
47222,0.360,0.545,-0.833,-1.321,0.695,0.038,158.0,0.0
47280,0.319,0.422,-0.726,-6.649,-6.924,-6.542,151.0,0.0
47338,0.340,0.531,-0.697,-28.176,5.573,-2.046,152.0,0.0
47395,0.366,0.852,-0.994,1.267,7.802,4.908,150.0,0.0
47454,0.370,0.409,-0.657,20.008,-7.748,-4.718,150.0,0.0
47511,0.317,0.395,-0.689,-19.176,4.420,-0.061,151.0,0.0
47572,0.431,0.813,-0.944,-12.939,8.733,-1.153,151.0,0.0
47630,0.272,0.250,-0.664,25.351,-21.786,-10.672,151.0,0.0
47685,0.305,0.283,-0.518,-51.221,1.802,-10.397,150.0,149.0
47740,0.457,1.433,-1.198,-18.015,13.382,2.603,150.0,149.0
47795,0.355,0.420,-0.563,31.328,-14.733,-1.847,150.0,148.0
47850,0.408,0.742,-0.807,-24.031,30.046,20.687,149.0,150.0
47908,0.387,0.702,-0.928,63.000,-13.626,8.786,150.0,0.0
48006,0.405,1.081,-1.133,29.924,-0.290,6.901,150.0,149.0
48064,0.394,0.098,-0.484,26.947,-10.947,0.206,149.0,150.0
48119,0.325,0.568,-0.823,-26.115,16.137,-0.588,149.0,150.0
48178,0.359,0.645,-0.847,23.122,-8.275,-6.344,151.0,0.0
48235,0.370,0.368,-0.576,-2.115,-1.824,-1.595,150.0,0.0
48293,0.395,0.801,-0.943,-20.901,25.069,5.244,151.0,0.0
48352,0.327,0.539,-0.795,45.420,-9.802,5.443,152.0,0.0
48409,0.350,0.144,-0.563,8.023,-4.817,-0.153,151.0,0.0
48467,0.324,0.515,-0.805,-2.275,6.702,0.206,158.0,0.0
48526,0.354,0.386,-0.648,2.389,-13.473,-9.313,152.0,0.0
48584,0.388,0.540,-0.628,-33.679,5.481,4.084,149.0,150.0
48642,0.408,1.002,-1.088,26.939,7.435,12.023,151.0,0.0
48697,0.386,0.137,-0.514,30.099,-13.939,-2.420,151.0,149.0
48755,0.333,0.568,-0.824,-27.435,22.847,7.740,151.0,0.0
48811,0.320,0.606,-0.771,22.107,-18.168,-2.702,151.0,151.0
48866,0.440,0.624,-0.756,-18.229,15.351,7.695,150.0,150.0
48924,0.351,0.580,-0.838,41.137,-4.015,2.214,150.0,0.0
48978,0.353,0.321,-0.563,-25.550,-7.969,-12.389,149.0,150.0
49035,0.376,0.960,-0.984,0.725,14.275,9.939,150.0,150.0
49093,0.340,0.277,-0.680,41.916,-16.191,1.885,150.0,150.0
49147,0.361,0.465,-0.735,-32.275,6.313,-3.374,150.0,149.0
49203,0.391,0.799,-0.897,14.359,3.542,4.046,151.0,149.0
49258,0.336,0.390,-0.676,6.511,-8.985,-0.015,151.0,150.0
49316,0.353,0.659,-0.849,-6.718,9.191,5.023,151.0,0.0
49375,0.343,0.540,-0.837,14.076,-1.679,-3.336,151.0,0.0
49433,0.351,0.364,-0.612,-10.687,-2.809,-2.427,150.0,0.0
49491,0.356,0.707,-0.857,-10.359,9.527,4.061,150.0,0.0
49550,0.352,0.605,-0.811,23.405,-3.481,3.992,156.0,0.0
49611,0.402,0.503,-0.624,-16.580,2.725,-5.489,156.0,0.0
49670,0.417,1.043,-0.978,-6.939,24.626,6.168,156.0,0.0
49728,0.274,0.170,-0.667,74.733,-22.206,10.489,157.0,0.0
49786,0.323,0.035,-0.569,-27.366,-1.458,-8.382,150.0,0.0
49845,0.286,0.713,-0.848,-33.450,0.198,-12.924,152.0,0.0
49903,0.373,0.859,-0.849,-7.397,-0.427,3.855,156.0,0.0
49963,0.398,0.849,-0.947,22.916,16.969,9.878,157.0,0.0
50021,0.324,0.315,-0.735,46.786,-0.962,0.023,157.0,0.0
50079,0.278,0.194,-0.529,-36.313,-10.924,-14.924,152.0,0.0
50141,0.353,0.851,-0.953,-34.160,18.313,3.748,156.0,0.0
50200,0.299,0.639,-0.759,19.008,-12.672,-1.603,156.0,0.0
50258,0.365,0.715,-0.802,-20.214,13.534,4.405,152.0,0.0
50317,0.360,0.655,-0.864,40.015,1.466,10.397,156.0,0.0
50375,0.324,0.296,-0.624,-11.229,-7.275,-2.427,151.0,0.0
50434,0.351,0.702,-0.904,7.962,6.168,11.328,152.0,0.0
50492,0.351,0.484,-0.673,-7.763,-5.870,-7.809,151.0,0.0
50550,0.290,0.580,-0.802,-12.351,-9.252,-1.847,150.0,0.0
50609,0.335,0.726,-0.831,-3.985,-9.061,17.084,149.0,0.0
50670,0.324,0.436,-0.708,-1.840,-5.504,-0.275,149.0,0.0
50728,0.364,0.762,-0.801,-25.794,0.221,-0.412,149.0,0.0
50787,0.313,0.486,-0.660,-12.931,-10.458,-5.557,149.0,0.0
50845,0.246,0.590,-0.775,-0.901,-23.260,-9.992,150.0,0.0
50946,0.224,0.588,-0.698,-27.084,-26.473,-25.374,144.0,0.0
51004,0.197,0.628,-0.726,4.137,-29.137,-23.969,146.0,0.0
51070,0.122,0.635,-0.719,-37.855,-38.313,-43.992,179.0,0.0
51128,0.101,0.745,-0.692,-49.084,-34.855,-61.611,156.0,0.0
51185,-0.046,0.677,-0.635,-62.725,-42.183,-86.763,159.0,0.0
51246,-0.116,0.899,-0.653,-93.763,-42.504,-92.321,139.0,0.0
51302,-0.233,0.565,-0.469,-1.542,-38.214,-81.122,142.0,0.0
51361,-0.302,0.975,-0.618,-10.504,-44.237,-75.878,181.0,0.0
51420,-0.368,0.706,-0.514,-34.916,-39.038,-81.305,163.0,0.0
51478,-0.475,0.862,-0.555,-55.611,-33.725,-95.435,175.0,0.0
51537,-0.502,0.703,-0.391,-140.763,-34.244,-122.481,186.0,0.0
51598,-0.765,0.499,-0.160,-85.763,-19.672,-138.466,0.0,0.0
51658,-0.814,0.727,-0.221,1.740,-9.145,-100.878,0.0,0.0
51721,-0.880,0.698,-0.217,-70.863,-20.076,-90.344,0.0,0.0
51781,-0.883,0.508,-0.067,-48.015,-15.710,-95.206,0.0,0.0
51842,-0.969,0.477,-0.062,-24.580,-15.855,-72.832,0.0,0.0
51902,-0.976,0.475,-0.057,-23.229,-7.748,-43.198,0.0,0.0
51962,-0.953,0.385,-0.026,-14.427,0.969,-7.275,0.0,0.0
52022,-0.974,0.319,-0.023,11.359,0.603,19.817,0.0,0.0
52082,-0.933,0.374,-0.024,59.542,-6.756,39.435,0.0,0.0
52143,-0.904,0.376,-0.118,132.183,-8.947,71.534,0.0,0.0
52203,-0.819,0.592,-0.233,123.695,6.969,89.397,0.0,0.0
52265,-0.755,0.673,-0.283,55.458,15.305,72.443,0.0,0.0
52326,-0.770,0.643,-0.278,-3.145,18.366,52.015,0.0,0.0
52386,-0.760,0.563,-0.245,4.611,22.160,51.107,0.0,0.0
52447,-0.700,0.640,-0.263,12.229,16.489,48.206,0.0,0.0
52507,-0.652,0.583,-0.231,24.962,13.687,33.237,0.0,0.0
52567,-0.689,0.657,-0.278,11.603,6.382,15.779,0.0,0.0
52627,-0.689,0.629,-0.321,23.466,-0.519,8.198,0.0,0.0
52687,-0.465,0.496,-0.053,87.496,-53.756,-5.863,0.0,0.0
52748,-1.037,0.531,-0.316,49.763,-97.527,-81.824,0.0,0.0
52811,-0.767,0.556,-0.274,-92.718,-38.901,-77.985,0.0,0.0
52872,-0.673,1.045,-0.412,32.229,-38.099,-16.374,0.0,0.0
52932,-0.788,0.522,-0.260,-30.679,7.908,3.275,0.0,0.0
52992,-0.800,0.703,-0.289,12.160,27.664,28.344,0.0,0.0
53052,-0.862,0.292,-0.194,23.061,4.824,15.603,0.0,0.0
53112,-0.792,0.375,-0.190,-5.466,-9.763,-10.260,0.0,0.0
53173,-0.833,0.496,-0.203,-9.786,-8.214,-10.565,0.0,0.0
53233,-0.742,0.636,-0.245,8.557,7.947,6.969,0.0,0.0
53294,-0.801,0.489,-0.204,12.412,2.137,4.618,0.0,0.0
53354,-0.841,0.531,-0.260,-4.405,-2.122,-7.443,0.0,0.0
53411,-0.750,0.588,-0.203,18.962,-6.336,4.313,0.0,0.0
53472,-0.816,0.586,-0.258,-9.870,0.046,-0.534,0.0,0.0
53532,-0.751,0.719,-0.331,13.351,16.893,13.328,0.0,0.0
53593,-0.821,0.388,-0.164,19.336,9.229,16.733,0.0,0.0
53653,-0.799,0.358,-0.135,-9.496,-6.794,-5.527,0.0,0.0
53713,-0.810,0.496,-0.212,-17.947,-5.221,-8.931,0.0,0.0
53774,-0.726,0.641,-0.286,0.618,5.802,6.573,0.0,0.0
53834,-0.784,0.552,-0.247,8.496,-1.137,3.939,0.0,0.0
53895,-0.784,0.591,-0.268,3.298,0.282,-4.260,0.0,0.0
54001,-0.792,0.617,-0.267,-1.191,7.748,0.901,0.0,0.0
54062,-0.784,0.527,-0.216,-5.771,2.351,-8.046,0.0,0.0
54122,-0.780,0.557,-0.198,-0.603,1.237,-0.275,0.0,0.0
54182,-0.788,0.579,-0.224,-1.000,5.229,2.061,0.0,0.0
54243,-0.778,0.627,-0.256,0.763,-1.916,-0.313,0.0,0.0
54303,-0.814,0.483,-0.209,-2.588,-7.008,-7.206,0.0,0.0
54364,-0.778,0.582,-0.219,-2.397,-0.511,-2.244,0.0,0.0
54424,-0.785,0.576,-0.241,3.924,7.153,8.458,0.0,0.0
54484,-0.756,0.577,-0.233,8.076,-1.092,-1.221,0.0,0.0
54548,-0.816,0.498,-0.194,-0.603,-2.809,-5.107,0.0,0.0
54608,-0.796,0.599,-0.240,-5.160,0.290,-4.359,0.0,0.0
54670,-0.767,0.627,-0.229,4.534,2.267,3.588,0.0,0.0
54730,-0.831,0.484,-0.213,3.450,0.710,-0.656,0.0,0.0
54791,-0.781,0.576,-0.214,-8.924,-5.740,-13.046,0.0,0.0
54851,-0.820,0.552,-0.221,4.382,-1.313,-1.328,0.0,0.0
54912,-0.756,0.599,-0.219,-5.198,0.321,-6.153,0.0,0.0
54972,-0.813,0.613,-0.240,8.763,-2.511,2.580,0.0,0.0
55032,-0.810,0.527,-0.200,4.366,-0.153,0.145,0.0,0.0
55096,-0.817,0.455,-0.175,9.550,-8.550,-1.389,0.0,0.0
55157,-0.792,0.557,-0.203,-16.000,1.664,-2.382,0.0,0.0
55218,-0.791,0.560,-0.189,8.595,-6.527,0.084,0.0,0.0
55278,-0.827,0.573,-0.246,4.122,-1.573,-1.160,0.0,0.0
55339,-0.817,0.443,-0.166,2.481,-3.473,-1.115,0.0,0.0
55399,-0.775,0.635,-0.235,1.977,-0.420,-2.817,0.0,0.0
55460,-0.832,0.536,-0.205,8.725,0.282,4.160,0.0,0.0
55521,-0.824,0.558,-0.210,4.466,1.779,2.679,0.0,0.0
55581,-0.825,0.501,-0.167,0.206,-15.153,-11.931,0.0,0.0
55642,-0.842,0.646,-0.231,-32.260,1.076,-10.130,0.0,0.0
55706,-0.777,0.693,-0.265,24.321,-0.824,11.053,0.0,0.0
55767,-0.834,0.439,-0.177,-8.321,0.359,-3.344,0.0,0.0
55827,-0.777,0.650,-0.241,14.000,-3.550,-0.969,0.0,0.0
55888,-0.840,0.471,-0.181,-3.160,-1.061,-3.962,0.0,0.0
55949,-0.783,0.648,-0.252,5.992,2.198,1.366,0.0,0.0
56009,-0.879,0.404,-0.176,27.718,11.511,16.015,0.0,0.0
56070,-0.833,0.377,-0.158,-15.061,-11.977,-12.137,0.0,0.0
56131,-0.833,0.571,-0.219,-21.191,1.252,-5.344,0.0,0.0
56192,-0.806,0.588,-0.240,11.855,-0.527,2.870,0.0,0.0
56256,-0.800,0.543,-0.213,-8.824,4.069,-0.924,0.0,0.0
56316,-0.804,0.600,-0.229,15.466,1.443,4.763,0.0,0.0
56377,-0.832,0.431,-0.144,-8.626,-2.069,-5.573,0.0,0.0
56438,-0.784,0.641,-0.225,0.496,-0.420,-1.252,0.0,0.0
56499,-0.837,0.522,-0.183,5.580,2.382,10.084,0.0,0.0
56560,-0.811,0.491,-0.189,0.641,-3.649,-2.840,0.0,0.0
56621,-0.799,0.562,-0.221,-2.359,-0.725,-1.885,0.0,0.0
56681,-0.810,0.561,-0.217,5.145,3.573,5.031,0.0,0.0
56742,-0.805,0.543,-0.208,4.221,2.321,1.023,0.0,0.0
56806,-0.839,0.457,-0.176,-0.870,-5.588,-7.015,0.0,0.0
56867,-0.822,0.608,-0.223,-7.962,0.740,-4.260,0.0,0.0
56928,-0.796,0.654,-0.229,1.298,10.084,10.298,0.0,0.0
56989,-0.831,0.519,-0.192,13.336,-2.198,3.145,0.0,0.0
57093,-0.787,0.575,-0.227,7.695,6.496,6.992,0.0,0.0
57154,-0.796,0.561,-0.253,9.557,4.351,5.122,0.0,0.0
57214,-0.824,0.427,-0.166,5.649,-0.443,-3.130,0.0,0.0
57275,-0.770,0.751,-0.291,-3.015,-3.679,-5.351,0.0,0.0
57336,-0.796,0.630,-0.251,0.427,10.656,10.267,0.0,0.0
57397,-0.779,0.521,-0.205,19.534,2.901,7.855,0.0,0.0
57461,-0.799,0.416,-0.193,-0.237,-6.573,-9.244,0.0,0.0
57523,-0.822,0.615,-0.279,-13.885,2.771,-4.893,0.0,0.0
57583,-0.783,0.702,-0.311,24.847,4.847,8.824,0.0,0.0
57645,-0.807,0.433,-0.167,-6.015,-2.168,-5.267,0.0,0.0
57705,-0.788,0.601,-0.256,0.389,0.366,-1.160,0.0,0.0
57766,-0.808,0.515,-0.248,8.969,3.565,6.573,0.0,0.0
57827,-0.776,0.485,-0.241,2.176,0.031,-0.702,0.0,0.0
57888,-0.832,0.530,-0.251,-8.924,3.718,-1.725,0.0,0.0
57949,-0.793,0.599,-0.254,5.573,4.824,3.931,0.0,0.0
58013,-0.802,0.554,-0.224,-17.053,4.015,-1.153,0.0,0.0
58075,-0.830,0.537,-0.235,9.145,10.427,16.611,0.0,0.0
58136,-0.738,0.664,-0.290,-14.389,35.397,26.565,0.0,0.0
58196,-0.737,0.671,-0.303,-53.427,36.252,21.656,0.0,0.0
58258,-0.683,0.649,-0.284,-75.794,23.466,11.969,0.0,0.0
58319,-0.649,0.621,-0.163,-97.695,11.412,-9.504,0.0,0.0
58380,-0.719,0.552,-0.121,-78.328,10.031,-33.817,0.0,0.0
58441,-0.816,0.637,-0.163,-49.611,7.321,-22.122,0.0,0.0
58503,-0.745,0.526,-0.075,-26.115,5.168,-33.115,0.0,0.0
58567,-0.766,0.511,-0.119,-12.122,9.656,-54.458,0.0,0.0
58629,-0.849,0.498,-0.138,-25.962,9.573,-68.321,0.0,0.0
58690,-0.920,0.408,-0.116,-33.260,10.863,-65.840,0.0,0.0
58750,-0.953,0.367,-0.067,-20.802,20.038,-45.145,0.0,0.0
58812,-0.966,0.369,-0.060,-2.656,25.832,-22.954,0.0,0.0
58880,-0.931,0.433,-0.069,0.855,25.382,-15.008,0.0,0.0
58940,-0.961,0.372,-0.078,-2.115,14.771,-12.183,0.0,0.0
58999,-0.928,0.394,-0.032,27.237,-0.649,-2.679,0.0,0.0
59060,-0.924,0.436,-0.090,37.855,-5.947,5.977,0.0,0.0
59122,-0.901,0.463,-0.140,6.076,-1.000,7.847,0.0,0.0
59183,-0.899,0.362,-0.137,-15.420,-0.069,6.366,0.0,0.0
59243,-0.922,0.352,-0.143,0.061,-0.626,11.511,0.0,0.0
59302,-0.908,0.376,-0.148,11.840,1.145,22.740,0.0,0.0
59363,-0.890,0.419,-0.178,11.679,7.015,25.053,0.0,0.0
59423,-0.890,0.471,-0.166,0.366,14.321,36.824,0.0,0.0
59483,-0.913,0.448,-0.165,15.282,17.344,43.115,0.0,0.0
59543,-0.847,0.547,-0.244,40.191,31.840,73.382,0.0,0.0
59603,-0.786,0.679,-0.322,25.565,39.229,73.160,0.0,0.0
59666,-0.735,0.642,-0.333,-15.702,50.672,75.611,0.0,0.0
59726,-0.642,0.740,-0.388,16.885,63.962,71.122,0.0,0.0
59786,-0.668,0.715,-0.498,-5.053,88.893,79.748,195.0,0.0
59844,-0.429,0.849,-0.537,-0.466,100.718,70.893,160.0,0.0
59901,-0.217,0.954,-0.524,-3.863,114.260,72.611,155.0,0.0
59959,-0.118,0.745,-0.540,-35.405,123.931,37.687,141.0,0.0
60015,-0.262,0.781,-0.503,-73.137,109.878,7.931,138.0,0.0
60066,-0.401,0.646,-0.390,-56.580,78.137,-0.237,136.0,108.0
60161,-0.270,1.052,-0.367,-67.191,36.397,-11.542,134.0,109.0
60211,-0.207,0.954,-0.257,-86.359,34.847,2.550,54.0,106.0
60257,-0.102,1.053,-0.187,-56.137,37.977,9.527,58.0,106.0
60309,-0.080,1.294,-0.236,-123.168,35.977,2.290,46.0,0.0
60363,-0.092,0.962,-0.027,-158.893,36.870,1.992,40.0,0.0
60409,-0.062,1.082,0.087,-146.519,30.794,1.565,37.0,111.0
60460,-0.132,0.838,0.210,-143.458,22.282,-0.947,37.0,0.0
60514,-0.106,1.090,0.140,-145.389,1.924,-1.687,37.0,0.0
60570,-0.043,0.924,0.429,-229.374,8.168,-34.031,128.0,0.0
60627,-0.081,0.790,0.636,-206.626,-1.435,-34.435,151.0,0.0
60691,-0.159,0.698,0.707,-238.573,-0.550,-38.947,0.0,0.0
60751,-0.229,0.164,0.947,-169.893,-6.885,-30.153,0.0,0.0
60802,-0.201,0.185,0.898,-85.840,-13.153,3.237,20.0,0.0
60852,-0.156,0.172,0.882,-60.061,-9.061,-4.221,22.0,0.0
60902,-0.188,0.092,0.903,-32.328,-6.130,-1.901,33.0,0.0
60952,-0.174,0.116,0.921,-15.725,-4.504,-2.977,22.0,0.0
61003,-0.142,0.072,0.976,-11.565,-3.198,1.656,33.0,0.0
61052,-0.164,0.147,0.927,8.115,-1.160,4.351,19.0,0.0
61103,-0.142,0.089,1.000,-8.603,0.534,4.336,19.0,0.0
61156,-0.151,0.134,0.959,4.031,0.519,6.954,18.0,0.0
61205,-0.146,0.092,0.988,-2.595,1.313,4.382,18.0,0.0
61255,-0.128,0.113,0.995,5.641,2.275,3.397,17.0,0.0
61304,-0.154,0.111,0.992,3.053,2.695,3.244,17.0,0.0
61355,-0.133,0.099,1.008,1.389,1.725,3.252,19.0,0.0
61404,-0.153,0.089,1.001,7.542,0.832,0.176,18.0,0.0
61454,-0.137,0.105,0.980,10.840,0.649,-2.855,17.0,0.0
61504,-0.166,0.073,0.977,27.603,1.053,-5.733,18.0,0.0
61553,-0.154,0.090,0.957,53.023,4.244,-7.740,18.0,0.0
61607,-0.304,0.121,0.844,133.740,5.824,-5.351,32.0,0.0
61658,-0.199,0.258,0.818,182.611,1.160,-0.779,33.0,0.0
61709,-0.279,0.368,0.557,235.130,4.405,4.176,37.0,0.0
61764,-0.081,0.626,0.545,250.130,9.718,1.969,37.0,0.0
61815,-0.223,0.681,0.280,238.832,27.702,4.198,36.0,0.0
61870,-0.079,1.067,0.149,250.130,19.748,-23.695,36.0,0.0
61921,-0.101,1.340,-0.120,229.298,21.023,-18.298,131.0,107.0
61972,-0.020,1.452,-0.180,112.916,32.237,-16.542,40.0,0.0
62027,0.057,1.345,-0.189,105.855,49.618,22.550,45.0,0.0
62082,0.115,1.476,-0.320,59.649,78.084,59.824,133.0,109.0
62138,0.075,1.656,-1.068,131.756,156.397,168.573,131.0,0.0
62194,0.096,1.276,-0.791,-39.221,250.130,232.191,124.0,0.0
62247,-0.469,-1.029,0.754,-71.473,129.832,46.802,126.0,143.0
62301,-0.065,0.960,-0.450,-23.740,73.374,-31.969,124.0,142.0
62357,0.354,1.476,-0.414,-1.573,31.153,-20.565,125.0,0.0
62413,0.433,0.895,-0.180,37.611,-9.206,13.542,125.0,0.0
62471,0.558,0.631,-0.102,-12.061,-4.130,9.779,131.0,0.0
62527,0.502,0.925,-0.236,-1.061,10.695,13.710,130.0,0.0
62586,0.438,0.920,-0.287,19.740,4.985,1.565,132.0,0.0
62644,0.387,0.608,0.031,-9.092,-0.725,0.252,128.0,0.0
62700,0.477,1.066,-0.321,-3.679,-5.725,12.046,130.0,0.0
62756,0.557,0.837,-0.174,9.847,-14.214,0.901,124.0,0.0
62856,0.450,0.614,0.039,12.031,-8.557,-15.382,124.0,0.0
62912,0.615,1.029,-0.267,-7.061,8.382,19.939,124.0,0.0
62968,0.364,0.823,-0.208,25.328,-8.237,-12.885,124.0,0.0
63025,0.519,0.637,0.037,-11.038,-4.824,-4.290,124.0,0.0
63081,0.548,1.194,-0.404,-31.290,19.962,2.137,124.0,0.0
63140,0.467,1.119,-0.341,28.450,-0.450,-4.290,131.0,0.0
63197,0.448,0.540,0.008,-6.176,-3.924,2.893,125.0,0.0
63254,0.474,0.794,-0.106,-27.344,-0.389,-1.305,131.0,0.0
63310,0.482,0.947,-0.221,-0.115,-2.962,0.534,132.0,0.0
63368,0.502,1.056,-0.316,10.710,7.008,4.328,133.0,0.0
63424,0.508,0.934,-0.180,6.443,-2.824,2.267,132.0,0.0
63480,0.465,0.894,-0.168,-8.015,-4.252,3.595,124.0,0.0
63537,0.449,0.883,-0.197,7.321,1.565,-2.351,125.0,0.0
63593,0.507,0.921,-0.223,-4.634,4.237,0.435,125.0,0.0
63652,0.535,0.877,-0.132,5.382,9.832,11.374,123.0,0.0
63709,0.506,1.096,-0.298,5.550,-2.527,3.282,123.0,0.0
63765,0.423,0.649,-0.066,9.740,-17.939,-8.275,123.0,0.0
63821,0.558,0.816,-0.106,-27.458,10.588,0.733,123.0,0.0
63878,0.510,1.152,-0.356,17.542,6.313,0.267,125.0,0.0
63935,0.481,0.813,-0.107,11.450,-0.809,1.153,124.0,0.0
63991,0.499,1.061,-0.325,4.733,11.344,11.534,124.0,0.0
64045,0.366,0.729,-0.117,29.420,-16.542,-8.977,134.0,143.0
64102,0.558,0.777,-0.104,-25.618,13.580,4.702,132.0,0.0
64162,0.462,1.201,-0.403,21.939,-2.885,4.725,134.0,0.0
64217,0.460,0.474,0.122,6.420,-10.870,2.260,23.0,0.0
64259,0.552,1.107,-0.361,-16.275,8.771,8.908,23.0,50.0
64306,0.453,0.622,-0.001,12.748,-10.496,-7.595,125.0,50.0
64354,0.544,1.047,-0.339,-11.962,13.206,8.924,124.0,50.0
64396,0.458,0.616,-0.025,19.603,-7.802,-3.611,25.0,50.0
64449,0.534,1.115,-0.395,-5.290,11.565,6.695,135.0,133.0
64500,0.429,0.592,-0.013,8.229,-12.817,-11.924,22.0,0.0
64548,0.573,1.097,-0.280,-4.885,16.206,12.702,135.0,43.0
64599,0.376,0.740,-0.185,68.977,-18.244,-0.382,127.0,40.0
64647,0.590,0.860,-0.196,-65.573,12.595,-4.458,129.0,43.0
64694,0.446,1.032,-0.281,53.840,-2.840,-1.916,127.0,41.0
64742,0.521,0.637,-0.078,-7.664,6.649,2.031,127.0,43.0
64789,0.472,0.980,-0.281,3.809,0.076,0.023,127.0,42.0
64836,0.472,0.777,-0.182,5.023,-0.008,0.137,126.0,41.0
64884,0.505,0.973,-0.272,5.313,2.053,-0.511,127.0,40.0
64931,0.467,0.765,-0.207,9.038,-0.260,-1.969,127.0,40.0
64978,0.504,0.969,-0.246,-12.817,5.053,-0.679,127.0,40.0
65030,0.451,0.870,-0.272,26.031,-4.985,0.756,127.0,41.0
65086,0.497,0.724,-0.153,-14.450,1.603,0.740,127.0,0.0
65133,0.491,1.018,-0.280,1.870,5.099,0.687,126.0,40.0
65190,0.467,0.829,-0.190,-3.794,-0.267,-1.183,127.0,0.0
65247,0.425,0.880,-0.272,0.450,-1.382,-1.802,126.0,0.0
65303,0.519,0.832,-0.217,0.137,2.733,0.351,126.0,0.0
65360,0.476,0.912,-0.250,3.458,-1.466,3.542,126.0,0.0
65417,0.512,0.869,-0.229,3.756,3.878,1.053,126.0,0.0
65465,0.481,0.791,-0.160,5.176,0.366,0.489,126.0,40.0
65567,0.469,0.785,-0.132,-7.740,-3.931,-5.710,126.0,0.0
65615,0.555,0.935,-0.187,-49.420,9.473,-2.351,126.0,43.0
65662,0.530,1.138,-0.323,31.313,-6.244,13.435,126.0,43.0
65711,0.462,0.431,0.042,-14.557,-7.885,-10.733,126.0,41.0
65758,0.571,1.178,-0.354,-8.191,7.641,5.366,125.0,41.0
65806,0.387,0.757,-0.203,29.420,-11.115,-9.786,123.0,42.0
65859,0.518,0.637,-0.107,-4.779,7.794,0.855,123.0,42.0
65905,0.442,1.071,-0.372,33.336,-6.008,-3.267,123.0,39.0
65951,0.479,0.806,-0.211,-16.573,6.092,4.061,123.0,40.0
66000,0.448,0.812,-0.184,14.046,-5.405,-3.748,123.0,38.0
66046,0.514,0.947,-0.289,-7.046,6.931,3.985,123.0,39.0
66093,0.448,0.823,-0.195,8.397,-5.214,-4.275,124.0,39.0
66140,0.487,0.902,-0.279,-2.305,4.313,2.336,123.0,39.0
66186,0.469,0.801,-0.189,3.374,-2.702,-3.198,123.0,40.0
66241,0.470,0.911,-0.267,-1.573,2.053,-2.290,123.0,0.0
66296,0.493,0.929,-0.270,3.565,1.710,0.427,123.0,0.0
66353,0.434,0.812,-0.248,17.389,-3.557,-0.359,124.0,0.0
66399,0.434,0.698,-0.107,-19.084,-13.252,-9.458,124.0,39.0
66448,0.570,1.292,-0.487,-15.076,9.191,13.962,123.0,39.0
66494,0.453,0.442,0.036,25.489,-4.931,-6.252,123.0,38.0
66541,0.492,1.212,-0.488,-10.504,6.008,-1.069,124.0,38.0
66587,0.492,0.724,-0.161,5.321,1.626,4.809,124.0,39.0
66633,0.447,0.875,-0.254,-3.939,1.122,2.809,124.0,39.0
66679,0.478,0.871,-0.264,1.420,3.107,-2.099,124.0,39.0
66726,0.428,0.842,-0.248,6.046,1.924,-5.305,125.0,38.0
66772,0.473,0.898,-0.270,5.031,2.969,3.031,125.0,41.0
66819,0.452,0.827,-0.194,1.115,-0.511,-1.885,126.0,40.0
66869,0.481,0.912,-0.281,-3.137,3.099,4.076,126.0,41.0
66915,0.469,0.774,-0.166,1.031,-2.351,-3.229,126.0,41.0
66962,0.466,0.939,-0.316,2.733,1.611,0.053,126.0,40.0
67008,0.475,0.834,-0.243,0.023,4.198,-1.969,126.0,40.0
67055,0.449,0.893,-0.272,6.191,4.107,1.282,127.0,39.0
67101,0.469,0.872,-0.220,-4.427,3.802,1.527,127.0,39.0
67147,0.443,0.828,-0.200,0.267,-1.931,-4.687,126.0,38.0
67194,0.439,0.900,-0.274,-0.634,-4.557,-3.458,126.0,41.0
67240,0.446,0.850,-0.180,-29.626,-10.351,-10.282,126.0,38.0
67291,0.351,0.814,-0.195,-37.115,-25.053,-24.786,126.0,38.0
67337,0.395,0.856,-0.200,-18.290,-26.511,-17.244,122.0,39.0
67384,0.401,0.860,-0.223,3.412,-21.412,-27.725,121.0,37.0
67439,0.286,0.923,-0.266,-23.305,-24.031,-29.634,122.0,0.0
67493,0.304,0.898,-0.164,-31.489,-25.076,-35.618,33.0,0.0
67546,0.227,0.794,-0.127,-25.908,-32.374,-59.519,123.0,126.0
67597,0.176,1.104,-0.249,-45.992,-38.611,-75.489,124.0,127.0
67648,0.134,0.749,-0.064,-86.573,-36.061,-110.313,126.0,114.0
67705,-0.030,1.011,-0.110,-34.160,-34.603,-111.405,129.0,0.0
67759,-0.125,0.949,0.022,-41.298,-19.695,-125.832,39.0,0.0
67814,-0.172,1.049,0.042,-64.656,-14.847,-124.298,39.0,0.0
67871,-0.434,1.016,0.116,-50.931,-13.573,-125.076,143.0,0.0
67929,-0.436,1.146,0.163,-97.847,-12.985,-117.221,147.0,0.0
67987,-0.548,0.823,0.370,-120.626,-6.954,-119.611,160.0,0.0
68088,-0.742,0.865,0.490,-144.458,-21.702,-93.954,0.0,160.0
68145,-0.802,0.305,0.661,-133.878,-41.389,-81.252,0.0,138.0
68203,-0.700,0.446,0.727,-84.618,-49.053,-58.069,0.0,158.0
68262,-0.679,0.174,0.841,-47.290,-56.191,-34.107,0.0,134.0
68320,-0.628,0.354,0.671,-23.145,-53.031,-19.634,0.0,135.0
68376,-0.552,0.173,0.814,-18.641,-45.725,-14.733,0.0,134.0
68435,-0.517,0.192,0.747,-18.748,-38.656,-9.641,0.0,169.0
68496,-0.518,0.180,0.735,-2.840,-25.229,-9.695,0.0,0.0
68552,-0.495,0.128,0.817,-9.847,-19.069,-9.466,0.0,142.0
68611,-0.505,0.215,0.780,-10.634,-12.374,-0.649,0.0,161.0
68671,-0.466,0.117,0.853,-3.046,-4.359,0.618,0.0,0.0
68729,-0.483,0.131,0.872,-13.229,-3.771,3.863,0.0,161.0
68791,-0.502,0.128,0.860,-2.855,-5.817,3.519,0.0,160.0
68849,-0.470,0.128,0.883,-0.206,-8.130,4.130,0.0,160.0
68907,-0.501,0.109,0.896,4.122,-11.878,4.298,0.0,160.0
68956,-0.445,0.152,0.867,-0.252,-12.962,5.191,42.0,161.0
69005,-0.448,0.117,0.876,3.130,-14.550,4.115,42.0,161.0
69054,-0.392,0.124,0.872,6.817,-9.290,6.695,41.0,161.0
69102,-0.424,0.133,0.886,-1.427,-5.809,3.221,39.0,143.0
69150,-0.426,0.131,0.910,9.374,-5.840,6.145,39.0,142.0
69198,-0.416,0.144,0.897,3.519,-4.733,4.053,40.0,142.0
69249,-0.415,0.127,0.915,3.908,-5.679,5.565,39.0,142.0
69297,-0.406,0.145,0.890,0.511,-3.901,3.985,41.0,141.0
69345,-0.393,0.120,0.908,7.305,-3.221,5.313,41.0,141.0
69401,-0.381,0.198,0.870,5.855,-2.275,1.588,0.0,142.0
69450,-0.388,0.092,0.945,5.748,0.603,-0.374,44.0,143.0
69497,-0.401,0.197,0.880,6.679,2.122,-0.656,40.0,142.0
69555,-0.396,0.135,0.918,5.214,2.244,-1.603,0.0,141.0
69612,-0.405,0.167,0.906,4.763,4.000,-0.435,0.0,141.0
69660,-0.401,0.190,0.903,1.718,4.527,-1.580,39.0,143.0
69720,-0.415,0.198,0.899,8.649,3.626,0.595,39.0,144.0
69771,-0.394,0.190,0.919,1.687,1.634,-0.893,40.0,162.0
69823,-0.413,0.185,0.911,5.069,2.099,1.191,40.0,161.0
69874,-0.393,0.174,0.904,-0.557,0.702,-0.267,39.0,162.0
69925,-0.397,0.166,0.906,7.420,3.878,-0.321,39.0,161.0
69978,-0.422,0.209,0.879,-2.817,2.992,-0.168,39.0,161.0
70029,-0.412,0.167,0.904,5.534,4.084,1.069,39.0,161.0
70081,-0.421,0.199,0.893,6.015,2.878,-0.672,40.0,160.0
70132,-0.414,0.187,0.903,3.985,2.244,-0.786,40.0,160.0
70184,-0.406,0.206,0.893,0.702,1.870,-0.786,40.0,160.0
70239,-0.400,0.165,0.894,14.511,4.595,-0.534,38.0,160.0
70290,-0.422,0.210,0.866,-2.366,5.901,-2.962,38.0,161.0
70342,-0.393,0.116,0.892,26.298,11.359,-2.344,40.0,160.0
70393,-0.431,0.242,0.823,15.031,13.076,-7.824,40.0,161.0
70446,-0.384,0.022,0.861,50.092,23.756,-10.107,39.0,165.0
70498,-0.479,0.140,0.690,127.107,41.145,-8.168,41.0,169.0
70559,-0.475,0.173,0.636,179.397,54.618,-22.122,0.0,166.0
70620,-0.625,0.423,0.454,194.214,47.931,-43.931,0.0,154.0
70686,-0.723,0.634,0.306,208.939,47.992,-21.534,0.0,0.0
70747,-0.774,0.759,0.250,191.763,21.542,-26.458,0.0,153.0
