Timestamp(ms),AccelX(g),AccelY(g),AccelZ(g),GyroX(deg/s),GyroY(deg/s),GyroZ(deg/s),DistanceLeft(cm),DistanceRight(cm)
279558,-0.350,0.025,0.942,10.115,5.305,-3.389,0.0,0.0
279641,-0.353,0.035,0.951,6.962,3.962,-1.092,23.0,0.0
279733,-0.356,0.048,0.935,5.634,4.206,-0.427,0.0,0.0
279826,-0.353,0.068,0.914,10.847,3.389,-0.031,0.0,0.0
279919,-0.374,0.078,0.912,11.878,2.450,0.969,0.0,0.0
280012,-0.389,0.037,0.952,12.183,2.397,3.863,0.0,0.0
280104,-0.385,0.007,0.907,17.893,2.931,-1.145,0.0,0.0
280198,-0.414,0.168,0.828,30.992,7.878,-6.336,0.0,0.0
280294,-0.427,0.269,0.770,67.107,13.725,-2.305,0.0,0.0
280386,-0.425,0.392,0.777,70.901,34.878,7.542,0.0,0.0
280479,-0.490,0.428,0.824,43.947,42.359,7.733,0.0,0.0
280568,-0.572,0.322,0.811,68.947,25.206,2.527,0.0,126.0
280656,-0.512,0.507,0.621,101.443,17.023,-10.809,0.0,111.0
280744,-0.513,0.456,0.517,85.702,20.664,-40.855,0.0,111.0
280835,-0.603,0.262,0.410,159.786,58.962,-102.267,0.0,136.0
280928,-0.561,0.267,0.360,163.519,85.374,-239.733,0.0,0.0
281022,-2.000,-1.058,0.442,10.992,9.710,-162.336,0.0,0.0
281118,-0.524,-0.123,0.212,0.817,1.687,-100.695,0.0,0.0
281211,-0.907,0.499,-0.021,-17.939,-12.221,40.183,0.0,0.0
281305,-0.954,-0.101,0.261,22.084,-10.855,6.611,0.0,0.0
281398,-0.942,-0.037,0.135,36.947,-21.427,-1.626,0.0,0.0
281492,-1.091,0.048,0.101,-18.565,-9.069,0.672,0.0,0.0
281585,-0.955,0.104,0.116,45.870,-8.855,3.244,0.0,0.0
281678,-1.008,-0.139,0.257,-12.649,-2.427,-1.466,0.0,0.0
281772,-0.973,-0.073,0.274,0.481,-8.298,13.359,0.0,0.0
281865,-0.886,0.357,0.125,-19.840,-5.000,7.153,0.0,0.0
281961,-0.831,-0.113,0.381,-9.282,-10.756,11.458,0.0,0.0
282055,-0.922,0.186,0.093,-21.992,-7.481,-6.489,0.0,0.0
282148,-0.876,0.055,0.192,63.374,2.298,-2.366,0.0,0.0
282242,-0.976,-0.049,0.172,-19.137,23.618,-10.038,0.0,0.0
282336,-1.034,-0.336,0.542,-28.084,15.725,-19.305,0.0,0.0
282429,-0.792,0.074,0.056,104.672,-7.176,-4.786,0.0,0.0
282522,-0.994,-0.018,0.260,28.733,17.985,-59.672,0.0,0.0
282615,-1.052,0.148,0.313,1.824,7.092,-32.687,0.0,0.0
282710,-0.990,0.256,0.159,79.031,-17.099,32.481,0.0,0.0
282806,-1.037,0.152,0.223,-37.740,-10.649,38.397,0.0,0.0
282899,-0.904,-0.259,0.335,10.847,-18.794,38.962,0.0,0.0
282993,-0.856,0.129,0.137,-13.664,-2.840,-5.817,0.0,0.0
283086,-0.815,0.174,0.207,-46.527,11.725,-23.847,0.0,0.0
283180,-0.932,0.092,0.426,6.550,12.168,41.000,0.0,0.0
283273,-0.972,0.057,0.295,47.427,-10.893,7.405,0.0,0.0
283367,-1.019,0.146,0.270,4.450,-5.275,-35.374,0.0,0.0
283460,-0.981,0.132,0.231,10.588,-19.397,-25.313,0.0,0.0
283553,-0.909,0.292,0.175,2.985,-5.466,7.580,200.0,0.0
283651,-0.990,0.011,0.302,36.534,-1.290,11.710,200.0,0.0
283744,-0.909,0.033,0.298,-20.916,-3.405,-8.733,199.0,0.0
283837,-0.881,0.185,0.153,16.481,4.763,-3.702,200.0,0.0
283931,-0.973,0.163,0.310,38.137,14.718,2.435,0.0,0.0
284024,-1.054,0.214,0.306,14.931,-8.504,-5.015,0.0,0.0
284118,-0.948,0.016,0.309,5.924,-12.321,-12.305,0.0,0.0
284212,-0.886,0.035,0.307,-5.313,1.496,17.359,0.0,0.0
284305,-0.980,0.085,0.243,27.305,-2.893,18.420,0.0,0.0
284399,-0.993,0.214,0.318,-3.237,-11.313,-9.542,0.0,0.0
284495,-0.895,0.234,0.213,-3.031,-7.916,4.527,0.0,0.0
284589,-0.924,0.109,0.293,-25.031,-4.405,16.702,0.0,0.0
284683,-0.936,0.162,0.202,10.092,5.160,15.954,0.0,0.0
284776,-0.996,0.225,0.392,-49.794,0.817,2.695,0.0,0.0
284869,-0.922,0.279,0.455,-29.847,-18.824,-14.977,0.0,0.0
284963,-0.776,0.190,0.175,-5.756,-15.641,22.863,0.0,0.0
285058,-0.910,0.070,0.263,3.260,12.176,-4.527,0.0,0.0
285151,-0.927,-0.081,0.421,-13.855,20.351,-33.359,0.0,0.0
285245,-0.927,-0.051,0.416,-18.878,14.374,-18.466,0.0,0.0
285341,-0.932,0.027,0.315,-25.130,12.504,-5.374,0.0,0.0
285435,-1.003,0.029,0.256,4.229,11.160,8.061,0.0,0.0
285529,-0.962,0.079,0.344,-49.145,15.267,-6.748,0.0,0.0
285623,-1.004,0.214,0.177,-9.588,-0.634,-4.000,0.0,0.0
285716,-1.004,-0.020,0.199,6.679,2.802,14.305,0.0,0.0
285809,-1.031,-0.033,0.223,-82.740,9.473,9.710,0.0,0.0
285903,-0.921,-0.084,0.190,19.603,-2.756,20.450,0.0,0.0
285998,-0.915,-0.099,0.198,-5.695,12.794,-6.763,0.0,0.0
286091,-0.979,0.070,0.182,36.779,10.672,17.137,0.0,0.0
286188,-0.980,0.006,0.235,29.321,10.534,15.130,0.0,0.0
286281,-0.956,0.130,0.191,53.458,1.702,34.672,0.0,0.0
286375,-0.960,0.199,0.093,21.321,-1.901,69.153,0.0,0.0
286469,-0.891,0.254,0.113,62.397,-5.397,61.351,0.0,0.0
286563,-0.801,0.470,0.087,55.053,3.511,11.748,0.0,0.0
286656,-0.893,0.436,0.083,-24.954,15.641,7.405,0.0,0.0
286750,-0.964,0.420,0.093,9.198,9.893,-4.992,0.0,0.0
286843,-0.911,0.462,0.088,2.008,9.527,0.504,0.0,0.0
286937,-0.897,0.499,0.076,-11.832,9.634,2.802,0.0,0.0
287034,-0.894,0.450,0.054,-49.443,12.176,-1.756,0.0,0.0
287128,-0.893,0.362,0.057,-17.008,-0.855,-1.580,0.0,0.0
287221,-0.896,0.431,0.031,11.893,-2.046,9.847,0.0,0.0
287315,-0.919,0.461,0.075,-15.718,2.687,5.305,0.0,0.0
287409,-0.918,0.458,0.104,-22.069,0.443,10.565,0.0,0.0
287503,-0.914,0.568,0.157,-60.046,6.489,22.992,0.0,0.0
287593,-1.100,0.670,0.411,-167.321,8.519,29.725,0.0,132.0
287687,-1.173,0.557,1.058,-114.107,-85.992,41.183,0.0,0.0
287780,-1.458,0.142,1.345,0.244,-250.137,32.855,0.0,0.0
287876,-0.232,1.817,-1.117,-236.756,-27.534,8.038,159.0,0.0
287963,-0.282,0.560,-0.024,152.221,-81.649,17.046,75.0,0.0
288049,-0.260,-1.678,1.427,-78.290,6.290,-30.275,72.0,0.0
288136,0.081,0.256,0.745,-134.580,10.473,12.832,69.0,0.0
288223,-0.208,0.334,1.006,59.557,-24.679,20.870,70.0,0.0
288316,-0.025,0.338,0.849,19.229,-4.252,6.191,0.0,0.0
288410,-0.249,0.464,0.840,-67.634,9.756,-6.977,0.0,0.0
288496,-0.073,0.844,0.656,-32.366,6.336,2.908,70.0,0.0
288590,-0.149,0.280,0.967,101.305,-25.901,13.977,0.0,0.0
288680,-0.165,-0.223,1.295,104.863,-37.076,18.069,70.0,0.0
288775,-0.227,-0.035,1.120,-46.229,-10.435,1.779,0.0,0.0
288861,-0.116,0.559,0.730,-126.893,18.832,-12.061,69.0,0.0
288948,0.171,0.866,0.663,49.916,-18.389,14.763,69.0,0.0
289042,-0.137,-0.210,1.154,108.511,-17.756,7.344,0.0,0.0
289136,-0.136,-0.216,1.225,-0.710,-0.542,-9.588,0.0,0.0
289230,-0.067,0.332,0.882,-29.458,6.771,-5.626,0.0,0.0
289326,0.135,0.564,0.819,29.031,-7.908,-2.015,0.0,0.0
289413,-0.073,-0.238,1.186,98.901,-15.076,-2.389,70.0,0.0
289510,-0.124,-0.352,1.263,-66.748,9.687,-4.481,0.0,0.0
289604,-0.000,1.059,0.391,-56.977,30.076,7.290,0.0,0.0
289691,-0.010,0.021,1.067,138.405,-4.511,14.656,67.0,0.0
289785,-0.198,-0.230,1.203,-61.153,9.489,-10.634,0.0,0.0
289880,-0.114,0.320,0.833,120.519,-21.855,12.191,0.0,0.0
289974,0.111,0.403,1.069,-64.298,10.321,-13.634,0.0,0.0
290074,-0.142,0.602,0.870,-14.863,-2.206,-17.969,0.0,0.0
290168,-0.081,0.400,0.917,-17.878,-6.466,-13.466,0.0,0.0
290262,-0.140,0.220,1.070,-42.702,-0.053,-50.840,0.0,0.0
290358,-0.081,0.334,0.938,-11.412,-14.626,-14.679,0.0,0.0
290451,-0.143,0.272,0.721,8.107,-0.160,-46.000,0.0,0.0
290544,-0.175,-0.253,1.070,-43.084,24.893,-12.939,0.0,0.0
290637,-0.225,0.038,1.154,22.427,14.809,-7.947,0.0,0.0
290731,-0.270,-0.245,1.163,-1.069,-1.153,18.878,0.0,0.0
290824,-0.116,0.175,0.991,-24.450,-3.977,-8.527,0.0,0.0
290917,-0.072,0.358,0.852,-0.160,-4.733,-5.893,0.0,0.0
291011,-0.088,-0.006,0.989,7.076,4.366,-8.023,0.0,0.0
291104,-0.005,0.196,0.955,8.206,11.695,7.076,0.0,0.0
291201,-0.187,0.084,1.051,42.794,18.893,6.550,0.0,0.0
291294,-0.384,0.334,0.933,-37.145,12.168,-4.809,0.0,0.0
291387,-0.063,0.438,0.929,22.733,-5.466,17.992,0.0,0.0
291480,-0.125,0.280,0.989,20.687,3.153,-12.382,0.0,0.0
291573,-0.194,0.069,1.100,-2.878,8.992,-5.366,0.0,0.0
291667,-0.172,0.284,1.062,7.473,-13.290,-6.702,0.0,0.0
291761,-0.213,0.273,0.872,12.992,-14.061,8.176,0.0,0.0
291854,-0.105,0.295,0.874,16.267,-5.588,13.489,0.0,0.0
291947,-0.085,0.211,0.917,9.366,-0.489,14.969,0.0,0.0
292044,-0.267,0.240,1.061,16.420,-3.076,68.763,0.0,0.0
292137,-0.164,-0.143,1.109,-14.748,-7.870,17.618,0.0,0.0
292231,-0.207,0.166,0.882,-15.328,3.450,39.176,0.0,0.0
292324,-0.086,0.292,0.830,2.992,3.038,45.496,0.0,0.0
292418,0.017,0.374,0.957,-24.282,24.137,-24.511,0.0,0.0
292511,-0.237,0.544,0.903,15.840,7.718,-3.198,0.0,0.0
292604,-0.140,0.526,0.913,-2.244,-1.168,18.985,0.0,0.0
292699,-0.178,0.376,0.858,-70.954,17.061,-25.634,0.0,0.0
292792,-0.083,0.252,0.962,103.740,-12.962,19.321,0.0,0.0
292888,-0.290,-0.527,1.291,4.725,-8.290,5.611,0.0,0.0
292982,-0.172,0.068,1.016,-43.435,-9.176,19.336,0.0,0.0
293075,-0.120,0.328,0.935,-48.992,-13.137,2.489,0.0,0.0
293170,-0.111,0.217,0.961,0.191,-15.481,-1.924,0.0,0.0
293263,-0.006,0.135,0.960,10.374,-9.878,-12.115,0.0,0.0
293356,-0.115,-0.029,1.056,42.420,-12.336,-12.450,0.0,0.0
293450,-0.072,0.973,0.636,23.031,-5.840,-11.427,0.0,0.0
293543,-0.095,-0.089,1.153,45.107,-5.718,9.863,0.0,0.0
293638,0.045,0.702,0.773,-94.962,23.031,-33.809,0.0,0.0
293734,0.050,0.434,0.854,118.313,-9.473,11.389,0.0,0.0
293828,-0.111,0.068,1.006,-137.634,26.000,-11.992,0.0,0.0
293921,0.116,-0.187,1.261,81.725,-7.466,-1.824,0.0,0.0
294016,-0.134,-0.011,1.011,-105.427,2.061,-18.992,0.0,0.0
294109,-0.028,0.260,0.921,54.137,-10.321,21.275,0.0,0.0
294203,-0.117,-0.144,1.032,-95.519,-7.489,19.328,0.0,0.0
294296,0.076,0.296,0.794,-6.084,-4.466,-2.168,0.0,0.0
294390,0.019,-0.521,1.163,59.618,-22.260,15.458,0.0,0.0
294483,-0.027,0.040,0.854,-134.710,8.557,-20.603,0.0,0.0
294581,0.076,0.062,0.672,186.931,-25.214,47.023,0.0,0.0
294674,-0.056,-0.415,1.255,-97.313,23.718,-11.031,0.0,0.0
294768,0.007,0.818,0.761,-52.076,8.656,4.763,0.0,0.0
294861,0.026,0.364,0.865,86.107,-20.611,14.069,0.0,0.0
294956,-0.105,-0.296,1.105,69.779,-16.519,23.550,0.0,0.0
295050,-0.040,-0.194,1.058,-16.931,-6.595,5.412,0.0,0.0
295143,-0.001,0.013,0.999,-5.214,-2.649,19.443,0.0,0.0
295230,0.003,-0.004,0.965,-105.496,10.366,-2.786,75.0,0.0
295317,0.045,0.210,0.946,19.313,-10.893,5.588,75.0,0.0
295413,0.041,0.246,0.974,-38.275,3.229,-5.885,0.0,0.0
295507,0.076,0.048,0.979,75.565,-13.901,3.962,0.0,0.0
295593,0.069,-0.088,1.051,-38.771,0.916,-14.191,76.0,0.0
295688,0.103,0.065,0.958,-2.748,-8.664,1.084,0.0,0.0
295781,0.135,-0.131,1.037,29.260,-7.046,-0.076,0.0,0.0
295875,0.129,0.052,0.965,-16.519,6.695,-20.588,0.0,0.0
295969,0.087,0.074,1.009,-14.840,22.321,-16.099,0.0,0.0
296055,0.095,0.175,0.977,-28.954,8.847,-5.985,75.0,0.0
296150,0.050,0.184,0.891,23.588,0.344,15.687,0.0,0.0
296246,0.059,-0.367,1.163,12.237,-1.198,11.947,0.0,0.0
296340,-0.067,-0.288,1.109,-24.130,-2.832,27.840,0.0,0.0
296434,0.036,-0.060,1.003,-2.634,-11.595,14.458,0.0,0.0
296527,0.098,-0.075,0.964,8.519,-12.992,4.061,0.0,0.0
296622,0.087,0.002,0.980,-38.221,15.718,1.954,0.0,0.0
296708,0.127,-0.370,1.183,18.466,-16.176,7.695,61.0,0.0
296794,0.048,-0.083,1.050,4.672,-16.824,4.046,64.0,0.0
296888,0.092,0.189,0.787,103.282,-10.260,38.328,0.0,0.0
296974,0.066,-0.096,0.929,2.924,10.802,17.695,57.0,0.0
297063,0.118,-0.175,1.023,-1.405,4.359,3.748,59.0,0.0
297156,0.089,0.011,1.131,23.489,8.519,-5.321,0.0,0.0
297250,0.161,-0.027,1.129,28.061,-6.237,14.519,0.0,0.0
297345,0.132,-0.152,0.889,-1.015,-25.908,18.153,0.0,0.0
297431,0.227,-0.173,1.208,23.458,-29.496,11.542,59.0,0.0
297517,0.184,0.309,0.850,0.137,-26.061,-11.534,63.0,0.0
297603,0.317,0.046,0.911,52.244,-42.412,33.702,62.0,0.0
297689,0.322,0.684,0.573,-66.733,-17.519,0.328,61.0,0.0
297783,0.329,0.015,0.828,81.427,-34.489,-3.313,0.0,0.0
297880,0.443,-0.084,0.893,64.527,-16.511,-13.985,0.0,0.0
297966,0.456,-0.314,1.071,-72.481,0.504,15.122,63.0,0.0
298052,0.405,0.680,0.787,6.588,-8.366,20.595,63.0,0.0
298146,0.365,-0.014,1.129,53.580,-34.046,28.885,0.0,0.0
298233,0.656,0.450,0.722,28.053,-47.863,25.786,62.0,0.0
298319,0.760,0.284,0.738,71.191,-36.389,-46.931,64.0,0.0
298414,0.667,0.500,0.582,-40.595,-22.221,-2.588,0.0,0.0
298508,0.623,0.347,0.663,28.130,-36.115,-18.084,0.0,0.0
298602,0.591,0.437,0.417,-46.069,-11.794,-2.702,0.0,0.0
298699,0.569,-0.098,0.804,8.244,-34.031,39.924,0.0,0.0
298793,0.931,0.732,0.350,-28.450,2.229,-33.359,0.0,0.0
298882,0.715,0.146,0.710,46.000,-16.412,2.351,96.0,0.0
298971,0.839,0.244,0.788,-25.328,-24.977,3.870,110.0,0.0
299058,0.969,0.292,0.997,-55.992,-69.420,-2.763,69.0,0.0
299152,0.633,0.272,0.139,-15.443,-75.725,-15.542,0.0,0.0
299240,1.114,0.439,-0.233,38.473,-28.290,-1.023,99.0,0.0
299328,0.920,0.326,0.119,13.313,19.275,-29.908,91.0,0.0
299415,0.760,0.161,0.490,-49.748,28.122,-31.649,76.0,0.0
299507,1.198,0.336,0.327,-48.763,19.191,-26.916,104.0,0.0
299601,0.865,0.295,0.442,19.756,2.786,-13.794,0.0,0.0
299688,0.625,0.752,0.210,-14.641,16.504,6.298,78.0,0.0
299776,0.911,0.174,0.439,12.153,4.061,-6.947,78.0,0.0
299866,0.810,0.120,0.528,-6.328,-7.405,-16.542,129.0,0.0
299955,0.714,0.176,0.508,-18.153,-3.389,-26.321,104.0,0.0
300043,0.807,0.330,0.500,68.176,-34.061,-15.664,82.0,0.0
300130,0.920,0.213,0.264,-84.099,-6.260,-25.473,75.0,0.0
300217,0.798,0.263,0.155,-59.267,13.542,-23.763,75.0,0.0
300309,0.804,0.438,0.103,-74.618,58.550,-6.656,108.0,0.0
300397,0.660,0.126,0.281,-67.107,103.260,19.664,94.0,0.0
300492,0.375,0.041,0.368,-16.863,130.740,49.313,0.0,0.0
300587,0.172,0.325,0.259,66.664,184.031,11.817,0.0,0.0
300681,-0.262,0.280,0.612,157.565,198.473,-80.267,0.0,0.0
300775,-0.895,0.514,0.968,87.237,202.107,-167.298,0.0,0.0
300869,-1.384,0.772,0.837,39.305,173.863,-149.695,0.0,0.0
300964,-1.301,0.452,0.745,64.000,132.634,-117.618,0.0,0.0
301059,-1.111,0.560,0.301,96.298,89.076,-84.573,0.0,0.0
301156,-1.075,0.339,0.169,0.458,59.084,-57.015,0.0,0.0
301250,-1.021,0.307,0.099,-6.702,31.618,1.595,0.0,0.0
301344,-0.965,0.237,0.108,23.282,-8.397,31.489,0.0,0.0
301440,-0.971,0.270,0.011,49.878,-26.519,49.481,0.0,0.0
301534,-0.985,0.359,-0.057,-6.137,-31.038,51.557,0.0,0.0
301628,-0.962,0.346,-0.045,-34.763,-24.229,52.046,0.0,0.0
301722,-0.886,0.524,-0.068,-43.985,-14.779,47.527,0.0,0.0
301822,-0.906,0.594,0.034,-111.023,-5.847,39.893,0.0,0.0
301916,-0.893,0.562,0.189,-153.740,-14.000,42.473,0.0,0.0
302012,-0.830,0.453,0.435,-98.038,-28.397,63.344,0.0,0.0
302106,-0.677,0.519,0.504,-44.366,-30.702,61.855,0.0,0.0
302195,-0.582,0.500,0.552,-26.328,-23.916,47.893,0.0,139.0
302277,-0.529,0.603,0.509,-9.962,-13.611,42.038,45.0,139.0
302358,-0.527,0.545,0.626,-26.336,-5.473,30.855,45.0,140.0
302439,-0.498,0.588,0.617,-12.382,-11.137,27.344,43.0,129.0
302527,-0.405,0.643,0.633,-13.802,-12.718,24.076,0.0,112.0
302616,-0.366,0.624,0.676,-14.481,-6.183,25.695,0.0,113.0
302699,-0.383,0.636,0.627,-17.015,9.366,23.473,43.0,131.0
302780,-0.389,0.596,0.662,-4.176,14.939,20.863,42.0,133.0
302861,-0.387,0.552,0.705,-8.244,14.679,13.695,41.0,132.0
302940,-0.416,0.620,0.690,-8.145,11.840,10.214,44.0,101.0
303019,-0.382,0.647,0.659,0.130,10.336,10.863,45.0,101.0
303097,-0.380,0.632,0.667,-0.802,12.107,10.580,46.0,101.0
303185,-0.394,0.645,0.645,1.389,15.672,7.611,0.0,102.0
303264,-0.406,0.615,0.637,10.695,18.023,4.603,42.0,103.0
303345,-0.421,0.559,0.593,14.015,26.664,-7.588,45.0,134.0
303438,-0.360,0.506,0.402,43.374,55.267,-35.206,0.0,132.0
303526,-0.581,0.500,0.299,43.153,109.557,-87.382,0.0,99.0
303616,-0.998,0.687,0.095,107.550,108.206,-100.817,0.0,123.0
303705,-1.128,0.401,0.004,130.206,72.153,-116.824,0.0,123.0
303798,-1.157,0.295,-0.091,130.779,31.664,-96.328,0.0,0.0
303892,-1.078,0.458,-0.281,101.290,-3.756,-31.435,0.0,0.0
303985,-1.030,0.344,-0.229,-1.496,-2.573,10.931,0.0,0.0
304079,-0.955,0.225,-0.166,0.519,-3.542,36.260,0.0,0.0
304173,-0.951,0.239,-0.135,-0.008,-10.420,33.748,0.0,0.0
304269,-0.923,0.261,-0.117,7.359,-10.053,27.221,0.0,0.0
304363,-0.927,0.269,-0.079,-14.626,-8.427,13.267,0.0,0.0
304456,-0.949,0.234,-0.040,-18.672,-14.656,3.275,0.0,0.0
304550,-0.936,0.257,-0.012,12.458,-20.916,3.573,0.0,0.0
304644,-0.908,0.280,0.008,18.053,-22.122,1.359,0.0,0.0
304738,-0.919,0.295,0.008,16.206,-20.557,-2.748,0.0,0.0
304831,-0.946,0.286,0.007,21.046,-18.160,-2.947,0.0,0.0
304925,-0.920,0.307,0.014,22.206,-11.389,-1.550,0.0,0.0
305018,-0.924,0.311,0.011,12.168,-3.366,-1.504,0.0,0.0
305115,-0.922,0.302,0.026,14.687,1.252,-5.031,0.0,0.0
305209,-0.950,0.301,0.022,12.634,3.008,-7.565,0.0,0.0
305302,-0.953,0.292,0.084,17.321,1.336,4.176,0.0,0.0
305395,-0.950,0.333,0.052,18.305,-5.542,4.779,0.0,0.0
305489,-0.919,0.329,0.026,2.076,-2.336,-2.718,0.0,0.0
305583,-0.954,0.302,0.023,-1.679,-2.084,-11.237,0.0,0.0
305677,-0.926,0.323,0.036,2.214,-0.344,-3.748,0.0,0.0
305770,-0.960,0.344,0.051,-38.084,4.244,-2.847,0.0,0.0
305864,-1.034,0.217,0.184,-36.099,-15.779,4.130,0.0,0.0
305960,-1.064,0.237,0.412,-35.275,-35.656,-14.092,0.0,0.0
306055,-1.223,-0.203,0.807,-36.939,-94.008,-139.847,0.0,0.0
306149,-1.133,1.440,-0.944,250.130,-112.771,65.115,0.0,0.0
306243,-0.849,-0.240,0.175,80.115,-44.344,-1.176,0.0,0.0
306336,-0.731,0.024,0.483,-151.969,0.847,-25.137,0.0,0.0
306430,-0.637,0.850,0.113,37.832,-1.534,25.168,200.0,0.0
306525,-0.818,-0.022,0.529,173.382,-19.595,32.443,200.0,0.0
306618,-0.617,0.342,0.529,33.176,2.176,-13.725,0.0,0.0
306712,-0.792,0.495,0.440,24.718,0.450,2.214,0.0,0.0
306808,-0.790,0.283,0.528,72.260,-1.542,8.809,0.0,0.0
306903,-0.869,0.056,0.679,57.565,3.145,6.695,0.0,0.0
306997,-0.853,0.353,0.569,14.664,-4.115,3.679,0.0,0.0
307090,-0.703,0.603,0.442,-2.076,-4.099,4.740,0.0,0.0
307184,-0.685,0.776,0.308,-5.763,0.924,-12.313,0.0,0.0
307277,-0.772,0.664,0.325,3.038,2.763,6.382,0.0,0.0
307372,-0.810,0.396,0.406,88.137,-18.321,34.191,0.0,0.0
307466,-0.798,0.373,0.504,33.183,-7.954,21.924,0.0,0.0
307559,-0.508,0.908,0.228,-21.260,6.832,-7.435,0.0,0.0
307656,-0.804,0.643,0.280,42.550,-6.489,12.573,0.0,0.0
307750,-0.817,0.316,0.479,-37.435,9.519,-16.107,0.0,0.0
307845,-0.605,1.011,0.215,11.229,5.366,-10.061,0.0,0.0
307938,-0.798,0.486,0.427,86.344,-14.603,18.206,0.0,0.0
308032,-0.774,0.589,0.449,-87.290,3.115,-12.634,0.0,0.0
308126,-0.676,0.835,0.382,-11.634,-21.901,18.115,0.0,0.0
308219,-0.667,0.566,0.295,-27.649,-12.137,14.603,178.0,0.0
308312,-0.730,0.704,0.215,12.939,-1.847,30.397,174.0,0.0
308406,-0.528,0.613,0.433,-35.115,8.802,36.160,0.0,0.0
308502,-0.645,0.757,0.376,35.176,-9.061,19.176,0.0,0.0
308594,-0.673,0.835,0.278,-13.954,5.794,-1.802,171.0,0.0
308688,-0.338,0.721,0.357,-73.275,31.328,-3.260,0.0,0.0
308780,-0.617,0.458,0.526,98.282,-3.649,29.336,154.0,0.0
308874,-0.690,0.655,0.352,-201.328,42.725,-38.550,0.0,0.0
308968,-0.302,1.582,-0.041,99.023,20.756,-6.031,0.0,0.0
309062,-0.727,-0.056,0.749,150.198,-9.939,28.878,200.0,0.0
309156,-0.873,0.029,0.653,-44.939,7.885,-21.580,200.0,0.0
309251,-0.732,0.740,0.304,-85.267,17.145,-39.038,199.0,0.0
309348,-0.813,0.756,0.094,-43.489,33.191,-63.534,200.0,0.0
309442,-0.604,1.323,-0.136,151.618,-8.840,5.397,0.0,0.0
309536,-0.995,-0.408,0.874,110.855,-1.794,34.855,198.0,0.0
309630,-0.937,0.030,0.563,-77.473,5.160,-24.160,199.0,0.0
309724,-0.749,0.553,0.274,19.397,-18.053,4.771,198.0,0.0
309818,-0.698,1.140,-0.013,113.237,-22.740,-11.763,0.0,0.0
309912,-0.837,0.294,0.395,76.901,3.947,12.046,0.0,0.0
310006,-0.982,0.087,0.531,-117.275,16.573,-45.809,0.0,0.0
310100,-0.739,0.918,0.115,-191.916,27.153,-59.038,0.0,0.0
310198,-0.689,1.521,-0.149,92.260,-4.458,24.885,0.0,0.0
310292,-0.869,-0.095,0.555,127.092,-12.023,30.160,200.0,0.0
310386,-0.847,0.167,0.366,-69.672,13.977,-17.275,199.0,0.0
310480,-0.717,1.069,0.042,-97.855,25.733,-7.954,199.0,0.0
310575,-0.748,0.690,0.210,71.130,3.870,30.809,198.0,0.0
310669,-0.881,0.108,0.467,29.641,8.649,21.550,196.0,0.0
310762,-0.759,0.669,0.224,-109.168,36.420,-0.489,195.0,0.0
310856,-0.656,0.879,0.084,117.954,-1.977,39.359,194.0,0.0
310953,-0.933,-0.337,0.681,136.954,-23.313,53.611,192.0,0.0
311048,-1.076,-0.777,0.893,-30.519,1.122,11.931,191.0,0.0
311141,-0.911,0.307,0.334,-185.214,19.130,-30.206,190.0,0.0
311235,-0.609,1.011,0.100,-50.008,9.053,0.824,190.0,0.0
311328,-0.763,0.505,0.334,101.137,-14.321,39.863,189.0,0.0
311421,-0.901,-0.116,0.667,50.771,-13.695,36.412,188.0,0.0
311516,-0.766,0.523,0.323,-91.824,15.389,-12.061,187.0,0.0
311609,-0.685,0.691,0.279,18.809,-0.198,17.214,187.0,0.0
311702,-0.869,-0.031,0.681,36.695,-5.840,21.763,185.0,0.0
311799,-0.934,-0.032,0.565,-138.611,17.916,-17.427,185.0,0.0
311892,-0.554,1.188,0.007,-49.595,20.183,5.183,185.0,0.0
311986,-0.917,0.070,0.347,220.511,-30.748,74.137,184.0,0.0
312081,-1.102,-0.770,1.033,-64.550,-8.687,-15.519,0.0,0.0
312174,-0.908,0.420,0.280,-235.290,24.183,-49.168,184.0,0.0
312268,-0.431,1.752,-0.238,-74.298,22.847,-8.496,184.0,0.0
312361,-0.589,0.673,0.184,167.794,-12.985,46.420,183.0,0.0
312456,-0.969,-0.470,0.623,29.832,9.298,12.664,0.0,0.0
312550,-0.638,0.799,0.198,-130.672,59.618,-12.985,0.0,0.0
312648,-0.539,1.342,0.075,58.298,28.374,8.809,0.0,0.0
312742,-1.105,-0.070,0.622,84.137,-5.176,16.115,0.0,0.0
312837,-0.993,0.062,0.319,-192.916,44.336,-35.267,0.0,0.0
312931,-0.590,0.902,0.048,75.779,5.252,17.573,0.0,0.0
313025,-0.990,-0.033,0.522,9.229,9.069,6.046,0.0,0.0
313119,-1.043,0.476,0.134,-179.763,45.115,-15.786,0.0,0.0
313214,-0.800,0.435,0.254,98.282,-8.305,19.000,0.0,0.0
313309,-1.101,-0.095,0.423,-81.344,18.641,-18.954,0.0,0.0
313403,-0.739,1.110,-0.109,-68.870,35.366,-0.580,0.0,0.0
313501,-0.882,0.230,0.242,143.603,-18.878,38.511,0.0,0.0
313602,-0.916,0.238,0.199,-164.038,31.634,-16.962,0.0,0.0
313695,-0.815,0.480,0.104,35.023,8.443,1.626,0.0,0.0
313788,-0.914,0.232,0.196,24.863,-16.076,5.817,0.0,0.0
313882,-0.818,0.603,0.061,57.160,4.435,16.290,0.0,0.0
313975,-0.851,0.305,0.222,9.794,6.718,-9.809,0.0,0.0
314068,-0.868,0.529,0.071,81.985,9.053,-21.809,0.0,0.0
314162,-0.924,0.521,0.079,32.237,18.061,-31.412,0.0,0.0
314255,-0.959,0.490,0.087,9.832,16.351,-7.687,0.0,0.0
314351,-0.917,0.693,0.057,15.641,-4.779,19.878,0.0,0.0
314444,-0.884,0.515,0.121,-51.802,-8.328,36.527,0.0,0.0
314537,-0.904,0.612,0.089,-63.244,-20.893,66.366,0.0,0.0
314628,-0.917,0.654,0.078,-127.519,-39.099,79.916,0.0,134.0
314718,-0.696,0.700,0.275,-112.893,-52.901,89.359,0.0,135.0
314806,-0.584,0.385,0.539,-103.489,-49.053,70.122,0.0,108.0
314895,-0.465,0.471,0.551,-63.641,-27.351,58.954,0.0,122.0
314984,-0.432,0.525,0.547,-24.008,-4.931,39.427,0.0,112.0
315077,-0.362,0.557,0.639,-13.954,9.832,13.397,0.0,144.0
315166,-0.452,0.586,0.748,5.618,9.687,-2.962,0.0,124.0
315254,-0.393,0.560,0.765,13.802,-0.794,-5.573,0.0,111.0
315342,-0.385,0.570,0.743,6.008,-4.527,-6.260,0.0,110.0
315422,-0.377,0.598,0.715,-4.992,-1.924,-2.183,37.0,110.0
315510,-0.369,0.605,0.703,-4.725,-2.115,0.191,0.0,109.0
315598,-0.394,0.634,0.701,0.389,-5.496,0.847,0.0,109.0
315687,-0.385,0.584,0.707,1.397,-3.550,-0.069,0.0,108.0
315776,-0.368,0.554,0.733,2.496,-0.145,-0.366,0.0,109.0
315867,-0.357,0.542,0.752,-6.573,2.336,-2.427,0.0,109.0
315955,-0.375,0.591,0.717,-4.748,5.763,-3.206,0.0,109.0
316044,-0.417,0.598,0.701,9.359,6.893,-3.145,0.0,109.0
316132,-0.426,0.605,0.698,19.443,7.069,-3.740,0.0,110.0
316220,-0.392,0.615,0.687,18.389,11.000,-3.031,0.0,110.0
316309,-0.402,0.630,0.685,3.885,15.374,0.290,0.0,111.0
316399,-0.414,0.628,0.724,-3.740,11.786,1.687,0.0,143.0
316489,-0.422,0.560,0.764,11.023,3.145,4.023,0.0,144.0
316580,-0.376,0.499,0.805,-18.878,15.603,1.618,0.0,144.0
316672,-0.457,0.523,0.829,-61.939,32.099,-3.679,0.0,112.0
316766,-0.544,0.561,0.793,-6.084,23.969,-14.191,0.0,0.0
316854,-0.785,0.487,0.861,-39.252,-19.985,-59.473,0.0,112.0
316948,-0.779,0.242,0.912,49.687,-69.641,-56.351,0.0,0.0
317042,-0.506,1.009,0.277,-77.672,27.710,-75.550,0.0,0.0
317126,-0.546,-0.453,0.945,227.389,-86.198,27.275,43.0,0.0
317220,-0.516,-0.897,1.016,-224.634,1.840,-54.145,0.0,0.0
317305,-0.463,0.623,0.498,-93.397,-5.313,-8.916,44.0,0.0
317390,-0.328,0.499,0.583,40.634,-8.237,1.763,47.0,0.0
317478,-0.553,-0.104,0.859,3.466,-1.740,-0.740,45.0,0.0
317563,-0.580,-0.362,1.051,-109.664,-7.092,14.611,43.0,0.0
317648,-0.442,0.425,0.686,-108.443,-3.115,0.420,46.0,0.0
317733,-0.445,0.006,0.885,109.939,-28.038,14.389,46.0,0.0
317817,-0.514,-0.794,1.204,-61.656,-1.336,0.756,45.0,0.0
317902,-0.389,0.207,0.737,-121.260,10.672,-21.198,44.0,0.0
317987,-0.254,0.402,0.701,50.649,-18.649,5.000,45.0,0.0
318072,-0.489,-0.414,1.022,92.450,-20.366,19.298,45.0,0.0
318157,-0.434,-0.476,0.943,-98.076,22.756,-10.069,44.0,0.0
318245,-0.332,0.439,0.705,-64.450,7.183,-4.542,45.0,0.0
318330,-0.337,-0.029,0.939,87.641,-23.053,19.450,45.0,0.0
318415,-0.563,-0.701,1.160,9.260,-8.374,7.191,44.0,0.0
318500,-0.258,0.103,0.781,-131.153,4.206,-19.038,44.0,0.0
318585,-0.154,0.696,0.581,53.336,-9.603,12.450,44.0,0.0
318670,-0.392,-0.559,1.183,124.191,-23.122,19.756,43.0,0.0
318755,-0.342,-0.283,1.013,-88.435,11.374,-15.863,43.0,0.0
318840,-0.219,0.602,0.644,-22.382,4.031,2.626,42.0,0.0
318925,-0.331,-0.108,1.045,109.519,-21.076,23.740,40.0,0.0
319013,-0.308,-0.178,1.005,-62.992,4.290,3.427,41.0,0.0
319098,-0.052,0.799,0.661,-8.191,4.244,3.023,40.0,0.0
319183,-0.325,-0.480,1.245,122.939,-31.115,19.573,40.0,0.0
319268,-0.288,-0.161,0.932,-179.931,24.496,-28.954,42.0,0.0
319353,0.004,0.998,0.516,54.069,1.695,11.076,43.0,0.0
319437,-0.406,-0.658,1.281,111.214,-19.786,15.183,41.0,0.0
319522,-0.322,-0.211,0.950,-170.878,20.939,-33.672,41.0,0.0
319607,-0.020,0.815,0.606,59.305,-9.466,5.618,44.0,0.0
319695,-0.355,-0.438,1.174,119.298,-24.244,16.519,43.0,0.0
319780,-0.287,-0.438,1.176,-67.626,-7.641,-18.397,43.0,0.0
319865,-0.079,0.571,0.711,-51.061,2.527,-12.519,41.0,0.0
319950,-0.108,-0.169,1.088,136.977,-23.260,19.908,41.0,0.0
320035,-0.310,-0.600,1.210,-77.855,6.405,-0.725,41.0,0.0
320120,-0.034,0.908,0.570,-31.954,5.168,-3.397,43.0,0.0
320205,-0.191,0.109,1.009,105.626,-16.595,20.435,40.0,0.0
320290,-0.307,-0.468,1.182,-49.672,0.359,-11.176,42.0,0.0
320375,0.026,0.624,0.663,16.473,4.550,12.573,45.0,0.0
320463,-0.253,-0.392,1.225,108.641,-14.863,6.252,41.0,0.0
320548,-0.223,-0.311,1.064,-139.565,13.763,-25.275,40.0,0.0
320633,-0.015,1.034,0.406,-5.649,5.954,4.969,41.0,0.0
320718,-0.073,0.002,1.087,122.618,-3.779,25.595,39.0,0.0
320803,-0.260,-0.500,1.189,-28.588,-1.565,-1.382,37.0,0.0
320888,-0.054,0.638,0.711,-84.412,34.786,-11.145,37.0,0.0
320983,-0.171,-0.243,0.976,250.130,-32.832,41.870,0.0,0.0
321068,-0.365,-1.113,1.466,-156.565,12.649,-25.038,38.0,0.0
321162,0.049,0.962,0.614,213.229,-30.802,36.740,0.0,0.0
321250,-0.284,-0.823,1.446,76.237,-20.229,8.344,37.0,0.0
321335,-0.222,0.102,0.879,-222.260,14.939,-44.198,35.0,0.0
321429,-0.008,0.458,0.688,170.229,-33.336,51.763,0.0,0.0
321523,-0.380,-1.289,1.631,24.084,-12.519,-1.649,0.0,0.0
321617,-0.111,0.446,0.579,-250.137,39.366,-48.870,0.0,0.0
321712,0.032,1.138,0.461,120.122,-4.305,37.366,0.0,0.0
321806,-0.306,-0.598,1.388,123.397,-17.099,22.626,0.0,0.0
321900,-0.217,-0.069,1.120,-228.427,22.695,-61.962,0.0,0.0
321994,-0.114,0.838,0.638,-18.786,-3.267,-26.580,0.0,0.0
322082,-0.019,0.522,0.664,164.374,-21.618,45.046,30.0,0.0
322177,-0.195,-0.423,1.266,11.664,-3.802,14.931,0.0,0.0
322271,-0.164,-0.015,0.954,-56.832,-2.656,5.389,0.0,0.0
322365,-0.021,0.717,0.680,-93.595,28.687,-6.702,0.0,0.0
322459,0.011,0.456,0.870,194.496,-0.901,32.565,0.0,0.0
322553,-0.436,-0.850,1.410,-127.931,2.840,-12.649,0.0,0.0
322638,-0.029,1.441,0.230,-195.282,36.267,-26.107,32.0,0.0
322733,0.015,0.073,0.949,244.374,-10.817,40.137,0.0,0.0
322818,-0.331,-1.071,1.518,17.916,-14.427,19.786,33.0,0.0
322906,-0.280,0.194,0.828,-199.069,23.458,-43.901,32.0,0.0
323000,0.018,1.061,0.542,73.527,0.771,5.168,0.0,0.0
323084,-0.051,-0.439,1.187,223.191,-31.099,47.679,32.0,0.0
323169,-0.250,-0.976,1.372,-104.160,14.145,-23.618,31.0,0.0
323263,-0.072,1.536,0.313,-171.313,23.206,-8.908,0.0,0.0
323357,-0.006,1.420,0.430,152.504,-21.252,29.664,0.0,0.0
323442,-0.117,-0.054,1.073,82.908,-9.321,2.328,32.0,0.0
323536,-0.151,-0.151,0.991,-11.573,10.313,-4.023,0.0,0.0
323634,-0.178,-0.001,0.936,-3.863,13.015,-5.824,0.0,0.0
323728,-0.237,0.048,0.793,-19.595,17.031,-6.435,0.0,0.0
323822,-0.367,0.103,0.733,13.397,24.420,7.573,0.0,0.0
323916,-0.349,-0.019,0.960,27.542,35.435,-4.748,0.0,0.0
324012,-0.427,0.147,1.043,2.794,34.229,-37.290,0.0,0.0
324101,-0.541,0.362,0.961,37.954,22.405,-34.901,0.0,124.0
324191,-0.513,0.435,0.640,55.855,21.092,-6.832,0.0,121.0
324281,-0.356,0.318,0.629,64.031,30.008,1.389,0.0,117.0
324370,-0.573,0.257,0.449,-1.076,81.519,-7.649,0.0,114.0
324468,-0.655,0.387,0.213,57.351,150.420,-34.405,0.0,0.0
324562,-1.225,0.268,0.344,36.099,177.458,-75.015,0.0,0.0
324657,-1.472,0.254,0.347,84.870,96.489,-68.115,0.0,0.0
324751,-1.275,0.338,0.244,157.008,-1.237,28.534,0.0,0.0
324845,-0.952,0.793,0.113,35.069,-38.588,54.588,0.0,0.0
324942,-0.939,0.489,0.230,-113.718,-55.351,51.733,0.0,135.0
325031,-0.937,0.260,0.401,-134.580,-91.603,55.191,0.0,136.0
325122,-0.698,0.520,0.427,-29.221,-96.275,78.588,0.0,140.0
325211,-0.576,0.407,0.525,-23.618,-67.916,64.466,0.0,113.0
325304,-0.517,0.404,0.595,-35.542,-31.855,52.229,0.0,144.0
325393,-0.455,0.384,0.631,-29.137,-7.809,46.985,0.0,116.0
325473,-0.480,0.438,0.693,-17.290,4.969,21.198,38.0,129.0
325553,-0.453,0.509,0.682,-16.382,3.985,11.321,38.0,117.0
325632,-0.428,0.531,0.729,-3.275,4.191,7.695,39.0,114.0
325721,-0.448,0.517,0.746,10.427,5.595,4.969,0.0,126.0
325800,-0.440,0.510,0.748,5.412,4.336,5.344,46.0,112.0
325890,-0.423,0.531,0.742,0.832,-0.298,3.863,0.0,114.0
325969,-0.442,0.599,0.694,-4.908,-0.305,1.817,38.0,123.0
326051,-0.429,0.598,0.682,-1.015,1.046,4.511,40.0,110.0
326141,-0.450,0.555,0.709,-1.328,0.313,1.863,0.0,143.0
326220,-0.421,0.558,0.724,1.252,-2.344,1.389,39.0,110.0
326302,-0.438,0.615,0.684,6.885,-2.641,3.748,39.0,160.0
326392,-0.420,0.550,0.709,10.672,1.267,4.702,0.0,143.0
326472,-0.421,0.547,0.705,-0.626,3.931,3.618,37.0,123.0
326551,-0.431,0.538,0.713,7.718,4.237,-0.443,37.0,109.0
326630,-0.416,0.542,0.720,8.779,-1.527,-1.802,38.0,109.0
326710,-0.423,0.586,0.686,6.985,-1.336,-3.702,43.0,109.0
326792,-0.424,0.595,0.691,2.351,0.824,-3.763,37.0,109.0
326871,-0.426,0.593,0.684,-6.924,1.305,-2.725,37.0,109.0
326950,-0.431,0.647,0.655,-1.550,1.901,-0.206,44.0,121.0
327030,-0.433,0.601,0.678,9.160,3.328,1.725,43.0,109.0
327110,-0.440,0.563,0.673,2.260,4.214,1.412,38.0,121.0
327200,-0.461,0.619,0.657,3.359,5.405,2.046,0.0,141.0
327288,-0.454,0.609,0.634,18.061,6.710,3.863,0.0,111.0
327367,-0.470,0.546,0.641,17.435,13.542,2.496,38.0,110.0
327456,-0.414,0.503,0.559,11.206,28.015,-11.664,0.0,111.0
327547,-0.400,0.374,0.632,58.282,71.076,-42.710,0.0,109.0
327638,-0.556,0.553,0.631,-39.641,131.153,-70.901,0.0,136.0
327728,-1.199,0.037,0.603,86.137,-12.389,-173.809,0.0,132.0
327813,-1.141,0.586,-0.034,-134.565,15.298,-91.664,44.0,0.0
327894,-0.799,0.478,0.322,64.176,-17.779,-19.260,43.0,134.0
327988,-0.915,-0.169,0.479,-32.489,-33.824,-11.076,0.0,0.0
328082,-0.926,-0.016,0.407,-33.634,-22.366,8.366,0.0,0.0
328175,-0.852,0.406,0.115,-122.588,18.817,-26.305,0.0,0.0
328272,-0.702,0.650,0.243,119.511,-10.992,19.115,0.0,0.0
328366,-0.990,-0.141,0.667,66.702,-18.550,8.580,0.0,0.0
328460,-1.031,-0.023,0.421,-100.313,-6.840,-19.290,0.0,0.0
328553,-0.734,0.823,0.028,-6.901,13.748,14.405,0.0,0.0
328647,-0.714,0.528,0.251,112.763,0.107,14.557,0.0,0.0
328732,-0.944,-0.102,0.540,9.733,-1.061,6.771,50.0,0.0
328826,-0.719,0.626,0.131,-61.947,32.794,-7.328,0.0,0.0
328920,-0.818,0.435,0.215,112.855,2.656,-5.115,0.0,0.0
329005,-1.076,-0.148,0.498,28.191,8.282,-2.710,51.0,0.0
329102,-0.752,0.912,0.098,-6.053,20.603,-8.282,0.0,0.0
329196,-0.784,0.300,0.266,169.656,8.695,-9.687,0.0,0.0
329289,-0.984,-0.084,0.408,-31.191,3.298,-22.183,0.0,0.0
329383,-0.887,0.738,0.016,-68.565,4.634,0.863,0.0,0.0
329477,-1.013,0.337,0.141,95.290,-12.939,52.679,0.0,0.0
329571,-0.757,0.479,0.181,6.924,13.389,-4.931,0.0,0.0
329664,-0.799,0.490,0.193,19.290,0.565,10.412,0.0,0.0
329758,-1.103,0.019,0.331,-1.313,-2.519,10.603,0.0,0.0
329852,-0.679,0.773,-0.066,49.397,-4.107,26.107,0.0,0.0
329949,-0.993,0.000,0.474,-15.504,-11.351,-7.328,0.0,0.0
330043,-0.988,0.078,0.048,-109.527,-1.023,43.840,0.0,0.0
330137,-0.673,0.647,0.292,18.687,11.809,13.901,0.0,0.0
330230,-0.835,0.652,0.139,-13.023,2.519,8.542,0.0,0.0
330324,-1.010,-0.280,0.555,68.214,-18.511,25.115,0.0,0.0
330419,-0.941,0.602,-0.050,-222.832,16.214,-38.397,0.0,0.0
330513,-0.654,1.277,-0.106,40.191,-11.840,8.427,0.0,0.0
330603,-0.692,0.366,0.354,109.481,-17.031,19.435,0.0,142.0
330694,-0.929,-0.119,0.563,-48.641,-2.748,-8.351,0.0,142.0
330788,-0.853,0.648,0.143,-154.756,28.046,-23.389,0.0,143.0
330883,-0.650,1.220,-0.021,35.557,0.794,-0.824,0.0,0.0
330976,-0.710,0.363,0.327,138.550,-16.519,23.710,0.0,0.0
331070,-0.898,-0.181,0.631,-2.389,-3.267,0.763,0.0,0.0
331164,-0.875,0.403,0.260,-222.115,28.031,-17.252,0.0,0.0
331258,-0.574,1.578,-0.161,-27.725,7.084,0.237,0.0,0.0
331352,-0.707,0.387,0.215,216.260,-21.275,22.244,0.0,0.0
331446,-1.075,-0.984,0.948,63.328,-6.099,28.122,0.0,0.0
331540,-0.961,0.685,0.032,-250.137,36.412,-26.489,0.0,0.0
331646,-0.767,1.209,-0.055,-68.893,5.557,-20.466,0.0,0.0
331743,-0.714,0.686,0.142,118.145,-9.687,11.947,0.0,0.0
331839,-0.861,-0.168,0.618,88.534,-12.328,14.985,0.0,0.0
331935,-0.981,-0.014,0.446,-72.137,-1.198,-0.336,0.0,0.0
332032,-0.625,0.990,0.043,-25.863,0.191,33.282,0.0,0.0
332126,-0.919,0.196,0.438,65.344,-1.305,-5.893,0.0,152.0
332222,-1.034,-0.027,0.479,15.588,-17.718,10.252,0.0,0.0
332315,-0.564,0.864,0.112,-46.298,20.588,-6.366,0.0,143.0
332403,-0.821,-0.042,0.617,112.229,-29.450,-21.000,58.0,0.0
332504,-0.766,0.684,0.150,-96.893,41.191,-49.611,0.0,0.0
332600,-1.092,0.572,0.160,149.000,-26.031,8.244,0.0,0.0
332696,-0.777,0.103,0.666,-7.282,1.344,-0.504,0.0,0.0
332793,-0.597,0.869,0.213,-63.924,11.550,-20.229,0.0,0.0
332899,-1.279,0.115,0.553,154.542,-24.237,-9.038,0.0,0.0
332994,-1.140,-0.398,0.497,-108.725,6.931,-33.099,0.0,0.0
333090,-0.683,0.518,0.288,-45.496,-6.901,9.473,0.0,0.0
333187,-1.291,0.092,0.421,28.992,-14.931,-2.878,0.0,0.0
333282,-1.203,0.261,0.381,-19.328,-15.038,15.130,0.0,0.0
333381,-0.593,0.626,0.343,-99.023,4.802,-14.840,0.0,0.0
333476,-1.022,0.609,0.323,-35.130,-0.832,-18.847,0.0,0.0
333573,-1.104,0.481,0.234,-5.191,-14.420,33.298,0.0,0.0
333669,-0.663,0.758,0.281,8.748,-0.244,24.786,0.0,0.0
333764,-0.647,0.496,0.433,68.099,-24.511,14.137,0.0,0.0
333860,-0.862,0.054,0.705,-10.656,-11.611,-14.847,0.0,0.0
333956,-0.820,0.120,0.390,-57.809,-9.313,26.885,0.0,0.0
334052,-0.875,0.459,0.372,-33.122,-9.565,33.374,0.0,0.0
334144,-0.839,0.448,0.344,15.924,2.458,-3.573,0.0,142.0
334243,-0.704,0.372,0.320,27.275,-6.260,52.611,0.0,0.0
334336,-0.489,0.354,0.224,54.656,37.107,3.802,0.0,139.0
334431,-0.786,0.483,0.084,88.611,94.634,-68.824,0.0,0.0
334527,-1.161,0.536,0.215,57.275,79.328,-89.695,0.0,0.0
334623,-1.040,0.467,0.286,7.435,54.427,-30.450,0.0,0.0
