Timestamp(ms),AccelX(g),AccelY(g),AccelZ(g),GyroX(deg/s),GyroY(deg/s),GyroZ(deg/s),DistanceLeft(cm),DistanceRight(cm)
157153,-0.416,0.464,0.763,1.137,1.282,0.183,0.0,0.0
157246,-0.415,0.490,0.777,6.756,0.321,0.939,0.0,0.0
157338,-0.426,0.456,0.789,3.321,-0.779,1.557,0.0,0.0
157431,-0.420,0.445,0.784,4.496,-1.611,-0.137,0.0,0.0
157524,-0.419,0.483,0.778,2.183,-0.588,-0.962,0.0,0.0
157618,-0.417,0.487,0.775,4.221,1.046,2.466,0.0,0.0
157710,-0.430,0.460,0.781,3.275,1.664,1.496,0.0,0.0
157803,-0.417,0.476,0.766,1.885,1.008,-1.588,0.0,0.0
157899,-0.432,0.491,0.769,0.695,3.756,-4.328,0.0,0.0
157992,-0.421,0.502,0.736,6.588,2.557,-2.794,0.0,0.0
158085,-0.448,0.466,0.771,12.947,0.595,-4.885,0.0,192.0
158178,-0.438,0.466,0.761,12.519,-1.679,-8.015,0.0,0.0
158271,-0.445,0.482,0.760,12.733,-2.115,-6.519,0.0,0.0
158365,-0.436,0.461,0.755,3.290,0.779,-2.748,0.0,0.0
158458,-0.445,0.573,0.712,-0.527,1.878,-3.595,0.0,0.0
158552,-0.458,0.512,0.747,16.656,4.130,2.168,0.0,0.0
158645,-0.460,0.570,0.711,-10.031,1.733,-3.092,0.0,0.0
158741,-0.463,0.539,0.713,7.000,0.466,-1.809,0.0,0.0
158834,-0.463,0.478,0.750,-0.130,3.221,-5.145,0.0,0.0
158923,-0.469,0.397,0.877,-22.595,5.611,-10.244,0.0,119.0
159012,-0.449,0.342,0.862,-29.038,1.435,-22.420,0.0,118.0
159106,-0.445,0.292,0.808,-6.954,-6.084,-45.718,0.0,0.0
159199,-0.679,0.360,0.901,55.702,-71.046,-91.115,0.0,0.0
159293,-0.355,0.343,0.624,237.603,-115.099,-104.092,0.0,0.0
159381,-0.713,-0.157,0.946,-158.702,-10.214,-83.023,0.0,108.0
159475,-0.050,1.007,0.418,0.718,-19.786,-15.153,0.0,0.0
159571,-0.355,0.866,0.502,33.588,-9.771,13.550,0.0,0.0
159660,-0.520,0.362,0.780,14.122,4.290,-2.779,0.0,108.0
159748,-0.577,0.393,0.824,10.649,-24.290,19.511,0.0,108.0
159837,-0.598,0.659,0.947,-66.336,-4.618,-4.374,0.0,109.0
159930,-0.307,0.684,0.953,21.809,-58.695,11.466,0.0,0.0
160023,-0.363,0.369,0.906,-28.076,-42.634,4.924,0.0,0.0
160117,-0.177,0.020,0.898,-18.412,-37.878,-0.656,0.0,0.0
160210,-0.713,0.090,0.456,-38.527,39.863,-82.534,0.0,0.0
160304,-0.074,0.042,0.987,-16.924,-8.725,-1.588,0.0,0.0
160401,-0.120,0.238,1.036,-31.664,7.336,-6.901,0.0,0.0
160494,-0.133,0.248,0.930,-25.260,-0.198,-12.939,0.0,0.0
160588,-0.302,-0.136,1.010,-174.031,23.954,-6.061,0.0,0.0
160681,0.213,1.309,0.428,81.107,-10.740,28.824,0.0,0.0
160776,-0.442,-0.820,1.348,171.305,-28.679,10.908,0.0,0.0
160869,-0.494,-0.045,0.973,-43.244,8.198,34.481,0.0,0.0
160962,-0.179,0.041,0.982,-17.443,-9.221,30.718,0.0,0.0
161056,-0.184,-0.048,1.018,2.641,-3.962,11.397,0.0,0.0
161149,-0.154,0.257,0.861,11.908,-1.450,1.710,0.0,0.0
161247,-0.282,-0.720,1.390,-12.061,-12.527,1.244,0.0,0.0
161340,-0.205,0.309,0.748,-164.145,20.573,-24.695,0.0,0.0
161434,-0.033,0.954,0.593,43.115,-4.214,-6.183,0.0,0.0
161527,-0.150,0.316,0.855,94.313,-12.672,20.099,0.0,0.0
161622,-0.158,-0.256,1.139,107.046,-14.618,13.733,0.0,0.0
161715,-0.188,-0.354,1.189,33.061,-9.573,8.550,0.0,0.0
161809,-0.222,-0.200,1.131,-22.298,0.206,-6.870,0.0,0.0
161902,-0.156,-0.157,1.115,-8.893,-13.687,-1.000,0.0,0.0
161996,-0.164,-0.112,1.053,-15.931,-6.748,-0.901,0.0,0.0
162093,-0.120,-0.028,1.008,-13.931,-1.305,-6.389,0.0,0.0
162187,-0.126,0.176,0.917,-22.656,-0.443,0.771,0.0,0.0
162280,-0.096,0.400,0.864,-18.962,-2.771,5.198,0.0,0.0
162374,-0.123,0.188,0.958,1.779,-5.290,2.756,0.0,0.0
162467,-0.115,-0.054,1.051,10.221,-3.168,-4.298,0.0,0.0
162562,-0.291,0.083,0.948,38.672,-10.359,16.122,0.0,0.0
162655,-0.119,0.062,0.988,18.420,5.893,-9.130,0.0,0.0
162749,-0.033,0.033,1.027,1.504,4.664,-7.504,0.0,0.0
162842,-0.127,0.070,1.033,-2.534,-0.985,1.191,0.0,0.0
162939,-0.111,0.034,1.039,0.282,-0.137,-0.702,0.0,0.0
163034,-0.102,0.090,1.021,-23.634,-5.511,-4.344,0.0,0.0
163127,-0.118,-0.051,1.016,-8.244,-2.107,-10.481,0.0,0.0
163221,-0.103,0.005,0.972,-1.679,-2.641,-10.863,0.0,0.0
163315,-0.074,0.099,0.975,6.786,-2.481,-2.450,0.0,0.0
163408,-0.133,0.051,0.967,-14.084,-7.420,16.756,0.0,0.0
163503,-0.074,-0.018,1.011,1.130,3.710,-9.160,0.0,0.0
163596,-0.119,0.083,0.981,-1.733,1.237,-4.634,0.0,0.0
163690,-0.094,-0.026,1.037,-6.527,1.168,-5.779,0.0,0.0
163787,-0.111,0.062,0.982,-3.656,2.267,-6.374,0.0,0.0
163880,-0.111,0.008,1.005,13.115,-0.168,-4.397,0.0,0.0
163975,-0.125,0.040,0.999,-11.198,1.458,-4.519,0.0,0.0
164068,-0.130,0.086,0.994,-3.611,-0.740,0.878,0.0,0.0
164162,-0.101,0.107,0.978,-5.198,2.519,-0.634,0.0,0.0
164255,-0.087,0.034,1.001,11.573,-1.573,4.473,0.0,0.0
164349,-0.095,0.018,1.003,7.481,1.328,-4.733,0.0,0.0
164444,-0.095,0.036,0.989,-3.351,1.542,-4.290,0.0,0.0
164537,-0.103,0.067,0.992,-1.779,0.977,-1.183,0.0,0.0
164634,-0.087,0.049,1.009,-0.290,2.557,-4.748,0.0,0.0
164728,-0.135,0.053,0.990,-1.664,0.885,-2.786,0.0,0.0
164822,-0.122,0.062,0.982,-4.985,-1.198,5.038,0.0,0.0
164916,-0.111,0.062,0.993,-8.145,0.443,0.336,0.0,0.0
165010,-0.126,0.049,0.986,1.420,1.527,1.000,0.0,0.0
165103,-0.107,0.030,1.013,1.733,-1.359,3.443,0.0,0.0
165197,-0.115,0.045,1.001,-4.191,-2.107,3.534,0.0,0.0
165292,-0.113,0.093,0.997,4.191,-2.122,10.832,0.0,0.0
165385,-0.130,-0.029,1.023,2.328,-8.076,16.008,0.0,0.0
165485,-0.106,0.066,0.964,7.252,-16.534,29.137,0.0,0.0
165580,-0.056,0.012,0.984,6.916,-17.664,33.405,0.0,0.0
165673,0.054,0.102,0.993,4.908,-5.000,30.641,0.0,0.0
165767,0.015,-0.013,1.073,-12.885,0.771,8.664,0.0,0.0
165859,-0.008,0.023,1.040,3.130,-0.824,-2.847,0.0,0.0
165952,-0.022,0.088,0.987,5.275,-6.061,2.748,0.0,0.0
166045,0.048,0.115,0.976,6.817,-3.443,10.122,0.0,0.0
166137,0.010,0.119,0.992,-18.580,0.221,14.130,0.0,0.0
166231,-0.015,0.051,0.986,-8.496,-2.405,22.130,0.0,0.0
166324,-0.007,0.078,0.962,-0.679,-7.595,39.618,0.0,0.0
166419,-0.071,0.043,0.882,-3.137,-11.107,57.031,0.0,0.0
166512,0.016,0.034,0.924,32.542,-6.023,57.282,0.0,0.0
166605,0.165,-0.007,1.017,36.992,-2.237,34.527,0.0,0.0
166699,0.118,0.001,1.042,34.344,11.374,11.168,0.0,0.0
166792,0.059,0.168,1.080,30.527,19.924,-10.122,0.0,0.0
166885,-0.078,0.131,1.074,26.725,10.145,-18.863,0.0,0.0
166978,-0.076,0.366,0.793,133.015,-0.153,7.786,0.0,0.0
167071,-0.024,0.338,0.522,41.420,58.695,0.115,0.0,0.0
167164,-0.330,0.618,0.488,5.137,129.397,-20.214,0.0,0.0
167261,-0.414,0.355,0.866,109.092,100.756,-26.321,0.0,0.0
167353,-0.617,0.635,0.896,96.863,47.107,-63.031,0.0,173.0
167443,-0.598,0.778,0.679,111.412,30.237,-43.603,0.0,143.0
167533,-0.614,0.436,0.564,36.221,17.931,-66.443,0.0,141.0
167623,-0.749,0.543,0.254,104.053,36.298,-104.847,0.0,137.0
167716,-1.007,0.495,0.177,42.947,41.565,-109.336,0.0,0.0
167810,-1.030,0.501,0.099,68.664,22.076,-71.107,0.0,0.0
167903,-1.026,0.331,0.092,27.924,12.061,-43.336,0.0,0.0
167996,-0.974,0.341,0.025,66.725,0.198,-5.954,0.0,0.0
168092,-0.938,0.370,-0.014,31.847,-0.527,8.275,0.0,0.0
168185,-0.979,0.330,-0.017,9.015,0.008,13.214,0.0,0.0
168279,-0.967,0.312,0.000,7.496,0.550,19.389,0.0,0.0
168372,-0.915,0.336,0.005,-7.969,4.649,6.191,0.0,0.0
168465,-0.935,0.297,0.029,-9.626,3.473,-5.794,0.0,0.0
168559,-0.944,0.329,-0.001,-8.481,2.206,-5.672,0.0,0.0
168652,-0.956,0.311,0.001,-14.977,1.840,-3.420,0.0,0.0
168745,-0.959,0.290,-0.002,-8.298,-2.023,1.649,0.0,0.0
168839,-0.932,0.286,-0.007,-6.252,-3.267,6.588,0.0,0.0
168935,-0.922,0.291,-0.005,-9.031,-0.053,5.130,0.0,0.0
169029,-0.927,0.282,0.006,-4.183,1.924,0.618,0.0,0.0
169122,-0.936,0.291,0.012,-4.321,2.756,-1.344,0.0,0.0
169216,-0.946,0.292,0.002,-0.901,2.275,0.855,0.0,0.0
169309,-0.930,0.284,0.005,-0.099,2.122,2.893,0.0,0.0
169402,-0.943,0.296,0.004,-0.794,2.786,-2.656,0.0,0.0
169496,-0.960,0.297,0.005,3.267,0.687,-0.290,0.0,0.0
169589,-0.935,0.307,-0.002,0.466,0.130,-0.031,0.0,0.0
169682,-0.942,0.308,0.005,0.214,-0.985,-2.061,0.0,0.0
169779,-0.956,0.324,0.038,-12.794,-1.290,1.634,0.0,0.0
169873,-0.939,0.282,0.033,3.733,-9.458,1.359,0.0,0.0
169966,-0.940,0.351,-0.021,-0.511,-7.511,7.382,0.0,0.0
170059,-0.922,0.347,0.012,-9.679,-1.664,14.061,0.0,0.0
170152,-0.916,0.354,0.051,-10.885,0.382,18.611,0.0,0.0
170247,-0.923,0.365,0.068,-10.641,-1.504,15.885,0.0,0.0
170340,-0.936,0.407,0.083,-17.000,-3.122,16.969,0.0,0.0
170434,-0.908,0.400,0.090,-12.198,-6.519,16.565,0.0,0.0
170527,-0.882,0.424,0.090,-9.718,-5.809,12.809,0.0,0.0
170620,-0.891,0.414,0.133,-9.405,-8.275,9.252,0.0,0.0
170718,-0.968,0.484,0.231,-16.718,-16.733,15.702,0.0,0.0
170811,-1.001,0.519,0.428,-4.588,-46.038,47.092,0.0,0.0
170905,-1.028,0.726,0.653,-19.817,-99.626,85.679,0.0,0.0
170994,-0.883,0.770,0.981,-43.588,-188.916,117.519,0.0,133.0
171083,-0.472,1.250,0.608,-40.313,-175.626,111.053,152.0,151.0
171175,-0.198,0.854,0.827,-82.901,-165.954,102.069,177.0,0.0
171256,0.279,0.871,0.821,-102.099,-130.687,42.420,57.0,118.0
171346,0.247,0.920,0.506,-112.771,-128.504,49.145,135.0,0.0
171441,0.418,1.027,0.118,-67.344,-107.328,40.053,141.0,0.0
171534,0.329,-0.041,0.318,4.374,-88.069,48.405,0.0,0.0
171628,0.744,-0.241,0.212,-22.931,-34.420,15.237,0.0,0.0
171715,0.867,-0.184,0.392,-28.603,-3.656,-11.626,77.0,0.0
171801,0.837,0.234,0.453,-6.611,5.443,-15.893,77.0,0.0
171895,0.912,0.186,0.530,0.885,4.893,-11.985,0.0,0.0
171981,0.804,0.266,0.473,-15.260,-3.153,0.389,76.0,0.0
172068,1.022,0.136,0.508,-8.412,-2.244,7.481,75.0,0.0
172154,1.016,-0.115,0.594,4.481,-1.099,-12.344,72.0,0.0
172244,0.911,0.001,0.529,12.321,1.321,4.298,71.0,0.0
172331,0.701,0.012,0.585,9.496,1.740,-10.344,69.0,0.0
172417,0.716,0.127,0.520,-6.878,-0.008,-6.809,71.0,0.0
172504,0.854,0.269,0.452,-13.344,2.466,-0.679,73.0,0.0
172590,0.818,0.142,0.490,9.305,1.435,14.107,69.0,0.0
172676,0.931,-0.050,0.617,13.611,0.275,6.626,69.0,0.0
172762,0.826,0.116,0.537,-18.038,2.031,8.344,68.0,0.0
172848,0.909,0.021,0.599,-27.947,11.756,10.344,65.0,0.0
172942,0.895,0.212,0.531,70.557,-28.664,25.031,0.0,0.0
173039,0.764,-0.133,0.564,24.618,-14.511,12.534,0.0,0.0
173125,1.163,0.213,0.336,-6.824,-6.206,-8.275,59.0,0.0
173210,1.056,-0.038,0.526,4.336,-12.038,12.794,58.0,0.0
173296,0.967,0.104,0.440,-9.260,-8.214,-12.466,56.0,0.0
173381,0.877,0.053,0.468,14.672,-8.931,0.954,56.0,0.0
173467,0.762,0.236,0.306,19.473,-1.710,25.679,55.0,0.0
173553,0.812,0.150,0.407,40.649,-9.137,11.763,54.0,0.0
173638,0.958,0.052,0.426,5.267,-11.595,4.015,54.0,0.0
173723,1.180,-0.065,0.481,-54.275,-13.618,-44.779,53.0,0.0
173812,1.028,0.146,0.368,-18.267,-15.573,-28.748,54.0,0.0
173898,0.838,0.010,0.459,-3.908,-13.115,-9.260,54.0,0.0
173983,0.912,0.062,0.386,4.191,-13.847,-1.527,55.0,0.0
174069,0.923,0.196,0.240,-2.924,-9.588,13.321,54.0,0.0
174155,0.965,0.006,0.330,-2.893,-8.977,4.763,54.0,0.0
174240,1.002,-0.019,0.252,-40.466,5.763,4.168,52.0,0.0
174326,0.792,0.091,0.279,-11.435,-5.313,-8.023,51.0,0.0
174411,0.865,0.000,0.266,-34.031,3.351,-9.611,50.0,0.0
174496,0.970,0.305,0.147,-8.397,-7.107,-13.718,51.0,0.0
174585,0.855,-0.189,0.398,128.763,-34.802,21.802,53.0,0.0
174671,0.702,0.008,0.173,-20.221,-5.481,-23.527,55.0,0.0
174757,0.920,0.145,0.230,-10.794,1.389,-2.794,58.0,0.0
174843,1.110,0.309,0.140,28.779,-5.557,7.878,57.0,0.0
174929,1.010,0.109,0.211,80.176,-15.168,25.496,58.0,0.0
175015,0.872,-0.292,0.383,6.229,-3.176,-2.939,57.0,0.0
175100,1.070,0.198,0.197,-48.427,-3.092,-6.916,58.0,0.0
175186,1.037,0.329,0.137,-0.748,-8.885,3.519,57.0,0.0
175272,0.994,0.008,0.318,77.366,-17.160,24.748,59.0,0.0
175367,0.970,0.045,0.182,-26.885,-5.550,-5.489,0.0,0.0
175456,0.893,0.150,0.076,-54.557,0.473,-10.863,58.0,0.0
175542,0.910,0.647,-0.121,-40.122,5.160,-6.374,59.0,0.0
175628,1.042,0.451,-0.120,70.405,-12.779,-3.038,59.0,0.0
175714,1.071,-0.361,0.363,80.305,-14.412,10.511,58.0,0.0
175800,0.842,-0.375,0.332,-90.542,4.313,-19.901,57.0,0.0
175886,0.923,0.406,-0.061,-70.366,6.763,-8.260,57.0,0.0
175972,0.981,0.710,-0.156,1.748,-0.901,14.336,57.0,0.0
176058,1.315,0.073,0.206,51.603,-0.542,37.588,57.0,0.0
176144,1.327,-0.142,0.227,49.489,-20.084,-10.321,58.0,0.0
176228,1.067,-0.067,0.092,-60.481,10.420,-4.947,55.0,0.0
176314,1.113,0.043,0.126,-3.412,-0.962,12.214,57.0,0.0
176400,1.012,-0.186,0.226,16.000,-0.931,24.756,56.0,0.0
176486,1.539,-0.071,0.129,-10.176,-0.168,-19.779,56.0,0.0
176572,1.322,0.023,0.147,3.519,3.481,6.534,57.0,0.0
176658,1.040,0.092,0.178,7.237,-2.046,8.076,57.0,0.0
176744,1.053,0.081,0.185,-6.275,1.763,-8.840,57.0,0.0
176830,1.080,0.137,0.101,16.382,-1.664,-3.595,57.0,0.0
176922,1.018,0.205,0.068,13.718,6.603,39.565,58.0,0.0
177009,0.882,0.084,0.158,-12.359,5.145,10.542,54.0,0.0
177094,0.983,0.180,0.086,-6.336,1.244,10.786,53.0,0.0
177179,0.943,-0.011,0.179,1.626,-5.275,9.519,61.0,0.0
177264,0.972,0.058,0.124,1.290,-2.145,-13.641,58.0,0.0
177349,1.053,-0.003,0.085,2.992,3.458,-7.824,57.0,0.0
177436,1.002,0.044,0.154,9.969,7.687,6.893,88.0,0.0
177521,0.986,-0.211,0.265,-38.366,4.855,-8.084,52.0,0.0
177605,1.104,0.156,0.083,1.992,-0.061,-15.748,53.0,0.0
177690,0.856,0.111,0.141,-24.504,8.656,-12.748,51.0,0.0
177778,0.969,0.036,0.158,6.427,4.786,-19.527,56.0,0.0
177863,0.972,0.066,0.193,6.321,-5.412,-6.038,51.0,0.0
177948,1.080,0.082,0.171,-0.366,4.275,-0.962,53.0,0.0
178032,1.228,0.031,0.202,-14.321,3.321,-8.847,51.0,0.0
178117,1.095,0.169,0.181,9.870,-0.313,-0.206,52.0,0.0
178202,1.042,0.032,0.228,-0.137,-3.595,-6.649,52.0,0.0
178287,0.862,0.140,0.144,-31.458,2.130,-3.336,51.0,0.0
178371,0.886,0.215,0.122,5.603,-0.832,13.702,51.0,0.0
178456,1.048,-0.084,0.211,49.718,-27.053,31.183,51.0,0.0
178544,0.794,0.097,0.212,4.481,-7.847,19.511,51.0,0.0
178629,1.037,0.098,0.090,-32.267,5.115,-10.168,51.0,0.0
178714,0.989,0.171,0.069,21.137,-3.496,-2.595,53.0,0.0
178799,1.162,0.275,0.045,-49.153,4.504,-16.603,57.0,0.0
178892,1.012,0.310,0.013,15.649,-6.718,-1.260,0.0,0.0
178977,0.955,0.218,0.063,13.084,2.870,12.985,58.0,0.0
179072,0.949,-0.055,0.181,48.344,-4.420,19.160,0.0,0.0
179156,1.054,-0.080,0.144,-26.763,13.099,15.504,54.0,0.0
179241,1.139,0.049,0.107,-6.794,8.931,13.107,57.0,0.0
179330,1.197,0.187,0.083,-19.542,5.374,18.702,57.0,0.0
179415,1.151,-0.063,0.252,44.733,6.466,-10.527,57.0,0.0
179500,1.060,-0.036,0.258,-18.252,8.977,6.588,52.0,0.0
179585,1.058,-0.171,0.340,13.321,1.160,-20.924,51.0,0.0
179670,1.007,-0.266,0.277,19.679,0.969,-10.924,51.0,0.0
179755,0.980,-0.082,0.224,-28.084,18.748,-0.198,50.0,0.0
179840,1.077,0.278,0.110,-0.855,18.366,14.397,51.0,0.0
179924,0.923,0.095,0.209,31.412,14.573,7.985,51.0,0.0
180009,0.977,-0.010,0.262,-0.733,19.664,-5.420,51.0,0.0
180098,0.892,0.119,0.214,54.817,17.733,9.153,60.0,0.0
180183,0.992,0.079,0.205,-19.321,26.794,-2.382,54.0,0.0
180269,0.902,0.021,0.254,-17.107,44.290,-18.145,59.0,0.0
180354,0.889,-0.005,0.463,-9.023,45.939,-14.244,55.0,0.0
180440,0.762,0.143,0.535,26.618,34.824,8.985,56.0,0.0
180525,0.863,0.240,0.524,-19.160,51.115,11.244,57.0,0.0
180610,0.853,0.070,0.535,-50.733,58.237,31.229,56.0,0.0
180695,0.372,-0.133,0.401,-10.435,71.229,45.740,55.0,0.0
180780,0.342,-0.083,0.433,30.000,105.053,63.893,38.0,0.0
180867,0.347,0.092,0.715,53.725,147.336,40.504,32.0,0.0
180951,0.127,0.111,1.066,124.290,136.038,-11.015,32.0,0.0
181044,0.045,0.192,1.236,250.130,120.656,-73.244,0.0,0.0
181129,-0.434,0.901,0.806,194.107,109.802,-106.321,41.0,0.0
181218,-0.668,0.923,0.765,77.450,129.550,-126.000,0.0,119.0
181308,-0.813,0.556,0.770,19.580,134.137,-126.153,0.0,136.0
181401,-0.973,0.485,0.491,64.992,119.802,-92.145,0.0,0.0
181495,-1.111,0.533,0.203,62.336,68.160,-77.725,0.0,0.0
181588,-1.015,0.318,0.173,60.588,19.588,-45.107,0.0,0.0
181686,-0.976,0.315,0.072,77.305,8.260,-20.237,0.0,0.0
181779,-0.977,0.339,-0.005,26.282,8.496,-0.916,0.0,0.0
181873,-0.976,0.228,0.017,7.038,3.656,12.817,0.0,0.0
181966,-0.963,0.245,-0.008,16.198,-3.847,20.336,0.0,0.0
182060,-0.938,0.256,-0.012,12.969,-4.740,16.137,0.0,0.0
182154,-0.942,0.278,0.000,4.679,-5.298,7.641,0.0,0.0
182247,-0.952,0.272,-0.015,11.489,-7.260,4.023,0.0,0.0
182341,-0.956,0.289,-0.008,9.061,-10.992,2.992,0.0,0.0
182434,-0.937,0.300,0.013,19.672,-16.305,2.878,0.0,0.0
182532,-0.981,0.326,-0.014,15.611,-13.275,3.580,0.0,0.0
182625,-1.016,0.349,0.004,2.061,-7.008,2.069,0.0,0.0
182719,-1.163,0.170,0.012,-32.969,2.344,-43.878,0.0,0.0
182812,-1.170,-0.212,0.189,139.176,-57.992,-101.916,0.0,0.0
182906,-0.869,0.479,0.051,49.252,-33.809,-50.260,0.0,0.0
182999,-0.625,-0.275,0.319,81.840,-33.221,-13.412,165.0,0.0
183091,-0.874,0.031,0.178,-44.176,-9.847,-7.786,167.0,0.0
183181,-0.975,0.481,-0.011,19.794,-8.664,-16.710,135.0,0.0
183271,-1.058,-0.288,0.390,59.779,-18.435,-12.153,138.0,0.0
183368,-1.103,0.134,0.138,-58.427,-0.092,-30.275,0.0,0.0
183458,-0.954,0.309,0.193,67.145,-12.527,-1.336,141.0,0.0
183553,-0.983,-0.015,0.381,107.344,-17.702,50.099,0.0,0.0
183643,-0.739,-0.036,0.405,-50.504,-2.183,12.679,139.0,0.0
183735,-0.804,0.007,0.505,-3.908,-22.397,19.481,170.0,0.0
183827,-0.938,-0.429,0.460,43.817,-34.160,2.702,173.0,0.0
183921,-0.819,0.053,0.329,2.519,-16.939,-9.252,0.0,0.0
184015,-0.901,-0.203,0.687,11.359,-17.176,-0.893,0.0,0.0
184109,-0.967,-0.020,0.448,-32.336,-16.832,-26.450,0.0,0.0
184206,-0.771,0.405,0.160,-14.573,-0.977,2.748,0.0,0.0
184300,-0.835,0.072,0.437,39.458,4.603,6.618,0.0,0.0
184394,-0.897,0.047,0.504,-78.160,23.351,-0.275,0.0,0.0
184487,-0.769,0.279,0.407,101.779,-14.221,30.061,0.0,0.0
184581,-0.922,-0.603,0.695,10.473,-9.855,20.275,175.0,0.0
184673,-0.865,-0.478,0.661,-24.664,-2.489,-4.916,173.0,0.0
184765,-0.847,0.064,0.457,-44.252,5.725,-6.176,174.0,0.0
184858,-0.694,0.400,0.351,-67.992,5.901,11.351,174.0,0.0
184953,-0.970,0.438,0.312,-16.718,10.000,-44.557,174.0,0.0
185047,-0.895,0.101,0.422,9.099,-3.221,-2.489,174.0,0.0
185139,-0.925,-0.269,0.585,7.931,-5.695,9.947,173.0,0.0
185231,-0.690,-0.241,0.666,-18.489,-8.893,37.435,174.0,0.0
185324,-0.653,0.035,0.538,-17.802,-2.878,1.221,173.0,0.0
185416,-0.833,0.425,0.354,-31.557,9.847,-13.924,173.0,0.0
185508,-0.980,0.139,0.447,88.893,-15.130,35.809,173.0,0.0
185602,-0.968,-0.136,0.600,-14.458,-7.405,17.252,172.0,0.0
185694,-0.904,0.177,0.474,-69.969,4.176,-6.183,172.0,0.0
185789,-0.772,0.565,0.326,10.321,-2.611,17.458,172.0,0.0
185883,-0.853,-0.280,0.630,123.176,-4.878,23.870,0.0,0.0
185977,-0.908,0.046,0.531,-76.397,9.817,-6.412,0.0,0.0
186072,-0.794,0.551,0.343,49.000,0.267,5.092,0.0,0.0
186165,-0.870,-0.203,0.680,40.725,-5.794,1.901,0.0,0.0
186259,-0.857,0.399,0.335,-133.947,25.779,-22.985,0.0,0.0
186353,-0.797,0.190,0.419,59.000,-2.817,14.748,0.0,0.0
186447,-0.865,-0.388,0.802,108.947,-25.076,-5.031,0.0,0.0
186540,-0.828,-0.098,0.632,-111.237,4.718,-10.710,171.0,0.0
186636,-0.844,0.716,0.305,-22.359,3.687,11.832,172.0,0.0
186730,-0.717,0.534,0.352,74.000,-5.511,25.985,0.0,0.0
186824,-1.089,-1.043,1.004,-36.420,7.313,-3.260,0.0,0.0
186918,-0.715,1.035,0.063,-147.511,16.580,-22.832,0.0,0.0
187013,-0.775,0.316,0.328,185.870,-14.137,27.366,0.0,0.0
187105,-0.953,-0.583,0.799,59.122,-4.008,22.153,170.0,0.0
187198,-0.914,0.157,0.431,-154.351,14.802,-21.153,170.0,0.0
187292,-0.770,0.768,0.198,-12.763,-11.137,1.504,0.0,0.0
187384,-1.045,-0.287,0.655,184.908,-29.664,30.008,167.0,0.0
187480,-1.021,-0.708,0.764,-163.557,4.351,-26.412,165.0,0.0
187574,-0.737,0.805,0.195,-58.176,2.405,-15.466,0.0,0.0
187668,-0.995,-0.205,0.669,54.511,-18.725,0.359,0.0,0.0
187760,-0.970,-0.322,0.674,-28.679,-4.794,-22.832,168.0,0.0
187855,-0.912,0.009,0.491,-38.817,-2.198,-14.069,0.0,0.0
187950,-0.820,-0.002,0.524,16.969,-4.748,-0.122,0.0,0.0
188044,-0.850,0.020,0.569,-3.458,-3.985,11.740,0.0,0.0
188138,-0.821,0.174,0.521,17.710,-1.939,12.679,0.0,0.0
188232,-0.801,0.350,0.418,26.504,2.282,30.725,0.0,0.0
188329,-0.830,0.253,0.410,-73.427,26.023,53.046,0.0,0.0
188430,-0.697,0.216,0.388,-23.947,34.916,62.504,0.0,0.0
188523,-0.803,0.242,0.317,-11.099,53.534,29.496,0.0,0.0
188616,-0.983,0.348,0.258,-65.374,75.763,35.595,0.0,0.0
188709,-0.992,0.377,0.314,-65.321,62.382,53.924,0.0,0.0
188803,-0.984,0.308,0.471,-118.527,25.260,54.183,0.0,0.0
188896,-0.988,0.377,0.462,-77.473,-3.496,68.763,0.0,0.0
188989,-0.856,0.442,0.417,-87.046,-17.519,73.351,0.0,0.0
189079,-0.717,0.354,0.468,-61.359,-30.145,61.427,0.0,139.0
189170,-0.594,0.477,0.523,-70.748,-17.725,52.824,0.0,110.0
189258,-0.557,0.398,0.638,-61.328,-14.626,46.435,0.0,111.0
189346,-0.487,0.466,0.683,-48.802,-9.053,41.374,0.0,113.0
189440,-0.488,0.454,0.709,-26.672,-7.420,36.756,0.0,0.0
189534,-0.457,0.412,0.740,-21.588,-2.916,30.832,0.0,0.0
189614,-0.502,0.423,0.755,-8.458,-8.420,20.733,45.0,130.0
189699,-0.413,0.441,0.756,-6.328,-6.733,20.427,43.0,0.0
189787,-0.419,0.468,0.786,-5.611,-4.649,17.107,0.0,118.0
189883,-0.416,0.476,0.798,-0.206,-7.863,12.076,0.0,0.0
189976,-0.366,0.475,0.784,4.214,-3.992,11.214,0.0,0.0
190069,-0.346,0.495,0.775,-4.687,3.061,9.656,0.0,0.0
190163,-0.359,0.486,0.791,-2.359,3.076,3.008,0.0,0.0
190243,-0.369,0.566,0.752,9.931,4.435,-1.565,44.0,128.0
190332,-0.340,0.403,0.731,31.344,11.328,-5.160,0.0,124.0
190420,-0.399,0.351,0.602,55.840,46.305,-38.878,0.0,113.0
190510,-0.653,0.382,0.555,102.336,59.344,-57.397,0.0,110.0
190600,-0.715,0.575,0.501,-80.565,63.557,-79.069,0.0,140.0
190692,-0.612,0.207,0.416,166.565,89.786,-58.084,0.0,135.0
190786,-0.915,0.424,0.013,250.130,51.573,-120.893,0.0,0.0
190879,-1.211,0.559,-0.219,183.000,-6.145,-142.588,0.0,0.0
190972,-1.100,0.473,-0.180,-3.733,-1.550,-66.718,0.0,0.0
191066,-1.037,0.226,-0.038,-68.466,0.260,22.397,0.0,0.0
191160,-0.935,0.215,-0.008,11.710,-13.015,47.435,0.0,0.0
191253,-0.919,0.321,-0.058,16.634,-15.366,37.229,0.0,0.0
191346,-0.965,0.289,-0.064,-19.527,-5.382,30.725,0.0,0.0
191440,-0.959,0.284,-0.046,-32.634,1.710,22.771,0.0,0.0
191537,-0.921,0.269,-0.014,-30.733,2.565,1.954,0.0,0.0
191630,-0.935,0.277,-0.016,-25.565,3.809,-16.672,0.0,0.0
191723,-0.965,0.274,0.002,-24.481,4.908,-25.176,0.0,0.0
191817,-0.972,0.246,0.024,-26.679,3.695,-20.130,0.0,0.0
191910,-0.963,0.231,0.041,-15.298,-0.557,-11.313,0.0,0.0
192004,-0.945,0.245,0.049,-15.366,-0.557,-1.496,0.0,0.0
192098,-0.954,0.217,0.038,-17.878,-1.603,6.969,0.0,0.0
192191,-0.933,0.122,0.063,5.679,-3.260,5.641,0.0,0.0
192284,-1.006,0.150,0.059,0.321,-3.924,8.504,0.0,0.0
192381,-1.007,0.163,0.071,15.740,-9.916,14.366,0.0,0.0
192475,-0.940,0.224,0.071,21.565,-12.221,15.962,0.0,0.0
192568,-0.922,0.241,0.075,28.710,-13.489,8.550,0.0,0.0
192662,-0.915,0.255,0.054,47.229,-16.313,3.481,0.0,0.0
192755,-0.925,0.298,0.021,47.832,-11.802,-5.122,0.0,0.0
192849,-0.927,0.300,0.024,40.198,-3.603,-14.145,0.0,0.0
192943,-0.939,0.290,0.024,20.611,4.374,-15.977,0.0,0.0
193037,-0.936,0.273,0.042,39.496,1.634,-19.718,0.0,0.0
193130,-0.985,0.309,0.016,48.473,-0.382,-20.107,0.0,0.0
193226,-0.993,0.311,0.011,24.183,2.641,-14.748,0.0,0.0
193320,-0.968,0.295,0.019,10.878,4.977,-5.626,0.0,0.0
193414,-0.963,0.274,0.004,-4.733,9.641,5.985,0.0,0.0
193508,-0.932,0.194,-0.005,-35.481,12.969,11.160,0.0,0.0
193601,-0.932,0.130,-0.010,3.061,3.412,-6.015,0.0,0.0
193694,-0.934,0.234,-0.056,20.153,3.115,-16.344,0.0,0.0
193788,-0.954,0.172,-0.057,-12.924,6.649,-14.534,0.0,0.0
193883,-0.989,0.163,-0.082,-14.992,8.748,-17.069,0.0,0.0
193976,-1.012,0.141,-0.075,-12.336,8.939,-7.947,0.0,0.0
194073,-1.053,0.124,-0.068,-18.931,2.802,2.137,0.0,0.0
194166,-0.969,0.083,-0.053,1.031,-7.969,9.962,0.0,0.0
194260,-0.927,0.147,-0.082,6.473,-7.053,3.969,0.0,0.0
194354,-0.963,0.160,-0.093,1.031,-3.550,0.840,0.0,0.0
194448,-0.995,0.153,-0.089,-2.328,0.313,5.366,0.0,0.0
194542,-0.957,0.158,-0.068,-1.847,2.313,8.168,0.0,0.0
194635,-1.028,0.150,-0.041,-13.244,6.122,5.168,0.0,0.0
194729,-1.009,0.108,-0.024,-13.519,-2.466,5.267,0.0,0.0
194823,-0.964,0.154,-0.032,15.794,-13.763,0.931,0.0,0.0
194917,-0.936,0.208,-0.033,8.870,-14.420,-0.687,0.0,0.0
195013,-0.973,0.222,-0.021,4.076,-9.542,-0.405,0.0,0.0
195107,-0.977,0.211,0.014,-2.328,-8.664,9.947,0.0,0.0
195201,-0.938,0.216,0.032,1.275,-8.832,18.565,0.0,0.0
195295,-0.931,0.227,0.024,-0.076,-5.382,16.878,0.0,0.0
195388,-0.944,0.228,0.032,-6.038,-0.893,8.977,0.0,0.0
195482,-0.938,0.243,0.036,1.924,0.481,4.473,0.0,0.0
195575,-0.940,0.240,0.049,-0.519,1.489,-3.260,0.0,0.0
195670,-0.982,0.240,0.041,-3.191,-0.458,-4.282,0.0,0.0
195764,-0.968,0.236,0.046,3.771,-4.015,1.260,0.0,0.0
195860,-0.955,0.256,0.048,8.672,-4.985,2.977,0.0,0.0
195954,-0.934,0.258,0.051,0.427,-1.695,2.519,0.0,0.0
196047,-0.947,0.270,0.058,-0.366,2.160,-2.061,0.0,0.0
196142,-0.964,0.280,0.094,-3.656,2.992,-0.611,0.0,0.0
196236,-0.982,0.289,0.116,-31.954,0.656,-0.779,0.0,0.0
196329,-0.911,0.133,0.267,-18.023,-5.534,4.626,0.0,0.0
196423,-1.150,0.373,0.208,-44.008,-27.573,4.809,0.0,0.0
196517,-0.731,-0.085,0.374,121.809,-83.863,4.168,0.0,0.0
196612,-1.897,0.004,0.176,-1.802,-69.977,-190.229,0.0,0.0
196709,-0.667,0.541,-0.094,-167.290,-23.771,23.206,0.0,0.0
196803,-0.797,0.476,0.065,12.595,-8.855,19.603,199.0,0.0
196896,-0.997,-0.283,0.568,-16.229,-5.939,-4.824,198.0,0.0
196990,-0.886,0.096,0.421,-68.527,4.832,-4.336,197.0,0.0
197085,-0.924,0.148,0.377,-10.626,-3.603,5.557,196.0,0.0
197178,-0.882,-0.034,0.487,21.450,-3.275,10.229,195.0,0.0
197272,-0.595,0.853,0.147,-15.962,2.756,23.527,195.0,0.0
197365,-0.938,-0.107,0.542,86.115,-7.298,23.198,194.0,0.0
197459,-0.937,-0.320,0.653,-57.473,6.061,-4.183,194.0,0.0
197556,-0.897,0.309,0.334,-82.198,11.092,-8.771,193.0,0.0
197650,-0.900,0.324,0.336,92.435,-6.130,27.748,193.0,0.0
197743,-0.911,0.525,0.209,-171.099,12.740,-32.779,193.0,0.0
197837,-0.783,1.068,0.013,-25.634,2.153,-5.908,192.0,0.0
197931,-0.892,-0.068,0.533,107.588,-2.618,13.366,193.0,0.0
198025,-0.933,-0.168,0.574,-1.763,0.321,-0.137,193.0,0.0
198119,-0.976,0.158,0.349,-65.924,18.389,-6.679,193.0,0.0
198212,-0.873,0.563,0.185,-74.374,7.443,-12.244,193.0,0.0
198309,-0.654,0.605,0.190,129.672,-5.267,19.237,193.0,0.0
198403,-1.041,-0.562,0.822,116.641,-29.099,14.069,193.0,0.0
198497,-0.932,0.250,0.367,-150.099,-1.634,-12.771,192.0,0.0
198591,-0.747,1.180,-0.076,-47.366,3.634,-2.695,192.0,0.0
198684,-0.837,0.197,0.349,96.748,-8.160,17.420,191.0,0.0
198778,-0.968,-0.416,0.677,27.573,-14.382,-4.008,191.0,0.0
198872,-0.915,0.332,0.354,-176.939,11.298,-29.328,192.0,0.0
198966,-0.741,1.142,0.004,35.092,5.992,5.053,192.0,0.0
199060,-0.907,-0.445,0.771,-25.855,2.565,-17.763,193.0,0.0
199157,-0.972,0.060,0.394,-19.069,-0.420,-10.634,193.0,0.0
199250,-0.829,0.263,0.353,-58.473,4.015,-8.282,193.0,0.0
199345,-0.712,0.124,0.398,184.450,-5.855,11.420,194.0,0.0
199439,-0.927,-0.011,0.554,-24.366,-7.977,-11.855,193.0,0.0
199532,-0.866,0.639,0.107,-192.847,6.977,-19.298,193.0,0.0
199626,-0.815,0.175,0.298,208.924,-13.687,39.214,193.0,0.0
199720,-0.987,-0.557,0.775,-8.198,-7.023,2.985,193.0,0.0
199815,-0.898,0.050,0.437,-136.588,8.435,-12.863,192.0,0.0
199908,-0.757,0.885,0.080,-36.229,6.756,4.489,191.0,0.0
200005,-0.831,0.258,0.341,69.718,-9.046,20.740,192.0,0.0
200099,-1.049,-0.682,0.839,23.618,-2.008,2.664,192.0,0.0
200194,-0.880,0.134,0.372,-153.702,8.611,-29.748,0.0,0.0
200293,-0.715,0.699,0.188,41.641,-5.122,18.366,191.0,0.0
200386,-0.891,-0.207,0.659,89.237,-12.053,26.328,0.0,0.0
200479,-0.891,0.097,0.437,-118.656,10.214,-12.550,0.0,0.0
200572,-0.747,0.841,0.129,26.985,1.702,15.275,190.0,0.0
200665,-0.871,0.135,0.438,67.053,6.611,25.748,190.0,0.0
200758,-0.935,-0.437,0.721,-8.832,4.939,4.588,0.0,0.0
200849,-0.821,0.505,0.184,-131.282,31.649,-18.107,0.0,0.0
200942,-0.899,0.315,0.246,176.931,-17.802,26.855,0.0,0.0
201035,-1.038,-0.924,0.941,-31.214,1.237,-11.817,0.0,0.0
201128,-0.836,0.935,0.084,-138.687,14.870,-11.046,0.0,0.0
201222,-0.878,0.481,0.135,192.489,-30.305,45.366,0.0,0.0
201315,-0.990,-0.576,0.786,-11.458,-9.420,0.786,0.0,0.0
201409,-0.824,0.612,0.173,-132.687,14.557,-18.496,0.0,0.0
201502,-0.786,0.544,0.250,112.511,-15.046,24.099,0.0,0.0
201598,-0.956,-0.316,0.691,23.412,-12.634,22.679,0.0,0.0
201692,-0.788,0.185,0.459,-56.870,6.137,-9.626,0.0,0.0
201785,-0.678,1.140,0.107,-20.481,7.382,9.702,0.0,0.0
201878,-0.878,-0.084,0.623,118.489,-19.908,15.595,0.0,0.0
201971,-0.815,0.364,0.368,-100.084,7.344,-12.206,0.0,0.0
202064,-0.765,0.750,0.213,15.901,4.603,7.519,187.0,0.0
202158,-0.823,0.236,0.437,30.008,3.824,6.244,0.0,0.0
202251,-0.829,0.203,0.462,-8.908,1.214,5.053,0.0,0.0
202344,-0.894,0.264,0.406,-50.183,2.809,29.359,0.0,0.0
202440,-0.874,0.433,0.385,25.313,-17.756,74.420,0.0,0.0
202533,-0.763,0.525,0.578,-103.221,-26.519,58.557,0.0,0.0
202628,-0.649,0.343,0.704,-85.832,-47.008,75.290,0.0,0.0
202721,-0.531,0.295,0.806,-67.260,-55.863,71.328,0.0,0.0
202810,-0.363,0.471,0.797,-35.504,-47.107,76.237,0.0,112.0
202903,-0.352,0.295,0.861,-35.206,-29.298,72.008,0.0,0.0
202996,-0.315,0.311,0.812,-22.053,-12.969,60.160,0.0,0.0
203090,-0.305,0.325,0.833,-10.168,4.573,41.374,0.0,0.0
203184,-0.283,0.333,0.886,-7.863,2.084,21.893,0.0,0.0
203272,-0.241,0.258,0.899,6.832,-1.382,7.611,49.0,0.0
203365,-0.209,0.279,0.925,-6.046,8.947,-1.786,0.0,0.0
203458,-0.236,0.389,0.929,-9.786,3.679,-1.366,0.0,0.0
203551,-0.199,0.439,0.881,1.153,1.282,0.473,0.0,0.0
203645,-0.218,0.374,0.902,5.122,0.511,4.565,0.0,0.0
203739,-0.246,0.352,0.925,7.443,-1.305,4.000,0.0,0.0
203832,-0.251,0.344,0.929,1.244,-2.389,1.809,0.0,0.0
203925,-0.213,0.385,0.890,-4.893,-1.298,2.916,0.0,0.0
204019,-0.224,0.389,0.896,0.137,2.000,0.435,0.0,0.0
204112,-0.229,0.380,0.906,6.282,-0.359,-1.588,0.0,0.0
204209,-0.227,0.363,0.913,5.198,-1.015,-1.023,0.0,0.0
204302,-0.235,0.375,0.898,4.137,-0.702,-1.008,0.0,0.0
204396,-0.212,0.380,0.899,0.397,-0.580,-3.443,0.0,0.0
204489,-0.237,0.490,0.843,4.809,0.725,-5.527,0.0,0.0
204582,-0.276,0.234,0.913,57.908,0.519,-15.359,0.0,0.0
204677,-0.246,0.396,0.753,93.214,12.321,-35.145,0.0,0.0
204767,-0.266,0.282,0.652,92.519,34.733,-71.771,0.0,147.0
204856,-0.499,0.566,0.400,151.901,45.580,-103.504,178.0,141.0
204945,-0.758,0.790,0.195,121.145,54.282,-106.237,189.0,136.0
205042,-0.789,0.699,0.144,39.511,48.130,-115.206,0.0,0.0
205136,-1.002,0.511,0.112,12.603,43.473,-105.634,0.0,0.0
205230,-1.027,0.288,0.146,53.786,21.481,-80.267,0.0,0.0
205324,-1.031,0.362,0.021,65.267,10.115,-42.450,0.0,0.0
205417,-0.967,0.352,0.025,17.092,2.176,-15.374,0.0,0.0
205511,-0.955,0.307,0.049,-3.405,-1.115,0.214,0.0,0.0
205604,-0.938,0.417,0.063,-39.466,0.336,12.840,0.0,0.0
205698,-0.993,0.429,0.140,-66.733,-12.580,42.649,0.0,0.0
205792,-0.941,0.506,0.228,-46.733,-33.992,65.389,0.0,0.0
205889,-0.873,0.598,0.260,-93.931,-27.626,62.511,0.0,0.0
205979,-1.255,0.554,0.049,-250.137,-11.855,12.290,0.0,135.0
206072,-0.975,0.302,0.180,206.038,-108.718,36.183,0.0,0.0
206167,-0.819,-0.322,0.585,-46.794,-53.282,7.191,0.0,0.0
206252,-0.695,0.384,0.312,-90.504,-17.282,-7.473,47.0,0.0
206337,-0.638,0.266,0.494,20.252,-21.099,13.611,45.0,0.0
206422,-0.692,0.200,0.526,16.977,-7.427,2.603,44.0,0.0
206507,-0.631,0.181,0.715,-2.160,-0.214,-7.046,44.0,0.0
206590,-0.627,0.309,0.702,-25.374,-2.641,4.092,44.0,0.0
206673,-0.576,0.479,0.586,0.076,-0.450,3.985,44.0,0.0
206758,-0.613,0.125,0.770,37.023,-3.527,8.237,43.0,0.0
206843,-0.661,0.198,0.735,-41.076,5.000,6.298,42.0,0.0
206928,-0.533,0.675,0.529,10.282,-3.679,11.802,45.0,0.0
207012,-0.621,-0.113,0.875,69.313,-11.718,7.183,42.0,0.0
207097,-0.668,0.362,0.696,-11.435,8.824,-28.099,45.0,0.0
207182,-0.563,0.440,0.645,-0.962,0.672,-9.672,44.0,0.0
207267,-0.553,0.479,0.653,-7.634,0.771,3.695,43.0,0.0
207352,-0.693,-0.016,0.837,14.244,-1.687,3.458,43.0,0.0
207440,-0.672,0.101,0.683,-137.359,15.321,-15.679,44.0,0.0
207525,-0.434,1.217,0.324,4.809,-1.038,-10.397,44.0,0.0
207610,-0.641,-0.438,1.051,141.947,-16.160,18.824,42.0,0.0
207695,-0.816,-0.329,0.853,-189.748,17.015,-23.634,42.0,0.0
207780,-0.590,1.265,0.216,-12.305,3.122,-12.954,43.0,0.0
207866,-0.533,0.244,0.730,128.710,-6.802,15.420,44.0,0.0
207951,-0.736,-0.518,1.020,7.031,0.740,6.649,44.0,0.0
208036,-0.597,0.494,0.502,-127.695,24.374,-17.756,46.0,0.0
208134,-0.544,0.981,0.346,74.504,1.359,7.237,0.0,0.0
208227,-0.645,-0.166,0.917,140.870,-10.275,18.580,0.0,0.0
208312,-0.839,-0.669,1.127,-51.092,-0.702,-8.679,44.0,0.0
208406,-0.641,0.666,0.463,-129.756,7.565,-26.450,0.0,0.0
208500,-0.570,0.784,0.392,84.244,-5.840,2.076,0.0,0.0
208594,-0.748,-0.587,1.051,151.366,-12.107,30.176,0.0,0.0
208689,-0.732,-0.640,1.057,-114.137,7.221,-26.153,0.0,0.0
208783,-0.623,0.692,0.471,-117.481,3.557,-18.863,0.0,0.0
208877,-0.548,0.714,0.434,91.611,-7.954,6.137,0.0,0.0
208974,-0.718,-0.336,0.954,110.000,-6.313,19.443,0.0,0.0
209068,-0.723,-0.383,0.961,-85.847,5.115,-13.336,0.0,0.0
209162,-0.606,0.671,0.467,-67.023,5.786,-19.885,0.0,0.0
209256,-0.572,0.509,0.572,46.992,-0.504,2.069,0.0,0.0
209341,-0.794,-0.290,0.930,71.450,-4.122,11.107,46.0,0.0
209435,-0.692,0.115,0.694,-97.252,9.160,-20.191,0.0,0.0
209529,-0.569,0.717,0.441,21.641,3.710,-4.084,0.0,0.0
209624,-0.674,-0.111,0.830,130.237,-5.450,21.450,0.0,0.0
209709,-0.784,-0.307,0.917,-84.786,6.534,-5.901,44.0,0.0
209815,-0.677,0.555,0.487,-90.420,8.489,-25.740,0.0,0.0
209911,-0.584,0.567,0.511,91.313,-1.924,8.527,0.0,0.0
209999,-0.735,-0.280,0.933,101.832,-10.588,23.763,45.0,0.0
210096,-0.702,-0.014,0.807,-52.672,2.847,-13.206,0.0,0.0
210192,-0.565,1.158,0.272,0.061,-3.168,5.168,0.0,0.0
210288,-0.619,0.149,0.759,131.580,-10.908,28.809,0.0,0.0
210385,-0.785,-0.408,1.005,-31.611,-0.725,3.824,0.0,0.0
210482,-0.656,0.392,0.585,-91.137,5.206,-11.557,0.0,0.0
210578,-0.528,0.923,0.411,-2.221,0.344,7.824,0.0,0.0
210678,-0.604,0.243,0.706,113.435,-10.267,23.412,0.0,0.0
210775,-0.760,-0.308,0.964,-17.924,-2.008,3.481,0.0,0.0
210871,-0.644,0.354,0.617,-90.542,5.229,-21.328,0.0,0.0
210968,-0.579,0.802,0.469,39.405,-5.130,12.137,0.0,0.0
211064,-0.659,-0.006,0.838,61.954,-10.969,10.420,0.0,0.0
211162,-0.696,-0.046,0.804,-74.870,3.985,-14.099,0.0,0.0
211258,-0.583,0.718,0.464,-36.046,3.420,-6.756,0.0,0.0
211354,-0.587,0.477,0.620,64.542,-1.489,10.374,0.0,0.0
211451,-0.707,-0.028,0.848,38.634,-2.588,11.282,0.0,0.0
211543,-0.715,-0.049,0.834,-77.908,6.802,-12.595,44.0,0.0
211639,-0.607,0.495,0.559,14.794,-2.321,4.733,0.0,0.0
211735,-0.630,0.202,0.648,6.046,7.397,-3.542,0.0,0.0
211832,-0.659,0.323,0.541,1.298,11.282,0.756,0.0,0.0
211934,-0.632,0.233,0.510,22.802,26.649,17.481,0.0,0.0
212030,-0.680,0.199,0.508,79.534,34.321,5.901,0.0,0.0
212125,-0.822,0.306,0.441,54.992,45.840,-21.885,0.0,0.0
212220,-0.912,0.454,0.333,30.038,58.977,-43.573,0.0,0.0
212317,-1.016,0.268,0.307,78.542,47.412,-48.855,0.0,0.0
