Timestamp(ms),AccelX(g),AccelY(g),AccelZ(g),GyroX(deg/s),GyroY(deg/s),GyroZ(deg/s),DistanceLeft(cm),DistanceRight(cm)
96750,-0.525,0.381,0.756,0.206,0.290,-0.221,0.0,0.0
96842,-0.529,0.378,0.753,2.977,0.534,0.237,0.0,0.0
96935,-0.530,0.378,0.756,1.031,1.031,0.527,0.0,0.0
97028,-0.522,0.378,0.741,0.046,1.618,-0.290,0.0,0.0
97118,-0.532,0.366,0.720,2.305,3.847,-1.260,0.0,144.0
97207,-0.545,0.346,0.654,36.466,12.473,-5.924,0.0,142.0
97297,-0.607,0.347,0.636,90.702,31.863,2.557,0.0,141.0
97386,-0.637,0.649,0.523,50.298,40.214,5.527,0.0,139.0
97478,-0.637,0.610,0.538,15.237,37.214,-5.412,0.0,138.0
97568,-0.629,0.538,0.569,10.298,24.626,-7.962,0.0,137.0
97657,-0.551,0.338,0.546,44.794,30.718,-31.473,0.0,136.0
97747,-0.776,0.424,0.483,23.824,41.328,-69.710,0.0,134.0
97841,-1.065,0.328,0.538,6.977,-10.557,-110.886,0.0,0.0
97934,-1.224,0.378,0.083,250.130,-165.908,-88.573,0.0,0.0
98027,-1.126,-0.822,0.745,-250.137,-45.931,-98.672,0.0,0.0
98120,-0.879,1.367,-0.051,-117.557,-2.176,-55.038,0.0,0.0
98214,-0.638,1.081,0.018,-35.595,-4.718,2.802,0.0,0.0
98311,-0.677,0.802,0.163,62.634,-12.855,-0.298,197.0,0.0
98404,-0.739,0.188,0.559,113.099,-17.924,-5.687,0.0,0.0
98497,-0.809,-0.012,0.733,-2.275,-4.290,-27.031,197.0,0.0
98590,-0.751,0.148,0.558,-49.634,-4.191,-18.901,0.0,0.0
98683,-1.044,0.281,0.439,-27.809,-15.336,-8.084,0.0,0.0
98778,-0.764,0.081,0.617,11.191,-15.214,-21.397,0.0,0.0
98871,-0.791,0.074,0.627,9.260,-14.176,-2.893,196.0,0.0
98964,-0.632,0.085,0.621,19.588,-15.885,14.855,195.0,0.0
99057,-0.606,0.166,0.696,11.939,-8.183,-11.733,196.0,0.0
99153,-0.713,0.113,0.649,11.328,-13.908,-17.000,196.0,0.0
99247,-0.755,0.006,0.667,4.771,-17.366,-11.565,196.0,0.0
99340,-0.728,-0.058,0.786,-29.763,-12.595,-16.359,196.0,0.0
99434,-0.674,0.141,0.674,11.397,-22.916,9.282,197.0,0.0
99527,-0.396,0.069,0.812,36.550,-24.435,-1.069,197.0,0.0
99620,-0.516,0.192,0.760,33.565,-21.664,-9.366,197.0,0.0
99714,-0.596,-0.274,0.922,4.847,-27.328,-9.153,198.0,0.0
99805,-0.674,-0.250,0.879,-65.763,-13.595,-10.244,160.0,0.0
99902,-0.431,0.465,0.511,27.260,-8.153,24.672,198.0,0.0
99995,-0.674,-0.967,1.251,136.855,-45.321,18.435,198.0,0.0
100089,-0.646,-0.127,0.856,-176.977,8.069,-22.565,199.0,0.0
100183,-0.350,0.932,0.546,-86.962,2.527,-9.298,199.0,0.0
100276,-0.303,0.943,0.505,33.893,-0.458,-5.534,199.0,0.0
100370,-0.354,0.383,0.654,93.069,-7.710,17.748,199.0,0.0
100463,-0.480,-0.706,1.202,135.634,-14.771,15.557,199.0,0.0
100557,-0.635,-0.800,1.296,-19.260,-5.962,3.473,198.0,0.0
100651,-0.588,-0.181,0.978,-110.702,0.290,-13.985,198.0,0.0
100747,-0.403,0.546,0.652,-25.565,4.420,-2.069,198.0,0.0
100841,-0.286,0.796,0.563,30.901,-0.420,11.740,197.0,0.0
100934,-0.346,0.144,0.890,86.580,3.275,23.527,197.0,0.0
101027,-0.588,-0.799,1.344,61.435,-14.069,8.008,196.0,0.0
101122,-0.557,-0.125,0.935,-158.191,8.061,-18.626,196.0,0.0
101215,-0.323,0.590,0.644,-16.977,-11.557,1.908,196.0,0.0
101308,-0.363,0.221,0.833,57.305,0.321,-0.618,196.0,0.0
101401,-0.402,-0.090,1.012,77.382,-9.534,29.214,197.0,0.0
101495,-0.478,-0.118,1.067,-18.420,-2.924,0.298,197.0,0.0
101592,-0.408,0.619,0.740,73.771,-19.679,31.313,197.0,0.0
101686,-0.342,0.078,1.022,49.344,-11.511,18.107,196.0,0.0
101779,-0.350,0.217,0.883,-9.160,3.069,11.863,197.0,0.0
101873,-0.308,0.272,0.746,58.237,-11.191,35.519,0.0,0.0
101966,-0.349,-0.027,1.058,28.939,-1.885,12.870,0.0,0.0
102061,-0.484,0.293,0.933,9.351,4.702,1.634,0.0,0.0
102154,-0.345,0.360,0.952,30.916,-9.115,25.313,197.0,0.0
102248,-0.284,0.413,0.848,16.534,-13.374,11.389,0.0,0.0
102341,-0.248,0.426,0.782,-31.725,1.160,-1.031,0.0,0.0
102438,-0.287,0.671,0.676,-10.595,-0.840,-4.061,0.0,0.0
102533,-0.361,0.661,0.732,8.565,-1.206,2.031,0.0,0.0
102626,-0.362,0.657,0.724,5.954,4.817,9.084,0.0,0.0
102720,-0.206,0.582,0.763,16.359,-6.244,11.786,0.0,0.0
102813,-0.164,0.448,0.775,20.656,5.130,-21.115,196.0,0.0
102907,-0.377,0.902,0.664,6.931,8.618,-19.893,0.0,0.0
103001,-0.383,1.163,0.511,-5.382,1.481,16.893,0.0,0.0
103095,-0.052,0.574,0.741,-20.046,2.321,0.160,0.0,0.0
103187,-0.213,0.609,0.715,1.252,2.908,-11.313,177.0,0.0
103284,-0.428,0.838,0.626,-14.687,10.908,-4.725,0.0,0.0
103378,-0.382,0.708,0.684,-22.489,-0.740,9.008,0.0,0.0
103472,0.049,0.466,0.803,3.969,-5.519,4.534,0.0,0.0
103566,-0.048,0.594,0.752,25.847,-3.466,0.206,0.0,0.0
103659,-0.250,0.531,0.772,2.130,1.588,-15.160,0.0,0.0
103750,-0.266,0.559,0.735,-5.977,1.511,-12.244,156.0,0.0
103844,-0.303,0.636,0.735,-51.450,1.695,-15.237,199.0,0.0
103939,-0.302,0.714,0.705,-27.359,0.191,-15.260,0.0,0.0
104032,-0.561,0.774,0.640,-18.031,2.664,4.870,0.0,0.0
104127,-0.242,0.538,0.769,-12.603,-1.603,-3.237,164.0,0.0
104219,-0.193,0.438,0.834,-29.702,2.405,-13.260,165.0,0.0
104311,-0.351,0.570,0.783,2.160,0.038,-4.252,164.0,0.0
104402,-0.406,0.606,0.796,-15.809,-1.282,-7.450,162.0,0.0
104495,-0.377,0.603,0.726,-17.359,1.023,2.374,162.0,0.0
104586,-0.299,0.594,0.685,-29.458,2.053,-3.603,163.0,0.0
104678,-0.130,0.789,0.681,-30.076,1.412,-9.595,162.0,0.0
104770,-0.213,0.726,0.719,-14.183,2.748,-3.740,164.0,0.0
104862,-0.280,0.652,0.703,12.756,-3.290,-10.901,164.0,0.0
104957,-0.372,0.566,0.784,2.176,1.748,4.809,163.0,0.0
105050,-0.413,0.615,0.739,-30.588,6.557,-3.908,165.0,0.0
105143,-0.294,1.025,0.542,-15.198,5.473,21.466,0.0,0.0
105237,-0.366,0.618,0.753,14.389,-3.099,-6.870,0.0,0.0
105331,-0.546,0.392,0.863,11.282,0.885,6.885,0.0,0.0
105425,-0.323,0.501,0.771,-14.832,-3.611,14.756,0.0,0.0
105517,-0.099,0.575,0.798,3.366,-5.550,6.214,154.0,0.0
105611,-0.178,0.402,0.830,-8.962,2.206,8.595,0.0,0.0
105710,-0.241,0.571,0.766,-17.481,6.076,-16.542,0.0,0.0
105806,-0.165,0.594,0.740,-3.595,-0.206,-11.542,0.0,0.0
105899,-0.204,0.590,0.756,-14.588,2.847,-15.969,0.0,0.0
105992,-0.200,0.631,0.747,-6.656,-0.855,-6.176,0.0,0.0
106085,-0.376,0.595,0.751,9.885,0.435,-15.893,0.0,0.0
106178,-0.383,0.576,0.752,-12.985,5.153,-13.969,199.0,0.0
106271,-0.450,0.643,0.744,11.412,-0.939,2.038,0.0,0.0
106364,-0.414,0.545,0.777,-3.153,-0.664,8.313,198.0,0.0
106458,-0.354,0.543,0.744,-5.977,-1.954,1.321,199.0,0.0
106551,-0.285,0.495,0.800,-0.947,-0.260,8.733,198.0,0.0
106647,-0.270,0.439,0.832,-9.336,1.374,-2.031,197.0,0.0
106740,-0.257,0.466,0.806,-14.481,0.725,-7.130,197.0,0.0
106833,-0.318,0.346,0.866,22.992,0.420,-20.321,197.0,0.0
106927,-0.568,0.414,0.733,24.840,8.679,-23.015,0.0,0.0
107018,-0.348,0.430,0.873,5.725,5.229,-11.183,158.0,0.0
107109,-0.388,0.501,0.838,1.534,-1.092,-10.282,157.0,0.0
107199,-0.439,0.471,0.822,9.863,-2.550,-3.061,157.0,0.0
107290,-0.429,0.436,0.798,-16.603,2.786,-14.359,157.0,0.0
107383,-0.310,0.732,0.679,-55.031,17.214,-1.557,0.0,0.0
107480,-0.241,1.039,0.583,12.046,3.985,4.366,0.0,0.0
107573,-0.484,0.550,0.790,44.038,-4.305,9.672,0.0,0.0
107666,-0.375,0.699,0.668,-17.145,4.489,1.176,196.0,0.0
107759,-0.295,0.784,0.648,-2.344,2.779,2.107,197.0,0.0
107852,-0.285,0.625,0.656,17.015,-1.038,16.000,198.0,0.0
107945,-0.268,0.433,0.843,-11.931,4.137,-17.771,197.0,0.0
108039,-0.338,0.527,0.833,-3.305,1.771,-12.611,197.0,0.0
108132,-0.439,0.455,0.830,5.252,-1.489,-12.214,197.0,0.0
108225,-0.356,0.488,0.756,-6.763,1.519,-15.328,196.0,0.0
108321,-0.361,0.614,0.675,-18.321,10.542,17.618,0.0,0.0
108414,-0.353,0.379,0.716,5.282,17.863,-31.099,0.0,0.0
108508,-0.369,0.321,0.783,-7.336,22.748,-3.344,196.0,0.0
108601,-0.475,0.438,0.720,-0.687,23.962,5.237,196.0,0.0
108694,-0.438,0.516,0.599,8.550,49.305,7.733,0.0,0.0
108788,-0.496,0.415,0.595,21.954,52.489,-1.618,0.0,0.0
108881,-0.652,0.563,0.463,26.344,76.473,-23.527,0.0,0.0
108975,-0.732,0.573,0.414,-2.321,99.840,-43.137,0.0,0.0
109068,-0.923,0.462,0.455,-0.389,97.405,-44.313,199.0,0.0
109164,-1.079,0.321,0.456,-32.794,62.557,-22.397,0.0,0.0
109258,-0.906,0.428,0.310,64.603,59.748,-19.183,0.0,0.0
109351,-1.058,0.330,0.178,-72.878,51.435,-31.603,0.0,0.0
109445,-1.039,0.190,0.192,-21.313,35.267,0.779,0.0,0.0
109539,-0.966,0.278,0.108,21.084,10.260,5.397,0.0,0.0
109632,-0.991,0.313,0.053,21.733,-0.031,4.366,0.0,0.0
109725,-0.980,0.324,0.039,-0.588,-3.252,9.435,0.0,0.0
109818,-0.967,0.291,0.028,-13.313,-6.573,15.870,0.0,0.0
109913,-0.907,0.287,0.077,-22.198,-9.588,23.038,0.0,0.0
110009,-0.908,0.549,0.025,-31.214,9.855,48.267,0.0,0.0
110103,-0.967,0.604,0.063,-43.458,0.649,103.740,0.0,0.0
110196,-0.820,0.844,-0.034,-1.878,20.191,161.206,0.0,0.0
110289,-0.391,1.134,-0.208,-61.473,74.282,157.763,186.0,0.0
110379,-0.076,0.698,-0.063,-40.969,49.977,73.947,134.0,0.0
110469,-0.528,0.581,0.048,-24.221,15.107,9.107,132.0,0.0
110548,-0.271,0.749,0.007,-65.137,42.580,43.221,51.0,107.0
110628,-0.090,0.813,-0.017,-27.809,19.084,34.206,50.0,111.0
110708,-0.130,0.937,0.008,-4.282,35.718,24.832,39.0,114.0
110791,-0.085,0.757,0.140,0.260,49.580,26.611,37.0,116.0
110875,0.062,0.826,0.103,-3.916,20.985,16.397,36.0,0.0
110960,0.092,0.969,-0.048,-30.779,39.733,32.878,34.0,0.0
111049,0.026,1.225,-0.076,-20.939,32.992,22.863,120.0,0.0
111138,0.265,1.050,0.021,-28.870,44.168,58.802,118.0,0.0
111227,0.347,1.087,0.064,-7.153,10.366,40.328,117.0,0.0
111315,0.427,0.885,0.085,-6.336,20.122,58.557,115.0,0.0
111405,0.470,0.973,0.028,-29.282,43.863,69.771,113.0,0.0
111494,0.431,0.946,0.110,0.496,18.412,8.061,112.0,0.0
111585,0.409,0.859,0.201,32.099,2.863,6.023,111.0,0.0
111674,0.498,1.275,0.041,25.046,15.298,11.496,112.0,0.0
111762,0.416,1.000,0.157,6.107,24.031,17.466,111.0,0.0
111851,0.422,0.975,0.116,9.221,7.916,10.389,110.0,0.0
111939,0.435,0.841,0.186,1.229,-9.916,12.115,110.0,0.0
112028,0.483,1.041,0.159,-13.878,0.931,-6.374,110.0,0.0
112116,0.649,1.033,0.120,-17.672,-3.130,9.924,110.0,0.0
112205,0.613,0.736,0.240,-28.267,-4.298,9.924,110.0,0.0
112293,0.604,0.885,0.132,-17.962,3.183,10.359,110.0,0.0
112386,0.598,0.980,0.147,-19.649,6.733,22.969,110.0,0.0
112474,0.598,1.129,0.057,6.557,12.145,17.252,110.0,0.0
112564,0.544,0.822,0.221,25.351,11.588,9.969,124.0,0.0
112647,0.515,0.875,0.211,8.687,17.870,7.344,23.0,0.0
112736,0.531,0.830,0.220,9.366,8.458,0.450,113.0,0.0
112825,0.557,0.922,0.177,18.756,0.298,-0.099,112.0,0.0
112913,0.597,0.768,0.276,15.260,3.504,-2.733,114.0,0.0
113002,0.581,0.871,0.209,2.634,1.893,7.008,111.0,0.0
113090,0.490,0.795,0.215,13.527,-1.786,-2.153,111.0,0.0
113182,0.657,0.751,0.205,-14.481,4.313,1.725,111.0,0.0
113271,0.569,0.749,0.246,-22.458,8.008,-10.267,111.0,0.0
113359,0.485,0.740,0.238,-11.542,-5.221,-1.603,111.0,0.0
113448,0.501,0.841,0.184,5.824,-2.046,-8.504,111.0,0.0
113538,0.631,0.763,0.212,-11.321,-0.580,1.901,112.0,0.0
113627,0.588,0.852,0.186,-12.221,2.168,-4.718,112.0,0.0
113715,0.515,0.888,0.165,3.382,4.214,15.351,112.0,0.0
113804,0.444,1.015,0.114,42.725,-9.511,-6.504,112.0,0.0
113893,0.622,0.628,0.270,21.397,2.076,12.435,113.0,0.0
113985,0.567,0.667,0.249,10.649,1.733,-12.489,112.0,0.0
114074,0.481,0.328,0.451,-7.374,-4.832,-19.168,113.0,0.0
114163,0.537,0.770,0.208,-6.908,-2.214,-4.878,114.0,0.0
114253,0.514,0.853,0.177,-17.023,-3.901,-3.603,132.0,0.0
114343,0.653,1.106,0.078,-24.756,7.725,17.191,123.0,0.0
114433,0.596,1.001,0.146,11.924,0.069,4.137,121.0,0.0
114522,0.638,0.877,0.208,-6.275,8.450,6.977,121.0,0.0
114612,0.597,0.628,0.315,7.969,-11.809,-6.374,121.0,0.0
114701,0.674,0.171,0.448,-11.389,-10.817,-9.344,121.0,0.0
114793,0.719,0.347,0.360,-33.092,-2.260,0.725,118.0,0.0
114883,0.615,0.780,0.231,-32.748,7.542,-4.145,118.0,0.0
114972,0.509,1.216,0.040,-4.786,-5.427,4.748,121.0,0.0
115061,0.496,1.087,0.086,8.878,3.870,3.611,122.0,0.0
115151,0.514,1.021,0.147,13.374,4.527,3.664,119.0,0.0
115240,0.542,0.725,0.279,27.046,2.351,-1.634,118.0,0.0
115330,0.607,0.578,0.317,-21.099,2.328,8.901,119.0,0.0
115420,0.563,1.015,0.160,-14.969,-0.985,13.031,119.0,0.0
115510,0.438,1.048,0.087,25.244,-11.458,-6.252,124.0,0.0
115602,0.610,0.416,0.398,22.603,-7.420,-16.824,121.0,0.0
115692,0.664,0.636,0.325,-36.489,3.069,9.137,121.0,0.0
115782,0.558,1.142,0.069,-15.374,-7.336,7.947,124.0,0.0
115872,0.428,0.838,0.156,31.893,-14.489,-13.153,124.0,0.0
115962,0.523,0.720,0.254,26.977,-7.267,-19.282,125.0,0.0
116052,0.501,0.766,0.224,0.603,-8.763,-0.542,124.0,0.0
116142,0.549,0.773,0.115,1.374,-7.053,-5.229,122.0,0.0
116232,0.538,0.729,0.181,10.466,6.389,-8.534,129.0,0.0
116322,0.580,0.905,0.158,8.702,13.756,-3.427,121.0,0.0
116414,0.510,0.941,0.168,-20.977,8.626,0.015,121.0,0.0
116504,0.509,1.053,0.125,-24.374,-2.115,5.153,122.0,0.0
116594,0.542,1.144,0.027,-9.794,0.901,3.237,123.0,0.0
116683,0.488,0.907,0.103,21.695,-3.061,5.977,124.0,0.0
116774,0.524,0.713,0.191,21.260,1.992,3.015,136.0,0.0
116864,0.527,0.910,0.121,4.351,5.565,-1.550,117.0,0.0
116953,0.509,0.921,0.145,3.931,3.061,1.290,117.0,0.0
117043,0.492,0.964,0.100,16.374,5.069,6.290,117.0,0.0
117132,0.441,0.749,0.210,18.611,-6.496,-5.267,118.0,0.0
117224,0.517,0.671,0.207,7.969,-5.504,-2.267,22.0,0.0
117312,0.533,0.608,0.229,-18.168,-2.145,-9.756,118.0,0.0
117401,0.540,0.817,0.111,-19.107,4.664,2.198,118.0,0.0
117489,0.520,0.931,0.050,-2.847,9.656,8.557,118.0,0.0
117578,0.535,0.916,0.122,-0.420,7.511,3.397,116.0,0.0
117666,0.516,1.049,0.093,4.107,4.725,6.107,116.0,0.0
117754,0.666,1.319,-0.011,-48.672,7.611,35.420,116.0,0.0
117843,0.546,0.606,0.217,8.908,-5.008,2.924,130.0,0.0
117934,0.710,0.933,0.043,-1.794,12.046,5.702,131.0,0.0
118025,0.643,0.870,0.155,-14.252,5.321,7.275,131.0,0.0
118115,0.694,0.520,0.298,-19.366,-0.450,5.382,131.0,0.0
118204,0.697,0.831,0.140,-18.641,-0.962,7.603,130.0,0.0
118293,0.593,1.045,0.049,-9.351,2.420,11.137,130.0,0.0
118382,0.596,0.947,0.112,-3.702,2.595,12.687,130.0,0.0
118472,0.593,1.087,0.100,-6.649,7.443,12.687,131.0,0.0
118560,0.552,1.020,0.110,-15.412,4.748,7.298,124.0,0.0
118649,0.554,1.307,-0.072,27.550,5.107,21.282,120.0,0.0
118738,0.662,1.393,-0.073,5.443,11.733,9.802,121.0,0.0
118830,0.537,1.184,0.007,9.618,1.015,15.802,122.0,0.0
118919,0.460,1.120,0.010,36.588,3.824,11.397,123.0,0.0
119008,0.452,0.895,0.129,47.496,-0.626,7.336,123.0,0.0
119096,0.495,0.945,0.088,35.160,-11.229,6.672,116.0,0.0
119185,0.500,0.757,0.156,15.618,-2.015,-3.176,116.0,0.0
119273,0.530,0.719,0.174,13.954,-0.733,2.053,117.0,0.0
119362,0.485,0.715,0.180,1.053,-8.809,-7.107,118.0,0.0
119451,0.568,0.794,0.121,-20.275,-2.641,-4.351,127.0,0.0
119540,0.557,0.882,0.077,-4.710,1.885,-2.000,124.0,0.0
119629,0.504,0.916,0.084,-5.756,-2.115,-2.160,122.0,0.0
119721,0.472,0.834,0.188,-51.939,-7.679,-10.252,123.0,0.0
119811,0.419,0.802,0.218,-18.450,-22.298,-20.832,123.0,0.0
119900,0.438,0.837,0.182,-9.710,-36.191,-51.656,126.0,0.0
119983,0.354,0.904,0.175,8.939,-37.198,-40.863,23.0,0.0
120067,0.420,0.715,0.301,-65.237,-30.282,-50.389,25.0,0.0
120151,0.293,0.919,0.172,36.145,-28.496,-43.771,27.0,0.0
120229,0.125,0.930,0.139,-21.015,-29.412,-53.267,30.0,123.0
120313,0.104,0.928,0.154,9.641,-31.153,-78.198,31.0,0.0
120406,0.052,0.948,0.172,8.183,-36.931,-113.924,126.0,0.0
120491,-0.097,1.098,0.204,-49.939,-27.473,-147.214,38.0,0.0
120576,-0.369,1.321,0.266,-53.382,-29.603,-110.130,43.0,0.0
120662,-0.478,0.883,0.529,-140.954,-38.992,-77.618,158.0,110.0
120751,-0.465,0.804,0.617,-126.427,-55.366,-50.221,0.0,123.0
120840,-0.406,0.386,0.840,-194.290,-41.298,-52.939,0.0,115.0
120933,-0.460,0.400,0.835,-85.863,-46.832,-18.748,0.0,0.0
121027,-0.380,0.189,0.866,-37.183,-44.718,0.809,0.0,0.0
121120,-0.304,0.146,0.868,-25.313,-41.000,9.374,0.0,0.0
121208,-0.214,0.072,0.904,-0.496,-35.450,8.916,49.0,0.0
121293,-0.189,0.037,0.947,-8.405,-21.740,7.092,50.0,0.0
121378,-0.172,0.051,0.937,-9.038,-8.374,6.122,44.0,0.0
121462,-0.168,0.129,0.957,-10.870,-2.985,1.634,46.0,0.0
121547,-0.146,0.119,0.971,4.130,-2.405,1.748,45.0,0.0
121632,-0.148,0.073,1.001,4.901,-0.168,1.397,46.0,0.0
121716,-0.156,0.096,0.999,2.656,0.786,-2.733,44.0,0.0
121801,-0.146,0.132,0.984,0.687,0.267,-0.412,45.0,0.0
121886,-0.153,0.075,0.989,14.458,0.626,3.053,44.0,0.0
121973,-0.151,0.046,1.007,12.840,2.023,-0.092,44.0,0.0
122058,-0.174,0.196,0.863,28.611,6.267,-2.756,46.0,0.0
122152,-0.225,0.108,0.836,39.473,18.580,-9.122,0.0,0.0
122246,-0.291,0.289,0.657,102.504,53.153,-16.908,0.0,0.0
122335,-0.341,0.244,0.590,189.733,101.305,-45.267,0.0,124.0
122424,-0.691,0.712,0.341,233.053,82.794,-80.656,181.0,139.0
122514,-0.829,0.892,0.247,125.992,45.573,-103.840,0.0,135.0
122608,-0.809,0.679,0.171,97.603,44.458,-100.649,0.0,0.0
122702,-0.947,0.555,0.071,36.092,20.176,-109.840,0.0,0.0
122799,-1.086,0.314,0.071,117.840,0.191,-71.618,0.0,0.0
122893,-0.999,0.509,-0.102,32.092,0.985,-12.588,0.0,0.0
122986,-0.956,0.315,-0.023,-27.260,2.275,18.756,0.0,0.0
123080,-0.918,0.294,-0.007,-3.473,-3.786,17.870,0.0,0.0
123174,-0.925,0.336,-0.030,-1.466,-6.954,11.214,0.0,0.0
123268,-0.960,0.259,0.054,33.832,-17.305,17.160,0.0,0.0
123362,-0.930,0.420,0.024,126.008,-32.908,46.954,0.0,0.0
123455,-0.908,0.577,-0.034,142.351,-44.878,59.229,0.0,0.0
123549,-0.936,0.643,-0.145,149.489,-33.901,91.260,0.0,0.0
123646,-0.752,1.126,-0.585,155.069,45.618,199.656,0.0,0.0
123731,-0.625,1.149,-0.394,-10.405,53.679,147.038,143.0,100.0
123816,-0.794,0.579,-0.348,17.626,29.847,79.702,134.0,109.0
123906,-0.392,0.650,-0.401,-28.115,55.954,82.893,127.0,0.0
123996,-0.209,0.665,-0.315,25.947,29.061,44.969,122.0,0.0
124085,-0.209,0.634,-0.226,40.298,25.053,25.389,120.0,0.0
124175,0.015,0.784,-0.302,19.198,11.947,14.031,120.0,0.0
124264,0.132,0.912,-0.462,7.450,13.863,19.183,119.0,0.0
124356,0.048,0.924,-0.498,8.435,4.321,-8.206,119.0,0.0
124445,0.146,0.917,-0.461,21.176,15.969,25.634,119.0,0.0
124534,0.290,0.875,-0.486,-45.412,13.595,9.214,118.0,0.0
124623,0.257,0.601,-0.393,-102.290,-1.313,-59.969,117.0,0.0
124713,0.147,0.616,-0.368,11.252,-14.137,-3.260,117.0,0.0
124803,0.248,0.840,-0.474,-0.809,2.511,6.718,117.0,0.0
124892,0.246,0.844,-0.456,-40.092,4.947,-3.000,116.0,0.0
124981,0.264,0.948,-0.503,-14.847,21.992,7.725,116.0,0.0
125070,0.309,1.020,-0.501,5.626,21.260,24.649,115.0,0.0
125162,0.282,0.915,-0.441,2.885,11.420,14.000,114.0,0.0
125251,0.281,0.813,-0.423,-20.695,11.359,-4.267,113.0,0.0
125339,0.196,0.834,-0.435,-20.901,26.084,4.504,113.0,0.0
125428,0.321,0.979,-0.392,18.504,-1.733,5.779,113.0,0.0
125517,0.291,0.915,-0.393,-3.107,4.718,2.832,112.0,0.0
125606,0.270,0.831,-0.357,-10.481,1.908,-4.198,113.0,0.0
125696,0.336,0.917,-0.460,-3.046,5.252,5.061,113.0,0.0
125785,0.278,0.830,-0.399,10.489,-0.252,-8.053,113.0,0.0
125874,0.266,0.941,-0.449,11.359,0.473,8.985,113.0,0.0
125966,0.324,0.929,-0.404,-7.000,-1.550,0.122,113.0,0.0
126055,0.318,0.899,-0.425,4.908,-3.504,6.847,113.0,0.0
126144,0.305,0.867,-0.426,-14.489,9.924,6.084,113.0,0.0
126233,0.299,0.843,-0.433,7.076,-1.550,4.168,113.0,0.0
126322,0.284,0.820,-0.443,7.695,2.740,4.962,112.0,0.0
126411,0.313,0.874,-0.437,8.832,2.481,5.015,112.0,0.0
126500,0.344,0.889,-0.435,5.519,1.756,4.008,113.0,0.0
126589,0.342,0.895,-0.463,-3.000,4.405,7.427,112.0,0.0
126679,0.338,0.871,-0.459,5.450,2.649,6.038,112.0,0.0
126771,0.297,0.819,-0.467,7.153,5.969,7.122,111.0,0.0
126860,0.290,0.852,-0.510,-1.962,33.153,18.664,111.0,0.0
126948,0.355,0.725,-0.377,25.168,18.076,19.725,111.0,0.0
127037,0.434,0.736,-0.323,15.252,6.656,-7.878,111.0,0.0
127126,0.406,0.806,-0.436,18.374,-2.244,1.344,112.0,0.0
127215,0.433,0.698,-0.316,11.084,-8.168,-8.069,113.0,0.0
127304,0.393,0.912,-0.490,7.649,-13.450,-5.779,113.0,0.0
127394,0.452,0.884,-0.481,-2.099,-5.656,-4.519,114.0,0.0
127483,0.399,0.830,-0.489,3.214,2.878,7.412,114.0,0.0
127576,0.397,0.712,-0.411,-5.618,5.137,9.710,114.0,0.0
127665,0.359,0.630,-0.439,20.069,1.779,12.550,115.0,0.0
127755,0.448,0.448,-0.331,27.191,23.511,8.076,116.0,0.0
127844,0.466,1.015,-0.597,43.298,24.527,9.328,124.0,0.0
127934,0.715,1.065,-0.367,-10.634,0.191,5.802,117.0,0.0
128023,0.521,0.544,-0.414,-52.015,-15.527,-23.855,119.0,0.0
128113,0.476,0.175,-0.193,18.023,-10.321,-4.992,119.0,0.0
128202,0.453,0.683,-0.553,28.427,-0.924,2.336,119.0,0.0
128292,0.478,0.888,-0.628,33.244,3.443,11.893,119.0,0.0
128386,0.451,0.927,-0.612,12.679,0.359,4.405,119.0,0.0
128475,0.497,0.761,-0.496,4.023,0.824,0.084,119.0,0.0
128571,0.469,0.741,-0.522,9.275,0.824,-1.962,120.0,0.0
128659,0.414,0.698,-0.535,6.511,1.771,-2.160,120.0,0.0
128748,0.421,0.884,-0.672,20.229,1.382,0.489,126.0,0.0
128836,0.502,0.779,-0.507,2.260,-0.092,-1.206,119.0,0.0
128925,0.547,0.806,-0.536,-7.588,4.725,4.481,127.0,0.0
129014,0.493,0.668,-0.448,-13.580,-5.580,-1.298,126.0,0.0
129103,0.471,0.624,-0.482,-6.885,5.496,7.962,126.0,0.0
129196,0.563,0.661,-0.443,3.084,12.504,14.160,126.0,0.0
129285,0.527,0.832,-0.554,-11.870,16.931,14.656,125.0,0.0
129374,0.530,0.946,-0.602,8.908,7.840,16.260,131.0,0.0
129463,0.621,1.022,-0.728,-4.840,36.099,32.420,119.0,0.0
129552,0.550,0.715,-0.509,55.878,-3.626,9.511,133.0,0.0
129640,0.621,0.749,-0.510,14.107,23.672,18.359,136.0,174.0
129727,0.652,0.684,-0.466,45.908,0.206,15.557,122.0,174.0
129815,0.683,0.751,-0.509,8.847,18.107,8.832,123.0,175.0
129903,0.670,0.649,-0.439,41.542,-3.450,9.328,127.0,175.0
129994,0.699,0.703,-0.472,28.779,2.809,1.992,144.0,175.0
130081,0.664,0.636,-0.416,1.450,-11.725,-6.496,123.0,174.0
130170,0.747,0.611,-0.404,8.519,0.229,1.405,142.0,174.0
130258,0.658,0.611,-0.447,0.435,-3.977,-2.504,137.0,173.0
130347,0.666,0.458,-0.314,-2.687,-11.634,-1.893,136.0,174.0
130436,0.630,0.565,-0.560,17.855,-8.366,0.962,136.0,175.0
130524,0.625,0.540,-0.458,30.061,-9.809,-9.260,132.0,175.0
130612,0.667,0.716,-0.474,17.443,-0.382,3.015,134.0,174.0
130700,0.699,0.730,-0.506,1.420,-2.305,3.496,133.0,174.0
130791,0.694,0.578,-0.448,-0.237,-5.359,2.931,132.0,174.0
130879,0.686,0.625,-0.436,5.130,4.527,3.840,132.0,174.0
130967,0.653,0.780,-0.566,-0.771,5.893,5.321,132.0,174.0
131055,0.669,0.714,-0.494,-5.115,0.443,0.122,133.0,175.0
131143,0.662,0.679,-0.502,5.863,-0.649,-2.435,134.0,174.0
131231,0.655,0.754,-0.511,1.489,-1.710,-3.519,133.0,173.0
131319,0.651,0.618,-0.456,-4.542,0.229,-0.198,133.0,174.0
131407,0.700,0.683,-0.471,-8.641,13.244,6.565,136.0,174.0
131499,0.658,0.690,-0.448,-9.511,0.901,1.863,136.0,174.0
131587,0.656,0.674,-0.443,-15.763,-6.137,-1.969,133.0,174.0
131676,0.594,0.573,-0.482,-5.756,5.069,-4.786,134.0,175.0
131765,0.669,0.538,-0.421,10.817,-10.756,5.359,135.0,0.0
131855,0.637,0.553,-0.467,-8.832,1.336,-5.779,134.0,0.0
131945,0.642,0.552,-0.440,3.664,-4.168,-1.893,133.0,0.0
132034,0.604,0.591,-0.462,-11.466,-5.908,-1.450,133.0,0.0
132124,0.647,0.795,-0.585,-9.038,7.542,2.267,133.0,0.0
132213,0.663,0.717,-0.515,-12.328,3.588,2.985,133.0,0.0
132306,0.650,0.381,-0.330,-14.435,-6.969,-11.573,133.0,0.0
132397,0.616,-0.077,-0.141,10.061,-9.290,-12.969,132.0,0.0
132486,0.651,0.528,-0.429,42.557,0.947,5.198,133.0,0.0
132576,0.661,0.797,-0.586,31.160,1.519,2.191,136.0,0.0
132666,0.591,0.844,-0.612,16.298,-0.565,0.679,137.0,0.0
132756,0.646,0.668,-0.493,3.878,4.137,1.779,137.0,0.0
132846,0.720,0.668,-0.454,0.924,8.687,-2.733,139.0,0.0
132936,0.678,0.427,-0.327,-7.733,-0.962,-2.504,143.0,0.0
133026,0.609,0.511,-0.471,18.557,-5.038,-0.885,143.0,0.0
133120,0.660,0.730,-0.593,10.412,0.870,-1.962,145.0,0.0
133212,0.652,0.693,-0.554,23.107,-12.015,7.382,166.0,0.0
133301,0.622,0.781,-0.534,19.397,-0.870,3.679,126.0,0.0
133391,0.583,0.605,-0.497,25.573,-7.015,-1.344,127.0,0.0
133480,0.585,0.787,-0.589,39.092,-7.252,-1.542,128.0,0.0
133571,0.576,0.542,-0.401,15.244,-11.275,-6.733,152.0,0.0
133662,0.659,0.498,-0.353,21.573,-2.420,-7.359,155.0,0.0
133752,0.755,0.507,-0.308,-15.595,3.962,-0.244,168.0,174.0
133843,0.720,0.368,-0.300,-30.000,4.260,-1.031,171.0,174.0
133935,0.808,-0.153,0.279,1.496,-19.809,-19.351,137.0,174.0
134024,0.771,0.106,-0.056,22.450,0.221,11.244,137.0,174.0
134112,0.737,0.653,-0.520,0.656,6.473,7.740,139.0,174.0
134202,0.656,0.747,-0.528,6.977,6.527,7.786,162.0,174.0
134292,0.676,0.804,-0.518,9.710,8.099,10.046,161.0,174.0
134382,0.689,0.746,-0.486,-12.931,3.061,-0.344,163.0,175.0
134473,0.683,0.498,-0.378,2.061,-4.031,0.176,169.0,174.0
134563,0.716,0.650,-0.471,3.176,3.351,4.710,170.0,174.0
134652,0.633,0.681,-0.484,-0.870,1.649,-2.107,153.0,174.0
134746,0.698,0.651,-0.446,12.855,-2.733,5.252,157.0,174.0
134836,0.685,0.618,-0.420,-7.786,2.137,-0.992,152.0,172.0
134924,0.651,0.643,-0.441,-1.748,-4.115,-0.084,127.0,175.0
135012,0.652,0.641,-0.441,-11.534,-2.771,-3.557,125.0,173.0
135101,0.646,0.619,-0.370,-19.557,-10.748,-14.786,124.0,0.0
135191,0.632,0.662,-0.394,2.771,-21.794,-13.252,123.0,0.0
135280,0.582,0.716,-0.466,-9.519,-13.328,-16.176,119.0,0.0
135369,0.540,0.705,-0.420,-0.481,-16.702,-17.015,118.0,0.0
135461,0.492,0.668,-0.362,-9.031,-30.275,-23.985,118.0,0.0
135552,0.402,0.622,-0.384,6.519,-48.168,-44.863,120.0,0.0
135641,0.299,0.707,-0.503,0.336,-50.832,-47.786,123.0,0.0
135730,0.249,0.812,-0.543,5.130,-47.992,-47.908,126.0,0.0
135820,0.067,0.717,-0.520,-3.038,-42.290,-61.290,129.0,0.0
135910,-0.021,0.797,-0.505,-45.237,-28.840,-83.069,132.0,0.0
135995,-0.177,0.736,-0.537,-38.794,-20.756,-131.824,136.0,104.0
136080,-0.359,0.913,-0.511,-59.160,-6.397,-107.229,142.0,103.0
136171,-0.443,1.040,-0.448,-5.908,8.832,-109.771,147.0,0.0
136268,-0.469,0.933,-0.260,-134.458,6.809,-114.237,185.0,0.0
136361,-0.791,0.854,-0.156,-102.168,30.092,-76.748,0.0,0.0
136456,-0.822,0.832,-0.104,-104.397,35.374,-7.420,192.0,0.0
136550,-0.741,0.831,0.007,-141.840,16.832,24.969,0.0,0.0
136648,-0.679,0.930,0.086,-131.511,5.947,30.725,0.0,137.0
136738,-0.667,0.804,0.223,-184.397,1.344,26.221,0.0,138.0
136826,-0.604,0.442,0.504,-138.420,-20.496,14.366,0.0,112.0
136919,-0.587,0.401,0.642,-92.214,-30.832,14.191,0.0,175.0
137015,-0.575,0.411,0.688,-58.901,-34.374,14.076,0.0,0.0
137108,-0.523,0.317,0.806,-33.748,-46.534,19.267,0.0,0.0
137201,-0.383,0.323,0.788,-9.405,-37.450,10.176,0.0,0.0
137294,-0.374,0.300,0.781,-13.015,-7.053,11.603,0.0,0.0
137388,-0.394,0.324,0.817,-8.557,3.786,5.718,0.0,0.0
137481,-0.426,0.393,0.829,0.435,1.084,-3.015,0.0,0.0
137574,-0.392,0.340,0.836,-2.214,3.588,-2.802,0.0,0.0
137667,-0.405,0.335,0.845,2.939,2.885,-2.046,0.0,0.0
137760,-0.404,0.365,0.836,3.611,0.397,-3.840,0.0,0.0
137857,-0.391,0.335,0.845,10.748,1.099,-2.656,0.0,0.0
137950,-0.368,0.210,0.802,46.916,11.397,-7.321,0.0,0.0
138043,-0.486,0.068,0.657,100.450,52.595,-53.374,0.0,0.0
138133,-0.710,0.263,0.646,73.634,70.176,-70.641,0.0,144.0
138222,-0.754,0.340,0.440,174.557,61.267,-68.130,0.0,137.0
138316,-0.873,0.488,0.103,250.130,23.679,-85.031,0.0,0.0
138409,-0.989,0.761,-0.124,132.481,-15.275,-112.901,0.0,0.0
138503,-1.038,0.438,-0.014,22.840,7.901,-101.565,0.0,0.0
138596,-1.059,0.358,0.012,-23.870,9.214,-31.649,0.0,0.0
138692,-0.957,0.338,0.028,18.733,-4.565,22.649,0.0,0.0
138785,-0.908,0.393,0.076,-35.076,-4.992,24.985,0.0,0.0
138878,-0.929,0.321,0.008,-163.924,7.122,1.511,0.0,0.0
138972,-0.866,0.058,0.167,-102.122,-8.679,-20.244,0.0,0.0
139066,-1.268,0.551,-0.524,-203.901,31.313,-101.351,0.0,0.0
139159,-0.880,-0.131,0.138,-57.252,5.756,-10.779,0.0,0.0
139252,-0.932,-0.335,0.199,-79.420,3.160,-1.496,0.0,0.0
139335,-0.930,-0.145,0.051,-142.160,18.664,-22.908,17.0,0.0
139418,-0.909,-0.352,0.091,-170.573,14.947,-15.252,12.0,0.0
139504,-0.915,-0.001,-0.096,-25.527,4.519,-11.542,11.0,0.0
139587,-0.945,-0.388,0.134,10.366,-3.847,3.756,12.0,0.0
139669,-0.935,-0.396,0.146,-44.076,2.931,-2.336,11.0,0.0
139752,-0.959,-0.116,0.004,-20.794,2.695,15.214,10.0,0.0
139835,-0.978,-0.031,-0.109,-43.321,13.176,4.015,9.0,0.0
139917,-1.064,0.092,-0.116,17.282,5.504,0.260,9.0,0.0
140000,-1.308,0.638,-0.417,76.305,-5.244,19.885,11.0,0.0
140083,-1.106,0.123,-0.130,29.405,9.702,-6.733,10.0,0.0
140165,-1.034,0.068,-0.125,8.603,2.580,-4.214,12.0,0.0
140251,-0.985,0.083,-0.130,-13.458,5.244,0.374,10.0,0.0
140334,-0.932,-0.082,-0.078,-16.427,7.611,-3.183,11.0,0.0
140416,-0.947,-0.047,-0.004,28.252,-2.626,4.069,9.0,0.0
140498,-0.951,-0.264,0.047,49.466,3.023,-6.084,11.0,0.0
140593,-1.240,-0.290,0.052,16.473,3.015,8.198,0.0,0.0
140676,-1.031,0.064,-0.108,-35.893,4.557,-4.374,17.0,0.0
140759,-0.992,0.199,-0.176,-18.122,4.092,-2.076,16.0,0.0
140852,-1.093,0.112,-0.106,-1.702,-0.069,13.252,0.0,0.0
140935,-0.991,-0.055,-0.061,2.611,6.420,-0.252,12.0,0.0
141021,-1.013,-0.041,-0.100,-5.359,1.374,4.756,16.0,0.0
141104,-0.976,-0.015,-0.086,-0.252,1.840,1.695,17.0,0.0
141187,-0.956,-0.045,-0.073,12.237,3.237,2.328,17.0,0.0
141270,-1.034,-0.099,-0.049,-1.145,0.641,11.580,12.0,0.0
141353,-0.960,-0.110,-0.064,9.809,-4.183,21.534,17.0,0.0
141436,-1.066,-0.062,-0.032,-3.145,-1.427,1.015,11.0,0.0
141519,-0.988,0.196,-0.180,6.641,-1.985,-3.794,12.0,0.0
141602,-1.022,-0.027,-0.085,8.328,-0.740,0.015,11.0,0.0
141685,-0.981,0.058,-0.115,17.855,-3.870,7.473,17.0,0.0
141771,-0.993,0.046,-0.148,-5.504,1.908,2.046,16.0,0.0
141854,-1.018,0.050,-0.193,12.748,3.328,0.931,16.0,0.0
141937,-0.966,-0.046,-0.101,23.206,3.542,-5.336,19.0,0.0
142020,-1.013,-0.094,-0.070,12.527,-5.771,10.198,12.0,0.0
142104,-0.912,-0.017,-0.088,55.504,-8.221,20.382,17.0,0.0
142197,-1.019,-0.143,-0.022,-29.725,8.458,-3.756,0.0,0.0
142281,-1.004,0.113,-0.148,-6.206,4.679,-3.908,16.0,0.0
142364,-1.076,0.158,-0.127,-4.130,-0.450,-1.817,12.0,0.0
142447,-0.935,-0.042,-0.069,38.305,-3.122,11.763,10.0,0.0
142533,-0.958,-0.142,-0.034,-0.015,1.718,-4.412,10.0,0.0
142616,-0.864,-0.139,-0.052,8.588,4.992,-6.275,10.0,0.0
142699,-0.972,-0.292,0.013,-8.557,6.519,-10.435,11.0,0.0
142792,-1.031,-0.024,-0.105,-3.985,-2.382,-2.611,0.0,0.0
142876,-0.999,0.098,-0.159,-29.847,0.023,-3.107,12.0,0.0
142959,-1.029,0.074,-0.140,-5.947,1.061,3.924,12.0,0.0
143042,-0.982,-0.050,-0.081,0.275,-2.000,12.611,11.0,0.0
143125,-1.021,-0.034,-0.118,-38.366,2.458,-2.359,16.0,0.0
143211,-1.005,0.087,-0.156,-11.511,0.656,5.183,10.0,0.0
143294,-0.985,-0.095,-0.058,-19.458,0.870,2.603,11.0,0.0
143377,-1.081,0.156,-0.148,-24.656,-11.229,-0.656,10.0,0.0
143460,-1.078,0.044,-0.145,22.992,-11.641,11.870,10.0,0.0
143554,-0.917,-0.312,0.013,17.733,-2.771,-0.237,0.0,0.0
143637,-1.011,-0.337,0.084,18.046,-15.611,3.985,16.0,0.0
143731,-0.909,-0.145,0.002,-0.931,-11.824,-2.779,0.0,0.0
143814,-1.042,-0.219,0.019,-4.565,-1.817,-7.435,17.0,0.0
143897,-0.901,-0.112,-0.047,-55.160,5.588,-7.809,11.0,0.0
143984,-0.847,-0.264,0.052,-27.847,7.275,-6.099,12.0,0.0
144067,-0.978,-0.242,0.050,-1.756,-2.107,3.573,16.0,0.0
144150,-0.992,-0.026,-0.059,-53.450,0.252,3.389,13.0,0.0
144234,-1.042,0.316,-0.192,-1.435,-1.840,7.771,16.0,0.0
144317,-0.993,-0.190,0.004,54.809,0.450,-0.015,16.0,0.0
144401,-0.940,-0.494,0.144,-22.443,1.603,-5.565,13.0,0.0
144484,-1.016,0.187,-0.135,-59.290,-3.099,-6.771,16.0,0.0
144568,-1.013,0.534,-0.270,21.649,-3.382,7.756,18.0,0.0
144651,-0.998,-0.177,0.013,72.053,-0.779,7.779,17.0,0.0
144738,-0.969,-0.437,0.128,5.534,3.473,-1.893,17.0,0.0
144821,-0.941,0.167,-0.129,-45.962,3.664,-5.153,16.0,0.0
144905,-1.065,0.163,-0.120,5.977,2.664,5.725,16.0,0.0
144999,-1.041,-0.107,-0.030,22.015,1.191,4.145,0.0,0.0
145082,-1.001,-0.116,-0.108,-5.725,10.183,-1.153,17.0,0.0
145166,-1.044,0.115,-0.117,-13.756,2.649,10.710,17.0,0.0
145250,-0.948,-0.073,-0.001,-8.427,2.176,6.618,17.0,0.0
145333,-0.893,-0.138,-0.014,2.076,4.160,-4.496,12.0,0.0
145416,-0.912,0.088,-0.091,16.710,-5.641,-1.573,12.0,0.0
145503,-0.819,-0.198,0.034,63.893,-8.145,4.763,12.0,0.0
145586,-0.945,-0.096,-0.025,8.733,1.115,-3.450,12.0,0.0
145669,-0.965,-0.062,-0.041,2.122,1.763,-5.122,14.0,0.0
145753,-0.990,0.214,-0.156,-7.916,1.626,6.947,17.0,0.0
145837,-1.012,0.186,-0.143,9.542,1.450,2.870,17.0,0.0
145920,-1.010,-0.013,-0.081,11.359,2.931,1.702,19.0,0.0
146003,-1.086,-0.086,-0.067,18.817,3.328,2.137,16.0,0.0
146087,-0.988,-0.124,-0.025,-1.511,3.511,-1.992,16.0,0.0
146170,-1.023,0.061,-0.120,-9.855,7.450,-8.038,13.0,0.0
146257,-0.967,-0.032,-0.064,20.954,2.740,0.634,12.0,0.0
146340,-1.070,0.010,-0.109,10.595,-0.481,3.382,11.0,0.0
146424,-0.971,0.072,-0.125,7.344,1.023,-3.878,12.0,0.0
146507,-0.965,0.042,-0.108,12.878,1.069,-4.366,13.0,0.0
146591,-0.974,-0.070,-0.069,6.351,3.206,-7.313,13.0,0.0
146674,-1.003,-0.138,-0.034,16.099,-5.641,3.275,13.0,0.0
146758,-1.010,-0.087,0.012,4.794,-15.557,13.550,13.0,0.0
146852,-0.995,-0.112,-0.032,191.244,-44.359,21.893,0.0,0.0
146947,-1.026,-0.107,0.100,129.763,-45.137,32.527,0.0,0.0
147044,-0.938,0.235,0.056,128.023,-34.649,39.427,0.0,0.0
147138,-0.930,0.307,0.083,80.427,-10.336,41.962,0.0,0.0
147232,-0.942,0.226,0.125,45.634,3.878,31.000,0.0,0.0
147326,-0.915,0.282,0.089,47.107,1.076,17.481,0.0,0.0
147421,-0.968,0.387,0.072,40.313,7.931,22.573,0.0,0.0
147515,-0.947,0.468,0.079,13.924,4.664,47.931,0.0,0.0
147609,-0.941,0.582,0.032,-5.779,0.031,70.496,0.0,0.0
147708,-0.815,0.689,0.050,-18.763,0.092,85.847,0.0,0.0
147802,-0.690,0.791,0.042,-32.679,-1.466,90.176,0.0,0.0
147901,-0.580,0.647,0.198,-126.183,5.924,76.092,167.0,141.0
147990,-0.490,0.682,0.335,-79.511,9.908,69.863,141.0,144.0
148081,-0.462,0.854,0.319,-124.809,5.939,46.130,182.0,147.0
148174,-0.394,0.592,0.562,-169.206,-0.603,23.916,0.0,151.0
148268,-0.454,0.518,0.764,-70.412,-5.863,18.183,0.0,156.0
148363,-0.296,0.471,0.779,-23.519,-12.336,18.153,0.0,194.0
148458,-0.260,0.486,0.750,-15.046,-7.053,9.435,0.0,0.0
148554,-0.331,0.546,0.787,-12.183,6.336,6.710,0.0,0.0
148649,-0.311,0.477,0.802,-12.962,2.756,6.763,0.0,0.0
148748,-0.278,0.470,0.810,-5.427,2.130,2.321,0.0,0.0
148843,-0.300,0.534,0.822,-3.038,0.183,0.695,0.0,0.0
148938,-0.280,0.534,0.789,4.916,1.924,2.229,0.0,0.0
149035,-0.295,0.521,0.807,1.153,1.160,-0.221,0.0,0.0
149130,-0.294,0.511,0.823,0.931,-1.519,-0.351,0.0,0.0
149225,-0.292,0.512,0.796,5.221,-0.282,-1.542,0.0,0.0
149321,-0.298,0.510,0.812,-2.855,2.145,-0.542,0.0,0.0
149416,-0.295,0.513,0.809,-2.733,-0.183,-2.366,0.0,0.0
149513,-0.301,0.540,0.779,-6.695,7.954,2.634,0.0,0.0
149611,-0.315,0.463,0.826,-16.321,18.550,9.145,0.0,196.0
149706,-0.344,0.467,0.839,-7.115,9.733,-0.908,0.0,196.0
149803,-0.340,0.480,0.818,-8.023,4.786,-0.519,0.0,0.0
149898,-0.342,0.485,0.811,-3.939,1.481,-0.969,0.0,195.0
149993,-0.354,0.490,0.806,1.282,0.687,-0.191,0.0,197.0
150088,-0.344,0.483,0.809,0.130,1.282,2.160,0.0,196.0
150183,-0.360,0.480,0.814,0.580,1.198,1.634,0.0,197.0
150280,-0.354,0.479,0.805,1.702,0.130,1.191,0.0,197.0
150375,-0.356,0.455,0.813,4.618,-1.160,-2.718,0.0,0.0
150474,-0.362,0.474,0.837,1.382,1.626,-1.924,0.0,0.0
150569,-0.347,0.471,0.801,-3.473,1.290,2.489,0.0,0.0
150665,-0.356,0.448,0.816,0.122,0.878,-0.924,0.0,0.0
150761,-0.364,0.496,0.802,2.244,-0.748,-3.382,0.0,196.0
150856,-0.346,0.482,0.799,5.328,1.702,0.687,0.0,0.0
