Timestamp(ms),AccelX(g),AccelY(g),AccelZ(g),GyroX(deg/s),GyroY(deg/s),GyroZ(deg/s),DistanceLeft(cm),DistanceRight(cm)
199027,0.923,-0.082,-0.441,7.107,-3.313,-3.664,119.0,155.0
199114,0.921,-0.073,-0.427,5.076,-1.061,-2.382,119.0,155.0
199200,0.918,-0.060,-0.434,4.450,-1.756,-1.198,119.0,155.0
199287,0.907,-0.093,-0.441,4.855,0.466,-1.802,119.0,155.0
199374,0.877,-0.073,-0.471,10.992,11.687,-3.924,118.0,155.0
199460,0.772,-0.029,-0.449,30.779,34.168,-1.214,118.0,155.0
199553,0.823,-0.087,-0.357,32.351,51.221,0.374,0.0,155.0
199642,0.987,-0.019,-0.277,32.557,55.198,-1.840,118.0,156.0
199729,1.042,-0.150,-0.106,38.130,43.473,-3.176,119.0,157.0
199822,1.059,-0.149,0.018,32.779,27.076,-7.802,119.0,158.0
199908,0.896,-0.079,0.003,34.496,20.870,-8.962,121.0,158.0
199994,1.966,-0.175,0.103,16.687,21.649,-5.198,119.0,159.0
200080,0.875,0.041,-0.035,11.908,30.962,4.718,119.0,160.0
200166,0.917,-0.128,0.057,2.290,35.412,8.046,119.0,160.0
200252,0.987,-0.127,0.124,13.420,35.336,0.496,118.0,161.0
200333,0.988,-0.077,0.147,22.397,38.191,0.183,23.0,162.0
200422,0.993,-0.186,0.214,24.046,50.336,-7.351,119.0,163.0
200509,0.978,-0.060,0.215,37.504,68.397,-27.160,119.0,164.0
200595,0.929,-0.052,0.247,49.443,87.122,-68.435,118.0,166.0
200682,0.674,0.163,0.281,88.244,87.153,-117.092,120.0,169.0
200770,0.721,0.441,0.768,128.450,103.878,-69.206,121.0,0.0
200863,0.282,0.420,0.828,-84.557,121.443,-92.458,0.0,0.0
200956,0.181,0.480,0.748,112.634,73.351,-59.298,0.0,0.0
201050,-0.010,0.938,0.661,-14.000,66.542,-60.336,0.0,0.0
201146,-0.042,1.049,0.708,12.786,30.450,-7.122,0.0,0.0
201239,0.012,0.674,0.721,-125.809,33.954,21.473,0.0,0.0
201332,0.094,0.481,0.839,-24.252,19.344,30.466,0.0,0.0
201414,-0.053,0.190,0.933,-49.031,26.519,2.290,17.0,183.0
201496,-0.020,0.401,0.895,6.702,25.031,-22.763,10.0,0.0
201577,-0.121,0.271,0.990,-18.153,-2.504,-50.695,9.0,184.0
201659,-0.161,-0.777,1.561,47.756,1.275,-98.763,9.0,180.0
201752,-0.371,0.589,0.481,137.427,-77.092,-3.527,0.0,0.0
201835,-0.579,0.828,0.154,5.947,-35.779,8.733,17.0,0.0
201920,0.037,0.420,0.880,-0.420,13.282,-16.008,17.0,0.0
202003,-0.090,0.507,0.723,16.496,-5.527,-6.290,19.0,0.0
202086,-0.248,1.094,0.298,18.603,-2.397,3.412,23.0,0.0
202169,0.037,0.837,0.565,27.733,-3.435,13.145,25.0,0.0
202253,-0.069,0.741,0.725,-0.740,6.275,8.786,25.0,0.0
202336,0.094,0.517,0.882,6.504,2.115,8.023,24.0,0.0
202429,-0.021,0.675,0.670,13.603,0.702,7.611,0.0,0.0
202512,0.023,0.731,0.653,0.771,0.336,2.702,30.0,0.0
202596,-0.043,1.052,0.428,-13.046,0.321,-7.939,30.0,0.0
202683,-0.003,0.834,0.540,-2.519,1.321,2.389,57.0,0.0
202776,-0.006,0.859,0.429,8.427,-0.504,3.733,0.0,0.0
202861,0.042,0.985,0.387,7.771,-2.840,4.649,58.0,0.0
202945,0.039,0.910,0.525,4.824,-1.412,-0.008,30.0,0.0
203028,0.040,0.869,0.566,-3.603,0.740,2.176,29.0,0.0
203121,0.070,0.891,0.515,-1.397,1.275,1.427,0.0,0.0
203205,-0.001,0.883,0.463,5.198,-0.321,1.679,30.0,0.0
203288,0.009,0.874,0.510,7.038,-0.687,3.344,30.0,0.0
203372,0.011,0.878,0.490,0.931,-0.962,0.740,29.0,0.0
203465,0.012,0.906,0.458,-4.389,0.420,1.908,0.0,0.0
203551,0.063,0.903,0.503,-20.740,2.748,-3.008,27.0,0.0
203635,0.031,0.886,0.466,-13.229,2.824,-6.458,31.0,0.0
203718,0.007,0.790,0.592,-23.962,2.359,-5.275,30.0,0.0
203802,0.020,0.851,0.557,-41.443,2.939,-8.908,29.0,0.0
203895,0.101,0.758,0.701,-26.260,-1.061,-20.634,0.0,0.0
203979,0.010,0.871,0.555,-2.405,-8.534,-5.214,30.0,0.0
204063,-0.129,0.846,0.396,220.595,-45.397,-2.412,33.0,0.0
204156,-0.115,1.642,-0.548,250.130,-79.305,40.756,0.0,0.0
204250,0.158,0.828,0.081,-18.321,40.672,33.443,0.0,0.0
204347,0.058,0.626,0.049,15.244,31.634,-51.450,0.0,0.0
204440,0.127,1.937,-0.073,-109.229,22.550,-29.145,0.0,0.0
204533,-0.063,0.994,0.238,-7.985,13.672,-0.076,0.0,0.0
204626,0.072,1.159,0.073,-11.015,-8.534,9.756,0.0,0.0
204720,-0.022,0.898,0.434,-10.237,8.008,0.573,0.0,0.0
204814,0.090,0.982,0.221,-9.244,5.550,4.595,0.0,0.0
204907,0.059,0.954,0.298,-8.344,6.389,4.069,0.0,0.0
205000,0.078,0.981,0.261,-1.305,2.756,1.580,0.0,0.0
205093,0.058,0.952,0.343,-5.076,5.573,1.817,0.0,0.0
205190,0.074,0.971,0.294,5.786,2.573,1.153,0.0,0.0
205283,0.079,0.971,0.276,-2.076,2.115,3.305,0.0,0.0
205376,0.045,0.966,0.284,-3.435,4.924,-0.656,0.0,0.0
205470,0.074,0.991,0.250,6.511,-1.359,0.145,0.0,0.0
205563,0.073,0.964,0.293,3.160,2.748,-0.473,0.0,0.0
205657,0.064,0.986,0.248,0.107,0.389,0.023,0.0,0.0
205750,0.113,0.940,0.271,13.847,-4.176,4.321,0.0,0.0
205843,0.071,0.950,0.308,-6.031,1.489,-0.160,0.0,0.0
205936,0.100,0.939,0.317,-15.679,2.389,-5.466,0.0,0.0
206030,0.104,0.966,0.384,-26.702,4.939,-8.122,0.0,0.0
206127,-0.078,0.789,0.547,48.779,-0.450,0.473,0.0,0.0
206220,0.121,1.194,0.166,112.771,-11.542,0.817,0.0,0.0
206314,-0.285,1.125,-0.144,101.718,3.924,-2.695,0.0,0.0
206407,0.053,1.346,-0.349,51.267,-7.107,-6.336,0.0,0.0
206500,0.011,1.101,-0.231,-6.412,0.435,-7.702,0.0,0.0
206595,-0.024,1.167,-0.133,8.176,-8.229,14.695,0.0,0.0
206688,0.020,1.035,-0.037,-13.557,-18.977,8.435,0.0,0.0
206782,0.094,0.807,0.003,-16.893,-16.626,3.023,0.0,0.0
206875,0.097,1.052,-0.183,8.710,-9.435,9.924,0.0,0.0
206972,0.152,0.952,-0.119,-4.099,-0.771,16.328,0.0,0.0
207066,0.134,0.841,-0.031,-14.099,0.656,0.939,0.0,0.0
207159,0.107,0.921,0.004,-5.740,-8.427,-9.061,0.0,0.0
207253,0.128,1.153,-0.182,-34.221,-7.832,-9.237,0.0,0.0
207346,0.103,1.009,-0.044,2.344,-2.893,11.015,0.0,0.0
207440,0.123,0.937,-0.059,1.504,-4.824,4.351,0.0,0.0
207534,0.141,0.971,-0.119,-1.641,-5.695,-7.008,0.0,0.0
207628,0.133,1.064,-0.115,-25.450,-1.267,-3.664,0.0,0.0
207721,0.104,0.961,0.029,-0.733,1.626,10.695,0.0,0.0
207818,0.129,0.960,-0.033,-12.847,-4.733,-4.870,0.0,0.0
207911,0.117,1.023,-0.035,-54.450,-2.137,-6.214,0.0,0.0
208006,0.139,1.016,0.157,-55.885,12.229,-7.481,0.0,0.0
208100,0.087,0.979,0.253,-29.710,2.809,-1.855,0.0,0.0
208193,0.095,0.965,0.251,-12.435,2.992,-0.130,0.0,0.0
208287,0.101,0.970,0.248,-2.458,1.679,-0.786,0.0,0.0
208381,0.113,0.970,0.237,-6.481,0.397,-2.107,0.0,0.0
208476,0.104,0.971,0.251,-4.893,2.985,-1.557,0.0,0.0
208569,0.076,0.973,0.277,-10.443,2.840,1.855,0.0,0.0
208663,0.091,0.980,0.263,16.191,-3.229,2.458,0.0,0.0
208760,0.101,0.984,0.216,-2.160,2.641,-1.557,0.0,0.0
208855,0.111,0.997,0.188,-10.382,7.198,-7.115,0.0,0.0
208949,0.026,0.989,0.267,-40.374,7.710,-11.412,0.0,0.0
209043,0.044,0.948,0.310,3.901,-1.221,-3.954,0.0,0.0
209137,0.067,0.991,0.269,-2.840,-0.893,-2.679,0.0,0.0
209230,0.058,0.946,0.364,-0.061,-2.733,3.603,0.0,0.0
209325,0.143,1.008,0.167,-25.771,0.641,-9.511,0.0,0.0
209419,0.041,0.764,0.633,14.328,-1.710,-0.534,0.0,0.0
209513,0.083,0.913,0.422,0.176,1.840,2.641,0.0,0.0
209610,0.051,0.946,0.377,-1.565,-0.046,0.015,0.0,0.0
209704,0.035,0.918,0.409,-9.359,1.863,0.878,0.0,0.0
209798,0.033,0.957,0.350,4.557,-1.122,3.267,0.0,0.0
209892,0.098,0.950,0.331,8.809,-1.374,-2.115,0.0,0.0
209986,0.070,0.947,0.359,-1.947,-1.206,-1.664,0.0,0.0
210070,0.075,0.934,0.390,-18.305,1.374,-5.702,25.0,0.0
210164,0.017,0.891,0.455,10.679,-2.084,3.458,0.0,0.0
210248,0.038,0.913,0.429,-9.618,2.321,-1.779,24.0,0.0
210342,0.040,0.924,0.421,1.298,-0.450,-0.656,0.0,0.0
210430,0.052,0.941,0.376,-9.275,1.176,-0.489,25.0,0.0
210525,0.043,0.901,0.446,1.931,-0.389,1.336,0.0,0.0
210618,0.039,0.894,0.448,-5.466,-1.611,0.954,0.0,0.0
210712,0.026,0.935,0.402,-0.214,-3.534,3.656,0.0,0.0
210806,0.035,1.007,0.281,-3.405,-1.443,1.473,0.0,0.0
210900,0.061,0.925,0.378,8.710,-1.458,0.847,0.0,0.0
210995,0.032,0.944,0.342,11.076,-4.344,9.145,0.0,0.0
211089,0.081,0.915,0.375,1.824,-2.290,11.176,0.0,0.0
211183,0.182,0.934,0.321,13.603,-4.397,-0.809,0.0,0.0
211277,0.062,1.015,0.259,-53.611,12.031,-2.374,0.0,0.0
211380,0.112,0.854,0.509,-53.122,13.527,-4.076,0.0,0.0
211473,-0.033,0.860,0.580,-5.267,-8.969,29.328,0.0,0.0
211566,0.172,0.884,0.438,-39.840,-0.221,21.985,0.0,0.0
211659,0.203,0.722,0.535,-28.863,12.794,8.840,0.0,0.0
211752,0.162,0.744,0.625,-38.298,23.420,-2.206,0.0,0.0
211846,0.079,0.864,0.679,-49.008,13.710,1.565,0.0,0.0
211939,0.097,0.821,0.667,-10.023,3.023,19.504,0.0,0.0
212032,0.113,0.641,0.722,-55.160,6.679,11.298,0.0,0.0
212115,0.134,0.632,0.781,-48.901,11.542,22.504,18.0,0.0
212211,0.089,0.585,0.873,-63.603,12.939,19.122,0.0,0.0
212304,0.115,0.533,0.949,16.863,-19.954,32.550,0.0,0.0
212398,0.259,0.599,0.813,-2.252,-37.405,38.244,0.0,0.0
212491,0.381,0.616,0.734,32.969,-24.977,77.397,0.0,0.0
212584,0.406,0.738,0.673,12.405,-5.206,121.084,0.0,0.0
212678,0.386,0.441,0.772,-44.893,18.748,160.069,0.0,0.0
212771,0.399,0.245,0.717,-54.733,11.183,149.565,0.0,0.0
212860,0.443,-0.125,0.696,-115.359,21.191,109.176,125.0,0.0
212954,0.531,-0.812,0.898,-116.023,-35.679,0.000,0.0,0.0
213050,0.577,-0.194,0.672,61.626,-21.366,14.786,0.0,0.0
213144,0.716,-0.083,0.557,-37.695,-27.908,37.855,0.0,0.0
213237,0.648,-0.651,0.739,-27.229,-26.153,21.290,0.0,0.0
213327,0.615,-0.698,1.029,236.015,-15.336,65.718,139.0,0.0
213415,0.648,0.453,0.434,37.748,-5.573,119.405,114.0,0.0
213505,0.623,-0.798,0.441,-250.137,-33.725,-40.748,113.0,0.0
213598,0.690,-1.055,0.543,-55.084,5.809,-15.168,0.0,0.0
213692,0.717,-0.591,0.440,127.855,14.435,15.405,0.0,0.0
213780,0.611,-0.350,0.578,69.389,8.672,2.328,113.0,0.0
213871,0.590,-0.401,0.693,-5.359,5.542,-7.344,114.0,0.0
213960,0.612,-0.418,0.636,-0.656,-4.351,6.656,113.0,0.0
214048,0.630,-0.497,0.617,-19.733,-1.611,-2.794,113.0,0.0
214137,0.626,-0.487,0.634,12.298,1.244,0.214,113.0,0.0
214225,0.617,-0.458,0.636,-1.176,0.641,-2.634,113.0,0.0
214315,0.635,-0.430,0.619,-3.336,0.298,-0.550,113.0,0.0
214403,0.626,-0.482,0.635,-1.916,0.336,-0.107,113.0,0.0
214492,0.632,-0.481,0.634,-2.405,1.779,-1.748,114.0,0.0
214580,0.630,-0.454,0.622,-2.473,1.023,-0.672,114.0,0.0
214672,0.634,-0.491,0.645,-7.313,0.305,-1.267,120.0,0.0
214760,0.627,-0.465,0.625,16.557,1.092,3.656,113.0,0.0
214849,0.631,-0.462,0.620,-14.649,1.229,-3.282,113.0,0.0
214938,0.626,-0.475,0.628,1.870,1.954,-0.840,114.0,0.0
215026,0.628,-0.457,0.628,-8.443,0.939,-1.427,115.0,0.0
215115,0.639,-0.516,0.624,-5.527,3.092,-4.550,119.0,0.0
215204,0.673,-0.530,0.477,-32.595,16.458,-30.344,120.0,0.0
215298,0.730,-0.743,0.541,-42.031,42.084,-70.130,0.0,0.0
215392,0.615,-1.032,0.457,15.450,62.122,-192.092,0.0,0.0
215488,0.250,-0.770,0.067,189.084,15.748,-250.137,0.0,0.0
215571,-0.588,2.000,-0.022,217.847,43.389,-250.137,0.0,16.0
215665,0.017,1.591,0.518,12.145,64.267,-160.618,0.0,0.0
215759,0.052,0.022,1.003,9.450,-15.557,27.221,0.0,0.0
215853,-0.127,1.284,0.165,190.145,-34.740,28.771,0.0,0.0
215937,0.104,1.038,0.196,-58.458,9.870,-5.580,23.0,0.0
216019,0.044,0.563,0.990,-36.061,6.183,1.870,19.0,0.0
216102,-0.028,0.967,0.399,-1.427,0.450,0.786,19.0,0.0
216186,-0.028,0.980,0.405,8.267,0.878,-0.954,23.0,0.0
216272,0.017,0.881,0.506,8.397,-2.389,2.046,21.0,0.0
216356,0.024,0.830,0.567,-0.244,1.252,3.496,20.0,0.0
216439,0.018,0.855,0.546,-11.771,-0.023,3.855,21.0,0.0
216523,0.003,0.816,0.551,-5.626,-0.496,0.092,21.0,0.0
216606,0.065,0.910,0.452,19.450,-1.504,2.550,21.0,0.0
216690,0.035,0.774,0.624,12.260,1.252,3.687,22.0,0.0
216773,0.056,0.886,0.499,-15.313,3.634,-2.824,22.0,0.0
216857,0.053,0.799,0.607,11.359,-0.084,2.229,23.0,0.0
216941,0.015,0.797,0.592,0.153,1.710,1.053,22.0,0.0
217027,0.045,0.905,0.456,7.382,-1.466,-1.038,23.0,0.0
217111,0.076,0.835,0.525,6.695,0.664,2.053,25.0,0.0
217195,0.056,0.864,0.529,-1.481,1.069,1.672,22.0,0.0
217278,0.051,0.920,0.451,-3.977,0.427,-1.061,23.0,0.0
217362,0.047,0.915,0.431,-3.763,-1.031,-1.756,22.0,0.0
217446,0.047,0.847,0.514,10.420,1.214,3.779,25.0,0.0
217530,0.044,0.916,0.450,-4.870,0.794,-2.695,22.0,0.0
217613,0.043,0.874,0.510,-1.374,-1.244,-2.290,21.0,0.0
217697,0.092,0.956,0.395,3.679,-3.099,-0.595,24.0,0.0
217784,-0.001,0.807,0.608,-1.786,-0.511,-1.321,22.0,0.0
217868,0.056,0.919,0.447,2.771,0.061,-0.061,22.0,0.0
217952,0.051,0.834,0.553,11.359,0.962,2.382,21.0,0.0
218035,0.093,0.920,0.457,-5.458,3.695,0.855,21.0,0.0
218119,0.049,0.910,0.446,-6.145,1.008,0.198,21.0,0.0
218202,0.023,0.907,0.456,-2.336,-0.359,-1.557,22.0,0.0
218286,0.050,0.886,0.476,5.817,-1.519,-1.008,25.0,0.0
218370,0.031,0.823,0.551,0.023,1.076,1.511,23.0,0.0
218454,0.032,0.901,0.482,-4.939,1.305,-0.542,26.0,0.0
218548,0.054,0.885,0.490,3.595,0.061,0.855,0.0,0.0
218635,0.057,0.874,0.490,3.282,1.153,1.382,25.0,0.0
218718,0.053,0.897,0.470,-3.321,1.237,-1.519,23.0,0.0
218802,0.042,0.864,0.515,4.206,0.038,0.504,23.0,0.0
218886,0.036,0.852,0.526,0.496,0.588,0.534,25.0,0.0
218970,0.058,0.907,0.458,-6.992,0.786,-0.336,25.0,0.0
219054,0.023,0.854,0.498,-5.664,-0.260,0.313,27.0,0.0
219138,0.038,0.865,0.496,-7.351,0.511,0.504,23.0,0.0
219222,0.043,0.896,0.472,0.198,0.992,-0.252,23.0,0.0
219305,0.046,0.892,0.479,2.382,1.924,1.840,26.0,0.0
219403,0.046,0.892,0.476,6.038,0.992,0.954,0.0,0.0
219497,0.047,0.848,0.519,11.260,0.405,1.809,0.0,0.0
219590,0.042,0.865,0.502,0.947,1.099,1.069,0.0,0.0
219684,0.057,0.886,0.486,-0.031,0.954,0.557,0.0,0.0
219779,0.050,0.898,0.469,-4.992,1.115,-0.611,0.0,0.0
219873,0.051,0.927,0.430,-3.740,-0.229,-2.809,0.0,0.0
219966,0.011,0.933,0.415,1.168,-1.473,-3.450,0.0,0.0
220050,0.050,0.884,0.490,-2.718,0.947,-0.153,25.0,0.0
220134,0.074,0.869,0.511,0.130,1.229,1.313,24.0,0.0
220219,0.052,0.835,0.552,2.359,1.595,3.359,26.0,0.0
220306,0.008,0.886,0.478,-24.786,7.160,2.710,26.0,0.0
220390,0.055,0.952,0.399,8.046,0.023,2.824,24.0,0.0
220474,0.047,0.835,0.535,-7.267,2.672,0.702,23.0,0.0
220558,0.095,0.865,0.535,-10.557,2.672,1.473,23.0,0.0
220642,0.031,0.823,0.562,-3.191,3.794,5.160,26.0,0.0
220726,0.077,0.942,0.404,2.137,2.031,-0.382,23.0,0.0
220810,0.079,0.870,0.507,2.305,1.229,-2.542,26.0,0.0
220895,0.101,0.888,0.456,11.290,-0.282,-2.000,26.0,0.0
220979,0.052,0.813,0.594,0.504,0.817,-1.679,23.0,0.0
221066,0.059,0.931,0.422,0.656,0.969,-1.603,26.0,0.0
221150,0.039,0.781,0.636,7.756,-1.366,1.328,23.0,0.0
221234,0.071,0.969,0.370,-8.198,2.252,-1.534,24.0,0.0
221318,0.051,0.855,0.520,11.725,-0.382,0.344,26.0,0.0
221403,0.036,0.832,0.552,1.107,2.084,0.733,24.0,0.0
221487,0.021,0.856,0.533,-1.160,0.298,5.038,25.0,0.0
221571,0.076,0.968,0.356,20.901,-2.969,-2.107,23.0,0.0
221655,0.046,0.898,0.478,-1.756,0.939,-0.947,27.0,0.0
221739,0.050,0.881,0.505,5.389,-0.031,0.290,23.0,0.0
221824,0.057,0.901,0.459,-12.046,2.275,0.885,27.0,0.0
221911,0.045,0.887,0.473,-3.481,1.145,0.313,24.0,0.0
221995,0.046,0.907,0.451,3.962,1.008,1.382,22.0,0.0
222078,0.038,0.792,0.624,3.802,-1.229,3.038,23.0,0.0
222173,0.087,0.996,0.302,-2.397,1.573,2.084,0.0,0.0
222258,0.019,0.818,0.575,-2.237,0.443,1.115,23.0,0.0
222352,0.059,0.945,0.383,-6.366,1.351,0.229,0.0,0.0
222446,0.054,0.922,0.417,5.374,0.076,1.748,0.0,0.0
222545,0.052,0.902,0.446,3.099,0.664,2.565,0.0,0.0
222639,0.041,0.910,0.435,7.931,-1.405,1.260,0.0,0.0
222734,0.055,0.941,0.396,-2.176,1.122,0.954,0.0,0.0
222827,0.087,0.884,0.425,21.710,-4.298,7.351,0.0,0.0
222920,0.062,0.924,0.411,-9.031,2.702,0.878,0.0,0.0
223013,0.104,0.918,0.377,13.466,-1.038,3.405,0.0,0.0
223107,0.087,0.959,0.344,-17.473,7.191,-4.573,0.0,0.0
223201,0.052,0.883,0.452,-1.580,6.305,0.092,0.0,0.0
223294,0.051,0.937,0.366,-1.046,0.443,3.221,0.0,0.0
223387,0.040,0.922,0.416,2.634,-3.397,0.328,0.0,0.0
223480,0.064,0.954,0.380,4.939,-5.863,-5.000,0.0,0.0
223574,0.051,0.940,0.365,22.817,-5.168,19.321,0.0,0.0
223669,0.167,0.876,0.333,17.924,-1.160,7.160,0.0,0.0
223763,0.111,0.970,0.314,-5.641,6.267,-8.359,0.0,0.0
223856,0.098,0.921,0.377,-8.725,7.366,-0.389,0.0,0.0
223949,0.082,0.955,0.357,2.389,0.252,-5.023,0.0,0.0
224043,0.068,1.015,0.311,-10.038,-3.611,7.542,0.0,0.0
224136,0.079,0.934,0.438,-42.931,1.206,17.550,0.0,0.0
224229,0.161,0.916,0.532,-31.824,-4.237,46.603,0.0,0.0
224322,0.203,0.947,0.482,-26.153,-12.656,59.160,0.0,0.0
224416,0.320,0.799,0.511,-30.847,-12.107,62.901,0.0,0.0
224513,0.425,0.703,0.508,-18.580,-9.427,55.649,0.0,0.0
224606,0.513,0.658,0.506,-2.099,0.405,47.710,0.0,0.0
224699,0.522,0.547,0.599,-19.550,-0.046,29.634,0.0,0.0
224793,0.531,0.563,0.639,-5.252,-4.840,13.550,0.0,0.0
224886,0.571,0.531,0.607,3.725,-14.183,9.565,0.0,0.0
224979,0.582,0.635,0.531,6.137,-19.214,-5.336,0.0,0.0
225074,0.600,0.650,0.524,16.924,-20.878,-0.595,0.0,0.0
225167,0.624,0.650,0.479,3.328,-20.939,6.672,0.0,0.0
225260,0.627,0.627,0.480,3.863,-24.603,9.977,0.0,0.0
225353,0.681,0.663,0.399,1.321,-20.496,14.603,0.0,0.0
225451,0.715,0.677,0.333,-8.260,-6.290,10.115,0.0,0.0
225544,0.748,0.413,0.445,-16.740,5.229,-10.847,0.0,0.0
225637,0.683,0.585,0.482,-67.420,1.473,-11.641,0.0,0.0
225731,0.614,1.244,0.794,-139.389,33.855,29.573,0.0,0.0
225815,-0.133,0.323,0.769,-250.137,-37.977,250.130,43.0,0.0
225909,-0.064,-1.362,-0.350,-70.672,-250.137,176.962,0.0,0.0
225992,0.110,-0.745,-0.478,-117.756,-38.496,125.237,10.0,0.0
226086,0.495,-0.922,-0.185,-36.321,45.702,-11.450,0.0,0.0
226171,0.472,-0.894,0.059,-38.550,-25.763,-31.305,6.0,0.0
226266,0.577,-0.842,-0.211,-17.160,0.260,3.908,0.0,0.0
226359,0.459,-0.817,-0.085,4.916,23.527,-4.573,0.0,0.0
226453,0.463,-0.879,0.035,-3.069,6.168,-12.420,0.0,0.0
226546,0.504,-0.860,-0.023,-30.473,6.282,-5.748,0.0,0.0
226629,0.447,-0.825,-0.128,-22.733,-2.763,0.366,10.0,0.0
226712,0.478,-0.831,-0.130,-19.588,-11.435,-22.328,3.0,0.0
226795,0.546,-0.830,-0.197,-12.672,-3.137,-22.779,6.0,0.0
226877,0.655,-0.832,-0.188,3.763,8.115,-26.351,3.0,0.0
226963,0.637,-0.778,-0.233,-2.267,-6.099,-26.244,3.0,0.0
227045,0.702,-0.804,-0.251,7.069,10.916,-6.679,4.0,0.0
227128,0.573,-0.682,-0.062,18.802,-2.779,-1.733,7.0,0.0
227211,0.738,-0.809,-0.237,6.176,5.137,-4.542,5.0,0.0
227293,0.614,-0.797,-0.042,18.611,10.977,0.679,4.0,0.0
227376,0.603,-0.723,-0.031,2.504,-12.275,-12.458,3.0,0.0
227458,0.667,-0.739,-0.116,-17.031,-13.847,26.771,3.0,0.0
227552,0.760,-0.917,-0.356,6.374,-44.550,22.542,0.0,0.0
227634,0.519,-0.914,-0.186,13.221,15.969,26.679,3.0,0.0
227731,0.512,-0.844,-0.119,2.985,1.817,19.435,0.0,0.0
227825,0.403,-0.711,0.030,25.893,21.252,21.351,0.0,0.0
227918,0.456,-0.904,-0.140,16.275,-4.000,-3.908,0.0,0.0
228013,0.504,-0.688,-0.145,14.092,-6.237,0.000,0.0,0.0
228094,0.449,-0.755,-0.052,29.397,-0.099,-5.115,8.0,0.0
228189,0.614,-0.966,-0.034,-0.374,-0.344,-9.771,0.0,0.0
228283,0.532,-0.781,-0.031,-4.344,1.046,-6.809,0.0,0.0
228365,0.502,-0.841,-0.013,4.695,-6.153,-11.061,5.0,0.0
228459,0.565,-0.945,-0.017,8.107,-0.695,-1.603,0.0,0.0
228546,0.379,-1.130,0.060,89.802,6.527,-10.763,16.0,0.0
228639,0.543,-0.735,-0.002,-15.420,13.008,-20.389,0.0,0.0
228733,0.515,-0.662,0.133,12.305,-5.412,8.321,0.0,0.0
228828,0.519,-0.749,0.041,-0.466,2.321,4.557,0.0,0.0
228921,0.714,-0.733,-0.083,7.504,-4.519,-2.847,0.0,0.0
229004,0.771,-0.917,0.192,-44.389,10.863,-10.092,5.0,0.0
229087,0.711,-0.666,0.117,-30.130,-14.160,2.809,6.0,0.0
229170,0.605,-0.960,0.025,-19.855,-29.328,-27.008,10.0,0.0
229253,0.587,-0.732,-0.012,-16.992,-32.756,-10.534,9.0,0.0
229339,0.670,-0.739,-0.181,1.695,-24.901,1.824,9.0,0.0
229422,0.549,-0.748,-0.133,-24.153,-12.405,-9.420,9.0,0.0
229506,0.643,-0.715,-0.240,-31.206,-9.076,-26.550,10.0,0.0
229588,0.645,-0.733,-0.281,-12.977,-21.870,-35.794,10.0,0.0
229671,0.702,-0.552,-0.238,-15.550,8.695,-25.626,10.0,0.0
229755,0.745,-0.645,-0.184,-30.038,-9.321,-18.450,11.0,0.0
229838,0.827,-0.669,-0.295,-54.977,-20.305,-28.626,16.0,0.0
229920,0.717,-0.549,-0.358,-30.885,-14.321,-33.626,17.0,174.0
230002,0.678,-0.407,-0.432,7.008,-22.481,-40.000,11.0,173.0
230087,0.841,-0.482,-0.437,0.237,-6.786,-26.038,19.0,171.0
230170,0.858,-0.426,-0.420,-2.595,11.305,-1.328,16.0,171.0
230252,0.790,-0.385,-0.387,11.214,6.389,4.092,17.0,171.0
230333,0.800,-0.468,-0.347,5.733,-3.626,7.321,13.0,172.0
230415,0.839,-0.511,-0.409,-8.992,-3.595,-3.504,13.0,171.0
230497,0.824,-0.426,-0.421,-8.603,0.290,-2.298,13.0,172.0
230579,0.810,-0.379,-0.405,3.412,-1.573,-0.145,13.0,171.0
230661,0.811,-0.426,-0.413,8.847,0.824,2.260,13.0,172.0
230746,0.829,-0.532,-0.385,6.695,1.733,3.603,12.0,171.0
230828,0.813,-0.478,-0.367,-6.557,3.962,-6.832,12.0,171.0
230909,0.831,-0.485,-0.223,13.153,8.198,2.672,13.0,171.0
230991,0.871,-0.241,-0.506,43.435,0.321,22.893,12.0,172.0
231074,0.779,-0.451,-0.371,39.771,17.992,48.595,13.0,0.0
231158,0.660,-0.697,-0.097,62.695,6.687,50.924,17.0,0.0
231242,0.752,-0.747,-0.226,69.679,15.000,44.481,17.0,0.0
231326,0.496,-0.692,-0.073,61.809,27.305,31.458,16.0,0.0
231420,0.701,-0.850,0.045,9.137,22.153,19.076,0.0,0.0
231518,0.657,-0.746,-0.125,13.954,-2.977,0.137,0.0,0.0
231611,0.605,-0.789,0.077,12.924,12.969,-0.466,0.0,0.0
231705,0.647,-0.803,-0.133,5.824,-3.939,-1.687,0.0,0.0
231799,0.638,-0.666,-0.081,-1.557,-0.153,-1.550,0.0,0.0
231894,0.585,-0.538,-0.102,12.947,-12.718,11.542,0.0,0.0
231988,0.523,-0.729,-0.044,36.305,1.198,3.427,0.0,0.0
232072,0.549,-0.910,0.244,-6.099,6.481,-6.061,17.0,0.0
232156,0.814,-0.877,-0.099,-17.534,-10.611,0.893,16.0,0.0
232239,0.601,-0.686,-0.045,4.893,3.084,2.076,17.0,0.0
232326,0.555,-0.685,-0.045,7.000,-7.458,9.244,9.0,0.0
232420,0.675,-0.905,-0.018,-1.031,7.901,-12.122,0.0,0.0
232514,0.802,-0.838,-0.012,-18.450,5.405,0.137,0.0,0.0
232608,0.686,-0.634,-0.073,-6.969,-2.496,8.794,0.0,0.0
232702,0.605,-0.664,-0.029,16.695,2.611,9.794,0.0,0.0
232797,0.692,-0.809,-0.093,-37.145,10.947,4.634,0.0,0.0
232891,0.527,-0.373,-0.102,97.481,-20.473,28.382,0.0,0.0
232985,0.673,-1.137,0.088,-30.435,-3.672,-9.901,0.0,0.0
233079,0.570,-0.596,0.041,5.786,6.901,0.244,0.0,0.0
233174,0.724,-1.045,0.113,43.137,3.901,-19.366,0.0,0.0
233271,0.648,-0.722,0.122,-1.252,-15.473,1.893,0.0,0.0
233365,0.400,-0.645,0.252,49.954,-0.412,11.832,0.0,0.0
233460,0.610,-0.912,0.086,4.313,-1.901,-1.084,0.0,0.0
233554,0.631,-0.857,0.114,-4.099,1.870,-0.473,0.0,0.0
233649,0.679,-0.731,0.094,-30.198,3.069,-7.458,0.0,0.0
233743,0.614,-0.742,0.175,13.252,-2.115,-0.160,0.0,0.0
233837,0.632,-0.814,0.083,-1.901,4.573,-6.198,0.0,0.0
233937,0.833,-1.036,0.119,5.603,-2.229,-4.595,0.0,0.0
234031,0.578,-0.731,0.080,-2.763,8.405,-10.733,0.0,0.0
234117,0.604,-0.702,0.116,-8.061,7.710,0.794,23.0,0.0
234210,0.596,-0.787,0.142,-3.504,3.580,0.679,0.0,0.0
234303,0.640,-0.739,0.039,12.588,-8.466,4.588,0.0,0.0
234386,0.573,-0.718,0.135,20.656,9.687,-0.290,21.0,0.0
234479,0.660,-0.731,0.145,-16.916,1.893,3.847,0.0,0.0
234572,0.626,-0.730,0.107,-2.511,-2.817,19.565,0.0,0.0
234665,0.598,-0.841,0.128,-29.466,2.588,11.099,0.0,0.0
234759,0.526,-0.769,0.082,1.412,-5.824,16.359,0.0,0.0
234842,0.593,-0.850,0.035,54.298,-27.786,1.817,5.0,0.0
234927,0.780,-0.872,0.096,7.863,-17.740,-12.122,2.0,0.0
235009,0.628,-0.823,0.116,40.878,11.374,-20.206,2.0,0.0
235090,0.548,-0.767,0.212,4.740,23.053,-18.176,2.0,0.0
235172,0.566,-0.736,0.184,45.206,14.786,-56.137,4.0,0.0
235255,0.817,-0.737,0.292,-38.275,32.649,-16.496,10.0,0.0
235337,0.784,-0.714,0.311,15.954,20.550,-55.756,5.0,0.0
235420,0.706,-0.622,0.290,-6.084,23.107,-56.916,10.0,0.0
235503,0.794,-0.615,0.365,32.137,21.924,-57.588,17.0,0.0
235586,0.800,-0.396,0.306,39.473,20.092,-57.374,16.0,0.0
235672,0.816,-0.338,0.358,4.061,31.618,-57.107,17.0,0.0
235761,0.855,-0.290,0.420,1.382,38.664,-50.832,111.0,0.0
235849,0.840,-0.233,0.485,1.542,38.122,-57.595,111.0,0.0
235938,0.827,-0.210,0.514,18.122,50.198,-67.450,115.0,0.0
236026,0.745,-0.085,0.585,36.427,63.252,-85.137,115.0,0.0
236115,0.585,0.115,0.736,53.679,61.000,-87.931,117.0,0.0
236205,0.557,0.350,0.722,21.397,55.779,-68.779,120.0,0.0
236292,0.493,0.453,0.696,26.336,70.221,-47.473,123.0,169.0
236386,0.375,0.447,0.783,-30.908,74.565,-63.908,0.0,0.0
236480,0.208,0.245,0.983,-32.855,72.809,-53.954,0.0,167.0
236572,0.086,0.370,0.987,-17.939,64.901,-39.527,0.0,169.0
236653,-0.052,0.366,1.089,-5.611,38.786,-24.855,20.0,166.0
236735,-0.098,0.264,0.996,11.153,8.122,-18.168,20.0,166.0
236826,-0.017,0.275,0.926,25.802,3.802,-22.206,0.0,165.0
236918,-0.039,0.337,0.931,17.771,15.458,-32.992,0.0,164.0
237009,-0.187,0.564,0.921,-5.931,2.733,-6.733,0.0,164.0
237091,-0.096,0.386,0.929,-46.519,15.168,-16.611,22.0,164.0
237175,-0.110,0.294,0.948,1.634,10.893,-0.389,25.0,165.0
237255,-0.149,0.217,1.046,-11.649,2.389,16.969,20.0,134.0
237337,-0.188,0.292,1.097,80.092,-20.908,74.771,18.0,169.0
237429,0.004,0.780,0.940,79.603,-33.939,108.878,0.0,174.0
237523,-0.069,0.272,0.966,201.969,-31.244,178.061,0.0,0.0
237617,0.439,0.802,0.295,244.779,6.359,230.267,0.0,0.0
237711,0.162,0.375,0.640,24.305,31.328,87.977,0.0,0.0
237804,0.426,0.377,0.495,32.504,27.176,63.817,0.0,0.0
237887,0.618,0.257,0.493,49.740,8.511,44.191,0.0,16.0
237976,0.704,0.397,0.369,5.985,13.969,21.771,0.0,58.0
238061,0.794,0.471,0.361,-14.229,13.031,24.634,0.0,58.0
238147,0.857,0.499,0.332,-8.740,14.595,30.664,0.0,58.0
238232,0.885,0.274,0.453,-14.725,-2.954,9.542,0.0,59.0
238318,0.712,0.408,0.295,-0.061,-0.916,4.992,0.0,59.0
238404,0.827,0.617,0.326,70.634,-1.298,19.443,0.0,58.0
238489,0.813,0.582,0.246,-7.649,5.359,6.313,0.0,58.0
238575,0.832,0.581,0.257,-8.740,9.603,9.763,0.0,59.0
238660,0.887,0.489,0.414,-2.427,1.183,5.176,0.0,59.0
238746,0.793,0.418,0.362,-7.779,-21.427,-15.885,0.0,59.0
238835,0.908,0.329,0.301,5.863,-4.115,9.351,0.0,59.0
238920,0.897,0.417,0.278,-6.458,11.870,7.122,0.0,59.0
239006,0.831,0.452,0.261,11.931,12.756,16.710,0.0,60.0
239092,0.798,0.320,0.353,33.511,5.046,6.634,0.0,60.0
239178,0.822,0.456,0.264,8.328,7.405,12.580,0.0,60.0
239263,0.897,0.588,0.261,3.244,-1.038,10.130,0.0,60.0
239349,0.885,0.579,0.232,-8.672,3.130,6.221,0.0,60.0
239435,0.924,0.420,0.332,-17.855,4.649,2.595,0.0,60.0
239521,0.856,0.268,0.359,-17.130,-5.901,-11.076,0.0,60.0
239610,0.850,-0.016,0.537,-5.748,3.733,4.374,0.0,61.0
239696,0.891,0.484,0.338,-35.557,7.374,-6.351,0.0,62.0
239782,0.860,0.550,0.258,-44.153,-3.763,-0.817,0.0,61.0
239868,0.839,0.220,0.376,-3.405,-1.550,0.962,0.0,61.0
239954,0.827,0.342,0.293,25.313,-2.008,3.748,0.0,61.0
240039,0.901,0.259,0.400,8.176,2.725,4.344,0.0,62.0
240125,0.839,0.368,0.328,-9.901,0.969,-3.733,0.0,62.0
240211,0.850,0.334,0.322,12.107,1.443,9.038,0.0,61.0
240297,0.896,0.456,0.309,23.214,2.389,3.855,0.0,61.0
240387,0.844,0.549,0.207,14.840,4.160,2.824,0.0,61.0
240473,0.896,0.467,0.307,12.168,5.473,7.046,0.0,61.0
240559,0.867,0.361,0.361,10.351,2.611,5.176,0.0,62.0
240645,0.849,0.308,0.397,-5.802,-2.710,0.931,0.0,62.0
240731,0.837,0.228,0.405,-7.702,-0.145,-0.420,0.0,62.0
240817,0.897,0.272,0.400,-12.931,-4.046,-2.679,0.0,62.0
240903,0.898,0.300,0.360,-6.542,0.122,-0.832,0.0,62.0
240989,0.892,0.326,0.385,-3.626,4.076,2.908,0.0,62.0
241075,0.868,0.359,0.312,0.733,-2.069,2.962,0.0,63.0
241161,0.884,0.384,0.336,-15.740,2.489,-0.420,0.0,62.0
241251,0.884,0.350,0.425,-3.229,1.008,-5.534,0.0,63.0
241337,0.875,0.383,0.340,-4.069,1.122,0.420,0.0,62.0
241423,0.908,0.385,0.382,-9.748,-0.466,3.672,0.0,63.0
241509,0.898,0.322,0.352,2.901,-2.496,8.427,0.0,64.0
241595,0.905,0.338,0.335,-5.847,2.053,6.756,0.0,64.0
241681,0.862,0.337,0.350,7.840,2.198,-4.618,0.0,64.0
241767,0.873,0.288,0.387,9.870,-2.061,-4.710,0.0,64.0
241853,0.880,0.291,0.407,-13.779,1.634,-1.359,0.0,65.0
241940,0.938,0.370,0.302,-16.053,1.687,4.359,0.0,64.0
242029,0.794,0.279,0.332,18.053,-1.687,-12.137,0.0,64.0
242115,0.725,-0.268,0.630,61.198,-7.962,-4.336,0.0,63.0
242202,0.827,-0.029,0.468,11.511,-1.809,-0.229,0.0,63.0
242288,0.858,0.063,0.505,14.527,1.389,0.916,0.0,63.0
242374,0.832,0.347,0.342,21.969,6.015,5.282,0.0,64.0
242460,0.981,0.583,0.268,49.466,19.649,19.786,0.0,64.0
242547,0.805,0.249,0.430,32.397,9.290,6.763,0.0,64.0
242633,0.815,0.187,0.449,16.321,3.756,7.893,0.0,64.0
242719,0.847,0.269,0.458,3.443,5.389,-0.969,0.0,64.0
242809,0.864,0.343,0.439,-9.443,1.565,-2.260,0.0,64.0
242895,0.863,0.299,0.454,-8.374,-2.817,-0.641,0.0,64.0
242982,0.869,0.232,0.438,-3.435,4.191,1.649,0.0,65.0
243068,0.859,0.329,0.450,0.344,0.511,0.023,0.0,64.0
243154,0.918,0.519,0.350,5.947,-0.420,5.069,0.0,64.0
243241,0.873,0.371,0.414,-17.702,1.908,-5.779,0.0,64.0
243328,0.852,0.321,0.456,-13.954,2.511,-2.824,0.0,64.0
243414,0.898,0.376,0.415,-4.611,5.595,6.832,0.0,64.0
243501,0.940,0.547,0.330,0.817,11.924,9.687,0.0,65.0
243587,0.833,0.436,0.386,12.191,5.206,4.748,0.0,67.0
243677,0.816,0.302,0.454,4.641,3.931,7.786,0.0,67.0
243764,0.882,0.340,0.426,11.672,3.008,6.389,0.0,66.0
243850,0.899,0.369,0.420,8.031,8.511,5.702,0.0,66.0
243937,0.861,0.354,0.404,11.916,5.595,4.244,0.0,66.0
244023,0.826,0.312,0.425,9.977,3.450,4.695,0.0,66.0
244110,0.802,0.186,0.514,8.779,-1.725,-0.489,0.0,67.0
244197,0.787,0.205,0.424,5.168,3.832,4.649,0.0,66.0
244283,0.846,0.209,0.534,2.641,1.374,-2.214,0.0,65.0
244370,0.823,0.177,0.555,2.870,1.519,-6.969,0.0,65.0
244459,0.849,0.308,0.444,6.817,3.641,5.924,0.0,65.0
244546,0.853,0.285,0.500,-8.450,12.557,14.405,0.0,65.0
244632,0.867,0.383,0.445,-0.489,10.046,9.603,0.0,66.0
244719,0.869,0.399,0.464,2.000,4.954,5.160,0.0,66.0
244805,0.810,0.311,0.489,-3.038,-2.313,-11.954,0.0,65.0
244892,0.838,0.240,0.502,-7.053,-0.511,0.511,0.0,66.0
244984,0.855,0.221,0.553,-2.305,-2.412,-5.244,0.0,66.0
245069,0.823,0.227,0.489,0.565,9.389,8.756,0.0,66.0
245155,0.848,0.198,0.590,-7.160,5.794,-1.992,0.0,66.0
245243,0.823,0.317,0.459,1.389,2.489,2.649,0.0,66.0
245329,0.848,0.346,0.506,-0.298,8.252,4.656,0.0,66.0
245411,0.811,0.353,0.474,4.206,3.885,0.206,149.0,66.0
245494,0.777,0.295,0.472,12.084,-0.947,5.008,150.0,66.0
245576,0.791,0.161,0.542,7.038,-1.542,-1.031,149.0,46.0
245659,0.836,0.203,0.563,-3.115,-1.130,-3.481,149.0,66.0
245742,0.815,0.232,0.559,-5.168,1.664,-1.710,148.0,66.0
245825,0.812,0.203,0.574,-3.855,2.084,-2.466,148.0,66.0
245908,0.779,0.216,0.555,2.000,0.084,0.374,149.0,66.0
245991,0.801,0.183,0.575,-0.763,-0.252,-1.473,148.0,66.0
246076,0.812,0.236,0.542,-0.458,-0.397,0.290,149.0,66.0
246159,0.810,0.272,0.510,7.931,0.206,-1.794,149.0,66.0
246242,0.799,0.120,0.548,15.824,2.015,0.565,149.0,67.0
246325,0.752,-0.052,0.710,-7.595,-9.557,-20.450,150.0,65.0
246408,0.849,0.348,0.466,-32.863,11.115,0.260,150.0,66.0
246491,0.835,0.422,0.518,-11.198,4.710,0.603,149.0,66.0
246574,0.839,0.338,0.530,8.359,-2.618,-0.420,149.0,66.0
246657,0.802,0.222,0.561,10.214,-0.664,-7.359,149.0,65.0
246739,0.782,0.057,0.647,-16.641,-2.893,-6.214,149.0,65.0
246825,0.769,0.111,0.598,-10.191,-1.832,-6.176,149.0,66.0
246908,0.803,0.244,0.522,-0.260,0.183,-1.603,148.0,66.0
246991,0.797,0.063,0.651,4.885,2.511,-4.023,148.0,66.0
247074,0.808,0.095,0.654,-43.557,7.473,0.573,147.0,67.0
247157,0.777,0.546,0.404,-8.061,9.374,2.527,147.0,66.0
247240,0.743,0.128,0.639,37.443,-7.885,3.038,147.0,71.0
247323,0.795,-0.029,0.732,-26.389,4.481,-7.809,147.0,67.0
247406,0.819,0.393,0.486,-36.924,14.344,2.809,147.0,67.0
247492,0.740,0.286,0.560,37.565,-0.382,4.725,147.0,67.0
247575,0.761,-0.040,0.765,-0.893,-8.519,-10.107,147.0,68.0
247658,0.810,0.210,0.606,-32.687,3.450,-1.679,147.0,67.0
247740,0.959,0.273,0.577,-115.130,26.168,17.771,131.0,67.0
247823,0.623,0.666,0.331,86.031,-9.824,-0.466,147.0,65.0
247906,0.747,-0.099,0.704,21.176,-15.137,2.443,147.0,66.0
247989,0.865,-0.002,0.771,-12.954,0.634,-25.450,133.0,66.0
248071,0.754,0.065,0.673,7.916,-7.885,-11.504,133.0,65.0
248154,0.758,0.403,0.506,-10.313,10.489,10.382,148.0,66.0
248240,0.736,0.517,0.442,13.168,2.847,5.275,148.0,65.0
248323,0.743,0.332,0.547,27.038,-6.870,1.458,148.0,66.0
248406,0.825,0.210,0.635,4.511,0.763,-3.305,148.0,65.0
248488,0.836,0.290,0.580,-10.221,2.679,0.824,148.0,66.0
248571,0.795,0.273,0.602,-16.687,0.214,4.107,148.0,65.0
248655,0.722,0.358,0.541,-14.435,-11.893,-4.779,149.0,65.0
248738,0.799,0.136,0.611,-6.542,-9.198,-6.168,148.0,66.0
248821,0.823,0.020,0.664,-9.321,-2.496,-7.611,148.0,65.0
248904,0.821,0.264,0.543,-17.061,5.168,1.046,148.0,65.0
248990,0.698,0.355,0.571,-30.053,-6.328,-8.779,148.0,65.0
249073,0.729,0.117,0.633,-39.435,-24.611,-22.008,132.0,65.0
249155,0.758,0.153,0.541,-66.015,-26.954,-40.344,126.0,66.0
249237,0.823,0.399,0.417,-93.252,-12.252,-43.160,125.0,65.0
249326,0.889,0.068,0.576,-115.122,3.351,-58.939,125.0,0.0
249416,0.783,0.110,0.576,-135.878,9.695,-61.427,125.0,0.0
249501,0.767,0.084,0.712,-71.908,16.695,-47.519,58.0,0.0
249595,0.818,0.314,0.754,-59.618,8.702,-38.244,0.0,0.0
249690,0.791,0.106,0.863,-202.443,-0.855,-41.328,0.0,0.0
249781,0.702,-0.184,0.840,-203.198,-40.656,-29.443,108.0,0.0
249870,0.719,-0.308,0.606,-149.718,-92.260,-31.145,109.0,0.0
249957,0.748,-0.216,0.257,-82.931,-111.626,-23.725,110.0,172.0
250044,0.883,-0.192,-0.089,-79.168,-91.985,-9.489,112.0,168.0
250131,0.959,-0.256,-0.224,-63.855,-62.893,-0.588,115.0,166.0
250214,0.974,-0.268,-0.284,-42.298,-47.710,-1.069,44.0,165.0
250298,0.947,-0.252,-0.304,-22.229,-37.290,-6.038,44.0,165.0
250389,0.897,-0.250,-0.321,-7.611,-31.817,-14.198,0.0,164.0
250488,0.901,-0.242,-0.360,-7.061,-25.969,-6.863,113.0,164.0
250583,0.883,-0.280,-0.378,-5.031,-19.282,-2.817,0.0,163.0
250677,0.873,-0.292,-0.389,2.695,-16.275,-2.817,0.0,164.0
250771,0.891,-0.180,-0.480,-14.840,-6.305,8.023,0.0,163.0
250866,0.906,-0.222,-0.459,1.137,-3.901,0.740,0.0,164.0
250960,0.886,-0.236,-0.435,2.458,-8.008,-3.305,0.0,163.0
251055,0.870,-0.233,-0.450,1.053,-7.718,0.626,0.0,163.0
251149,0.865,-0.233,-0.485,-6.496,-6.321,0.336,0.0,163.0
251243,0.872,-0.233,-0.478,-1.466,-5.863,-1.176,0.0,163.0
251340,0.864,-0.233,-0.488,0.435,-5.443,-2.916,0.0,163.0
251435,0.854,-0.239,-0.480,2.389,-3.748,-1.084,0.0,163.0
251529,0.865,-0.240,-0.498,-0.359,-3.290,-0.176,0.0,163.0
251623,0.863,-0.247,-0.494,-1.092,-2.588,-0.740,0.0,163.0
251712,0.858,-0.215,-0.519,-4.824,-1.595,0.153,116.0,163.0
251802,0.853,-0.207,-0.515,3.427,-2.481,-0.061,117.0,163.0
251891,0.848,-0.249,-0.499,3.771,-1.412,1.786,115.0,163.0
251981,0.836,-0.274,-0.493,3.046,-0.122,1.603,116.0,163.0
252073,0.841,-0.259,-0.510,0.954,-0.237,0.053,115.0,163.0
252164,0.849,-0.267,-0.497,4.763,-0.244,1.153,113.0,163.0
