Timestamp(ms),AccelX(g),AccelY(g),AccelZ(g),GyroX(deg/s),GyroY(deg/s),GyroZ(deg/s),DistanceLeft(cm),DistanceRight(cm)
258470,0.995,-0.042,-0.068,5.183,-0.802,2.679,47.0,158.0
258553,1.012,-0.022,-0.088,-3.000,-1.557,2.046,47.0,158.0
258639,1.012,-0.041,-0.106,6.321,-1.145,0.847,118.0,159.0
258726,0.999,-0.109,-0.060,8.061,1.992,0.405,118.0,158.0
258812,1.007,-0.075,-0.067,-6.611,1.725,-1.420,118.0,158.0
258899,1.014,-0.023,-0.095,-4.053,0.756,-0.947,118.0,159.0
258982,0.998,-0.039,-0.085,5.397,0.214,-0.206,47.0,158.0
259068,0.998,-0.033,-0.095,0.198,-0.115,0.122,51.0,158.0
259154,1.005,-0.052,-0.087,4.450,0.214,1.595,118.0,159.0
259241,1.009,-0.024,-0.107,0.779,1.672,0.214,118.0,158.0
259328,1.007,-0.024,-0.102,13.939,2.198,0.832,118.0,158.0
259415,1.007,-0.090,-0.058,13.237,3.527,2.794,118.0,159.0
259502,0.998,-0.088,-0.046,-2.763,3.328,2.649,119.0,159.0
259589,1.018,-0.080,-0.036,-2.588,-0.015,2.504,119.0,158.0
259676,1.017,-0.046,-0.055,-4.748,-1.176,1.542,119.0,159.0
259763,1.073,-0.180,0.051,9.443,-5.313,-1.878,119.0,158.0
259849,1.165,-0.114,-0.035,-17.847,3.031,-12.275,51.0,156.0
259936,1.253,-0.064,-0.022,9.191,24.137,7.313,121.0,154.0
260023,1.477,-0.205,0.024,-47.702,27.786,-29.366,123.0,152.0
260106,1.132,0.061,-0.021,30.656,37.168,-118.656,65.0,147.0
260190,1.022,0.465,-0.177,-5.115,-21.427,-19.519,70.0,145.0
260273,0.565,0.113,0.153,30.878,3.176,-29.824,68.0,144.0
260364,1.167,0.193,-0.010,-43.771,15.824,-25.389,0.0,145.0
260448,0.777,0.317,-0.015,14.557,-0.321,-1.527,67.0,145.0
260534,0.888,0.095,0.064,2.649,5.122,-15.748,66.0,146.0
260617,0.915,0.233,0.032,-26.023,-1.321,10.542,64.0,146.0
260701,0.952,0.381,-0.005,2.130,2.405,-2.168,63.0,146.0
260784,0.987,0.145,0.200,-8.985,2.908,0.275,61.0,147.0
260867,1.021,0.365,0.086,-10.756,4.763,-7.504,60.0,147.0
260950,0.961,0.324,0.128,-1.275,-0.969,-0.832,59.0,148.0
261032,1.087,0.426,0.090,6.824,-19.092,30.565,57.0,148.0
261115,0.908,0.321,0.089,5.687,-6.641,-3.321,55.0,149.0
261198,0.986,0.244,0.103,-12.130,-8.321,3.618,53.0,149.0
261284,1.037,0.331,0.029,-0.580,-6.908,3.412,51.0,150.0
261366,0.960,0.294,0.028,13.061,-13.771,18.053,50.0,150.0
261458,1.119,0.286,-0.028,-19.748,-1.168,2.565,0.0,151.0
261550,0.923,0.225,-0.005,-2.664,-6.443,8.924,0.0,152.0
261641,0.941,0.140,0.008,-5.573,-1.489,3.260,0.0,153.0
261738,0.962,0.155,0.010,2.443,-4.802,5.580,0.0,154.0
261828,0.963,0.134,-0.010,0.489,-6.275,7.809,0.0,154.0
261918,1.010,0.101,0.010,15.595,-7.595,6.206,0.0,154.0
261998,0.995,0.204,-0.035,-1.260,-5.244,4.962,44.0,127.0
262081,1.020,0.140,-0.007,11.527,-7.931,8.435,44.0,125.0
262161,1.002,0.208,-0.054,0.756,-7.672,12.511,44.0,124.0
262251,0.969,0.167,-0.082,-6.519,-4.221,0.893,0.0,154.0
262342,0.970,0.234,-0.124,-10.023,-2.450,-2.977,0.0,154.0
262432,1.002,0.133,-0.075,33.183,-9.053,5.122,0.0,154.0
262522,1.009,0.116,-0.097,22.237,-5.710,0.519,0.0,154.0
262614,1.033,0.060,-0.040,-32.725,3.557,-2.282,0.0,154.0
262704,0.997,0.305,-0.162,-0.115,-2.107,-5.878,0.0,154.0
262795,0.994,0.127,-0.091,-3.817,0.603,-4.298,0.0,154.0
262879,0.972,0.176,-0.142,-2.282,2.695,-8.099,40.0,154.0
262960,0.946,0.315,-0.365,26.183,0.107,23.977,40.0,153.0
263051,0.958,0.345,-0.225,10.916,8.824,-17.206,0.0,153.0
263141,0.920,0.133,-0.049,-0.237,4.542,-11.740,0.0,152.0
263223,0.948,0.105,-0.037,10.122,0.412,-3.130,42.0,152.0
263304,0.985,0.208,-0.063,-15.595,1.252,-3.351,41.0,152.0
263386,0.936,0.290,-0.102,-18.328,-0.130,3.267,42.0,152.0
263467,1.022,0.264,-0.110,25.779,-1.557,-4.023,42.0,152.0
263548,0.923,0.138,-0.125,75.870,-1.634,2.931,43.0,152.0
263633,1.023,0.185,-0.094,5.328,-0.099,3.496,43.0,151.0
263714,1.040,0.047,-0.018,14.183,0.107,-6.092,42.0,151.0
263796,0.948,0.274,-0.169,-20.443,0.924,-2.252,43.0,151.0
263877,0.993,0.223,-0.165,13.168,0.878,-2.305,42.0,151.0
263959,0.942,0.168,-0.109,-11.473,3.626,4.954,42.0,151.0
264040,1.003,0.238,-0.111,2.924,1.962,1.817,43.0,151.0
264122,1.002,0.138,-0.004,5.031,1.969,-3.863,43.0,151.0
264204,0.959,0.224,-0.116,-23.122,3.977,-8.725,43.0,151.0
264285,0.996,0.250,-0.129,-12.435,1.115,-0.656,43.0,150.0
264370,1.017,0.199,-0.085,1.603,1.366,-2.832,44.0,150.0
264452,1.087,0.147,-0.044,-10.504,7.099,-10.321,45.0,150.0
264532,0.990,0.218,-0.012,3.229,0.603,-3.107,46.0,150.0
264614,0.998,0.251,-0.055,-8.840,-0.885,-8.214,47.0,150.0
264696,1.032,0.445,-0.117,-34.702,6.275,-22.183,49.0,149.0
264778,0.934,-0.342,0.295,55.603,-9.817,9.786,48.0,149.0
264860,0.973,0.270,-0.124,-60.046,5.672,-18.679,50.0,149.0
264950,0.931,0.501,-0.148,1.489,6.252,-16.374,0.0,148.0
265032,0.879,0.384,0.022,-10.504,10.015,-15.069,54.0,148.0
265117,1.113,0.543,-0.072,-6.412,2.450,-6.038,55.0,147.0
265200,0.781,0.334,0.028,17.130,-3.015,2.840,58.0,146.0
265290,0.984,0.239,0.051,-17.160,0.565,-15.328,0.0,146.0
265372,1.045,0.482,-0.073,-7.214,-8.893,12.550,57.0,146.0
265454,0.752,0.356,-0.042,1.389,2.733,-11.901,58.0,146.0
265545,1.040,0.318,0.002,-14.603,0.038,-9.046,0.0,145.0
265627,0.809,0.418,-0.042,-6.847,-0.405,-10.542,62.0,145.0
265717,0.929,0.371,-0.022,5.015,-0.031,-9.863,0.0,144.0
265810,0.917,0.429,0.021,-2.885,5.893,-16.244,0.0,143.0
265901,0.978,0.278,0.139,47.198,9.115,-19.573,0.0,143.0
265991,0.852,0.304,0.106,-19.473,13.534,-18.382,0.0,142.0
266082,0.923,0.542,0.017,-37.366,4.901,-14.076,0.0,142.0
266172,0.881,0.653,-0.041,7.618,2.198,-10.374,0.0,141.0
266262,0.773,0.537,-0.000,6.122,-1.824,3.641,0.0,142.0
266352,0.797,0.513,0.016,-7.389,-1.099,-4.198,0.0,141.0
266442,0.964,0.629,-0.095,10.313,-5.573,-7.191,0.0,140.0
266532,0.773,0.702,-0.157,9.290,-4.710,4.221,0.0,140.0
266626,0.929,0.359,0.042,18.290,-2.702,-11.580,0.0,140.0
266716,0.850,0.652,-0.092,-42.069,5.137,-12.656,0.0,139.0
266806,0.916,0.892,-0.182,15.122,1.733,-5.840,0.0,139.0
266895,0.769,0.035,0.345,-8.290,-0.817,-9.405,0.0,139.0
266985,0.900,0.936,-0.220,-48.641,-0.779,-1.916,0.0,139.0
267075,0.788,0.722,-0.101,40.748,-0.023,-7.137,0.0,138.0
267166,0.891,0.647,0.003,3.565,0.420,24.221,0.0,139.0
267256,0.752,0.996,-0.200,-66.496,1.000,-14.244,0.0,139.0
267346,0.879,0.528,-0.040,70.069,-8.603,17.901,0.0,139.0
267441,0.813,0.520,-0.091,-0.015,0.947,25.191,0.0,139.0
267531,0.863,0.636,-0.142,-1.046,1.824,-4.435,0.0,140.0
267621,0.871,0.780,-0.253,11.595,-9.115,22.122,0.0,139.0
267712,0.970,0.490,-0.091,44.901,-9.160,-1.214,0.0,139.0
267795,0.858,0.351,-0.071,47.435,-9.672,3.008,69.0,139.0
267878,0.879,0.166,-0.045,-45.466,4.344,-2.992,67.0,140.0
267961,0.848,0.987,-0.455,-55.435,13.061,-2.756,68.0,139.0
268044,0.982,0.455,-0.088,107.130,-7.191,21.458,69.0,140.0
268127,0.788,0.042,0.061,-54.947,4.481,-9.176,68.0,139.0
268213,0.858,0.677,-0.291,-69.718,3.954,-11.611,72.0,140.0
268296,0.944,1.102,-0.466,-22.573,5.244,-3.336,67.0,140.0
268387,0.941,0.412,-0.066,93.061,-3.511,10.244,0.0,140.0
268477,0.889,-0.002,0.184,50.573,-6.282,12.595,0.0,140.0
268568,0.892,0.409,-0.102,-39.160,1.672,-9.382,0.0,140.0
268651,0.951,0.698,-0.191,-37.191,-4.435,-5.863,68.0,139.0
268741,0.863,0.431,-0.127,47.870,-6.191,9.443,0.0,140.0
268832,0.853,0.175,-0.039,63.931,-2.557,9.756,0.0,140.0
268915,0.889,0.094,0.009,-60.908,4.229,-4.046,65.0,140.0
269008,0.953,0.755,-0.293,-26.015,4.466,-8.290,0.0,139.0
269100,0.895,0.401,-0.120,26.382,1.580,13.267,0.0,140.0
269190,0.946,0.676,-0.470,90.870,-8.695,9.366,0.0,139.0
269281,0.876,-0.023,0.084,-16.313,13.603,1.725,0.0,139.0
269371,0.914,0.483,-0.154,-20.046,2.565,-5.565,0.0,139.0
269454,0.996,0.593,-0.082,-47.634,-2.855,1.496,66.0,139.0
269537,0.873,0.381,-0.112,65.153,-6.313,-9.573,68.0,139.0
269628,0.875,0.601,-0.335,19.321,2.481,1.847,0.0,139.0
269711,0.985,0.141,0.032,-22.191,6.107,8.557,67.0,139.0
269805,0.899,0.192,0.119,-18.099,-2.924,-9.870,0.0,139.0
269895,0.886,0.683,-0.311,9.176,-3.809,-4.687,0.0,139.0
269986,0.900,0.524,-0.253,35.000,2.809,7.305,0.0,139.0
270069,0.952,0.351,-0.036,-12.145,12.107,2.580,66.0,139.0
270159,0.899,0.495,-0.039,-32.282,-3.435,-1.687,0.0,139.0
270242,0.914,0.560,-0.278,2.962,3.908,-0.679,65.0,139.0
270333,0.943,0.307,-0.031,83.649,-0.168,20.534,0.0,139.0
270424,0.973,0.539,-0.156,-61.435,-2.870,-20.496,0.0,138.0
270511,0.875,0.599,-0.199,-27.214,-3.702,0.496,71.0,139.0
270602,0.962,0.716,-0.339,2.389,0.664,-2.275,0.0,138.0
270685,0.917,0.306,-0.024,68.611,-0.603,7.000,65.0,138.0
270768,0.875,0.281,0.001,-75.595,-7.305,-15.023,67.0,139.0
270858,0.911,0.704,-0.463,-9.229,3.504,-6.809,0.0,139.0
270949,0.842,0.504,-0.222,46.313,3.015,2.000,0.0,138.0
271039,0.966,0.313,-0.107,46.198,0.328,10.771,0.0,138.0
271123,0.873,0.316,-0.077,-34.191,-2.611,-6.725,67.0,139.0
271213,0.878,0.744,-0.323,-14.084,4.832,1.954,0.0,138.0
271307,0.977,0.614,-0.268,88.702,5.427,12.939,0.0,138.0
271398,0.893,0.431,-0.215,96.405,-18.489,16.855,0.0,139.0
271490,0.893,0.077,-0.031,-56.374,8.153,1.076,0.0,138.0
271580,0.847,0.936,-0.506,-3.985,4.580,-7.053,0.0,140.0
271664,1.043,0.376,-0.183,104.313,-9.603,5.794,68.0,140.0
271747,0.689,0.103,-0.087,-97.260,6.695,-5.931,66.0,139.0
271838,1.074,1.076,-0.626,28.672,-3.176,13.947,0.0,139.0
271921,0.856,-0.078,0.018,105.023,-8.931,18.954,66.0,139.0
272012,0.830,0.214,-0.196,-138.244,21.061,-23.695,0.0,139.0
272098,0.975,1.182,-0.595,-88.985,15.275,-11.420,65.0,140.0
272189,0.994,0.225,-0.036,131.618,-11.817,9.450,0.0,139.0
272272,0.832,-0.221,0.206,-24.794,-1.496,-2.038,64.0,139.0
272356,0.914,0.461,-0.215,-64.260,5.878,-12.710,64.0,139.0
272439,0.965,0.619,-0.272,-15.160,7.313,-20.321,64.0,139.0
272522,1.091,0.192,0.012,-20.221,7.069,2.786,63.0,139.0
272613,0.822,0.539,-0.190,-21.198,11.252,17.550,0.0,140.0
272696,0.792,0.449,-0.092,-8.397,12.679,-6.885,66.0,140.0
272792,1.017,0.405,-0.007,-23.496,14.450,7.847,0.0,140.0
272885,1.131,0.655,-0.175,-29.954,17.321,-38.099,0.0,140.0
272967,1.052,0.441,-0.022,27.435,-0.344,17.931,64.0,140.0
273049,0.843,0.419,-0.048,-22.107,11.046,7.840,63.0,140.0
273132,1.081,0.443,-0.023,-2.725,9.763,5.733,62.0,142.0
273214,0.899,0.554,-0.071,-37.420,24.901,22.863,63.0,142.0
273297,1.082,-0.065,0.156,-142.748,42.634,13.107,62.0,144.0
273379,0.835,0.333,0.099,93.336,2.954,18.679,63.0,145.0
273462,0.912,0.266,0.062,-75.031,37.229,3.160,62.0,146.0
273547,0.906,0.160,0.259,-8.725,38.626,-9.420,62.0,146.0
273629,0.843,0.246,0.319,20.779,31.863,-12.763,63.0,146.0
273712,0.891,0.309,0.325,26.885,28.031,-3.603,66.0,146.0
273795,0.848,0.366,0.335,19.221,25.557,-3.794,70.0,146.0
273878,0.862,0.336,0.345,74.313,13.718,20.198,75.0,146.0
273961,0.788,0.244,0.284,76.817,3.069,32.473,75.0,146.0
274044,0.653,0.229,0.265,57.305,-0.809,38.519,75.0,148.0
274128,0.694,0.325,0.153,102.664,-32.382,46.107,78.0,150.0
274217,0.881,0.221,0.262,127.015,-16.481,24.725,133.0,0.0
274315,0.982,0.601,-0.025,87.954,-27.160,-26.405,0.0,0.0
274408,0.894,0.318,0.034,36.153,1.718,-73.687,0.0,0.0
274501,0.626,0.543,-0.007,41.573,24.924,-153.183,0.0,0.0
274595,0.714,0.824,0.090,-86.565,18.473,-97.389,0.0,0.0
274689,0.463,1.061,0.096,-26.000,15.718,-47.779,0.0,0.0
274782,0.529,1.088,0.231,-27.397,12.756,43.878,0.0,0.0
274875,0.551,0.839,0.233,-60.695,-11.588,109.137,0.0,0.0
274969,0.728,0.451,0.150,-39.008,-44.527,122.580,0.0,0.0
275062,1.083,0.485,-0.019,-161.481,-63.824,64.962,0.0,0.0
275156,1.265,0.154,0.315,-130.985,-36.198,49.931,0.0,158.0
275240,0.804,0.191,0.214,-67.344,-36.679,78.947,62.0,160.0
275324,0.716,-0.048,0.117,-57.824,-68.611,82.565,72.0,162.0
275407,0.920,-0.246,-0.092,-26.817,-87.084,52.809,57.0,163.0
275491,0.934,-0.255,-0.250,3.664,-68.664,36.786,53.0,164.0
275574,0.888,-0.272,-0.324,-4.122,-49.656,23.847,51.0,164.0
275657,0.905,-0.270,-0.387,4.366,-36.275,-4.824,45.0,164.0
275740,0.900,-0.219,-0.412,6.183,-0.206,-16.824,43.0,163.0
275822,0.918,-0.193,-0.365,5.649,19.687,-21.695,40.0,162.0
275907,0.904,-0.165,-0.362,32.435,10.282,-43.122,39.0,161.0
275990,0.847,-0.231,-0.395,111.221,-3.496,-121.351,34.0,159.0
276074,0.428,0.164,-0.793,250.130,-67.855,-172.221,41.0,0.0
276165,1.208,0.843,-0.812,149.504,9.008,-127.886,151.0,0.0
276249,1.508,0.003,0.106,63.252,193.939,-71.595,19.0,0.0
276333,0.637,0.602,0.177,79.664,140.626,-31.145,21.0,0.0
276426,0.760,0.770,0.237,-28.397,13.267,-26.466,0.0,0.0
276520,1.113,0.175,0.314,-19.351,-14.656,15.695,0.0,0.0
276617,0.808,0.512,-0.128,-24.824,-50.656,10.885,0.0,0.0
276711,0.956,0.258,-0.202,-59.939,-47.534,36.244,0.0,0.0
276805,1.043,0.107,-0.245,-15.756,-11.901,0.779,0.0,0.0
276889,0.966,0.167,-0.136,31.611,-1.298,-20.069,30.0,0.0
276973,0.953,0.376,0.037,30.580,-1.992,-21.420,30.0,0.0
277066,0.802,0.564,-0.073,-57.809,-14.496,1.740,0.0,0.0
277149,1.073,0.124,0.109,-33.359,-38.779,-8.351,16.0,0.0
277233,0.546,0.295,-0.082,-28.023,-88.771,-101.916,16.0,0.0
277316,0.613,1.596,-0.553,5.038,-132.969,-53.237,18.0,0.0
277413,0.523,0.867,-0.597,-96.473,-116.015,1.718,0.0,0.0
277508,0.650,1.354,-0.946,-171.672,-63.824,-31.015,0.0,0.0
277591,-0.095,1.115,-0.361,-163.626,-91.160,-163.916,19.0,0.0
277675,0.307,1.697,-0.765,-250.137,-208.908,-127.634,27.0,0.0
277758,0.760,0.829,-0.636,-250.137,-169.176,-199.198,23.0,0.0
277842,0.392,0.512,0.009,-250.137,-57.458,-174.679,23.0,0.0
277927,0.069,0.435,0.819,-43.924,76.710,-57.725,43.0,0.0
278012,-0.519,0.283,1.314,74.031,-35.336,55.809,30.0,0.0
278099,-0.385,0.405,0.767,-124.886,26.595,-23.718,23.0,0.0
278182,-0.245,0.215,1.053,26.405,9.130,-13.412,23.0,0.0
278259,-0.124,0.036,1.028,-61.618,-12.122,-101.221,27.0,74.0
278336,-0.055,-0.596,1.468,-42.511,6.198,-192.336,28.0,66.0
278413,-0.243,0.109,0.907,-16.092,-15.252,-200.611,36.0,58.0
278498,-0.222,-0.473,0.936,-86.252,34.985,-250.137,193.0,54.0
278585,-1.040,-1.033,0.814,160.733,16.771,-250.137,68.0,0.0
278672,0.352,2.000,0.452,-92.031,-44.718,10.099,72.0,0.0
278758,-0.515,0.407,0.333,-43.008,3.641,-14.397,70.0,0.0
278848,0.013,-0.008,0.900,181.947,52.832,87.244,71.0,0.0
278935,-0.129,0.081,1.038,9.603,11.115,-15.427,72.0,0.0
279021,-0.169,0.503,0.905,-47.489,2.542,-0.855,72.0,0.0
279108,0.174,-0.485,1.430,18.389,14.748,29.107,71.0,0.0
279194,-0.331,-0.435,1.093,21.847,-12.336,40.321,71.0,0.0
279281,-0.529,-0.330,1.251,37.519,-18.069,52.137,71.0,0.0
279368,-0.461,0.119,0.576,-226.405,19.763,-54.496,71.0,0.0
279455,-0.114,-0.008,0.591,135.908,-8.634,40.046,71.0,0.0
279541,-0.345,-1.950,1.514,160.710,-14.053,39.221,71.0,0.0
279631,-0.331,-1.143,1.295,-95.977,12.298,17.275,72.0,0.0
279718,-0.417,-0.446,0.919,89.489,3.168,32.771,72.0,0.0
279805,0.245,1.276,0.321,-216.557,62.519,-53.008,73.0,0.0
279892,-0.192,0.587,0.710,199.573,-34.282,-3.527,73.0,0.0
279980,-0.323,-0.179,1.115,49.069,-29.588,-17.191,74.0,0.0
280067,-0.243,0.330,1.005,2.740,-34.855,-7.603,74.0,0.0
280154,-0.326,0.050,0.896,-70.634,-11.183,-24.489,74.0,0.0
280241,-0.261,-0.406,0.962,-50.885,-21.977,-19.511,73.0,0.0
280331,-0.105,-0.281,0.879,-104.992,2.832,-4.527,72.0,0.0
280417,-0.084,-0.329,0.812,-14.298,7.511,-11.916,71.0,0.0
280513,-0.064,-0.090,1.082,3.160,-3.924,-9.229,72.0,0.0
280599,-0.061,-0.110,0.995,-0.748,-5.969,9.145,72.0,0.0
280685,-0.307,-0.284,0.919,14.298,3.092,7.649,72.0,0.0
280771,-0.132,-0.198,0.965,-12.176,10.565,-6.664,72.0,0.0
280857,-0.116,-0.160,1.006,-46.450,-7.893,0.130,72.0,0.0
280943,-0.150,-0.459,0.976,8.969,0.763,-0.656,72.0,0.0
281029,-0.343,-0.455,0.985,22.168,0.740,2.076,72.0,0.0
281118,-0.168,-0.422,0.992,-13.298,4.557,0.221,72.0,0.0
281204,-0.144,-0.077,0.983,-7.336,-0.099,1.176,72.0,0.0
281290,-0.095,-0.111,1.024,-37.214,-17.397,-37.557,72.0,0.0
281376,-0.061,-0.582,0.969,-16.519,31.115,10.947,71.0,0.0
281462,-0.158,-0.360,0.957,24.076,11.985,-15.450,72.0,0.0
281549,-0.306,-0.373,1.165,-38.260,3.626,-31.313,73.0,0.0
281635,-0.266,-0.518,0.953,-129.076,-16.542,-22.244,74.0,0.0
281722,-0.141,-0.808,0.927,-152.702,-4.840,-0.450,75.0,0.0
281808,0.015,0.091,0.388,-44.435,14.244,30.107,74.0,0.0
281897,-0.155,-0.005,0.636,-92.924,-25.908,-62.870,73.0,0.0
281984,-0.168,-0.198,0.241,-250.137,-8.145,-21.137,74.0,0.0
282078,-0.011,-1.760,0.824,-26.275,0.588,-5.863,0.0,0.0
282171,-0.083,-0.656,0.099,-183.115,4.412,-22.504,0.0,0.0
282265,0.048,-0.652,-0.462,-250.137,-9.252,-50.282,0.0,0.0
282358,0.097,-0.570,-0.473,-136.878,26.107,-22.557,0.0,0.0
282446,-0.009,-1.156,-0.244,-92.550,3.511,-38.084,105.0,0.0
282541,0.268,-0.935,-0.535,-181.466,19.221,-26.176,0.0,0.0
282634,0.214,-0.810,-0.603,-34.061,4.863,-25.015,0.0,0.0
282727,0.201,-0.565,-0.792,-122.046,1.740,-26.046,0.0,150.0
282814,0.182,-1.460,-0.332,-85.710,8.779,-29.069,0.0,77.0
282905,0.300,0.259,-1.135,32.603,16.290,34.817,0.0,148.0
282995,0.203,-1.772,-0.275,250.130,11.542,50.420,0.0,149.0
283082,0.146,-2.000,0.088,-188.336,2.389,-58.672,0.0,81.0
283173,0.433,-0.441,-0.759,-122.481,0.298,-12.260,0.0,148.0
283264,0.474,-0.135,-0.773,13.053,7.565,26.183,0.0,148.0
283355,0.348,-0.009,-0.649,65.641,5.130,20.779,0.0,151.0
283449,0.402,-1.483,-0.138,57.351,-4.458,10.511,0.0,149.0
283539,0.237,-1.475,-0.170,83.580,-8.389,17.473,0.0,149.0
283620,0.205,-1.089,-0.429,4.733,-5.634,1.985,17.0,149.0
283711,0.234,-0.957,-0.510,85.466,-3.740,19.061,0.0,151.0
283802,0.272,-1.227,-0.468,-62.382,-7.084,2.145,0.0,153.0
283893,0.300,-0.813,-0.652,-36.214,7.427,2.588,0.0,152.0
283983,0.249,-0.952,-0.449,60.321,1.840,12.718,0.0,154.0
284075,0.230,-1.399,-0.216,21.595,1.489,9.977,0.0,151.0
284166,0.224,-0.743,-0.564,-75.557,-5.481,-27.198,0.0,151.0
284250,0.550,-0.392,-0.604,-32.176,-3.695,-37.939,17.0,152.0
284344,0.375,-0.594,-0.554,20.496,0.802,-6.328,0.0,0.0
284434,0.270,-0.656,-0.502,-65.183,1.634,-13.237,0.0,151.0
284525,0.225,-0.835,-0.563,-21.824,-3.695,5.382,0.0,151.0
284616,0.224,-0.581,-0.614,-92.672,14.321,18.374,0.0,152.0
284707,0.330,-0.628,-0.363,21.786,10.992,10.000,0.0,154.0
284802,0.381,-0.823,-0.469,59.260,4.366,-6.214,0.0,0.0
284896,0.314,-1.022,-0.265,29.618,-4.015,-4.947,0.0,0.0
284989,0.349,-0.735,-0.406,-5.489,-3.450,3.252,0.0,0.0
285086,0.248,-0.947,-0.282,35.611,-2.847,6.275,0.0,0.0
285179,0.241,-1.083,-0.164,184.168,8.824,24.573,0.0,0.0
285274,0.239,-1.660,0.060,207.069,16.023,26.901,0.0,0.0
285361,0.218,-0.584,-0.292,250.130,69.519,84.473,90.0,0.0
285449,-0.130,-0.166,0.618,103.427,103.985,116.786,89.0,0.0
285537,-0.269,-0.165,0.868,41.550,78.015,94.565,91.0,0.0
285624,-0.282,0.459,0.815,68.718,10.847,37.046,92.0,0.0
285712,-0.383,-0.243,0.836,-42.969,24.206,56.122,92.0,0.0
285799,-0.363,-0.320,0.720,47.107,-4.298,65.008,92.0,0.0
285890,-0.242,0.692,0.950,104.695,-52.389,54.626,95.0,0.0
285978,-0.266,0.101,1.064,11.496,-38.313,46.641,95.0,0.0
286066,-0.170,0.399,0.930,20.023,-4.595,45.802,97.0,0.0
286154,-0.219,0.339,0.904,20.969,-8.206,40.427,97.0,0.0
286242,-0.243,0.547,0.959,-7.969,13.504,76.901,97.0,0.0
286327,-0.201,0.609,0.755,-90.366,45.466,127.145,51.0,0.0
286412,-0.268,0.095,0.937,-178.672,20.695,117.824,47.0,0.0
286489,-0.254,0.005,0.961,-43.168,10.191,73.809,33.0,57.0
286568,-0.180,0.135,1.094,34.435,-1.031,12.244,30.0,57.0
286644,-0.040,0.146,0.823,-223.527,-13.443,11.176,30.0,57.0
286730,-0.055,-0.531,1.046,-84.542,-17.748,27.344,0.0,58.0
286816,-0.114,-0.361,0.952,-23.374,-10.160,22.626,0.0,60.0
286903,-0.125,-0.393,0.958,-15.031,-5.687,13.160,0.0,60.0
286989,-0.153,-0.300,0.988,-32.305,-5.985,9.282,0.0,61.0
287075,-0.169,-0.684,0.887,-11.405,-10.252,7.924,0.0,61.0
287161,-0.042,-0.398,0.868,7.427,-3.328,1.336,0.0,61.0
287247,-0.078,-0.399,0.930,6.748,-2.153,2.366,0.0,61.0
287336,-0.075,-0.292,0.924,9.481,-4.275,8.252,0.0,61.0
287422,-0.071,-0.366,0.922,-5.321,-1.115,2.198,0.0,61.0
287508,-0.092,-0.424,0.920,-11.924,1.206,-0.855,0.0,61.0
287594,-0.127,-0.384,0.924,3.450,2.565,-2.618,0.0,62.0
287680,-0.086,-0.460,0.925,-1.412,0.191,1.198,0.0,61.0
287766,-0.077,-0.396,0.918,1.351,0.290,0.145,0.0,62.0
287852,-0.064,-0.491,0.937,21.328,3.595,3.687,0.0,61.0
287938,-0.079,-0.480,0.940,52.153,5.702,4.504,0.0,60.0
288024,-0.155,-0.305,1.035,42.908,9.305,-18.290,0.0,58.0
288103,-0.061,-0.109,0.948,124.611,15.931,-5.939,20.0,57.0
288179,-0.216,0.406,0.923,121.191,17.855,-14.267,24.0,57.0
288256,-0.421,-0.041,1.243,25.519,38.718,-55.366,25.0,60.0
288331,-0.913,0.261,1.211,-58.870,98.771,-77.038,27.0,57.0
288408,-0.683,-0.182,0.550,-230.924,127.618,-127.924,30.0,60.0
288502,-0.577,-1.381,0.329,-84.214,220.069,-250.137,0.0,0.0
288592,-0.712,-0.397,-0.175,211.145,250.130,-250.137,119.0,0.0
288687,-0.865,0.247,-0.226,36.763,250.130,-250.137,0.0,0.0
288781,-0.884,-0.772,0.187,-202.374,169.038,-163.061,0.0,0.0
288878,-0.329,-1.690,0.879,-55.221,137.962,-153.595,0.0,0.0
288972,-0.406,-1.615,0.378,122.992,54.008,-79.298,0.0,0.0
289056,-0.240,-0.738,0.089,-55.656,34.107,-10.458,16.0,0.0
289140,0.095,-0.643,-0.073,144.740,-12.496,44.107,17.0,0.0
289234,0.271,-0.990,0.121,15.130,-17.420,25.672,0.0,0.0
289329,-0.138,-0.647,-0.074,19.405,8.099,-14.824,0.0,0.0
289423,-0.341,-1.272,0.615,58.725,11.153,45.366,0.0,0.0
289517,-0.173,-1.036,0.209,-176.939,-5.817,24.405,0.0,0.0
289614,-0.064,-1.345,0.061,-12.824,-22.985,-23.969,0.0,0.0
289709,-0.089,-1.004,0.051,-85.550,-2.466,-70.611,0.0,0.0
289803,0.007,-1.188,0.183,-58.908,-20.176,-43.321,0.0,0.0
289898,0.203,-1.251,-0.395,-48.939,-5.069,-20.542,0.0,0.0
289992,0.116,-1.331,-0.070,58.450,32.313,-19.969,0.0,0.0
290086,0.022,-0.916,0.039,-10.481,24.611,-1.802,0.0,0.0
290181,-0.020,-1.270,0.324,11.130,-18.534,14.969,0.0,0.0
290265,-0.175,-1.111,0.092,-41.092,-5.115,-13.527,16.0,0.0
290359,0.173,-0.498,-0.154,12.847,17.237,19.511,0.0,0.0
290446,0.109,-1.365,0.238,-85.565,-6.519,-33.901,17.0,0.0
290540,0.075,-1.000,-0.170,-37.191,-13.740,-31.893,0.0,0.0
290634,0.010,-0.673,-0.371,-32.702,-4.221,4.542,0.0,0.0
290728,0.233,-0.778,-0.157,-26.855,-15.847,47.405,0.0,0.0
290824,0.390,-0.538,-0.452,-34.863,2.634,-17.809,0.0,0.0
290918,-0.208,-1.336,-0.109,106.214,-8.275,-17.221,0.0,0.0
291012,0.034,-1.668,0.367,21.893,-20.740,24.931,0.0,0.0
291106,-0.068,-1.235,-0.104,-77.511,5.397,-10.725,0.0,0.0
291201,0.085,-1.130,0.171,87.275,-8.092,16.069,0.0,0.0
291299,-0.132,-1.084,-0.055,-63.099,0.542,-12.160,0.0,0.0
291393,0.014,-1.101,-0.018,-25.221,0.878,-15.740,0.0,0.0
291487,0.038,-1.372,0.032,-32.053,2.504,-17.389,0.0,0.0
291581,0.017,-1.068,-0.070,4.588,1.023,-30.015,0.0,0.0
291676,0.173,-0.443,-0.891,-250.137,86.641,-103.260,0.0,0.0
291770,0.115,0.435,-0.998,196.115,15.656,29.878,0.0,0.0
291870,0.045,-1.257,-0.083,177.588,-9.794,64.947,0.0,0.0
291963,0.165,-1.766,0.060,-90.969,3.351,-19.168,0.0,0.0
292057,0.166,-0.752,-0.375,-14.527,6.939,-15.595,0.0,0.0
292153,-0.059,-0.611,-0.379,-53.275,5.229,-2.122,0.0,0.0
292247,0.061,-0.710,-0.412,49.000,-6.748,35.427,0.0,0.0
292340,0.073,-0.991,-0.292,72.397,-6.954,14.870,0.0,0.0
292433,0.029,-1.355,-0.021,12.137,-4.115,5.962,0.0,0.0
292527,0.004,-0.635,-0.336,-95.809,7.015,-15.725,0.0,0.0
292621,-0.019,-0.357,-0.514,-38.351,3.885,-6.779,0.0,0.0
292714,-0.123,-0.940,-0.332,31.015,3.656,10.588,0.0,0.0
292807,-0.083,-1.061,-0.240,36.076,6.107,21.099,0.0,0.0
292903,-0.008,-1.108,-0.061,32.504,-0.863,18.191,0.0,0.0
292997,0.034,-0.895,-0.169,-29.618,-2.214,-3.924,0.0,0.0
293091,-0.065,-0.995,-0.284,27.962,-6.840,-3.550,0.0,0.0
293184,-0.086,-1.031,-0.232,-2.962,2.191,-8.206,0.0,0.0
293277,-0.135,-1.117,-0.136,49.534,0.061,16.076,0.0,0.0
293371,-0.135,-1.303,-0.073,12.977,4.641,16.542,0.0,0.0
293465,0.009,-0.935,-0.176,-27.855,4.008,-12.519,0.0,0.0
293558,0.047,-0.663,-0.303,24.092,-4.153,-6.595,0.0,0.0
293652,-0.067,-0.954,-0.259,0.008,-8.305,-8.351,0.0,0.0
293748,-0.075,-1.083,-0.244,-13.550,-1.931,-2.702,0.0,0.0
293841,-0.052,-1.078,-0.190,-2.344,4.053,3.397,0.0,0.0
293935,0.003,-0.986,-0.120,36.450,-6.992,25.450,0.0,0.0
294029,0.022,-0.898,-0.211,-12.718,-6.534,-3.595,0.0,0.0
294122,-0.044,-1.148,-0.124,6.160,-2.847,-10.496,0.0,0.0
294216,-0.044,-0.972,-0.217,-0.641,-6.847,-23.405,0.0,0.0
294309,-0.096,-0.996,-0.262,-12.595,-4.092,-19.885,0.0,0.0
294404,-0.004,-0.892,-0.267,-7.847,-6.748,-14.145,0.0,0.0
294497,0.002,-0.931,-0.276,-19.084,2.481,4.840,0.0,0.0
294593,0.118,-1.147,-0.250,-16.580,11.313,-4.718,0.0,0.0
294687,-0.020,-0.894,-0.308,53.473,2.702,-15.313,0.0,0.0
294780,-0.067,-1.092,-0.013,-38.794,1.924,1.733,0.0,0.0
294875,0.048,-0.995,-0.392,11.351,-14.763,-36.725,0.0,0.0
294958,0.254,-0.510,-0.344,-21.000,19.863,4.031,16.0,0.0
295051,0.154,-1.117,-0.163,-11.519,11.664,-7.908,0.0,0.0
295145,0.021,-0.762,-0.260,50.374,-9.725,11.870,0.0,0.0
295238,0.061,-1.172,-0.408,-107.939,3.611,-17.969,0.0,0.0
295331,-0.029,-1.008,-0.347,42.290,6.038,32.183,0.0,0.0
295429,0.259,-1.103,-0.341,-7.603,6.275,-34.802,0.0,0.0
295522,0.210,-0.605,-0.410,49.092,8.565,2.588,0.0,0.0
295616,0.054,-0.861,-0.243,-26.405,9.382,15.229,0.0,0.0
295709,0.113,-1.206,-0.287,13.191,7.489,30.519,0.0,0.0
295803,0.036,-0.899,-0.257,7.626,2.611,0.878,0.0,0.0
295897,0.057,-1.101,-0.160,25.015,4.931,29.534,0.0,0.0
295991,0.031,-0.950,-0.189,13.809,-4.137,-7.618,0.0,0.0
296084,-0.017,-0.896,-0.141,20.267,-6.832,8.985,0.0,0.0
296178,0.039,-1.001,-0.121,27.053,-5.214,37.107,0.0,0.0
296274,0.008,-1.153,-0.075,-16.733,-11.252,15.450,0.0,0.0
296369,0.126,-0.854,-0.160,-0.412,-3.015,18.740,0.0,0.0
296462,-0.209,-1.207,-0.206,37.122,-5.069,35.145,0.0,0.0
296556,-0.002,-1.049,-0.156,-0.397,2.832,-26.000,0.0,0.0
296649,-0.010,-0.961,-0.042,1.038,13.046,11.588,0.0,0.0
296743,0.008,-0.806,-0.117,-33.969,12.466,-16.733,0.0,0.0
296838,-0.275,-1.176,-0.224,50.649,7.313,4.130,0.0,0.0
296931,0.385,-1.058,0.071,-64.267,20.038,31.481,0.0,0.0
297025,0.154,-0.401,-0.220,82.420,4.580,40.611,0.0,0.0
297121,-0.295,-1.121,-0.114,-0.389,-18.389,-5.351,0.0,0.0
297216,-0.160,-0.990,-0.187,-12.267,0.282,20.817,0.0,0.0
297298,-0.001,-1.161,-0.079,-17.710,8.672,23.053,5.0,0.0
297381,-0.005,-1.247,-0.047,-3.611,2.427,12.290,5.0,0.0
297463,-0.139,-1.040,-0.174,13.550,-4.366,6.740,5.0,0.0
297558,0.041,-0.853,-0.165,-32.527,4.702,-10.832,0.0,0.0
297652,-0.103,-1.053,-0.239,17.550,-15.336,-4.038,0.0,0.0
297745,-0.015,-0.759,-0.403,-93.489,5.313,-41.397,0.0,0.0
297839,-0.099,-1.212,-0.265,-7.351,-4.557,-5.023,0.0,0.0
297936,0.004,-0.851,-0.317,-6.496,-1.878,2.466,0.0,0.0
298031,-0.023,-0.843,-0.458,-36.947,-0.855,-5.336,0.0,0.0
298124,-0.063,-0.930,-0.462,-60.878,-0.580,-23.962,0.0,0.0
298218,0.068,-1.013,-0.407,11.947,-18.237,-10.122,0.0,0.0
298312,-0.003,-0.981,-0.533,95.802,3.695,28.817,0.0,0.0
298406,-0.027,-1.363,-0.142,106.588,-12.832,-1.221,0.0,0.0
298501,-0.187,-1.120,0.385,250.130,-107.023,-13.519,0.0,0.0
298595,-0.093,0.002,0.261,250.130,-47.023,135.046,0.0,0.0
298688,-0.426,-0.380,0.816,128.832,-17.443,250.130,0.0,0.0
298785,-0.733,0.300,0.706,-65.824,-0.221,250.130,0.0,0.0
298875,-0.345,-0.260,1.050,112.008,-12.656,250.130,122.0,0.0
298964,-0.536,0.436,0.762,-86.565,12.542,250.130,111.0,0.0
299053,-0.490,0.006,0.866,-127.779,-15.099,209.115,99.0,0.0
299138,-0.577,0.377,0.681,-76.695,2.397,173.702,41.0,0.0
299214,-0.479,-0.190,0.522,-134.824,-3.000,120.000,36.0,55.0
299290,-1.482,-0.730,1.930,31.176,-61.695,66.038,31.0,57.0
299376,-0.447,-0.071,1.408,53.458,-11.939,25.603,0.0,57.0
299465,-0.146,0.073,0.973,-75.336,-7.450,20.061,0.0,57.0
299551,-0.257,-0.020,0.968,-125.099,-27.053,13.786,0.0,58.0
299637,-0.098,-0.611,1.000,-50.313,-15.183,16.145,0.0,60.0
299723,-0.102,-0.179,0.930,-1.641,-2.573,0.878,0.0,61.0
299810,-0.112,-0.211,0.949,-11.649,-3.260,0.977,0.0,61.0
299896,-0.109,-0.383,0.938,-32.924,-8.221,11.534,0.0,60.0
299982,-0.105,-0.422,0.950,-13.427,-1.870,4.725,0.0,60.0
300068,-0.120,-0.382,0.928,-8.710,-0.321,0.664,0.0,60.0
300154,-0.096,-0.399,0.919,4.855,0.389,1.328,0.0,60.0
300243,-0.089,-0.346,0.923,5.397,0.458,1.702,0.0,60.0
300329,-0.097,-0.321,0.938,1.626,0.008,0.840,0.0,61.0
300416,-0.097,-0.352,0.930,4.534,1.130,0.420,0.0,60.0
300502,-0.100,-0.354,0.936,-1.328,0.107,0.145,0.0,60.0
300588,-0.108,-0.342,0.939,3.939,1.122,-0.031,0.0,60.0
300674,-0.091,-0.394,0.943,4.603,1.336,0.840,0.0,60.0
300760,-0.106,-0.291,0.916,-2.336,-0.092,0.840,0.0,61.0
300846,-0.114,-0.307,0.937,7.374,1.313,0.511,0.0,60.0
300932,-0.106,-0.353,0.941,-1.954,0.321,0.786,0.0,60.0
301022,-0.111,-0.321,0.934,-4.641,-0.176,-0.137,0.0,60.0
301108,-0.116,-0.318,0.941,4.435,1.481,-0.504,0.0,60.0
301194,-0.095,-0.351,0.938,-0.053,1.038,-0.473,0.0,60.0
301280,-0.114,-0.332,0.943,2.038,0.298,0.641,0.0,60.0
301366,-0.103,-0.341,0.942,-1.542,0.542,-0.198,0.0,60.0
301453,-0.112,-0.324,0.941,-2.168,0.160,0.046,0.0,60.0
301539,-0.113,-0.341,0.942,-2.595,-0.099,0.550,0.0,60.0
301625,-0.105,-0.312,0.932,-2.229,0.053,-0.313,0.0,60.0
301711,-0.104,-0.339,0.941,3.122,0.824,-0.275,0.0,60.0
301801,-0.107,-0.349,0.951,-1.580,0.237,0.115,0.0,60.0
301887,-0.109,-0.312,0.946,-2.237,0.359,-0.328,0.0,60.0
301973,-0.105,-0.318,0.935,1.992,0.748,-0.107,0.0,60.0
302059,-0.109,-0.340,0.940,-0.901,0.519,-0.321,0.0,60.0
302146,-0.113,-0.316,0.940,-0.519,0.481,-0.672,0.0,60.0
302232,-0.117,-0.326,0.930,2.336,0.931,-0.817,0.0,60.0
302318,-0.110,-0.331,0.943,3.450,0.290,0.344,0.0,60.0
302405,-0.116,-0.318,0.945,2.580,0.565,0.229,0.0,60.0
302491,-0.106,-0.324,0.946,4.031,1.084,-0.023,0.0,60.0
302580,-0.112,-0.326,0.950,1.237,0.534,0.198,0.0,60.0
302666,-0.114,-0.288,0.937,-2.191,0.275,-0.198,0.0,60.0
302753,-0.115,-0.320,0.940,1.107,0.366,-0.084,0.0,60.0
302839,-0.114,-0.330,0.953,0.855,0.321,0.282,0.0,60.0
302925,-0.119,-0.305,0.949,0.420,0.267,-0.496,0.0,60.0
303012,-0.114,-0.327,0.948,1.924,0.847,-0.244,0.0,60.0
303098,-0.114,-0.300,0.944,-3.565,0.069,-1.053,0.0,60.0
303185,-0.110,-0.304,0.949,2.489,0.427,0.496,0.0,60.0
303271,-0.113,-0.311,0.952,-2.618,0.130,-0.435,0.0,60.0
303366,-0.115,-0.276,0.946,3.611,0.618,0.305,0.0,60.0
303451,-0.100,-0.350,0.949,19.466,2.672,1.069,0.0,60.0
303537,-0.126,-0.162,0.951,39.550,2.947,3.969,0.0,59.0
303622,-0.089,-0.438,1.012,72.023,7.916,-6.786,0.0,59.0
303697,-0.129,-0.137,0.991,179.305,17.198,-5.580,30.0,57.0
303772,-0.085,0.519,0.864,42.824,2.840,-0.176,25.0,57.0
303849,-0.204,0.069,1.021,3.458,2.450,-0.908,58.0,57.0
303925,-0.173,0.255,0.954,34.351,3.443,0.221,29.0,57.0
304001,-0.164,0.276,0.951,-5.893,1.076,-7.153,30.0,57.0
304078,-0.170,0.253,0.943,6.275,-0.748,-14.756,31.0,57.0
304154,-0.098,0.300,0.988,-15.206,14.206,-32.328,34.0,57.0
304231,-0.229,0.174,0.970,13.344,21.252,-35.687,36.0,57.0
304307,-0.176,0.207,0.886,-2.450,8.275,-36.527,38.0,57.0
304382,-0.123,0.181,1.020,11.168,-2.015,-28.580,41.0,57.0
304459,0.046,-0.068,1.225,14.557,-7.771,-25.908,43.0,56.0
304537,-0.073,0.483,0.961,39.809,12.588,-43.244,76.0,54.0
304621,-0.429,0.508,0.784,-96.710,-54.832,-13.588,171.0,53.0
304706,-0.778,1.115,0.587,112.336,17.252,124.771,0.0,55.0
304786,0.497,-0.997,0.920,-172.298,12.824,91.374,51.0,61.0
304872,-1.537,0.015,0.742,164.450,38.061,32.397,192.0,63.0
304950,-0.189,-0.798,1.013,-33.008,-1.679,14.206,69.0,65.0
305028,-0.117,0.357,0.689,57.740,17.153,-2.939,59.0,65.0
305106,-0.042,0.145,0.891,-40.458,-2.695,-10.992,69.0,64.0
305184,-0.115,0.524,0.882,-15.573,5.573,-5.282,69.0,64.0
305262,-0.328,0.514,0.712,-20.603,-4.244,7.664,51.0,64.0
305341,-0.140,0.395,0.814,-37.977,1.084,16.267,69.0,65.0
305419,-0.166,0.590,0.810,-40.374,-3.137,5.458,71.0,64.0
305507,-0.081,0.168,0.934,-57.069,-2.618,1.000,190.0,65.0
305586,0.016,-0.286,1.192,-0.053,-0.603,-8.412,71.0,65.0
305665,0.017,-0.426,1.283,3.435,-0.298,-8.695,67.0,64.0
305742,-0.024,-0.403,1.291,1.870,0.962,-9.924,62.0,65.0
305827,-0.041,-0.305,1.242,2.344,-0.496,-5.595,190.0,65.0
305905,-0.153,-0.068,1.093,2.756,0.099,-1.588,51.0,64.0
305990,-0.194,0.254,0.952,23.908,-0.656,-3.679,191.0,64.0
306075,-0.223,0.344,0.920,22.221,-0.244,-0.466,190.0,64.0
306161,-0.218,0.296,0.932,8.183,-0.023,1.863,191.0,65.0
306249,-0.216,0.414,0.870,-4.985,-0.107,2.557,190.0,65.0
306334,-0.161,0.251,0.950,-8.557,0.198,-0.809,190.0,65.0
306420,-0.143,0.171,1.000,-7.733,-0.305,-3.107,191.0,65.0
306505,-0.144,0.104,1.008,11.557,1.031,-4.611,190.0,65.0
306583,-0.183,0.270,0.958,33.115,1.115,-1.290,49.0,64.0
306660,-0.171,0.037,1.036,18.252,1.351,-4.908,49.0,64.0
306738,-0.152,0.087,1.011,19.679,1.000,-3.458,50.0,64.0
306816,-0.084,0.068,1.023,19.344,-0.565,-12.519,55.0,64.0
306904,-0.090,0.260,0.974,14.786,-5.412,-25.725,191.0,64.0
306990,-0.254,0.290,0.929,-5.298,-4.336,-17.366,192.0,64.0
307067,-0.170,0.172,0.973,-12.405,1.168,4.137,52.0,63.0
307152,-0.137,0.407,0.906,13.733,1.916,-4.725,192.0,63.0
307230,-0.140,0.246,0.973,16.237,2.580,-4.763,57.0,64.0
307308,-0.106,0.341,0.959,-11.832,-7.260,-4.489,54.0,63.0
307386,-0.087,0.226,0.967,-26.137,-2.282,-7.374,51.0,64.0
307472,-0.178,0.267,0.955,21.954,-4.908,-27.344,191.0,64.0
307549,-0.284,0.069,1.042,-25.695,1.000,9.412,41.0,64.0
307643,-0.192,0.405,0.843,37.229,5.863,23.893,39.0,167.0
307728,-0.130,0.305,0.952,4.389,1.115,-4.618,40.0,166.0
307816,-0.231,0.259,0.933,-16.214,3.389,-0.725,191.0,64.0
307904,-0.221,0.398,0.862,-1.863,-1.008,1.878,191.0,65.0
307985,-0.057,0.095,1.057,-16.168,1.969,-0.374,61.0,64.0
308065,-0.057,-0.006,1.094,-13.053,1.443,-1.015,58.0,64.0
308146,0.022,0.048,1.067,-21.924,3.527,-0.504,58.0,64.0
308232,-0.065,-0.000,1.083,1.061,0.565,-4.328,55.0,166.0
308312,-0.142,-0.036,1.097,2.931,-0.053,-6.756,58.0,63.0
308403,-0.169,0.203,0.997,0.221,-1.122,-7.855,191.0,64.0
308491,-0.258,0.301,0.972,25.450,-0.908,-13.718,191.0,64.0
308579,-0.240,0.323,0.898,-0.214,-0.260,-0.382,191.0,64.0
308667,-0.185,0.302,0.946,-7.298,-0.756,2.855,191.0,64.0
308755,-0.213,0.293,0.932,-10.267,-2.305,6.565,190.0,64.0
308835,-0.183,0.277,0.920,7.237,-1.023,5.618,58.0,63.0
308916,-0.122,0.213,0.973,-0.176,2.573,3.038,57.0,63.0
308995,0.002,-0.003,1.058,-0.168,5.443,-3.008,37.0,64.0
309074,-0.033,0.272,0.960,-30.962,6.290,16.832,40.0,65.0
309164,-0.140,0.278,0.940,-2.336,1.145,5.779,56.0,167.0
309249,-0.094,0.158,0.989,-8.252,1.374,2.550,38.0,167.0
309328,-0.154,0.153,0.995,6.962,0.687,-5.000,39.0,63.0
309407,-0.155,0.171,0.990,13.718,0.237,-7.649,39.0,64.0
309487,-0.170,0.085,1.036,10.344,1.115,-8.794,39.0,64.0
309567,-0.141,0.107,1.017,20.802,-0.542,-17.099,58.0,65.0
309647,-0.173,0.076,1.019,5.382,-1.092,-10.305,37.0,63.0
309732,-0.129,0.149,0.999,10.985,0.076,-12.191,36.0,166.0
309820,-0.167,0.121,1.004,4.977,-0.214,-6.313,191.0,64.0
309903,-0.183,0.195,0.972,2.321,0.176,-2.878,40.0,63.0
309982,-0.188,0.292,0.966,8.893,-1.221,-7.427,38.0,65.0
310062,-0.192,0.188,0.977,1.664,-0.130,-3.420,36.0,63.0
310140,-0.163,0.231,0.957,3.351,-0.244,-3.023,38.0,63.0
310220,-0.170,0.202,0.976,-0.702,-0.687,-1.565,38.0,64.0
310300,-0.162,0.217,0.954,-7.000,0.534,-0.321,38.0,65.0
310379,-0.199,0.286,0.947,-0.023,-0.145,-0.405,37.0,65.0
310459,-0.224,0.375,0.899,-0.214,0.603,3.756,39.0,64.0
310539,-0.255,0.531,0.768,-5.366,-0.992,4.496,43.0,63.0
310622,-0.223,0.502,0.846,-18.130,-0.160,13.534,40.0,64.0
310710,-0.272,0.511,0.789,-5.817,-1.397,10.023,191.0,66.0
310790,-0.158,0.387,0.899,-15.626,0.718,10.313,38.0,65.0
310878,-0.149,0.406,0.894,-14.389,1.290,8.588,191.0,65.0
