Timestamp(ms),AccelX(g),AccelY(g),AccelZ(g),GyroX(deg/s),GyroY(deg/s),GyroZ(deg/s),DistanceLeft(cm),DistanceRight(cm)
18668,0.587,-0.052,0.778,16.771,108.298,-37.084,24.0,163.0
18754,0.530,0.345,0.768,68.794,106.168,-16.229,125.0,165.0
18847,0.285,0.893,0.659,44.298,117.664,-21.023,0.0,0.0
18937,0.162,0.040,1.072,-89.321,81.710,-44.115,0.0,170.0
19018,0.095,0.494,0.737,95.794,67.809,-28.901,19.0,171.0
19099,0.024,0.244,1.073,-25.252,73.878,-76.359,19.0,171.0
19179,-0.477,0.288,1.562,48.924,20.282,-22.038,20.0,171.0
19263,0.117,0.188,0.877,-9.458,-9.832,11.076,19.0,170.0
19343,-0.006,0.376,0.959,10.748,4.229,-5.611,19.0,170.0
19424,-0.079,0.483,0.886,-20.550,4.710,2.214,19.0,170.0
19505,-0.131,0.426,0.928,-8.519,4.557,-0.634,19.0,171.0
19585,-0.101,0.284,0.948,15.893,1.366,-2.473,19.0,171.0
19665,-0.051,0.360,0.898,1.649,-0.084,2.214,16.0,171.0
19746,-0.075,0.414,0.912,-3.832,-0.595,2.069,18.0,171.0
19827,-0.091,0.372,0.934,13.046,-2.267,-1.481,17.0,171.0
19908,-0.086,0.427,0.904,9.290,-0.740,-1.969,18.0,171.0
19991,-0.073,0.423,0.901,2.122,-0.443,-0.611,18.0,171.0
20072,-0.088,0.420,0.909,3.763,-1.481,-1.015,18.0,171.0
20153,-0.073,0.404,0.904,10.779,-0.924,0.763,20.0,170.0
20234,-0.070,0.438,0.904,6.038,-0.740,1.046,18.0,170.0
20314,-0.082,0.444,0.898,13.336,-1.458,0.382,19.0,171.0
20395,-0.077,0.365,0.942,27.282,0.275,1.847,18.0,171.0
20477,-0.064,0.520,0.865,41.954,-8.779,3.809,19.0,0.0
20560,-0.049,0.627,0.835,32.092,-7.885,13.099,23.0,0.0
20653,-0.041,0.707,0.857,2.489,-14.313,21.183,0.0,0.0
20747,-0.013,0.669,0.896,12.046,-29.412,48.656,0.0,173.0
20840,-0.175,0.634,1.289,162.260,-17.786,164.794,0.0,0.0
20933,0.098,1.396,-0.266,-2.366,113.557,250.130,0.0,0.0
21021,0.080,-1.137,0.780,3.710,91.504,168.824,123.0,0.0
21110,0.705,0.528,0.746,-66.817,12.977,24.840,117.0,0.0
21198,0.589,0.117,0.729,-26.031,18.962,50.160,115.0,0.0
21286,0.394,0.016,0.684,-28.198,29.962,33.046,115.0,0.0
21374,0.523,-0.165,0.644,-2.725,-28.198,9.298,118.0,0.0
21463,0.612,0.064,0.948,-13.267,16.214,-0.809,118.0,0.0
21554,0.648,0.302,0.746,-39.649,25.198,-10.641,118.0,0.0
21642,0.530,-0.006,0.814,-30.336,35.542,14.840,117.0,0.0
21730,0.462,0.092,0.823,-2.389,18.008,2.931,116.0,0.0
21818,0.388,-0.159,0.950,-14.237,12.817,9.557,116.0,0.0
21906,0.369,-0.165,0.924,-7.931,6.145,-12.809,116.0,0.0
21995,0.588,0.254,0.751,-23.435,18.092,13.771,117.0,0.0
22083,0.626,-0.104,0.868,-5.389,2.366,10.115,118.0,0.0
22167,0.498,0.003,0.903,-15.336,2.588,5.443,36.0,0.0
22250,0.542,0.073,0.781,10.008,0.809,11.198,37.0,0.0
22341,0.462,-0.387,1.016,-21.176,12.496,34.275,115.0,0.0
22430,0.387,-0.376,0.950,-28.687,6.565,-9.588,119.0,0.0
22518,0.408,-0.262,0.812,-12.519,4.137,23.916,117.0,0.0
22601,0.383,-0.068,0.719,47.046,3.237,-0.847,30.0,0.0
22685,0.324,-0.364,1.070,-22.687,-14.237,37.076,30.0,0.0
22768,0.335,-0.800,1.046,-33.313,-4.656,-6.481,30.0,0.0
22851,0.457,-0.305,0.838,-14.855,-20.374,7.740,30.0,0.0
22940,0.511,-0.300,0.954,-5.519,-8.641,17.908,117.0,0.0
23028,0.339,0.012,0.768,0.847,20.191,14.282,117.0,0.0
23119,0.511,-0.301,0.863,9.542,6.321,4.878,118.0,0.0
23207,0.430,-0.270,0.922,-16.458,6.389,7.893,118.0,0.0
23297,0.290,-0.509,0.916,-22.099,3.366,-7.626,116.0,0.0
23385,0.251,-0.207,0.935,17.282,2.649,-23.595,117.0,0.0
23473,0.479,-0.262,0.977,-1.260,4.573,12.397,114.0,0.0
23561,0.338,-0.449,0.815,-29.092,-4.015,0.664,117.0,0.0
23650,0.339,-0.136,0.858,6.542,10.458,-13.985,117.0,0.0
23738,0.419,-0.212,0.878,-26.053,-8.779,5.053,116.0,0.0
23826,0.499,-0.287,0.952,18.000,8.511,-9.756,116.0,0.0
23913,0.285,-0.072,0.835,1.656,19.824,14.099,29.0,0.0
24002,0.250,-0.262,0.992,-34.374,22.176,0.099,128.0,0.0
24086,0.275,-0.521,0.932,-4.893,17.908,-0.298,36.0,0.0
24169,0.152,-0.500,0.846,-8.107,-1.237,15.008,30.0,0.0
24258,0.243,-0.167,0.825,25.718,-6.634,31.031,126.0,0.0
24347,0.234,-0.393,1.100,42.740,-7.557,-10.992,126.0,0.0
24436,0.275,-0.361,0.938,-9.588,-1.504,-6.634,125.0,0.0
24524,0.360,-0.477,0.995,0.328,5.168,1.878,125.0,0.0
24613,0.328,-0.281,0.993,-11.176,15.382,10.084,126.0,0.0
24697,0.233,-0.406,0.918,3.603,4.580,2.656,27.0,0.0
24784,0.191,-0.401,0.962,0.893,12.855,7.847,37.0,0.0
24867,0.253,-0.203,0.909,0.992,14.260,2.519,27.0,0.0
24950,0.132,-0.348,0.927,11.168,-1.191,8.000,28.0,0.0
25034,0.132,-0.339,1.012,-23.137,11.519,-0.099,30.0,0.0
25117,0.251,-0.155,0.826,-4.099,7.809,10.466,30.0,0.0
25201,0.177,-0.352,0.898,13.603,6.863,-0.298,28.0,0.0
25284,0.025,-0.290,0.950,-4.008,-16.939,9.687,27.0,0.0
25372,0.264,-0.477,0.918,8.710,-10.649,-2.031,102.0,0.0
25459,0.266,-0.581,0.938,3.229,2.450,-1.634,102.0,0.0
25550,0.091,-0.459,0.918,-9.359,3.435,5.687,103.0,0.0
25638,0.164,-0.354,0.980,9.611,-9.015,-12.573,102.0,0.0
25721,0.392,-0.314,0.953,14.580,-1.664,-1.305,30.0,0.0
25809,0.167,-0.487,0.977,-7.527,-1.794,-1.023,101.0,0.0
25893,0.205,-0.470,0.920,-26.275,-4.756,-8.794,29.0,0.0
25976,0.255,-0.260,0.893,3.328,-2.962,-0.061,30.0,0.0
26060,0.194,-0.425,0.958,6.870,-6.618,5.901,27.0,0.0
26147,0.230,-0.237,0.850,-3.595,4.191,0.618,102.0,0.0
26235,0.305,-0.535,0.978,-16.481,-2.313,7.053,103.0,0.0
26322,0.200,-0.369,0.854,-5.038,3.634,-9.221,29.0,0.0
26406,0.188,-0.442,0.935,5.298,0.649,-11.305,30.0,0.0
26489,0.169,-0.478,0.947,-16.580,-5.550,-2.779,29.0,0.0
26573,0.237,-0.386,0.888,0.458,-4.969,-5.931,28.0,0.0
26657,0.231,-0.404,0.923,-0.092,4.321,7.115,30.0,0.0
26740,0.289,-0.404,0.945,-8.115,-2.244,-8.534,29.0,0.0
26824,0.341,0.073,0.737,8.908,4.298,10.954,30.0,0.0
26908,0.211,-0.415,0.933,0.031,2.450,3.237,30.0,0.0
26991,0.276,-0.156,0.827,-3.947,8.969,-6.557,30.0,0.0
27078,0.331,-0.472,0.958,22.229,0.611,-15.206,29.0,0.0
27162,0.261,-0.298,0.851,3.466,-3.878,11.519,29.0,0.0
27245,0.219,-0.473,0.885,20.153,2.122,-4.992,29.0,0.0
27330,0.086,-0.341,0.925,-20.832,-4.382,-24.099,31.0,0.0
27414,0.171,-0.527,0.877,-28.366,-38.015,-74.313,37.0,0.0
27503,0.331,-0.109,0.713,-32.672,-33.718,-102.382,107.0,0.0
27587,0.577,-0.474,0.781,-77.618,-16.496,-141.351,32.0,0.0
27672,0.646,-0.245,0.578,-117.939,16.481,-164.809,36.0,0.0
27766,0.655,-0.549,0.626,-130.992,65.298,-181.359,0.0,0.0
27852,1.287,-0.385,1.041,-4.237,151.168,-144.328,17.0,0.0
27936,0.144,-0.143,0.803,127.275,92.557,-141.145,23.0,0.0
28028,-0.067,0.521,0.775,81.542,93.901,-109.992,0.0,167.0
28110,-0.008,0.805,0.841,-57.023,86.298,-93.962,27.0,162.0
28192,-0.080,0.076,1.236,-67.252,70.366,-55.069,25.0,162.0
28274,-0.293,0.050,1.227,43.947,12.649,-21.679,25.0,161.0
28356,-0.096,0.182,0.924,41.061,-19.244,-0.672,27.0,161.0
28437,0.009,0.264,0.903,47.023,-2.305,-9.008,26.0,160.0
28519,-0.085,0.397,0.968,46.977,-3.740,-9.260,26.0,159.0
28604,-0.040,0.455,0.877,21.702,-6.931,-5.412,28.0,159.0
28686,-0.045,0.445,0.890,12.649,-1.160,-4.107,29.0,159.0
28768,-0.048,0.489,0.872,-2.649,0.313,-0.557,29.0,159.0
28850,-0.046,0.419,0.922,-9.947,1.565,0.298,30.0,159.0
28932,-0.047,0.391,0.927,6.641,-0.588,0.122,30.0,159.0
29019,-0.047,0.465,0.892,8.664,-0.779,-0.901,29.0,159.0
29100,-0.042,0.467,0.884,-1.489,0.267,-0.656,29.0,159.0
29180,-0.048,0.426,0.914,-3.756,0.489,-0.359,29.0,159.0
29261,-0.052,0.441,0.915,2.359,0.130,-0.046,29.0,159.0
29344,-0.047,0.438,0.902,1.221,0.115,-0.092,29.0,159.0
29425,-0.051,0.452,0.900,1.679,-0.076,-0.679,28.0,159.0
29506,-0.046,0.431,0.903,-2.382,-0.710,0.214,28.0,159.0
29587,-0.043,0.422,0.901,11.344,-2.305,-2.985,30.0,158.0
29668,-0.043,0.472,0.880,14.794,-4.053,-5.687,30.0,159.0
29749,-0.033,0.510,0.866,9.992,-1.366,-2.779,30.0,158.0
29830,-0.029,0.519,0.855,-3.710,0.336,-0.069,30.0,158.0
29911,-0.048,0.472,0.900,-0.359,0.122,-0.489,30.0,158.0
29991,-0.031,0.463,0.898,9.290,-2.221,-0.267,30.0,158.0
30085,-0.182,0.430,1.233,-25.878,-31.130,0.611,0.0,157.0
30175,-0.720,-0.414,1.868,3.427,-178.969,-33.885,0.0,151.0
30268,-0.426,0.094,0.952,250.130,-250.137,-151.252,0.0,0.0
30361,-0.278,1.011,-1.393,-86.832,-140.405,-96.450,0.0,0.0
30454,0.049,0.879,-0.665,40.275,-62.137,-17.618,0.0,0.0
30547,0.562,1.084,0.075,7.817,-19.924,-19.229,0.0,0.0
30641,0.509,1.077,0.097,50.573,-8.061,25.153,0.0,0.0
30733,0.337,1.086,0.124,-60.679,-1.672,3.061,0.0,0.0
30826,0.197,0.177,0.374,-39.252,-11.725,30.000,0.0,0.0
30922,0.912,0.544,0.247,-46.802,-5.824,20.802,0.0,0.0
31015,0.664,0.800,0.137,-4.740,-8.282,-12.153,0.0,0.0
31109,0.277,0.585,0.063,-24.641,-5.519,12.924,0.0,0.0
31201,0.792,0.950,0.052,-13.260,-0.366,-2.473,0.0,0.0
31294,0.784,1.156,-0.058,0.794,5.015,-26.786,0.0,0.0
31387,0.442,0.832,0.106,-3.725,2.534,-2.038,0.0,0.0
31480,0.408,0.752,0.168,-59.969,3.336,-24.008,0.0,0.0
31574,0.428,0.970,0.057,-6.435,-5.176,-19.840,0.0,0.0
31666,0.443,0.768,0.189,17.771,-8.282,-32.015,0.0,0.0
31762,0.483,0.916,0.105,-7.427,-0.084,-22.656,0.0,0.0
31855,0.364,1.111,0.146,12.450,2.969,-36.550,0.0,0.0
31948,0.293,1.054,0.061,2.947,-6.687,-17.817,0.0,0.0
32041,0.244,0.923,-0.118,-36.450,6.382,-27.160,0.0,0.0
32135,0.339,1.062,0.045,0.061,22.137,-31.481,0.0,0.0
32228,0.297,1.303,0.216,27.176,10.473,4.305,0.0,0.0
32321,0.104,0.872,0.252,-61.321,5.015,-26.130,0.0,0.0
32414,0.126,1.033,0.102,-63.298,-2.084,-41.351,0.0,0.0
32507,0.126,1.143,0.013,2.420,-8.336,10.687,0.0,0.0
32604,0.267,1.259,-0.138,22.977,20.740,0.107,0.0,0.0
32696,0.104,0.961,0.009,57.786,42.351,2.985,0.0,0.0
32789,0.100,0.721,0.058,96.817,41.710,9.427,0.0,0.0
32882,0.169,0.973,-0.236,134.137,35.031,5.321,0.0,0.0
32975,0.244,1.417,-0.503,0.092,39.466,-20.817,0.0,0.0
33069,0.174,1.054,-0.215,38.130,35.939,15.153,0.0,0.0
33162,0.248,0.689,-0.077,-0.878,30.794,-0.580,0.0,0.0
33255,0.251,0.660,-0.058,-15.137,16.198,-11.198,0.0,0.0
33348,0.058,0.997,-0.228,-4.389,1.863,-35.183,0.0,0.0
33441,0.072,0.990,-0.174,24.435,-4.809,-28.626,0.0,0.0
33538,0.017,1.175,-0.260,12.427,-0.176,-37.870,0.0,0.0
33631,0.053,1.049,-0.140,16.832,4.527,-6.450,0.0,0.0
33724,0.023,1.083,-0.267,-12.374,-0.672,-11.443,0.0,0.0
33817,0.016,1.106,-0.315,19.672,2.298,15.634,0.0,0.0
33910,0.014,1.065,-0.315,26.115,5.473,2.168,0.0,0.0
34003,0.033,0.937,-0.222,8.496,6.763,10.336,0.0,0.0
34097,0.017,0.964,-0.358,31.321,8.473,7.840,0.0,0.0
34190,0.008,0.919,-0.410,-18.595,18.611,12.626,0.0,0.0
34283,0.056,1.036,-0.463,-6.252,21.275,2.595,0.0,0.0
34379,0.104,0.841,-0.320,-101.374,27.748,-2.786,0.0,0.0
34472,0.095,0.928,-0.155,-117.397,28.565,-21.618,0.0,0.0
34567,0.058,0.841,0.111,-57.840,34.008,-27.214,0.0,0.0
34660,0.073,0.912,0.300,-14.901,33.107,-19.595,0.0,0.0
34753,-0.016,1.021,0.371,0.824,15.084,-15.008,0.0,0.0
34846,-0.083,0.986,0.311,1.405,0.779,-2.137,0.0,0.0
34939,-0.076,0.982,0.232,11.015,-10.206,-3.702,0.0,0.0
35033,-0.082,1.037,0.139,-0.656,-12.061,-8.282,0.0,0.0
35127,-0.084,1.067,0.108,-2.282,-12.000,-14.153,0.0,0.0
35223,-0.055,1.000,0.206,2.695,-5.389,-4.260,0.0,0.0
35316,-0.116,0.860,0.244,0.977,-7.969,-9.931,0.0,0.0
35409,-0.118,0.924,0.174,4.389,-9.137,-26.542,0.0,0.0
35492,-0.171,1.045,0.167,-13.626,-1.023,-14.359,0.0,17.0
35587,-0.158,1.068,0.175,9.153,0.573,-2.069,0.0,0.0
35680,-0.214,0.973,0.192,1.313,2.176,0.656,0.0,0.0
35773,-0.275,1.035,0.174,-5.702,-0.649,0.565,0.0,0.0
35866,-0.260,1.086,0.166,-9.496,-4.290,-4.115,0.0,0.0
35959,-0.223,1.035,0.164,-11.939,-3.107,5.290,0.0,0.0
36054,-0.188,0.979,0.216,-13.252,-1.924,-4.802,0.0,0.0
36150,-0.179,1.016,0.247,-6.336,-2.481,-1.786,0.0,0.0
36243,-0.179,0.993,0.263,-14.626,-5.374,-2.977,0.0,0.0
36337,-0.148,0.928,0.267,-3.740,-7.420,1.168,0.0,0.0
36430,-0.164,0.894,0.277,-2.794,-3.550,3.443,0.0,0.0
36525,-0.147,0.901,0.301,-0.641,-2.473,0.252,0.0,0.0
36618,-0.161,0.902,0.309,-12.626,-3.611,-2.298,0.0,0.0
36711,-0.133,0.912,0.316,-6.176,-2.763,-1.168,0.0,0.0
36805,-0.149,0.931,0.306,1.802,-0.924,-1.847,0.0,0.0
36898,-0.162,0.952,0.299,-0.420,2.412,0.374,0.0,0.0
36996,-0.155,0.986,0.305,-6.977,0.405,0.000,0.0,0.0
37089,-0.148,0.946,0.297,-8.534,-3.282,-1.481,0.0,0.0
37182,-0.123,0.944,0.286,-14.038,2.191,-3.260,0.0,0.0
37276,-0.149,0.924,0.318,-11.107,6.695,2.198,0.0,0.0
37369,-0.165,0.956,0.377,-5.794,1.603,0.038,0.0,0.0
37463,-0.170,1.052,0.316,-7.191,-7.931,3.489,0.0,0.0
37557,-0.147,0.948,0.270,13.053,-5.351,7.336,0.0,0.0
37650,-0.128,0.919,0.261,1.229,2.748,3.573,0.0,0.0
37743,-0.105,0.905,0.358,-1.504,4.832,-3.298,0.0,0.0
37837,-0.130,0.909,0.347,-2.939,4.031,-2.244,0.0,0.0
37934,-0.174,0.902,0.330,-0.740,0.359,-3.160,0.0,0.0
38028,-0.146,0.901,0.356,0.618,1.389,-1.344,0.0,0.0
38121,-0.163,0.993,0.297,-4.099,0.275,-1.374,0.0,0.0
38214,-0.152,1.022,0.270,4.573,-1.878,1.901,0.0,0.0
38308,-0.116,0.967,0.302,3.176,-1.679,3.008,0.0,0.0
38402,-0.128,1.004,0.270,2.786,-2.626,1.870,0.0,0.0
38496,-0.135,0.979,0.279,10.420,-2.511,5.153,0.0,0.0
38589,-0.134,0.916,0.309,2.901,-2.214,4.656,0.0,0.0
38683,-0.132,0.927,0.295,13.275,-4.321,7.084,0.0,0.0
38780,-0.102,0.968,0.268,9.382,-1.679,11.321,0.0,0.0
38874,-0.057,0.943,0.249,12.000,-0.137,18.168,0.0,0.0
38968,-0.006,0.912,0.236,-2.565,3.679,23.023,0.0,0.0
39061,0.032,0.986,0.157,3.679,9.015,26.153,0.0,0.0
39155,0.027,0.919,0.175,18.069,7.588,13.313,0.0,0.0
39248,-0.009,0.877,0.175,17.015,10.473,0.847,0.0,0.0
39343,0.046,1.035,0.211,-23.573,10.153,5.817,0.0,0.0
39436,0.084,1.167,0.397,11.450,-5.687,10.374,0.0,0.0
39530,-0.053,1.071,0.428,-76.298,-21.183,8.679,0.0,0.0
39624,0.102,0.919,0.396,-60.427,-13.580,17.763,0.0,0.0
39720,0.006,0.607,0.490,-66.389,0.878,-32.053,0.0,0.0
39815,0.109,0.792,0.514,7.534,7.137,-15.244,0.0,0.0
39909,-0.044,1.305,0.697,-8.802,8.870,-13.198,0.0,0.0
40002,0.040,0.750,0.629,8.015,-2.321,37.756,0.0,0.0
40096,0.088,0.676,0.570,5.076,2.641,30.832,0.0,0.0
40189,0.113,0.820,0.599,-4.443,10.756,5.069,0.0,0.0
40284,0.042,0.765,0.645,-21.351,14.809,-7.015,0.0,0.0
40378,0.023,0.703,0.694,-16.977,10.130,-14.450,0.0,0.0
40471,-0.021,0.732,0.647,18.649,10.786,-24.137,0.0,0.0
40568,-0.035,0.732,0.664,-19.817,4.435,-6.595,0.0,0.0
40663,-0.040,0.651,0.790,-21.397,3.809,0.466,0.0,0.0
40762,-0.019,0.672,0.751,22.298,-3.137,4.298,0.0,0.0
40854,-0.033,0.720,0.688,26.328,-7.153,6.473,0.0,0.0
40947,0.001,0.787,0.613,29.603,-5.908,4.496,0.0,0.0
41040,0.031,0.831,0.565,7.153,-0.573,-0.641,0.0,0.0
41133,0.015,0.788,0.635,-4.733,0.237,0.023,0.0,0.0
41226,-0.004,0.793,0.617,-1.122,1.099,3.237,0.0,0.0
41319,0.030,0.794,0.634,-0.931,3.412,4.412,0.0,0.0
41411,0.021,0.779,0.639,3.466,1.450,1.405,0.0,0.0
41506,0.020,0.794,0.626,10.626,-0.137,1.962,0.0,0.0
41600,0.030,0.824,0.571,17.977,-1.481,4.458,0.0,0.0
41693,0.039,0.861,0.543,6.260,0.069,2.298,0.0,0.0
41785,0.035,0.835,0.567,-2.496,1.450,0.267,0.0,0.0
41878,0.067,0.827,0.577,-0.992,-1.160,-2.275,0.0,0.0
41971,0.033,0.894,0.564,-5.260,-0.893,-14.550,0.0,0.0
42064,-0.001,0.825,0.586,-5.779,-0.435,-10.237,0.0,0.0
42158,0.000,0.791,0.650,-3.916,1.809,4.107,0.0,0.0
42250,0.028,0.835,0.560,8.489,-0.321,7.374,0.0,0.0
42346,0.037,0.833,0.563,-2.198,1.679,-0.527,0.0,0.0
42438,0.027,0.827,0.579,-0.977,1.260,0.405,0.0,0.0
42531,0.038,0.831,0.578,-2.046,1.733,1.794,0.0,0.0
42625,0.019,0.821,0.590,-7.130,1.725,0.496,0.0,0.0
42718,0.020,0.814,0.600,-14.817,4.527,-0.351,0.0,0.0
42811,0.016,0.784,0.635,-6.527,3.229,-0.489,0.0,0.0
42903,0.017,0.801,0.608,-0.137,1.130,-0.107,0.0,0.0
42996,0.019,0.801,0.609,-6.008,2.252,-0.183,0.0,0.0
43089,0.012,0.780,0.633,-2.237,0.641,-1.023,0.0,0.0
43183,0.015,0.804,0.607,-5.061,1.954,-1.000,0.0,0.0
43278,0.010,0.793,0.628,-9.344,3.954,0.359,0.0,0.0
43371,0.009,0.798,0.608,-8.099,12.374,11.382,0.0,0.0
43464,-0.013,0.848,0.605,41.809,11.405,32.573,0.0,0.0
43557,0.096,1.253,0.387,-45.069,40.527,44.260,0.0,0.0
43651,-0.050,0.879,0.732,-1.763,19.985,132.298,0.0,0.0
43744,0.278,1.102,0.439,131.069,48.855,244.366,0.0,0.0
43837,0.249,0.340,0.549,-74.504,62.710,209.153,0.0,0.0
43930,0.349,0.540,0.575,-19.710,57.130,189.931,0.0,0.0
44023,0.540,0.510,0.572,24.947,73.550,213.023,0.0,0.0
44114,0.632,-0.240,1.045,18.847,71.756,139.053,116.0,0.0
44198,0.397,0.872,0.474,-95.527,120.061,89.519,37.0,0.0
44282,0.260,0.149,0.899,3.466,86.092,106.817,36.0,0.0
44370,0.111,-0.477,1.039,-10.260,31.595,49.977,107.0,0.0
44459,-0.010,-0.678,1.058,37.130,-16.168,12.137,107.0,0.0
44547,0.188,-0.275,0.990,-23.351,45.130,11.969,107.0,0.0
44635,0.181,0.086,1.067,3.855,19.168,14.809,106.0,0.0
44723,0.145,-0.026,0.934,-12.802,24.847,17.611,106.0,0.0
44811,0.166,-0.045,0.902,28.534,27.695,25.939,104.0,0.0
44901,0.028,0.017,1.023,-14.053,10.267,20.794,104.0,0.0
44989,0.033,-0.170,1.030,-12.534,10.145,9.656,104.0,0.0
45077,0.032,-0.208,0.927,-9.313,13.626,10.336,103.0,0.0
45165,0.037,-0.034,1.045,-7.336,9.687,8.252,103.0,0.0
45252,0.055,-0.082,0.966,-15.038,9.870,17.725,103.0,0.0
45340,-0.107,-0.171,0.978,-8.725,6.267,13.672,103.0,0.0
45428,-0.092,-0.460,1.072,20.969,-12.427,-15.756,102.0,0.0
45516,0.104,0.151,0.973,-0.824,6.153,3.656,102.0,0.0
45603,0.033,-0.168,0.973,-22.687,-3.107,-5.427,102.0,0.0
45694,0.057,-0.144,0.969,-16.641,1.061,-4.000,101.0,0.0
45783,0.040,-0.169,1.000,6.565,7.977,16.061,102.0,0.0
45870,0.026,-0.203,0.968,-10.733,7.870,13.908,101.0,0.0
45958,-0.072,-0.199,0.959,-3.092,7.702,-17.427,101.0,0.0
46046,0.021,-0.209,1.049,-25.214,2.046,-1.130,101.0,0.0
46134,0.034,-0.152,1.017,-12.924,5.305,13.656,102.0,0.0
46221,-0.104,-0.268,0.981,-9.504,7.534,9.023,101.0,0.0
46309,-0.202,-0.474,0.985,20.076,-19.847,-25.733,101.0,0.0
46397,0.039,-0.730,1.150,-19.710,-8.656,0.374,102.0,0.0
46488,0.006,-0.500,1.089,-5.275,4.763,-13.008,102.0,0.0
46576,-0.060,-0.731,1.171,0.397,-2.031,-13.573,102.0,0.0
46664,-0.060,-0.451,1.049,5.412,-0.015,-2.542,103.0,0.0
46751,-0.071,-0.378,1.125,-7.099,12.626,6.817,100.0,0.0
46839,-0.090,-0.092,0.912,19.168,-5.000,4.061,102.0,0.0
46927,-0.101,-0.430,0.980,-9.817,-2.832,8.565,101.0,0.0
47015,-0.032,-0.223,0.913,7.824,0.412,-5.336,102.0,0.0
47102,-0.054,-0.298,0.985,7.198,-2.031,2.443,102.0,0.0
47191,-0.033,-0.140,0.961,-3.420,-1.191,-1.328,102.0,0.0
47282,-0.047,-0.372,1.037,2.458,-0.779,-4.122,102.0,0.0
47370,-0.109,-0.340,0.998,-6.802,-5.542,7.061,102.0,0.0
47458,0.023,-0.312,1.013,-12.061,-11.221,0.725,102.0,0.0
47548,0.047,-0.045,0.901,7.718,7.878,3.221,132.0,0.0
47637,-0.025,-0.319,1.030,5.901,1.260,6.366,132.0,0.0
47727,0.041,-0.131,0.927,3.527,9.344,7.145,132.0,0.0
47816,-0.056,-0.250,0.998,10.611,5.786,12.115,132.0,0.0
47906,-0.021,-0.257,0.993,-5.679,7.031,7.802,132.0,0.0
48000,-0.043,-0.210,0.901,-61.160,26.580,8.588,0.0,0.0
48097,-0.161,-0.295,0.929,27.031,27.130,39.443,199.0,0.0
48190,-0.249,-0.270,0.997,-12.389,9.191,32.565,197.0,0.0
48283,-0.231,-0.267,0.954,-18.550,3.366,15.069,197.0,0.0
48376,-0.235,-0.296,0.939,7.336,5.748,9.527,196.0,0.0
48471,-0.270,-0.321,0.927,9.534,1.595,13.634,196.0,0.0
48564,-0.295,-0.310,0.900,12.496,-3.115,9.252,196.0,0.0
48657,-0.280,-0.222,0.922,8.137,0.000,10.397,196.0,0.0
48750,-0.248,-0.161,0.927,13.992,-0.038,7.313,196.0,0.0
48843,-0.200,-0.181,0.993,18.328,-2.542,3.656,196.0,0.0
48941,-0.232,-0.190,0.974,12.198,-0.595,5.595,196.0,0.0
49034,-0.245,-0.147,0.970,21.115,-4.198,0.359,196.0,0.0
49117,-0.220,-0.022,0.941,-4.450,-3.168,-12.336,196.0,17.0
49211,-0.206,-0.031,0.941,9.840,-2.168,-10.198,197.0,0.0
49304,-0.271,-0.222,1.025,-2.786,-11.336,-9.008,197.0,0.0
49397,-0.260,-0.191,1.001,-33.046,-15.023,-12.023,197.0,0.0
49491,-0.166,-0.137,0.992,-12.122,-16.122,-9.771,197.0,0.0
49586,-0.113,-0.109,0.941,-1.985,-3.366,-12.908,0.0,0.0
49679,-0.158,-0.154,1.001,-9.466,5.084,-10.130,0.0,0.0
49776,-0.131,-0.016,0.992,-0.260,8.160,19.099,199.0,0.0
49869,-0.152,-0.096,0.954,18.534,-7.069,1.687,198.0,0.0
49964,-0.159,-0.150,0.945,-3.458,4.611,5.282,197.0,0.0
50057,-0.184,-0.185,0.884,7.137,-3.901,-9.695,198.0,0.0
50151,-0.149,-0.182,1.048,-6.748,0.015,-7.160,0.0,0.0
50244,-0.154,-0.133,1.029,-10.450,-8.664,-5.153,0.0,0.0
50338,-0.128,-0.168,0.952,-9.496,-4.252,9.771,0.0,0.0
50432,-0.122,-0.303,1.025,-9.015,-11.924,-4.046,197.0,0.0
50526,-0.056,-0.085,0.941,-6.389,6.756,-1.710,197.0,0.0
50622,-0.157,-0.252,1.028,-3.511,1.710,0.511,198.0,0.0
50716,-0.065,-0.112,0.899,-1.160,24.557,4.038,0.0,0.0
50810,-0.189,-0.125,1.006,28.939,-7.588,0.962,0.0,0.0
50904,-0.136,-0.177,0.960,-0.687,3.344,3.198,197.0,0.0
50998,-0.124,-0.111,0.956,16.046,12.290,-4.344,197.0,0.0
51091,-0.186,-0.154,1.009,-5.092,4.565,10.092,196.0,0.0
51185,-0.149,-0.097,0.913,13.198,1.664,-3.733,196.0,0.0
51278,-0.212,-0.251,1.037,-0.969,-8.206,-6.511,197.0,0.0
51373,-0.132,-0.140,0.997,19.611,-20.061,-8.504,0.0,0.0
51470,-0.131,-0.235,0.988,-12.145,6.840,-3.992,0.0,0.0
51564,-0.127,-0.061,0.957,8.427,5.229,4.466,0.0,0.0
51657,-0.135,-0.027,0.987,6.130,-8.679,-6.061,0.0,0.0
51751,-0.056,0.028,0.923,-8.771,-0.107,-8.122,199.0,0.0
51846,-0.111,-0.168,1.023,-12.328,5.053,0.618,0.0,0.0
51939,-0.167,-0.219,1.018,8.160,-3.893,-4.656,0.0,0.0
52033,-0.138,-0.188,0.996,14.824,-10.214,-12.076,199.0,0.0
52127,-0.109,-0.065,0.979,-0.489,-0.573,-3.267,0.0,0.0
52221,-0.192,-0.192,0.933,-57.351,8.282,-9.038,0.0,0.0
52318,-0.201,-0.410,0.934,-49.618,10.588,-32.420,198.0,0.0
52414,-0.192,-0.216,0.934,7.847,-7.389,-45.985,135.0,0.0
52507,-0.185,-0.308,0.920,-18.099,-21.137,-61.275,0.0,0.0
52595,-0.074,-0.234,0.918,-1.130,-33.679,-73.847,108.0,0.0
52682,0.139,-0.287,0.944,-26.565,-42.664,-98.611,109.0,0.0
52770,0.243,-0.415,1.028,-12.313,-20.481,-106.977,111.0,0.0
52858,0.253,-0.348,0.811,-45.061,-14.328,-118.557,114.0,0.0
52947,0.379,-0.355,0.765,-52.275,-0.725,-184.290,128.0,0.0
53030,0.542,-0.591,0.805,-55.725,65.779,-243.870,17.0,0.0
53116,0.290,-0.215,0.833,0.519,111.275,-219.817,17.0,0.0
53198,0.215,0.329,0.908,41.992,104.771,-154.733,22.0,0.0
53280,0.015,0.311,1.055,56.031,73.733,-102.313,24.0,166.0
53371,-0.111,0.140,1.101,-21.137,57.931,-96.496,0.0,164.0
53452,-0.220,-0.032,1.191,14.901,33.321,-68.053,27.0,161.0
53533,-0.129,0.431,0.924,99.229,-22.160,-16.351,29.0,160.0
53614,0.001,0.256,0.925,72.519,-16.244,-11.351,30.0,158.0
53695,-0.012,0.424,0.873,72.695,-5.344,-12.344,30.0,157.0
53776,-0.049,0.557,0.866,50.855,-6.511,-8.885,32.0,157.0
53860,-0.020,0.614,0.814,14.595,-3.298,-1.969,34.0,157.0
53942,-0.011,0.558,0.833,-2.985,0.840,-0.595,33.0,157.0
54023,-0.032,0.509,0.872,-6.557,0.809,-0.069,33.0,158.0
54104,-0.039,0.521,0.867,-1.198,0.534,0.053,34.0,157.0
54185,-0.021,0.535,0.856,2.344,0.573,-0.038,35.0,157.0
54266,-0.023,0.528,0.857,-0.733,0.282,-0.115,34.0,157.0
54347,-0.031,0.524,0.861,-0.267,0.420,-0.191,34.0,157.0
54428,-0.034,0.522,0.858,-1.542,0.634,0.076,34.0,157.0
54510,-0.034,0.520,0.853,2.366,0.038,-0.176,34.0,158.0
54594,-0.022,0.535,0.855,0.611,0.015,-0.290,36.0,157.0
54675,-0.033,0.534,0.866,-3.229,0.840,-0.344,34.0,158.0
54757,-0.025,0.520,0.857,1.031,0.260,-0.153,34.0,158.0
54838,-0.026,0.552,0.848,-3.748,1.229,-0.145,34.0,157.0
54919,-0.028,0.520,0.860,-3.924,1.313,0.176,33.0,158.0
55001,-0.027,0.507,0.867,-0.092,0.496,-0.069,33.0,158.0
55081,-0.030,0.537,0.852,-1.885,1.000,-0.153,33.0,157.0
55162,-0.039,0.538,0.851,-11.977,3.992,-0.336,33.0,157.0
55244,-0.052,0.464,0.889,-18.420,4.672,0.351,32.0,158.0
55328,-0.023,0.496,0.886,-1.321,2.901,-3.275,32.0,158.0
55409,-0.052,0.552,0.895,2.565,0.634,-7.916,31.0,158.0
55490,-0.085,0.854,0.823,-100.771,3.038,11.771,31.0,158.0
55571,-0.049,0.165,1.061,-129.687,-11.458,38.595,30.0,160.0
55653,0.013,-0.015,1.401,75.786,-62.786,25.038,30.0,161.0
55744,0.102,0.906,0.937,25.153,-105.992,23.443,0.0,161.0
55828,-0.047,-0.029,0.939,-57.763,-65.244,0.023,84.0,161.0
55915,0.351,0.073,0.689,-1.656,-62.847,10.802,130.0,161.0
56006,0.491,0.257,0.777,-1.252,-37.336,5.557,0.0,160.0
56095,0.616,0.461,0.708,30.412,-39.046,-6.328,0.0,159.0
56186,0.484,0.161,0.850,-15.580,-20.168,-3.427,0.0,159.0
56276,0.464,0.208,0.752,3.443,-25.847,13.618,0.0,159.0
56368,0.612,0.150,0.789,-17.870,-10.496,4.885,0.0,159.0
56459,0.688,0.231,0.766,-10.107,-9.565,4.107,0.0,159.0
56550,0.657,0.235,0.714,25.275,-12.786,1.260,0.0,159.0
56637,0.526,-0.019,0.790,-13.580,2.748,-5.733,130.0,159.0
56721,0.661,-0.004,0.812,0.282,-8.527,9.145,78.0,159.0
56805,0.735,0.081,0.835,4.977,-3.313,0.916,76.0,159.0
56892,0.660,0.141,0.830,-18.321,-0.863,-4.328,75.0,159.0
56976,0.559,0.308,0.754,4.214,-9.153,-5.061,76.0,158.0
57063,0.566,0.391,0.630,-0.611,-12.542,2.351,128.0,158.0
57147,0.637,0.154,0.720,12.115,-10.130,0.870,76.0,158.0
57230,0.701,0.036,0.781,8.641,-8.817,5.038,75.0,158.0
57314,0.666,0.137,0.702,4.122,-5.489,-3.962,75.0,157.0
57398,0.650,0.138,0.720,-4.924,-1.863,1.267,74.0,157.0
57489,0.799,0.222,0.761,8.466,3.076,0.824,0.0,157.0
57579,0.590,0.266,0.771,26.443,-1.290,-12.183,0.0,157.0
57673,0.639,0.333,0.682,-19.351,-16.076,21.748,0.0,157.0
57757,0.471,0.222,0.641,-18.511,-8.626,0.603,74.0,157.0
57848,0.794,0.261,0.615,-7.389,-8.420,12.160,0.0,157.0
57932,0.578,0.259,0.656,-2.092,-11.954,9.618,75.0,157.0
58016,0.949,0.262,0.670,3.374,-6.252,4.389,72.0,157.0
58099,0.748,0.204,0.734,28.847,-9.901,3.733,71.0,157.0
58183,0.785,0.123,0.690,-10.771,-4.023,0.145,70.0,158.0
58267,0.708,0.130,0.675,-2.099,-9.656,-4.725,70.0,157.0
58350,0.688,0.151,0.618,0.679,-9.672,-3.015,69.0,157.0
58437,0.767,0.067,0.612,3.557,-10.954,1.550,69.0,158.0
58521,0.765,0.125,0.634,-1.260,-6.824,2.824,68.0,157.0
58604,0.818,0.059,0.634,0.580,-7.053,0.290,69.0,157.0
58688,0.771,0.093,0.637,10.160,-9.603,1.771,68.0,157.0
58771,0.834,0.022,0.622,58.962,-23.183,1.435,68.0,157.0
58855,0.775,-0.018,0.618,-31.924,-8.618,1.847,69.0,157.0
58939,0.839,0.269,0.494,-4.290,-7.321,-0.351,68.0,157.0
59022,0.861,0.065,0.598,9.504,-3.435,-9.626,70.0,156.0
59106,0.832,0.313,0.531,7.687,-7.542,-9.290,69.0,155.0
59193,0.897,0.226,0.592,1.756,-10.412,2.145,72.0,155.0
59276,0.936,0.147,0.609,10.176,-11.023,-8.863,70.0,155.0
59367,0.873,0.153,0.504,45.023,-18.084,-10.481,0.0,154.0
59458,0.857,0.186,0.492,-1.595,-12.511,-1.267,0.0,154.0
59549,0.866,0.333,0.388,-20.626,-13.214,6.580,0.0,154.0
59640,0.844,0.303,0.335,-8.786,-6.649,5.321,0.0,154.0
59731,0.985,0.467,0.240,-20.504,4.107,8.756,0.0,155.0
59823,0.856,0.266,0.423,-7.618,-1.176,8.771,0.0,155.0
59914,0.978,0.312,0.463,-8.427,6.038,-3.802,0.0,155.0
60008,0.814,0.281,0.429,1.565,-7.847,1.489,0.0,155.0
60099,0.900,0.174,0.438,-4.214,-10.855,0.420,0.0,156.0
60190,0.896,0.172,0.404,-6.336,-8.672,2.107,0.0,155.0
60281,1.017,0.383,0.315,-4.191,-5.252,1.947,0.0,155.0
60372,0.959,0.289,0.328,-15.313,3.588,-4.954,0.0,155.0
60464,0.946,0.224,0.333,16.748,-3.145,3.031,0.0,155.0
60555,1.088,0.293,0.374,16.618,24.725,-8.779,0.0,156.0
60646,0.904,0.103,0.553,22.977,5.397,6.962,0.0,157.0
60730,0.908,0.222,0.517,-16.229,9.771,-2.573,77.0,157.0
60817,0.894,0.235,0.454,2.656,1.206,-2.183,73.0,157.0
60908,0.902,0.245,0.440,4.817,0.153,-3.473,0.0,158.0
60992,0.973,0.359,0.358,-42.756,10.298,-4.672,70.0,157.0
61075,0.827,0.085,0.507,-4.847,-0.443,3.969,67.0,157.0
61159,0.880,0.151,0.453,-3.076,-3.031,8.053,66.0,157.0
61243,0.888,0.157,0.481,8.809,-3.855,10.328,64.0,158.0
61326,0.896,0.123,0.446,66.092,-16.947,22.092,62.0,158.0
61410,0.863,-0.028,0.511,22.298,-8.473,13.099,64.0,159.0
61501,0.960,0.019,0.448,-0.244,-2.290,-0.366,0.0,159.0
61588,0.936,0.144,0.446,5.229,-6.817,1.740,61.0,159.0
61672,0.979,0.189,0.399,-7.481,-3.267,-4.595,60.0,159.0
61755,0.905,0.219,0.375,0.176,-5.252,-0.244,60.0,159.0
61839,0.966,0.285,0.315,-38.954,0.557,-3.511,61.0,159.0
61930,0.922,0.265,0.337,13.481,-6.252,6.092,0.0,159.0
62014,0.904,0.126,0.369,5.901,-2.221,6.252,59.0,159.0
62097,0.900,0.122,0.341,-10.031,-4.802,13.053,60.0,160.0
62189,0.854,-0.018,0.423,22.031,-6.473,-2.137,0.0,159.0
62272,1.062,-0.039,0.441,-1.550,0.939,-0.832,59.0,160.0
62367,0.939,0.175,0.394,1.244,-1.939,3.336,0.0,160.0
62458,1.042,0.225,0.266,-28.481,7.511,2.176,0.0,160.0
62551,0.966,0.341,0.205,32.916,-5.153,4.626,0.0,160.0
62642,0.914,0.129,0.361,21.687,2.069,-4.275,0.0,159.0
62726,0.932,0.083,0.417,8.351,-0.550,0.878,64.0,159.0
62810,0.831,-0.022,0.406,-1.519,-0.214,-2.336,58.0,159.0
62901,0.933,0.056,0.372,-41.931,8.389,-10.344,0.0,159.0
62993,0.961,0.219,0.343,-37.725,6.122,-16.359,0.0,159.0
63076,0.960,0.249,0.293,-3.336,2.099,-3.702,59.0,159.0
63160,0.898,0.030,0.346,-56.107,25.595,-2.137,60.0,159.0
63249,0.927,-0.019,0.465,83.977,-4.511,-26.779,0.0,157.0
63345,0.893,0.040,0.627,-44.679,12.351,-27.405,0.0,156.0
63436,0.868,0.326,0.478,18.290,-3.183,-6.595,0.0,156.0
63526,0.929,0.192,0.407,-5.710,-2.168,-14.603,0.0,156.0
63618,0.983,0.298,0.318,8.046,-2.725,-6.092,0.0,156.0
63708,0.903,0.078,0.477,4.496,-11.443,10.992,0.0,157.0
63790,0.880,-0.005,0.375,-17.893,-4.382,-4.198,61.0,157.0
63881,0.810,0.081,0.393,-6.870,-5.947,5.595,0.0,157.0
63971,0.844,0.167,0.370,29.573,-8.977,0.870,0.0,156.0
64059,0.919,0.137,0.343,20.573,0.031,-8.000,0.0,156.0
64150,0.913,0.155,0.368,-4.298,1.893,-0.710,0.0,155.0
64240,0.908,0.295,0.368,6.824,2.473,-12.214,0.0,155.0
64330,0.968,0.431,0.374,-0.779,2.382,1.130,0.0,155.0
64420,0.952,0.179,0.443,6.328,-4.847,23.336,0.0,156.0
64512,0.922,0.057,0.385,-12.099,-8.565,-2.573,0.0,156.0
64602,0.946,0.266,0.227,28.183,-11.305,-16.985,0.0,156.0
64692,0.862,0.221,0.256,-12.595,-2.527,-10.573,0.0,154.0
64783,1.065,0.252,0.294,12.145,4.389,-4.176,0.0,154.0
64876,0.901,0.342,0.323,14.511,0.565,13.450,0.0,154.0
64959,0.863,0.181,0.381,8.687,0.160,6.221,69.0,154.0
65042,0.911,0.166,0.345,0.603,-2.649,-8.130,72.0,153.0
65125,0.916,0.210,0.295,14.695,3.191,-26.092,74.0,152.0
65208,0.996,0.539,0.266,7.611,2.496,-21.603,77.0,151.0
65298,0.876,0.404,0.296,44.702,3.221,7.046,0.0,151.0
65382,0.924,0.274,0.383,-26.740,11.382,-5.687,78.0,151.0
65465,0.922,0.683,0.299,-17.481,11.237,-15.321,79.0,151.0
65556,0.839,0.491,0.382,19.053,-7.542,38.328,0.0,153.0
65649,0.917,0.129,0.316,12.863,-14.038,39.084,0.0,154.0
65739,0.919,-0.053,0.262,7.031,-10.031,-1.611,0.0,154.0
65830,0.887,0.229,0.242,36.206,-1.656,-5.779,0.0,153.0
65921,1.372,0.473,0.251,21.420,3.542,45.305,0.0,155.0
66012,0.736,0.321,0.324,20.626,-6.237,19.443,0.0,155.0
66102,0.855,0.222,0.187,-12.618,-6.084,12.000,0.0,156.0
66193,0.900,0.122,0.149,11.176,-7.786,48.656,0.0,157.0
66283,0.880,-0.120,0.292,-14.542,1.435,10.359,0.0,158.0
66374,0.917,0.084,0.196,13.863,-5.015,-1.748,0.0,158.0
66460,1.062,0.269,0.177,6.908,2.130,-10.206,59.0,158.0
66551,0.964,0.084,0.253,0.237,1.893,-5.229,0.0,157.0
66641,1.000,0.287,0.163,-14.214,6.565,-17.191,0.0,156.0
66733,0.943,0.296,0.307,-13.565,1.176,-18.237,0.0,156.0
66823,0.952,0.222,0.332,-27.740,-6.733,-13.939,0.0,154.0
66914,1.015,0.303,0.106,0.809,-9.779,-14.084,0.0,154.0
67004,1.026,0.169,0.176,3.443,6.977,19.924,0.0,154.0
67095,0.911,-0.038,0.358,-14.359,8.756,20.794,0.0,155.0
67185,0.856,-0.008,0.381,0.321,-7.244,-8.771,0.0,155.0
67279,0.970,0.326,0.209,13.107,-9.374,-24.901,0.0,153.0
67369,1.123,0.503,0.106,9.229,7.183,25.695,0.0,153.0
67461,0.896,0.103,0.348,6.947,2.305,10.275,0.0,154.0
67551,0.976,0.208,0.259,-6.924,-5.176,-8.489,0.0,154.0
67642,1.033,0.260,0.160,16.015,-9.809,6.954,0.0,154.0
67732,0.916,0.300,0.142,-0.107,0.573,-21.763,0.0,153.0
67823,0.995,0.308,0.183,-6.481,0.344,-2.588,0.0,152.0
67913,0.916,0.172,0.216,0.191,-0.542,6.290,0.0,152.0
68004,0.919,0.176,0.254,-14.084,2.244,-9.733,0.0,152.0
68098,0.909,0.422,0.204,-12.130,-0.939,-6.313,0.0,152.0
68189,0.977,0.081,0.214,1.443,-6.176,13.183,0.0,152.0
68279,0.891,0.225,0.207,8.198,-4.580,-15.649,0.0,151.0
68369,1.023,0.349,0.161,-25.924,3.557,-8.847,0.0,150.0
68460,0.967,0.365,0.157,-0.160,-0.809,9.649,0.0,151.0
68550,0.924,0.083,0.261,3.450,-4.817,-3.931,0.0,150.0
68634,0.823,-0.003,0.227,0.725,-11.336,-21.672,74.0,149.0
68717,0.746,0.208,0.043,53.328,-19.695,4.893,81.0,146.0
68801,0.839,0.226,-0.040,52.374,-30.405,28.534,86.0,144.0
68894,1.044,0.306,-0.103,57.840,-26.260,17.237,0.0,143.0
68985,1.054,0.369,-0.129,55.695,-17.885,-1.794,0.0,147.0
69075,0.954,0.275,-0.047,10.290,18.718,-22.214,0.0,142.0
69169,0.926,0.316,-0.031,16.893,25.634,-29.878,0.0,0.0
69262,1.027,0.352,0.018,18.168,28.374,-46.542,0.0,0.0
69356,1.012,0.348,0.143,-28.954,75.405,-107.931,0.0,0.0
69449,0.508,0.712,0.161,-10.496,59.504,-125.237,0.0,0.0
69542,0.531,1.039,0.198,-3.939,51.061,-88.405,0.0,0.0
69637,0.484,0.807,0.398,-22.000,55.443,-60.947,0.0,0.0
69733,0.351,0.777,0.499,-81.061,46.725,-43.992,0.0,0.0
69826,0.330,0.645,0.562,-47.511,53.664,-46.328,0.0,0.0
69920,0.189,0.849,0.587,-15.565,50.374,-44.748,0.0,0.0
70010,0.018,0.755,0.758,-78.366,48.252,-43.611,0.0,142.0
70100,-0.075,0.665,0.856,-51.450,24.672,-16.160,0.0,142.0
70191,-0.006,0.426,0.878,-0.153,4.443,3.779,0.0,142.0
70284,-0.025,0.529,0.831,65.496,-4.863,-10.649,0.0,0.0
70378,-0.006,0.838,0.663,67.786,-10.053,-1.031,0.0,0.0
70471,0.043,0.840,0.580,-10.198,1.679,-1.214,0.0,0.0
70564,-0.021,0.690,0.719,-24.695,4.298,-2.298,0.0,0.0
70676,-0.007,0.738,0.691,7.496,-0.847,0.954,0.0,0.0
70771,-0.010,0.727,0.691,-6.229,1.267,-0.718,0.0,0.0
70867,-0.012,0.725,0.702,0.634,0.504,0.344,0.0,0.0
70964,-0.015,0.725,0.692,-2.221,0.679,-0.221,0.0,0.0
71060,-0.006,0.713,0.707,-1.290,0.519,0.053,0.0,0.0
71155,-0.015,0.718,0.714,-1.931,0.527,-0.405,0.0,0.0
71251,-0.011,0.731,0.701,1.130,0.023,0.092,0.0,0.0
71348,-0.011,0.719,0.706,-0.084,0.099,-0.214,0.0,0.0
71443,-0.007,0.738,0.694,-0.305,0.489,-0.061,0.0,0.0
71542,-0.012,0.719,0.698,-1.824,0.779,-0.313,0.0,0.0
71639,-0.005,0.730,0.697,-0.580,0.634,-0.183,0.0,0.0
71735,-0.009,0.717,0.709,-1.473,0.466,-0.160,0.0,0.0
71830,-0.006,0.727,0.705,-0.466,0.435,-0.191,0.0,0.0
71926,-0.009,0.717,0.711,-0.679,0.244,-0.130,0.0,0.0
72023,-0.011,0.727,0.701,-0.992,0.435,0.076,0.0,0.0
72118,-0.016,0.715,0.703,0.107,0.092,0.092,0.0,0.0
72214,-0.015,0.718,0.711,-0.359,0.405,-0.260,0.0,0.0
72310,-0.007,0.719,0.709,0.031,0.260,0.038,0.0,0.0
