Timestamp(ms),AccelX(g),AccelY(g),AccelZ(g),GyroX(deg/s),GyroY(deg/s),GyroZ(deg/s),DistanceLeft(cm),DistanceRight(cm)
138920,0.831,-0.196,-0.537,33.901,12.969,12.656,10.0,160.0
139001,0.872,-0.091,-0.591,46.840,9.229,6.252,16.0,160.0
139083,0.856,-0.322,-0.471,4.405,10.069,-11.496,45.0,160.0
139165,0.855,-0.143,-0.530,-1.489,19.763,-13.092,15.0,160.0
139246,0.844,-0.157,-0.562,14.527,30.374,-13.748,20.0,160.0
139327,0.823,-0.188,-0.570,15.176,60.275,-16.565,23.0,159.0
139411,0.679,-0.196,-0.490,16.130,105.313,-17.275,58.0,159.0
139497,0.806,-0.089,-0.296,0.580,171.275,-28.634,63.0,159.0
139584,0.898,-0.031,0.189,1.939,221.351,-35.901,120.0,160.0
139667,0.818,0.187,0.674,18.710,197.595,-26.634,55.0,162.0
139751,0.607,-0.030,0.898,22.878,151.420,-17.099,62.0,163.0
139836,0.358,0.166,0.885,54.504,128.969,-34.794,69.0,164.0
139923,0.182,0.187,1.034,78.237,73.489,-24.198,125.0,166.0
140015,0.275,0.312,1.045,83.153,48.198,-29.374,0.0,165.0
140107,0.185,0.382,0.992,37.130,41.290,-44.412,0.0,163.0
140199,0.067,0.452,0.871,33.313,30.137,-28.344,0.0,164.0
140284,0.125,0.465,1.000,25.481,31.229,-30.092,30.0,163.0
140377,-0.022,0.496,0.963,23.458,16.565,-26.053,0.0,162.0
140474,-0.039,0.719,0.822,21.786,3.137,-8.542,0.0,164.0
140567,-0.012,0.651,0.792,16.282,0.939,-5.824,0.0,0.0
140660,-0.013,0.767,0.755,-8.389,1.053,-5.244,0.0,0.0
140752,-0.031,0.589,0.762,2.336,5.137,-7.939,0.0,0.0
140846,-0.053,0.541,0.842,7.527,8.824,-8.008,0.0,0.0
140939,-0.066,0.550,0.812,36.107,-0.565,-3.794,0.0,0.0
141031,-0.055,0.803,0.757,62.832,-0.412,-13.290,0.0,0.0
141127,-0.086,0.875,0.751,20.695,-1.649,-31.137,0.0,0.0
141220,-0.194,0.657,0.662,80.588,-20.718,0.664,0.0,0.0
141313,-0.051,1.076,0.356,-16.435,7.321,-55.191,0.0,0.0
141406,-0.135,0.934,0.482,-8.733,-5.267,-7.519,0.0,0.0
141499,0.021,0.659,0.502,47.573,-21.611,77.336,0.0,0.0
141592,0.095,0.609,0.604,57.840,-1.550,27.008,0.0,0.0
141684,0.000,0.717,0.519,39.023,-18.000,43.954,0.0,0.0
141777,0.045,0.969,0.448,-18.061,-10.092,5.008,0.0,0.0
141871,0.026,0.985,0.463,-24.924,-21.328,20.031,0.0,0.0
141966,0.305,0.996,0.502,-48.855,0.359,-16.763,0.0,0.0
142059,0.136,1.141,0.375,27.519,-13.969,28.794,0.0,0.0
142152,0.226,0.618,0.633,37.855,-9.534,6.344,0.0,0.0
142245,0.168,1.094,0.369,-16.863,-10.756,-3.382,0.0,0.0
142339,0.206,0.607,0.539,10.954,-25.397,39.809,0.0,0.0
142431,0.204,0.855,0.403,-5.695,12.122,-51.947,0.0,0.0
142524,0.027,0.911,0.361,127.496,6.656,-47.588,0.0,0.0
142617,0.116,0.929,0.346,-62.176,15.557,-75.886,0.0,0.0
142710,0.018,1.049,0.317,53.603,0.183,-0.076,0.0,0.0
142807,-0.059,0.937,0.359,16.244,-2.038,0.588,0.0,0.0
142900,-0.031,1.011,0.260,-6.511,4.351,-3.656,0.0,0.0
142992,-0.047,0.944,0.338,-3.962,5.481,1.740,0.0,0.0
143085,-0.045,0.893,0.384,-2.740,1.420,4.168,0.0,0.0
143178,-0.058,0.898,0.359,-5.405,-0.779,-5.153,0.0,0.0
143271,-0.046,0.928,0.345,12.748,-4.198,-3.626,0.0,0.0
143365,-0.043,1.038,0.246,3.733,0.588,-2.420,0.0,0.0
143458,-0.060,0.951,0.289,7.626,4.969,1.229,0.0,0.0
143551,-0.059,0.901,0.341,-3.588,4.122,2.298,0.0,0.0
143646,-0.058,0.926,0.333,3.664,1.481,0.702,0.0,0.0
143739,-0.051,0.955,0.310,15.740,-0.420,1.595,0.0,0.0
143833,-0.080,0.975,0.283,8.443,-4.382,1.519,0.0,0.0
143926,-0.072,0.989,0.259,0.176,-6.809,-0.679,0.0,0.0
144019,-0.088,0.958,0.292,-8.939,-8.710,-0.145,0.0,0.0
144112,-0.045,0.791,0.415,-36.832,-6.901,-7.290,0.0,0.0
144205,-0.051,0.931,0.366,5.000,-7.122,-0.580,0.0,0.0
144299,-0.035,1.014,0.267,-6.000,-5.443,6.313,0.0,0.0
144392,0.064,1.171,0.121,-9.412,5.794,25.557,0.0,0.0
144485,-0.027,1.048,0.097,-11.031,21.687,35.504,0.0,0.0
144581,-0.049,0.833,0.311,31.130,37.214,19.618,0.0,0.0
144674,-0.055,0.752,0.580,18.725,31.580,3.137,0.0,0.0
144768,-0.093,0.769,0.590,4.069,6.405,-7.244,0.0,0.0
144861,-0.068,0.930,0.442,-2.557,-16.023,-14.580,0.0,0.0
144954,-0.007,1.033,0.313,-10.313,-19.031,-8.878,0.0,0.0
145047,-0.010,1.057,0.249,10.359,-16.260,0.893,0.0,0.0
145130,-0.005,0.979,0.255,15.840,-7.710,9.313,0.0,17.0
145223,0.053,0.921,0.273,-7.458,-2.580,10.130,0.0,0.0
145316,0.086,0.855,0.333,-10.496,-2.595,-2.901,0.0,0.0
145413,0.017,0.976,0.253,19.260,-0.168,-29.847,0.0,0.0
145506,-0.004,0.866,0.362,-15.954,8.168,-26.534,0.0,0.0
145589,-0.095,0.929,0.323,2.130,5.481,-25.237,0.0,17.0
145682,-0.089,0.814,0.386,18.191,6.038,-15.794,0.0,0.0
145775,-0.151,0.803,0.424,9.931,-2.092,-14.863,0.0,0.0
145869,-0.095,0.987,0.293,16.771,-10.061,-4.863,0.0,0.0
145963,-0.103,1.095,0.127,11.870,-9.198,-1.382,0.0,0.0
146056,-0.116,1.053,0.156,5.412,-4.191,5.191,0.0,0.0
146149,-0.104,1.035,0.214,10.786,-9.450,4.198,0.0,0.0
146245,-0.126,0.934,0.233,30.015,-12.130,4.282,0.0,0.0
146338,-0.111,0.982,0.188,2.901,-14.718,-0.191,0.0,0.0
146432,-0.074,1.017,0.121,5.573,-10.206,4.496,0.0,0.0
146514,-0.081,1.041,0.104,6.244,-8.351,8.130,0.0,17.0
146597,-0.090,0.944,0.137,25.397,-5.679,8.237,0.0,16.0
146692,-0.095,0.896,0.185,17.695,-7.427,3.443,0.0,0.0
146785,-0.072,0.917,0.167,16.511,-10.046,-2.679,0.0,0.0
146878,-0.040,1.034,0.090,5.588,-10.008,5.221,0.0,0.0
146971,-0.035,1.035,0.023,-0.160,-8.802,8.924,0.0,0.0
147068,0.056,1.034,0.114,9.359,-2.229,7.878,0.0,0.0
147162,0.005,0.863,0.165,16.847,-1.527,4.863,0.0,0.0
147255,0.047,0.918,0.101,15.023,-8.435,5.374,0.0,0.0
147348,0.056,0.971,0.034,3.527,-10.267,5.427,0.0,0.0
147442,0.044,1.024,0.005,-2.588,-12.405,4.137,0.0,0.0
147535,0.036,1.025,-0.018,-5.687,-13.588,-0.443,0.0,0.0
147629,0.011,1.049,-0.081,4.740,-10.221,-0.496,0.0,0.0
147722,0.053,1.047,-0.083,7.031,-5.527,0.053,0.0,0.0
147816,0.065,1.034,-0.078,8.924,-0.321,2.107,0.0,0.0
147912,0.047,0.987,-0.050,11.359,2.542,2.145,0.0,0.0
148005,0.051,0.998,-0.016,-1.473,3.466,-2.206,0.0,0.0
148100,0.014,1.047,-0.072,-4.885,2.710,-0.924,0.0,0.0
148193,0.027,1.023,-0.015,-1.618,0.160,-2.206,0.0,0.0
148287,0.021,1.066,-0.055,-8.389,-1.992,0.321,0.0,0.0
148381,0.044,1.071,-0.081,4.336,-5.260,6.237,0.0,0.0
148474,0.072,0.942,-0.054,11.084,-0.489,5.779,0.0,0.0
148569,0.085,0.891,0.018,-1.550,2.595,-2.794,0.0,0.0
148662,0.058,0.991,-0.015,-13.420,1.595,-6.855,0.0,0.0
148756,0.032,1.016,-0.028,0.053,0.092,-4.565,0.0,0.0
148853,0.044,1.044,-0.024,-3.198,0.504,-1.298,0.0,0.0
148947,0.030,1.003,-0.008,1.427,1.672,0.565,0.0,0.0
149041,0.028,0.924,0.044,-2.153,1.229,0.198,0.0,0.0
149135,0.035,0.950,0.018,0.382,2.878,-2.053,0.0,0.0
149228,0.026,0.974,-0.004,-11.389,3.046,-2.954,0.0,0.0
149322,0.018,0.999,0.007,-3.084,2.580,-0.664,0.0,0.0
149416,0.021,0.999,0.012,-3.328,-0.847,-0.038,0.0,0.0
149510,0.036,1.041,-0.030,-1.962,-1.992,0.550,0.0,0.0
149604,0.049,1.035,-0.021,2.198,-0.641,0.183,0.0,0.0
149701,0.052,1.007,-0.029,1.710,1.542,-0.099,0.0,0.0
149794,0.022,1.010,-0.015,-4.740,1.809,-1.069,0.0,0.0
149889,0.055,1.031,-0.005,-2.252,2.046,-1.954,0.0,0.0
149983,0.039,1.056,-0.000,5.267,2.168,0.366,0.0,0.0
150076,0.012,0.992,0.014,8.427,0.191,-0.550,0.0,0.0
150170,0.020,0.987,0.012,1.305,-2.336,-0.282,0.0,0.0
150264,0.026,1.040,-0.029,-9.977,0.679,0.748,0.0,0.0
150359,0.022,1.070,-0.025,-8.527,1.527,0.931,0.0,0.0
150452,0.026,1.043,0.002,2.412,-1.954,-0.786,0.0,0.0
150546,-0.009,0.990,0.040,-0.550,-6.855,-0.389,0.0,0.0
150633,0.031,1.035,-0.001,-6.504,-8.954,2.740,0.0,16.0
150727,0.023,1.115,-0.070,2.076,-9.794,5.115,0.0,0.0
150820,0.060,1.064,-0.074,-1.183,-8.214,6.160,0.0,0.0
150915,0.073,0.947,0.010,5.076,-10.374,5.092,0.0,0.0
151009,0.083,0.944,-0.031,10.840,-9.969,4.557,0.0,0.0
151103,0.087,0.936,-0.006,-10.885,-2.595,2.733,0.0,0.0
151197,0.022,0.987,-0.000,28.397,-9.779,12.008,0.0,0.0
151291,0.048,0.909,-0.062,-1.267,-9.649,11.985,0.0,0.0
151386,0.092,0.999,-0.189,1.466,-7.420,10.252,0.0,0.0
151483,0.172,0.990,-0.161,-25.740,0.977,-5.885,0.0,0.0
151577,0.179,0.909,-0.096,0.206,8.618,0.382,0.0,0.0
151670,0.166,0.977,-0.097,5.847,9.366,-0.473,0.0,0.0
151764,0.128,1.021,-0.064,7.542,5.702,-0.916,0.0,0.0
151859,0.135,1.033,-0.097,-7.313,0.656,8.076,0.0,0.0
151953,0.158,1.005,-0.059,-2.885,5.168,9.420,0.0,0.0
152047,0.198,0.964,-0.044,7.931,-1.382,32.481,0.0,0.0
152141,0.271,0.944,-0.037,-22.824,-0.992,29.328,0.0,0.0
152236,0.280,0.843,-0.029,-31.412,0.427,27.496,0.0,0.0
152338,0.358,0.913,-0.040,-13.863,2.061,36.802,0.0,0.0
152431,0.385,0.792,0.080,-51.947,14.405,35.275,0.0,0.0
152524,0.489,0.945,0.049,-10.397,16.389,28.405,0.0,0.0
152617,0.416,0.901,0.101,-18.313,18.855,16.962,0.0,0.0
152711,0.439,0.918,0.103,19.099,10.473,16.435,0.0,0.0
152804,0.682,1.028,0.162,-22.603,32.748,-26.855,0.0,0.0
152897,0.509,0.942,0.265,-28.824,31.321,-8.870,0.0,0.0
152990,0.465,0.852,0.237,-47.847,39.656,-9.824,0.0,0.0
153083,0.438,0.736,0.342,-45.511,53.588,-33.702,0.0,0.0
153180,0.277,0.810,0.465,-60.511,67.198,-46.649,0.0,0.0
153273,0.151,0.719,0.617,-78.168,66.679,-51.420,0.0,0.0
153359,-0.024,0.791,0.784,-67.435,51.977,-69.886,66.0,0.0
153444,-0.090,0.422,0.879,3.840,-9.046,15.145,62.0,0.0
153529,0.036,0.636,0.688,62.557,-3.969,-11.122,46.0,0.0
153613,-0.014,0.871,0.571,56.145,-10.557,9.229,44.0,0.0
153706,0.035,0.880,0.534,13.542,-0.557,1.000,0.0,0.0
153799,0.017,0.807,0.587,-9.863,2.794,-0.649,0.0,0.0
153892,-0.002,0.785,0.623,4.305,-0.305,0.824,0.0,0.0
153986,0.009,0.828,0.569,6.489,0.389,2.931,0.0,0.0
154082,0.007,0.829,0.580,3.382,-0.420,0.267,0.0,0.0
154175,0.010,0.845,0.572,-9.939,0.519,4.443,0.0,0.0
154268,0.044,0.820,0.586,-13.206,-0.939,3.229,0.0,0.0
154361,0.054,0.832,0.588,-0.893,4.771,-2.511,0.0,0.0
154455,0.011,0.839,0.580,1.389,4.305,-5.366,0.0,0.0
154540,-0.007,0.854,0.608,-16.840,7.427,-9.626,46.0,0.0
154624,0.018,0.756,0.681,2.351,3.618,-6.573,45.0,0.0
154707,-0.047,0.771,0.644,20.969,-0.954,-0.817,43.0,0.0
154802,-0.071,0.873,0.593,65.321,-7.198,1.969,0.0,0.0
154898,-0.016,1.512,-0.015,228.664,7.405,-4.328,0.0,0.0
154991,0.017,0.882,-0.062,33.122,93.145,197.969,0.0,0.0
155084,-0.054,1.429,0.242,154.405,49.015,58.672,0.0,0.0
155168,1.059,-0.335,0.995,16.863,-18.191,12.824,37.0,0.0
155261,0.454,1.142,-0.118,-13.779,-2.672,-78.145,0.0,0.0
155356,0.222,0.583,0.291,70.076,-1.076,-28.962,0.0,0.0
155449,0.305,1.088,-0.015,36.695,-10.153,-9.176,0.0,0.0
155542,0.012,0.955,-0.200,30.137,-36.550,25.863,0.0,0.0
155635,0.285,1.111,-0.504,-70.771,-4.366,27.221,0.0,0.0
155722,0.256,0.522,0.149,-9.618,-8.847,16.206,31.0,0.0
155815,0.440,0.885,0.088,-3.550,-5.924,6.710,0.0,0.0
155910,0.503,1.200,-0.394,13.061,0.298,0.282,0.0,0.0
156003,0.386,0.888,-0.051,-44.985,10.885,-23.046,0.0,0.0
156096,0.245,0.929,0.006,-22.023,0.473,-26.351,0.0,0.0
156190,0.154,0.986,0.231,-39.481,11.870,-45.435,0.0,0.0
156283,0.293,1.186,-0.004,28.863,-2.580,7.244,0.0,0.0
156377,0.256,0.907,-0.009,-15.740,-1.382,16.359,0.0,0.0
156470,0.115,0.797,0.250,18.176,14.573,-37.206,0.0,0.0
156567,0.151,0.565,0.222,1.878,-15.053,-21.817,0.0,0.0
156660,0.129,1.067,0.087,-2.420,2.687,5.015,0.0,0.0
156753,0.322,1.191,0.128,4.771,0.656,28.359,0.0,0.0
156848,0.323,1.003,0.096,8.076,-6.061,29.786,0.0,0.0
156941,0.257,0.852,0.112,-58.290,-1.565,15.702,0.0,0.0
157034,0.246,0.955,0.152,8.672,-4.939,1.366,0.0,0.0
157128,0.256,0.967,0.146,13.511,-2.405,-11.038,0.0,0.0
157221,0.193,1.039,0.121,11.489,5.069,-13.397,0.0,0.0
157315,0.207,1.134,0.203,43.183,-5.130,2.145,0.0,0.0
157409,0.153,0.897,0.049,-11.618,-12.115,26.069,0.0,0.0
157505,0.247,0.872,-0.060,12.527,-15.076,31.908,0.0,0.0
157599,0.390,0.792,0.017,0.992,0.466,-4.618,0.0,0.0
157692,0.316,1.006,0.021,34.611,0.351,-27.534,0.0,0.0
157787,0.205,0.934,-0.068,-37.252,19.160,-9.519,0.0,0.0
157880,0.325,1.008,0.076,-25.305,8.137,-12.214,0.0,0.0
157974,0.244,1.033,0.014,-6.924,4.489,-6.977,0.0,0.0
158058,0.300,1.045,0.126,-7.534,-6.099,28.855,33.0,0.0
158142,0.250,0.855,0.043,-8.366,-7.176,12.481,33.0,0.0
158226,0.346,0.945,0.112,-0.527,-6.435,34.046,31.0,0.0
158323,0.565,1.089,0.225,7.977,-12.382,38.290,0.0,0.0
158416,0.463,0.818,-0.123,-6.740,-14.885,18.519,0.0,0.0
158500,0.622,0.629,-0.030,40.542,-3.733,26.916,30.0,0.0
158595,0.491,0.672,0.035,15.786,19.405,3.527,0.0,0.0
158679,0.471,1.075,-0.040,48.458,14.145,-35.725,27.0,0.0
158763,0.416,1.218,0.067,17.107,2.229,2.603,29.0,0.0
158845,0.533,0.820,0.023,17.443,-12.893,15.656,25.0,0.0
158940,0.578,0.965,-0.151,26.000,-8.702,-1.305,0.0,0.0
159024,0.498,0.927,-0.075,23.832,1.336,-9.893,26.0,0.0
159111,0.467,0.979,-0.104,-11.504,4.969,-11.748,27.0,0.0
159195,0.409,0.661,0.017,-35.763,0.947,-10.328,27.0,0.0
159279,0.453,0.973,-0.150,4.359,1.336,-13.534,29.0,0.0
159363,0.452,0.881,0.093,-8.214,11.756,-3.740,28.0,0.0
159447,0.509,0.905,0.043,-13.267,14.939,-1.031,30.0,0.0
159531,0.603,0.854,0.042,65.794,-1.588,3.534,30.0,0.0
159614,0.425,0.912,0.137,-37.893,11.588,-5.611,28.0,0.0
159709,0.350,0.792,-0.033,-12.168,0.511,-4.115,0.0,0.0
159803,0.410,0.820,0.087,-13.534,7.115,-21.298,0.0,0.0
159900,0.416,0.966,0.120,-24.359,8.626,-23.237,0.0,0.0
159993,0.325,0.966,0.197,0.817,4.939,-0.023,0.0,0.0
160088,0.324,0.815,0.223,-20.893,3.412,-2.443,0.0,0.0
160182,0.368,0.884,0.162,-15.092,-0.824,-17.382,0.0,0.0
160275,0.360,0.970,0.160,-12.634,6.115,-22.031,0.0,0.0
160369,0.278,0.918,0.272,-12.985,10.992,-17.298,0.0,0.0
160463,0.246,0.962,0.308,-24.084,6.702,-8.420,0.0,0.0
160558,0.230,0.935,0.255,1.206,-0.115,-3.565,0.0,0.0
160642,0.242,0.900,0.270,-20.466,8.237,-5.893,30.0,0.0
160729,0.221,0.892,0.301,-24.176,10.794,-14.557,28.0,0.0
160813,0.191,0.898,0.421,-43.435,12.366,-22.817,25.0,0.0
160898,0.133,0.871,0.468,-1.008,-0.145,-14.511,27.0,0.0
160982,0.080,0.835,0.473,33.817,-17.908,-8.046,30.0,0.0
161065,0.237,1.127,0.201,71.496,-23.008,-10.168,29.0,0.0
161150,0.176,0.773,0.220,-53.443,5.656,-22.229,36.0,0.0
161245,0.067,1.035,0.278,-104.672,19.534,-12.420,0.0,0.0
161339,0.104,0.806,0.547,-97.397,-0.458,-15.351,0.0,0.0
161433,0.104,0.815,0.433,-68.252,7.275,-33.870,0.0,0.0
161530,-0.200,0.697,0.915,-135.679,10.908,-38.214,0.0,0.0
161614,-0.008,0.443,0.861,-3.565,9.573,14.618,30.0,0.0
161698,-0.030,0.406,0.929,33.298,-1.092,2.771,32.0,0.0
161783,-0.052,0.632,0.771,62.763,-7.786,-0.481,37.0,0.0
161878,-0.063,0.756,0.658,51.794,-8.107,1.519,0.0,0.0
161972,-0.020,0.795,0.618,4.969,0.092,4.511,0.0,0.0
162066,-0.026,0.732,0.696,-4.710,2.832,3.229,0.0,0.0
162160,-0.019,0.725,0.698,9.336,0.672,4.267,0.0,0.0
162253,-0.012,0.762,0.666,15.389,0.382,5.557,0.0,0.0
162351,0.014,0.790,0.636,11.641,0.511,2.916,0.0,0.0
162445,0.003,0.798,0.622,3.290,0.489,-0.901,0.0,0.0
162539,-0.011,0.796,0.620,-1.794,-1.321,-2.420,0.0,0.0
162633,-0.002,0.796,0.630,-11.962,0.015,-3.550,0.0,0.0
162727,-0.009,0.782,0.637,-21.969,4.084,-1.840,0.0,0.0
162822,-0.014,0.692,0.716,-8.855,3.504,1.046,0.0,0.0
162916,-0.016,0.733,0.681,9.809,0.947,1.832,0.0,0.0
163010,-0.019,0.758,0.665,4.496,0.038,1.008,0.0,0.0
163103,-0.019,0.774,0.667,-1.069,0.824,1.092,0.0,0.0
163197,-0.039,0.759,0.739,6.985,1.092,5.702,0.0,0.0
163295,0.041,0.858,0.562,9.588,0.954,27.473,0.0,0.0
163389,0.071,0.748,0.591,-37.687,13.008,0.267,0.0,0.0
163483,-0.041,0.636,0.807,-20.359,12.450,-13.275,0.0,0.0
163577,-0.017,0.684,0.723,29.221,-5.542,2.000,0.0,0.0
163672,0.021,0.834,0.625,14.382,-1.595,-2.595,0.0,0.0
163766,0.010,0.806,0.615,-41.740,13.656,-4.115,0.0,0.0
163860,-0.047,0.598,0.805,-38.473,7.023,-1.931,0.0,0.0
163959,-0.045,0.643,0.795,17.344,-1.038,3.252,0.0,0.0
164052,-0.045,0.827,0.695,-22.328,15.092,14.260,0.0,0.0
164149,-0.122,0.465,0.868,-3.794,15.420,35.779,0.0,0.0
164242,-0.099,1.295,0.710,96.672,23.885,150.924,0.0,0.0
164335,-0.119,2.000,0.303,-43.298,144.427,250.130,0.0,0.0
164420,-1.112,-1.506,0.949,-155.191,105.863,250.130,52.0,0.0
164508,-0.445,-1.094,0.477,-95.000,105.656,94.168,106.0,0.0
164596,0.242,-0.327,0.778,46.473,9.084,67.863,104.0,0.0
164683,0.112,-0.278,1.133,79.313,10.206,63.130,103.0,0.0
164771,0.050,-0.433,1.046,7.863,75.031,16.084,104.0,0.0
164859,-0.099,-0.135,0.892,-14.366,36.382,5.817,102.0,0.0
164950,-0.125,-0.158,0.929,-9.687,18.763,-10.916,102.0,0.0
165038,-0.174,-0.154,1.050,12.107,25.832,-2.344,103.0,0.0
165128,-0.106,-0.394,1.053,-13.969,9.748,-5.321,132.0,0.0
165216,-0.260,0.042,0.826,16.580,7.573,13.908,103.0,0.0
165303,-0.109,-0.601,1.031,-43.824,-12.160,-5.908,101.0,0.0
165391,-0.169,-0.543,1.025,32.397,2.786,-5.824,102.0,0.0
165479,-0.205,-0.150,0.990,5.672,4.267,10.023,107.0,0.0
165567,-0.193,-0.254,1.010,-45.206,3.878,26.985,102.0,0.0
165655,-0.141,-0.302,0.915,8.359,1.809,-2.817,102.0,0.0
165746,-0.147,0.157,0.962,-10.977,1.695,4.977,107.0,0.0
165834,-0.179,-0.450,1.019,-55.855,-0.008,9.573,107.0,0.0
165922,-0.119,0.125,0.864,38.931,14.931,6.290,105.0,0.0
166010,-0.176,-0.372,1.002,-4.885,-15.206,-9.496,106.0,0.0
166098,-0.167,-0.042,1.005,6.710,4.496,4.641,107.0,0.0
166187,-0.134,-0.245,1.000,-19.779,-5.084,13.168,107.0,0.0
166275,-0.106,-0.253,0.975,34.046,7.473,-6.634,106.0,0.0
166363,-0.145,-0.071,0.976,11.130,0.443,4.168,108.0,0.0
166455,-0.105,-0.425,1.048,-18.046,-3.748,1.252,117.0,0.0
166543,-0.160,-0.205,1.003,13.893,5.695,-0.977,116.0,0.0
166632,-0.195,-0.190,0.990,-17.954,-1.649,15.099,111.0,0.0
166720,-0.196,-0.303,0.969,-0.527,-12.450,2.939,115.0,0.0
166814,-0.126,-0.255,1.009,-0.076,0.359,-0.832,0.0,0.0
166907,-0.104,-0.328,0.962,-1.237,-3.351,-0.893,0.0,0.0
166996,-0.249,-0.007,0.868,41.992,-6.290,-7.954,133.0,0.0
167087,-0.037,-0.053,0.977,-10.214,-1.573,1.641,133.0,0.0
167177,-0.131,-0.309,1.032,-11.557,8.565,8.321,132.0,0.0
167269,-0.169,-0.024,0.913,-3.115,9.237,13.061,131.0,0.0
167359,-0.147,0.032,0.926,-19.229,-2.901,25.580,131.0,0.0
167448,-0.037,0.183,0.818,-21.008,0.832,10.931,131.0,0.0
167538,-0.110,0.075,0.866,-7.496,6.718,17.282,132.0,0.0
167627,-0.252,-0.410,0.967,12.740,-1.237,3.740,131.0,0.0
167721,-0.210,-0.164,0.958,-17.878,4.450,8.947,0.0,0.0
167815,-0.093,-0.143,0.966,6.282,13.878,9.168,0.0,0.0
167908,-0.156,-0.497,0.967,-9.916,-4.053,-6.229,0.0,0.0
168002,-0.143,-0.280,1.015,-49.382,7.473,6.695,0.0,0.0
168098,-0.159,-0.374,0.910,-0.229,-4.305,-2.878,0.0,0.0
168192,-0.234,-0.300,0.935,-15.427,13.519,-0.351,0.0,0.0
168286,-0.209,-0.233,0.933,-10.733,-2.466,-1.000,0.0,0.0
168379,-0.213,-0.393,0.982,-13.504,3.733,-6.458,0.0,0.0
168472,-0.220,-0.165,0.865,7.672,7.443,-1.115,0.0,0.0
168566,-0.224,-0.278,0.970,-4.389,-3.351,3.145,0.0,0.0
168659,-0.158,-0.232,0.940,-7.687,-14.519,0.412,0.0,0.0
168754,-0.182,-0.210,0.858,2.534,8.802,1.855,0.0,0.0
168847,-0.235,-0.205,0.940,5.229,1.237,0.435,0.0,0.0
168938,-0.161,-0.271,0.927,-0.786,3.130,4.298,106.0,0.0
169032,-0.218,-0.365,0.978,-1.931,4.824,-1.702,0.0,0.0
169125,-0.209,-0.198,0.934,8.450,-0.023,-0.511,0.0,0.0
169220,-0.191,-0.295,0.957,-5.191,0.573,0.267,0.0,0.0
169309,-0.222,-0.211,0.940,-2.931,2.160,-1.267,130.0,0.0
169399,-0.160,-0.282,0.964,13.107,3.542,-2.389,129.0,0.0
169488,-0.218,-0.137,0.927,3.176,11.427,-0.176,129.0,0.0
169578,-0.268,-0.236,0.930,1.954,5.450,-3.962,129.0,0.0
169667,-0.249,-0.251,0.942,-1.855,-0.786,-3.435,128.0,0.0
169760,-0.233,-0.246,0.954,0.244,1.008,-1.695,128.0,0.0
169850,-0.246,-0.283,0.979,1.198,-3.817,-2.076,128.0,0.0
169939,-0.243,-0.309,0.981,-4.527,-5.038,-3.496,129.0,0.0
170030,-0.210,-0.180,0.927,-14.000,1.031,5.435,129.0,0.0
170118,-0.203,-0.223,0.912,8.145,0.366,2.977,104.0,0.0
170206,-0.215,-0.098,0.902,7.282,-1.260,2.695,103.0,0.0
170294,-0.191,-0.240,0.955,-0.191,-3.443,3.427,104.0,0.0
170383,-0.192,-0.164,0.922,-21.153,3.137,4.076,105.0,0.0
170471,-0.203,-0.170,0.904,22.626,-2.893,10.656,104.0,0.0
170562,-0.174,-0.160,0.903,17.214,0.588,-1.092,104.0,0.0
170651,-0.235,-0.305,0.974,8.588,0.519,-7.344,103.0,0.0
170739,-0.216,-0.275,0.990,-4.580,0.405,0.168,103.0,0.0
170828,-0.199,-0.153,0.909,-20.153,5.206,0.847,129.0,0.0
170918,-0.222,-0.128,0.917,-4.061,3.031,6.519,129.0,0.0
171009,-0.245,-0.273,0.945,-3.542,-5.573,5.053,130.0,0.0
171103,-0.216,-0.288,1.001,-0.748,-2.076,-3.183,0.0,0.0
171192,-0.234,-0.250,0.972,1.366,4.901,-11.992,130.0,0.0
171282,-0.229,-0.154,0.922,-9.099,-2.229,-3.832,129.0,0.0
171379,-0.174,-0.213,0.919,5.435,-5.878,5.382,0.0,0.0
171469,-0.219,-0.196,0.977,8.321,7.481,0.321,129.0,0.0
171559,-0.225,-0.188,0.956,-7.130,0.397,-0.611,129.0,0.0
171648,-0.233,-0.196,0.941,-21.198,-1.198,2.099,102.0,0.0
171736,-0.210,-0.289,0.952,0.160,-0.916,5.023,103.0,0.0
171830,-0.218,-0.158,0.953,8.870,0.031,0.115,0.0,0.0
171924,-0.266,-0.231,0.967,-10.366,-6.450,-3.496,0.0,0.0
172012,-0.130,-0.241,0.958,4.534,-15.489,-6.641,104.0,0.0
172101,-0.104,-0.149,0.949,5.580,3.420,4.168,104.0,0.0
172192,-0.220,-0.283,0.986,8.351,17.389,3.832,107.0,0.0
172281,-0.315,-0.144,0.939,-2.893,1.672,-2.786,106.0,0.0
172376,-0.201,-0.202,0.938,-9.573,-5.427,4.008,0.0,0.0
172470,-0.176,-0.275,0.959,9.802,6.115,6.458,0.0,0.0
172558,-0.260,-0.247,0.967,-3.290,-3.618,-2.885,104.0,0.0
172647,-0.220,-0.180,0.930,-9.977,-9.053,-1.802,106.0,0.0
172735,-0.199,-0.260,0.946,-36.870,-4.847,-5.527,105.0,0.0
172829,-0.195,-0.253,0.929,-54.595,0.168,-21.267,0.0,0.0
172923,-0.191,-0.324,0.843,-89.886,-14.069,-36.931,0.0,0.0
173021,-0.091,-0.506,0.846,-107.336,-20.023,-49.069,0.0,0.0
173115,0.048,-0.658,0.713,-122.824,-14.137,-58.626,0.0,0.0
173209,0.089,-0.772,0.545,-95.489,-5.489,-56.542,0.0,0.0
173303,0.144,-0.905,0.348,-132.206,-3.076,-53.756,0.0,0.0
173398,0.226,-0.986,0.157,-124.947,-11.595,-48.931,0.0,0.0
173481,0.289,-0.971,0.034,-32.405,-19.771,-48.458,16.0,0.0
173576,0.396,-0.877,-0.105,-65.198,-18.977,-57.557,0.0,0.0
173660,0.468,-0.923,-0.150,-35.282,-10.351,-59.214,25.0,0.0
173757,0.593,-0.726,-0.291,-80.855,-8.061,-49.397,0.0,0.0
173841,0.672,-0.739,-0.333,-82.153,-5.756,-33.198,23.0,0.0
173925,0.650,-0.601,-0.421,-32.389,-7.115,-12.695,20.0,0.0
174009,0.617,-0.730,-0.405,-41.878,-3.397,-9.817,21.0,0.0
174098,0.615,-0.602,-0.478,-3.405,-5.389,-1.420,107.0,0.0
174187,0.639,-0.660,-0.484,-27.977,-1.954,-4.206,109.0,0.0
174281,0.652,-0.637,-0.486,-14.687,-2.382,-12.221,0.0,0.0
174370,0.649,-0.519,-0.541,-1.878,-7.588,-8.458,111.0,0.0
174458,0.658,-0.593,-0.535,-7.084,-5.435,-3.588,110.0,174.0
174550,0.662,-0.576,-0.550,-12.305,-1.916,-1.580,110.0,173.0
174637,0.639,-0.567,-0.534,5.122,1.069,-0.534,111.0,173.0
174730,0.626,-0.525,-0.541,-5.382,-2.008,-1.740,0.0,175.0
174823,0.645,-0.561,-0.544,2.489,-4.992,-3.298,0.0,173.0
174915,0.656,-0.543,-0.546,-2.092,-2.885,3.092,0.0,173.0
175003,0.638,-0.559,-0.535,-3.191,-4.939,6.702,112.0,174.0
175096,0.621,-0.535,-0.591,2.893,-7.802,4.206,0.0,174.0
175191,0.606,-0.611,-0.567,9.038,-4.061,4.008,0.0,0.0
175283,0.598,-0.615,-0.550,1.573,-2.282,-0.427,0.0,174.0
175379,0.608,-0.595,-0.569,-6.809,-1.649,-3.573,0.0,174.0
175479,0.601,-0.522,-0.604,1.771,1.000,-2.496,0.0,0.0
175571,0.558,-0.554,-0.571,24.344,7.183,-4.573,0.0,0.0
175660,0.443,-0.567,-0.561,36.870,27.344,-16.023,108.0,0.0
175744,0.531,-0.478,-0.574,47.908,81.786,-32.206,21.0,0.0
175825,0.791,-0.696,-0.285,70.176,122.130,-62.802,17.0,0.0
175915,0.919,-0.473,-0.099,98.298,116.115,-101.084,108.0,0.0
175997,1.156,-0.463,0.206,53.702,116.763,-97.260,16.0,0.0
176089,0.692,-0.300,0.254,46.550,150.687,-57.389,110.0,0.0
176177,0.509,-0.128,0.344,57.198,112.298,-109.344,111.0,0.0
176265,0.227,0.140,0.626,71.198,165.939,-107.748,114.0,0.0
176352,0.334,0.287,0.902,-7.527,127.595,-88.389,117.0,175.0
176444,0.161,0.315,1.011,18.405,88.137,-59.603,0.0,174.0
176526,0.084,0.270,1.005,15.863,57.237,-63.847,16.0,173.0
176607,0.016,0.290,0.987,25.771,44.618,-64.198,19.0,170.0
176688,-0.094,0.361,1.087,21.588,24.992,-52.817,19.0,169.0
176770,-0.068,0.626,0.904,75.710,-11.802,0.031,20.0,168.0
176864,0.053,0.402,0.834,56.076,-1.313,-5.168,0.0,171.0
176957,-0.072,0.658,0.829,97.878,-4.924,-11.718,0.0,0.0
177050,-0.000,0.759,0.609,68.725,-11.802,0.420,0.0,0.0
177143,-0.033,0.891,0.540,17.153,-2.534,2.641,0.0,0.0
177236,-0.001,0.793,0.631,-21.985,3.443,-1.183,0.0,0.0
177330,-0.008,0.737,0.686,-2.794,0.344,1.664,0.0,0.0
177423,0.004,0.780,0.647,3.931,-0.733,0.649,0.0,0.0
177516,-0.001,0.772,0.647,-1.122,0.466,-0.405,0.0,0.0
177609,0.000,0.778,0.639,1.229,-0.160,-0.611,0.0,0.0
177705,-0.001,0.779,0.631,0.504,-0.137,-0.344,0.0,0.0
177799,-0.001,0.780,0.643,-0.145,0.321,-0.282,0.0,0.0
177893,-0.001,0.777,0.643,-0.763,0.450,-0.237,0.0,0.0
177986,0.000,0.779,0.644,0.015,0.061,-0.115,0.0,0.0
178079,0.001,0.783,0.646,-0.427,0.397,-0.427,0.0,0.0
178172,-0.002,0.778,0.635,-0.176,0.214,-0.130,0.0,0.0
178266,0.001,0.772,0.640,-0.634,0.389,-0.244,0.0,0.0
178359,-0.002,0.776,0.644,-0.786,0.595,-0.145,0.0,0.0
178452,0.002,0.766,0.648,-0.137,0.603,-0.008,0.0,0.0
178546,0.002,0.786,0.634,-1.374,0.374,0.046,0.0,0.0
178642,0.007,0.778,0.637,-1.443,0.588,-0.122,0.0,0.0
178736,-0.002,0.768,0.648,-2.221,0.580,-0.023,0.0,0.0
178829,0.000,0.779,0.643,0.053,0.412,-0.145,0.0,0.0
178922,-0.003,0.773,0.650,-1.015,0.824,-0.206,0.0,0.0
179015,0.002,0.783,0.651,-1.740,0.931,0.824,0.0,0.0
179108,-0.017,0.773,0.717,-1.504,1.198,7.962,0.0,0.0
179203,-0.100,0.831,0.797,27.985,-26.115,53.901,0.0,0.0
179296,0.056,0.984,0.735,-34.618,-52.725,91.275,0.0,0.0
179389,0.180,0.751,0.864,1.740,-106.908,127.099,0.0,0.0
179486,0.528,0.696,0.748,-34.611,-138.802,123.542,0.0,0.0
179579,0.608,0.671,0.710,-96.756,-128.031,61.565,0.0,0.0
179662,0.104,0.646,0.386,-63.534,-242.702,132.221,63.0,152.0
179745,0.881,-0.204,-0.412,16.435,-250.137,151.435,58.0,146.0
179827,0.643,-0.120,-0.905,92.992,-148.412,42.771,58.0,141.0
179909,0.188,-0.043,-1.244,-194.168,-2.832,5.634,52.0,138.0
179991,0.594,0.180,-0.953,-61.359,5.046,46.504,51.0,141.0
180073,0.981,-0.575,-0.358,-8.771,-34.366,-19.626,58.0,141.0
180158,0.614,0.288,-0.876,-93.573,-26.580,-10.427,111.0,136.0
180243,0.684,-0.081,-0.789,-33.176,-38.992,-20.664,46.0,135.0
180324,0.662,0.082,-0.890,-64.740,-42.244,-20.947,46.0,136.0
180404,0.871,0.444,-1.188,7.366,-32.832,1.252,45.0,102.0
180483,0.421,-0.025,-0.852,-28.855,9.145,-8.214,46.0,102.0
180566,0.632,-0.037,-0.756,44.527,-17.336,5.206,99.0,101.0
180647,0.408,0.207,-0.907,-14.931,-11.496,-6.656,98.0,101.0
180729,0.431,0.156,-0.835,33.840,-29.237,0.847,46.0,137.0
180814,0.475,0.068,-0.898,-9.748,-27.382,-18.878,48.0,0.0
180896,0.426,-0.035,-0.980,11.176,-20.740,2.893,43.0,101.0
180977,0.421,0.239,-0.978,-24.237,-5.321,-2.977,41.0,118.0
181058,0.284,0.114,-0.929,-21.153,-6.489,3.183,49.0,137.0
181140,0.369,0.108,-0.921,-3.321,-14.710,20.985,45.0,137.0
181220,0.456,0.111,-0.959,-15.015,-4.573,5.855,41.0,116.0
181300,0.397,0.087,-0.978,-0.977,-0.427,-6.412,39.0,116.0
181380,0.342,0.137,-0.936,-3.153,1.511,3.656,39.0,116.0
181459,0.122,0.180,-0.970,16.763,-3.122,38.885,40.0,116.0
181539,0.281,0.164,-0.908,-12.656,-2.305,-12.962,39.0,116.0
181625,0.317,0.078,-0.942,-21.641,-1.573,-17.198,93.0,117.0
181705,0.298,0.211,-1.028,-3.389,0.359,-2.450,43.0,116.0
181785,0.321,0.219,-0.952,12.053,-2.122,23.733,39.0,117.0
181866,0.390,0.149,-0.897,-38.382,-1.046,-16.466,45.0,118.0
181946,0.392,0.146,-0.994,19.397,-13.489,-6.710,36.0,118.0
182026,0.400,0.218,-1.092,-37.511,3.382,-16.214,37.0,118.0
182106,0.370,0.086,-0.971,-9.092,12.260,-18.046,37.0,117.0
182185,0.322,0.288,-0.892,0.397,8.046,-21.191,40.0,116.0
182268,0.416,0.443,-0.909,-46.344,9.664,-20.000,39.0,116.0
182351,0.508,0.580,-1.042,11.947,0.855,-2.557,94.0,116.0
182432,0.445,0.171,-0.869,-5.069,8.374,-8.824,44.0,118.0
182515,0.363,0.394,-0.881,22.664,-2.389,14.855,94.0,117.0
182598,0.300,0.238,-0.927,52.969,-13.130,18.969,94.0,117.0
182678,0.321,0.189,-0.972,54.092,-16.863,48.412,42.0,117.0
182759,0.252,0.044,-0.991,21.282,-10.351,-0.420,39.0,118.0
182840,0.288,-0.087,-0.973,0.267,-1.878,-3.336,41.0,125.0
182920,0.234,0.077,-0.925,12.733,-0.069,30.260,38.0,118.0
183004,0.258,0.082,-0.882,-40.008,3.557,2.206,36.0,126.0
183084,0.293,0.022,-0.817,24.771,-12.802,3.870,36.0,119.0
183172,0.319,-0.012,-0.926,10.527,-12.519,0.145,36.0,119.0
183252,0.350,0.131,-1.073,-18.786,-3.351,-11.366,35.0,138.0
183333,0.243,0.132,-1.014,39.489,-4.817,10.008,36.0,138.0
183412,0.345,0.021,-0.865,-7.855,-2.748,-12.969,34.0,118.0
183492,0.365,0.119,-0.988,15.626,-7.267,-7.489,35.0,117.0
183571,0.360,0.012,-0.940,15.473,-8.649,-7.611,36.0,117.0
183653,0.338,0.111,-1.037,-21.733,-1.008,-8.160,36.0,117.0
183734,0.274,0.087,-0.980,6.992,1.550,-5.313,36.0,136.0
183813,0.282,0.138,-1.008,-16.817,4.366,-8.672,37.0,116.0
183892,0.310,0.115,-0.930,7.809,-1.534,-1.924,38.0,116.0
183973,0.258,0.123,-0.954,-8.916,-1.557,-0.061,65.0,117.0
184052,0.316,0.169,-1.052,29.573,-2.481,13.137,35.0,117.0
184132,0.322,0.099,-1.046,-9.458,7.924,3.832,32.0,138.0
184213,0.250,0.016,-0.995,11.718,6.771,16.053,30.0,138.0
184296,0.322,-0.055,-0.953,4.893,6.947,-0.313,90.0,139.0
184379,0.252,-0.084,-0.933,-40.817,7.832,-9.000,30.0,139.0
184460,0.323,0.090,-0.880,13.046,-0.435,-27.344,29.0,138.0
184539,0.268,0.063,-0.984,-4.809,-4.481,-15.374,31.0,119.0
184617,0.306,0.104,-1.003,-13.901,-2.198,-13.908,30.0,117.0
184698,0.347,0.108,-0.997,-18.359,4.252,-27.313,34.0,137.0
184779,0.286,0.124,-1.017,-17.969,7.267,-36.901,39.0,137.0
184860,0.284,0.142,-0.985,-29.496,16.740,-51.130,43.0,137.0
184944,0.299,0.327,-0.964,-8.863,10.519,-30.893,47.0,0.0
185029,0.314,0.228,-0.837,20.618,4.817,-16.817,50.0,0.0
185118,0.319,0.225,-0.891,-6.618,0.893,-12.954,68.0,0.0
185203,0.300,0.244,-0.998,-13.618,4.603,-23.397,50.0,0.0
185288,0.275,0.329,-0.920,-5.031,1.115,-2.145,50.0,0.0
185373,0.299,0.313,-0.908,0.290,2.275,-19.458,51.0,0.0
185458,0.294,0.225,-0.864,4.527,-1.168,-8.611,51.0,0.0
185543,0.302,0.318,-0.960,-12.496,4.435,-15.282,52.0,0.0
185628,0.306,0.387,-1.030,-14.595,6.267,-22.550,51.0,0.0
185713,0.294,0.377,-0.923,-5.366,4.229,-15.160,51.0,0.0
185798,0.251,0.401,-0.887,-14.198,0.191,-15.298,52.0,0.0
185886,0.260,0.435,-0.906,1.275,-3.374,-0.366,52.0,0.0
185971,0.255,0.419,-0.921,3.863,-4.519,6.527,52.0,0.0
186056,0.259,0.464,-0.988,13.939,-0.863,12.534,52.0,0.0
186141,0.310,0.330,-0.935,10.740,4.611,8.122,52.0,0.0
186226,0.300,0.293,-0.910,1.031,3.893,6.008,51.0,0.0
186311,0.274,0.294,-0.903,-3.389,-0.802,3.702,52.0,0.0
186396,0.269,0.305,-0.932,2.641,-3.962,-2.382,52.0,0.0
186481,0.305,0.334,-0.958,3.977,-1.733,3.298,52.0,0.0
186566,0.293,0.348,-0.940,-9.687,3.038,-4.977,52.0,0.0
186654,0.310,0.295,-0.868,-3.214,0.756,-2.908,52.0,0.0
186739,0.333,0.386,-0.953,-11.145,-0.282,-6.412,52.0,0.0
186824,0.308,0.371,-0.945,2.679,-0.519,2.603,52.0,0.0
186909,0.294,0.333,-0.912,2.702,-0.405,3.435,52.0,0.0
186994,0.283,0.312,-0.923,12.076,-0.527,5.985,52.0,0.0
187079,0.289,0.254,-0.919,-6.664,2.130,-4.122,52.0,0.0
187164,0.295,0.331,-0.928,-6.145,1.947,0.351,52.0,0.0
187250,0.275,0.353,-0.923,-14.137,1.359,-4.527,52.0,0.0
187335,0.273,0.381,-0.933,-11.069,-0.824,2.466,52.0,0.0
187423,0.294,0.408,-0.930,-3.481,-2.328,-3.099,53.0,0.0
187508,0.280,0.408,-0.959,-7.466,-1.298,-1.527,53.0,0.0
187593,0.287,0.338,-0.887,3.122,1.718,1.435,53.0,0.0
187679,0.269,0.320,-0.871,-11.443,0.275,2.939,53.0,0.0
187764,0.281,0.348,-0.874,2.802,1.458,-3.366,53.0,0.0
187849,0.284,0.435,-0.935,-14.924,-0.580,-4.924,54.0,0.0
187934,0.322,0.494,-0.948,17.351,-4.420,3.985,53.0,0.0
188020,0.284,0.299,-0.881,-0.962,-5.038,5.893,54.0,0.0
188105,0.279,0.426,-0.952,-9.840,-0.130,-6.489,58.0,0.0
188194,0.275,0.453,-0.938,-5.214,1.618,2.130,54.0,0.0
188279,0.283,0.377,-0.887,3.992,0.550,6.473,54.0,0.0
188364,0.278,0.392,-0.893,3.924,0.649,-4.511,53.0,0.0
188449,0.314,0.386,-0.892,10.588,-1.931,0.817,54.0,0.0
188535,0.281,0.387,-0.942,-8.427,-1.275,-2.855,54.0,0.0
188620,0.283,0.396,-0.946,3.939,1.275,1.000,54.0,0.0
188706,0.265,0.411,-0.898,-5.412,5.359,-5.962,54.0,0.0
188791,0.283,0.418,-0.885,2.405,2.321,-2.718,54.0,0.0
188876,0.281,0.379,-0.876,-0.832,1.267,-0.130,54.0,0.0
188965,0.291,0.398,-0.913,1.221,0.573,2.153,57.0,0.0
189050,0.292,0.345,-0.909,7.466,0.947,1.466,54.0,0.0
189136,0.286,0.399,-0.917,-2.496,2.542,-0.275,54.0,0.0
189221,0.293,0.355,-0.865,7.954,0.115,-2.145,54.0,0.0
189307,0.275,0.378,-0.935,-7.298,0.634,-2.336,54.0,0.0
189392,0.273,0.396,-0.914,1.382,-1.191,-0.046,54.0,0.0
189477,0.261,0.388,-0.929,-2.275,-0.504,-0.069,54.0,0.0
189563,0.268,0.406,-0.916,3.817,-0.626,-0.153,54.0,0.0
189648,0.264,0.346,-0.899,2.901,-0.534,-0.053,55.0,0.0
189734,0.295,0.379,-0.920,-3.962,1.038,-0.115,55.0,0.0
189824,0.291,0.404,-0.917,1.038,1.992,-2.351,55.0,0.0
189908,0.283,0.391,-0.897,-3.931,1.168,3.145,54.0,0.0
189996,0.285,0.401,-0.897,10.252,1.962,0.130,79.0,0.0
190081,0.254,0.358,-0.903,0.305,1.725,1.802,54.0,0.0
190168,0.312,0.394,-0.940,2.916,0.985,4.641,67.0,0.0
190253,0.280,0.360,-0.912,-0.840,-1.267,15.168,55.0,0.0
190339,0.282,0.355,-0.911,-8.267,2.160,0.885,55.0,0.0
190425,0.307,0.372,-0.930,-3.634,1.756,-0.969,79.0,0.0
190511,0.306,0.391,-0.921,4.389,0.252,-4.656,57.0,0.0
190609,0.285,0.391,-0.915,3.733,-0.611,-0.779,59.0,0.0
190697,0.299,0.392,-0.965,-3.275,0.511,0.435,58.0,0.0
190785,0.308,0.379,-0.946,-4.756,4.076,0.824,58.0,0.0
190873,0.294,0.371,-0.894,-6.695,4.435,2.977,57.0,0.0
190961,0.287,0.389,-0.881,-3.794,2.137,1.282,58.0,0.0
191049,0.324,0.341,-0.899,-1.756,2.160,1.198,57.0,0.0
191138,0.313,0.428,-0.949,-17.366,7.107,-1.427,78.0,0.0
191228,0.274,0.374,-0.907,-3.092,5.626,11.313,79.0,0.0
191318,0.340,0.415,-0.924,-0.122,7.130,10.924,79.0,0.0
191411,0.378,0.367,-0.831,-17.443,3.267,45.336,84.0,0.0
191501,0.422,0.547,-0.980,9.038,8.908,40.275,83.0,0.0
191586,0.435,0.252,-0.866,20.313,3.962,52.466,83.0,130.0
191675,0.431,0.330,-0.999,44.466,-4.687,53.969,71.0,0.0
191760,0.439,0.145,-0.969,35.351,11.420,47.443,71.0,131.0
191846,0.418,0.039,-0.930,51.672,10.603,43.702,69.0,134.0
191934,0.421,0.076,-0.932,36.260,19.489,42.420,122.0,135.0
192022,0.525,0.015,-0.872,14.275,32.481,44.672,123.0,137.0
192108,0.626,-0.044,-0.810,-9.931,45.412,42.481,66.0,138.0
192200,0.765,-0.074,-0.755,0.557,45.504,37.878,123.0,141.0
192285,0.762,-0.165,-0.731,-22.252,39.847,26.031,65.0,144.0
192371,0.748,-0.066,-0.729,0.168,23.794,28.069,60.0,147.0
192457,0.743,-0.152,-0.651,-4.000,14.527,27.389,65.0,151.0
192543,0.700,-0.317,-0.573,-26.267,-5.511,19.160,58.0,154.0
192629,0.659,-0.256,-0.604,19.305,-18.305,6.389,59.0,156.0
192715,0.641,-0.284,-0.647,-9.191,-18.733,6.626,60.0,157.0
