Timestamp(ms),AccelX(g),AccelY(g),AccelZ(g),GyroX(deg/s),GyroY(deg/s),GyroZ(deg/s),DistanceLeft(cm),DistanceRight(cm)
26155,-0.041,0.803,0.657,47.985,-6.008,3.389,0.0,0.0
26215,-0.036,0.809,0.613,11.153,-0.145,3.229,0.0,0.0
26274,-0.047,0.772,0.668,-17.756,3.046,0.878,0.0,0.0
26335,-0.047,0.701,0.738,-20.290,3.214,0.992,0.0,0.0
26394,-0.041,0.676,0.760,0.634,-0.321,0.939,0.0,0.0
26455,-0.041,0.739,0.700,3.939,-0.595,0.992,0.0,0.0
26515,-0.032,0.732,0.710,-7.405,0.351,-0.130,0.0,0.0
26574,-0.038,0.698,0.730,-9.275,0.870,-0.053,0.0,0.0
26638,-0.041,0.688,0.739,-3.618,0.595,0.626,0.0,0.0
26697,-0.041,0.704,0.726,-0.221,0.267,1.389,0.0,0.0
26758,-0.042,0.703,0.725,-0.901,0.450,0.992,0.0,0.0
26818,-0.044,0.700,0.730,-2.015,0.710,1.206,0.0,0.0
26877,-0.050,0.700,0.729,-1.221,0.198,1.107,0.0,0.0
26938,-0.040,0.696,0.729,-1.321,0.160,0.794,0.0,0.0
26997,-0.043,0.709,0.726,-1.649,0.191,0.817,0.0,0.0
27058,-0.047,0.699,0.727,-1.916,0.328,0.809,0.0,0.0
27118,-0.042,0.706,0.732,-1.130,0.031,0.893,0.0,0.0
27181,-0.043,0.703,0.732,-3.282,0.458,0.977,0.0,0.0
27241,-0.046,0.688,0.738,-1.443,0.176,0.962,0.0,0.0
27301,-0.049,0.703,0.729,-0.679,0.206,1.137,0.0,0.0
27361,-0.043,0.698,0.732,-1.328,0.137,0.977,0.0,0.0
27421,-0.043,0.696,0.741,-0.832,0.115,0.870,0.0,0.0
27482,-0.038,0.697,0.733,-0.924,0.290,0.748,0.0,0.0
27541,-0.046,0.698,0.729,-0.557,0.084,1.122,0.0,0.0
27601,-0.043,0.699,0.735,-0.947,0.046,1.053,0.0,0.0
27662,-0.041,0.699,0.737,-1.130,0.168,0.863,0.0,0.0
27722,-0.044,0.702,0.729,-0.473,0.191,0.885,0.0,0.0
27785,-0.042,0.704,0.730,-0.794,0.099,1.061,0.0,0.0
27845,-0.043,0.700,0.735,-1.527,0.282,1.023,0.0,0.0
27906,-0.040,0.702,0.734,-0.519,-0.122,1.069,0.0,0.0
27966,-0.039,0.698,0.731,-1.359,0.176,1.031,0.0,0.0
28026,-0.038,0.697,0.735,-1.076,0.137,0.855,0.0,0.0
28086,-0.042,0.696,0.732,-0.947,0.107,0.863,0.0,0.0
28146,-0.044,0.701,0.741,-1.206,0.137,0.832,0.0,0.0
28207,-0.040,0.700,0.732,-1.031,0.252,1.015,0.0,0.0
28267,-0.048,0.696,0.740,-0.710,0.466,0.992,0.0,0.0
28327,-0.046,0.698,0.728,-0.718,0.046,0.954,0.0,0.0
28391,-0.046,0.698,0.731,-1.168,0.092,1.023,0.0,0.0
28450,-0.040,0.697,0.731,-1.389,0.260,1.084,0.0,0.0
28511,-0.045,0.701,0.740,-0.748,0.130,0.908,0.0,0.0
28571,-0.039,0.701,0.731,-2.427,1.038,1.336,0.0,0.0
28632,-0.057,0.760,0.777,-1.855,3.672,6.992,0.0,0.0
28692,-0.109,0.891,0.699,-28.092,-0.359,44.802,0.0,0.0
28752,-0.079,0.939,0.851,-47.718,-9.626,73.588,0.0,0.0
28813,0.027,0.691,1.058,-20.908,-46.305,99.878,0.0,0.0
28870,0.132,0.865,1.102,-82.634,-61.870,104.786,144.0,0.0
28928,0.180,0.424,1.276,-63.557,-97.008,93.351,0.0,88.0
28980,0.227,0.417,1.201,-32.611,-122.237,97.321,123.0,134.0
29029,0.296,0.369,1.037,-43.939,-141.031,83.779,120.0,88.0
29083,0.347,0.201,0.882,-16.969,-155.443,76.168,0.0,86.0
29180,0.528,0.059,0.412,-40.763,-148.748,24.603,0.0,85.0
29227,0.574,0.070,0.195,-44.687,-124.176,-5.641,69.0,85.0
29281,0.696,0.097,0.101,-57.328,-104.977,-25.435,0.0,86.0
29327,0.707,-0.006,0.014,-81.069,-89.244,-48.198,75.0,79.0
29379,0.770,-0.031,0.064,-64.412,-78.351,-62.603,0.0,50.0
29427,0.843,0.250,-0.051,-53.069,-68.641,-86.771,84.0,46.0
29479,0.830,0.275,-0.069,-51.985,-62.542,-105.443,0.0,43.0
29535,0.732,0.512,-0.084,-53.420,-57.420,-101.023,0.0,55.0
29587,0.635,0.494,-0.068,-37.389,-52.939,-84.649,0.0,53.0
29642,0.738,0.623,-0.070,4.779,-63.847,-68.916,0.0,51.0
29694,0.710,0.774,-0.163,-1.412,-61.511,-77.840,0.0,50.0
29751,0.635,0.706,-0.159,8.565,-57.473,-78.336,0.0,54.0
29803,0.590,0.888,-0.275,-22.908,-49.672,-68.160,0.0,50.0
29858,0.591,0.814,-0.240,-6.687,-39.244,-71.000,0.0,52.0
29915,0.577,1.055,-0.336,-41.008,-31.168,-70.496,0.0,57.0
29978,0.429,0.956,-0.239,-30.580,-22.458,-69.771,0.0,0.0
30040,0.398,0.958,-0.148,-6.084,-22.183,-43.328,0.0,0.0
30100,0.390,1.152,-0.266,-4.206,-20.557,-40.053,0.0,0.0
30160,0.327,1.010,-0.202,-13.206,-13.481,-28.183,0.0,0.0
30222,0.342,0.931,-0.200,-23.634,-9.588,-30.412,0.0,0.0
30282,0.282,0.966,-0.238,9.855,-9.275,-13.542,0.0,0.0
30343,0.346,0.934,-0.182,-13.832,5.282,-24.725,0.0,0.0
30403,0.322,1.067,-0.278,-24.473,4.962,-21.107,0.0,0.0
30468,0.306,1.055,-0.294,19.504,25.252,-17.847,0.0,0.0
30528,0.301,0.912,-0.206,-42.176,25.267,-20.374,0.0,0.0
30589,0.083,1.206,-0.157,2.267,26.595,16.817,0.0,0.0
30650,0.075,1.269,0.045,-44.809,16.366,16.176,0.0,0.0
30710,0.250,1.193,-0.052,28.595,15.321,16.718,0.0,0.0
30772,0.202,0.539,0.161,-36.725,-6.672,11.489,0.0,0.0
30832,0.193,0.985,-0.023,18.061,6.389,43.008,0.0,0.0
30893,0.361,1.026,-0.062,39.130,-0.328,15.008,0.0,0.0
30954,0.290,0.890,-0.151,6.260,3.756,31.427,0.0,0.0
31017,0.489,0.778,-0.183,8.763,12.481,27.115,0.0,0.0
31078,0.374,1.033,-0.279,8.008,2.000,48.397,0.0,0.0
31139,0.378,0.849,-0.214,-0.313,6.809,58.573,0.0,0.0
31194,0.561,0.947,-0.188,-1.618,18.985,58.954,0.0,84.0
31254,0.529,0.897,-0.174,19.031,34.641,48.534,0.0,0.0
31306,0.607,0.942,-0.132,-21.267,47.885,42.252,0.0,50.0
31362,0.513,0.603,0.046,-2.718,44.763,40.756,0.0,48.0
31414,0.600,0.888,-0.085,26.809,43.229,47.344,0.0,47.0
31469,0.719,0.755,-0.075,10.130,55.153,30.221,0.0,47.0
31525,0.510,0.668,-0.062,-10.947,57.336,30.305,0.0,45.0
31581,0.666,0.697,0.034,25.290,55.321,48.817,0.0,47.0
31633,0.559,0.624,-0.019,20.916,57.733,40.443,0.0,48.0
31688,0.641,0.783,-0.036,19.214,71.321,52.046,0.0,50.0
31741,0.482,0.460,-0.038,17.626,83.229,38.855,0.0,65.0
31798,0.842,0.689,0.151,6.573,125.672,34.527,0.0,57.0
31851,0.785,0.458,0.383,-8.336,120.000,0.718,0.0,57.0
31908,0.500,0.562,0.451,10.260,129.191,-13.847,0.0,78.0
31962,0.345,0.648,0.538,-5.550,125.458,-5.397,0.0,68.0
32062,0.453,0.641,0.824,4.145,109.824,-11.405,0.0,72.0
32115,0.387,0.647,1.023,-18.832,98.916,-16.618,0.0,74.0
32166,0.201,0.590,1.055,-6.046,64.427,-13.015,151.0,76.0
32225,0.203,0.755,0.882,5.214,46.565,5.443,150.0,0.0
32276,0.283,0.585,0.860,-22.832,26.229,18.603,149.0,80.0
32327,0.254,0.598,0.709,-42.252,37.076,23.779,148.0,79.0
32377,0.242,0.370,0.830,-42.763,23.534,22.588,127.0,81.0
32429,0.221,0.278,0.836,-3.481,20.695,26.840,144.0,85.0
32479,0.220,0.602,0.884,-2.588,10.420,14.527,143.0,82.0
32532,0.339,0.302,1.094,-36.565,8.611,-0.595,125.0,82.0
32582,0.328,0.414,0.942,2.076,19.359,-6.588,125.0,83.0
32640,0.228,0.379,0.882,-1.901,4.893,-12.916,126.0,0.0
32697,0.231,0.407,0.827,5.069,9.748,-12.420,144.0,0.0
32748,0.374,0.446,0.869,-33.321,28.672,-27.198,145.0,81.0
32799,0.190,0.325,0.840,-11.641,43.748,-38.008,148.0,82.0
32861,0.172,0.398,0.850,14.260,49.298,-37.008,0.0,0.0
32915,0.015,0.530,0.982,-16.924,37.305,-50.214,0.0,80.0
32959,-0.036,0.266,0.989,51.641,27.252,-40.214,23.0,79.0
33024,-0.037,0.780,0.785,44.588,18.405,-43.084,0.0,0.0
33078,-0.174,0.520,1.048,37.076,10.977,-27.893,23.0,0.0
33139,-0.078,0.599,0.838,55.092,-10.626,13.687,0.0,0.0
33201,0.014,0.583,0.730,41.328,-2.664,0.015,0.0,0.0
33261,-0.074,0.766,0.798,49.832,-5.252,2.366,0.0,0.0
33323,-0.007,0.730,0.673,31.405,-5.015,5.061,0.0,0.0
33390,-0.039,0.756,0.713,0.832,-0.687,2.122,0.0,0.0
33449,-0.015,0.700,0.724,0.832,-0.214,1.031,0.0,0.0
33510,-0.031,0.728,0.716,0.527,-0.198,0.809,0.0,0.0
33569,-0.025,0.724,0.712,-5.962,0.763,0.443,0.0,0.0
33632,-0.027,0.699,0.729,-7.382,1.229,0.260,0.0,0.0
33692,-0.026,0.692,0.746,-2.427,0.351,0.511,0.0,0.0
33753,-0.025,0.701,0.731,-0.840,0.229,1.000,0.0,0.0
33812,-0.024,0.711,0.727,-2.069,0.321,0.885,0.0,0.0
33872,-0.034,0.707,0.738,-1.282,0.031,0.931,0.0,0.0
33932,-0.031,0.701,0.737,-0.924,0.275,0.969,0.0,0.0
33992,-0.033,0.712,0.727,-1.443,0.282,0.725,0.0,0.0
34052,-0.027,0.701,0.731,-1.389,0.321,0.809,0.0,0.0
34112,-0.029,0.708,0.725,-1.252,0.191,1.023,0.0,0.0
34174,-0.033,0.703,0.724,-1.053,0.168,0.954,0.0,0.0
34235,-0.031,0.703,0.728,-0.908,0.137,0.786,0.0,0.0
34295,-0.033,0.709,0.729,-1.473,0.229,1.084,0.0,0.0
34355,-0.046,0.688,0.745,0.359,0.015,2.366,0.0,0.0
34415,-0.034,0.693,0.765,16.740,-3.573,8.412,0.0,0.0
34476,-0.004,0.744,0.675,17.534,-3.641,6.763,0.0,0.0
34535,0.004,0.785,0.668,4.313,-0.733,5.282,0.0,0.0
34595,0.009,0.743,0.672,-7.160,1.924,0.893,0.0,0.0
34656,-0.014,0.726,0.715,-11.206,3.160,-3.527,0.0,0.0
34715,-0.022,0.706,0.731,-6.832,1.351,-1.763,0.0,0.0
34779,-0.013,0.720,0.717,-2.550,1.168,-1.183,0.0,0.0
34839,-0.021,0.728,0.711,-4.000,1.092,-1.061,0.0,0.0
34898,-0.026,0.713,0.727,-5.656,0.947,-0.351,0.0,0.0
35002,-0.028,0.708,0.725,-1.282,0.328,0.748,0.0,0.0
35062,-0.025,0.707,0.721,-0.847,0.260,0.496,0.0,0.0
35123,-0.021,0.712,0.728,-2.000,0.366,0.977,0.0,0.0
35182,-0.028,0.705,0.723,-1.458,0.191,0.824,0.0,0.0
35243,-0.026,0.710,0.728,-1.160,0.237,0.840,0.0,0.0
35303,-0.029,0.707,0.734,-1.466,0.321,0.939,0.0,0.0
35363,-0.026,0.713,0.726,-0.809,0.000,1.260,0.0,0.0
35426,-0.030,0.709,0.729,-1.504,0.206,1.092,0.0,0.0
35486,-0.025,0.707,0.723,-1.252,0.183,1.137,0.0,0.0
35547,-0.027,0.706,0.735,-1.389,0.176,0.908,0.0,0.0
35607,-0.022,0.708,0.728,-1.183,0.427,1.137,0.0,0.0
35667,-0.023,0.706,0.724,-1.176,0.176,0.977,0.0,0.0
35727,-0.027,0.715,0.729,-0.534,0.076,0.786,0.0,0.0
35787,0.153,0.894,0.584,-33.107,1.840,-9.573,0.0,0.0
35848,-0.164,0.785,0.772,-77.756,11.290,8.702,0.0,0.0
35908,-0.383,0.544,0.805,33.000,1.229,46.481,0.0,0.0
35972,0.323,0.629,0.629,18.229,8.748,17.046,0.0,0.0
36032,0.211,0.514,1.016,-100.908,-3.069,-51.344,0.0,0.0
36092,-0.381,0.495,0.898,34.802,2.069,2.595,0.0,0.0
36153,-0.177,0.730,0.726,-42.527,0.305,19.817,0.0,0.0
36213,0.128,0.406,0.834,24.695,1.282,-0.313,0.0,0.0
36274,-0.061,0.393,0.732,102.344,13.267,-24.794,0.0,0.0
36334,-0.096,1.106,0.862,-106.595,-1.718,-10.214,0.0,0.0
36395,0.019,0.249,0.949,53.901,-8.244,16.443,0.0,0.0
36455,-0.069,0.746,0.813,6.962,-5.038,-7.031,0.0,0.0
36515,-0.009,0.667,0.724,55.924,-18.611,12.672,0.0,0.0
36574,0.154,0.644,0.890,65.695,-5.046,7.687,0.0,0.0
36634,1.087,0.711,0.944,76.214,-44.809,15.130,0.0,0.0
36695,0.114,0.599,0.636,27.015,-41.450,-98.038,0.0,0.0
36755,0.447,0.451,0.950,-194.519,36.916,-9.099,0.0,0.0
36809,-0.537,-0.578,1.382,95.779,-2.023,-4.557,20.0,0.0
36859,-0.177,0.753,0.747,161.519,-27.878,17.092,26.0,0.0
36920,0.078,0.752,0.627,208.954,-25.427,16.885,0.0,0.0
36980,0.141,1.193,0.225,107.061,-13.466,43.901,0.0,0.0
37042,-0.182,0.907,0.203,-12.023,5.183,8.977,0.0,0.0
37095,0.041,0.896,0.457,-15.084,5.160,0.038,30.0,0.0
37149,0.047,0.873,0.506,4.053,1.672,-7.076,28.0,0.0
37199,-0.024,0.911,0.422,-38.588,9.626,-0.931,28.0,0.0
37255,-0.058,0.902,0.425,17.023,0.282,6.176,30.0,0.0
37305,0.031,0.894,0.467,6.733,3.893,4.420,30.0,0.0
37365,0.017,1.009,0.308,1.641,1.229,1.733,0.0,0.0
37426,0.048,0.972,0.347,21.885,-0.855,0.305,0.0,0.0
37486,0.033,0.894,0.465,-2.794,1.580,1.878,0.0,0.0
37547,0.011,0.917,0.403,6.748,1.885,1.748,0.0,0.0
37611,0.001,0.928,0.386,9.092,1.427,2.145,0.0,0.0
37671,0.044,0.996,0.314,6.794,0.084,0.229,0.0,0.0
37732,0.055,0.972,0.357,1.527,3.985,2.313,0.0,0.0
37792,0.050,1.000,0.301,12.000,-0.595,0.389,0.0,0.0
37853,-0.080,0.750,0.444,6.969,4.992,-5.191,0.0,0.0
37913,0.008,1.031,0.170,1.443,8.718,-6.359,0.0,0.0
38017,0.006,0.954,0.403,2.954,7.618,-3.198,0.0,0.0
38078,-0.010,1.025,0.225,12.450,7.893,2.603,0.0,0.0
38138,-0.022,1.022,0.167,1.336,5.824,-0.565,0.0,0.0
38199,-0.016,0.911,0.404,3.458,4.008,0.718,0.0,0.0
38262,-0.004,0.937,0.443,0.710,3.878,0.710,0.0,0.0
38324,0.054,1.117,0.138,5.053,2.863,3.359,0.0,0.0
38384,-0.045,0.934,0.297,10.664,0.031,3.389,0.0,0.0
38445,-0.036,0.937,0.235,6.618,6.061,0.931,0.0,0.0
38505,-0.028,0.978,0.259,0.863,4.092,1.229,0.0,0.0
38565,-0.034,0.915,0.326,22.153,0.458,2.916,0.0,0.0
38627,-0.011,0.995,0.221,1.443,-1.153,0.863,0.0,0.0
38687,-0.005,0.983,0.259,-6.649,0.450,-0.099,0.0,0.0
38748,-0.007,1.031,0.181,-7.527,-1.122,-0.137,0.0,0.0
38809,-0.004,0.980,0.282,13.328,0.359,2.542,0.0,0.0
38873,0.012,0.973,0.372,-15.702,-1.153,0.252,0.0,0.0
38934,-0.015,1.013,0.208,2.580,-1.130,2.191,0.0,0.0
38994,-0.012,1.016,0.195,-3.008,-4.176,1.412,0.0,0.0
39055,-0.032,0.969,0.257,3.534,-0.809,2.137,0.0,0.0
39116,-0.041,0.948,0.250,-3.008,0.450,0.763,0.0,0.0
39177,-0.038,0.984,0.179,-5.168,-0.725,0.710,0.0,0.0
39237,-0.033,0.959,0.280,6.588,-0.313,0.046,0.0,0.0
39299,0.002,0.933,0.423,-2.366,0.718,0.634,0.0,0.0
39359,0.030,1.081,0.190,-13.656,-0.817,2.565,0.0,0.0
39424,-0.010,0.980,0.267,-6.450,-1.656,2.061,0.0,0.0
39484,-0.030,0.986,0.211,2.176,-0.405,1.206,0.0,0.0
39545,-0.016,0.916,0.404,-3.290,0.740,1.458,0.0,0.0
39606,0.019,1.056,0.196,2.282,0.405,1.229,0.0,0.0
39667,-0.007,0.938,0.375,-8.809,-0.985,1.084,0.0,0.0
39728,0.019,1.034,0.195,-5.107,-0.046,2.641,0.0,0.0
39788,-0.015,0.980,0.259,-2.412,-0.878,0.321,0.0,0.0
39849,-0.005,0.982,0.302,-0.977,-0.198,1.687,0.0,0.0
39910,-0.025,0.970,0.246,-2.229,-1.290,2.046,0.0,0.0
39971,-0.026,0.939,0.286,-1.122,-1.565,1.939,0.0,0.0
40036,-0.005,0.977,0.054,-8.641,-26.771,16.321,0.0,0.0
40096,-0.063,0.812,0.333,6.992,-0.779,1.641,0.0,0.0
40158,0.033,1.016,0.331,-11.573,1.679,-3.985,0.0,0.0
40219,0.025,0.973,0.334,10.473,1.053,3.298,0.0,0.0
40280,-0.024,0.970,0.211,-2.458,-0.183,2.351,0.0,0.0
40341,-0.023,0.953,0.267,-9.824,-1.634,1.794,0.0,0.0
40401,-0.012,0.898,0.399,-3.878,-0.748,-2.191,0.0,0.0
40463,0.013,1.018,0.249,7.099,1.214,2.328,0.0,0.0
40523,0.007,0.971,0.341,-3.702,0.504,1.336,0.0,0.0
40585,-0.018,0.965,0.255,15.244,1.099,3.374,0.0,0.0
40649,0.008,0.963,0.352,-9.122,1.969,-1.405,0.0,0.0
40710,0.031,1.055,0.221,-0.679,1.038,0.908,0.0,0.0
40771,0.006,0.983,0.264,-0.969,-0.550,2.328,0.0,0.0
40832,-0.002,0.956,0.322,-1.382,1.153,0.573,0.0,0.0
40893,0.007,1.009,0.221,-1.595,0.000,1.153,0.0,0.0
40954,-0.015,0.940,0.313,4.427,0.145,1.885,0.0,0.0
41015,0.001,0.974,0.324,-2.878,0.832,-0.053,0.0,0.0
41119,0.003,0.940,0.327,-1.198,0.679,0.557,0.0,0.0
41186,0.010,0.974,0.293,-7.779,0.473,0.282,0.0,0.0
41249,0.018,1.005,0.239,-1.779,-0.183,1.221,0.0,0.0
41309,-0.006,0.950,0.305,2.313,-0.282,1.099,0.0,0.0
41369,-0.004,0.952,0.320,-2.237,0.725,0.397,0.0,0.0
41428,0.004,0.985,0.258,-4.084,-0.137,0.534,0.0,0.0
41489,0.008,0.969,0.321,1.130,0.076,0.870,0.0,0.0
41548,0.008,0.970,0.293,-7.145,0.427,0.664,0.0,0.0
41609,-0.003,0.974,0.261,5.069,-0.115,1.458,0.0,0.0
41668,-0.001,0.935,0.352,-2.313,0.611,0.061,0.0,0.0
41729,0.011,1.000,0.267,-2.611,0.702,0.489,0.0,0.0
41788,0.013,0.996,0.279,-2.656,-0.298,1.366,0.0,0.0
41851,0.007,0.973,0.277,1.313,-0.008,1.603,0.0,0.0
41911,-0.009,0.961,0.279,-1.038,0.221,1.481,0.0,0.0
41971,-0.006,0.935,0.329,0.053,0.313,0.710,0.0,0.0
42031,0.003,0.985,0.267,-3.412,0.557,-0.160,0.0,0.0
42091,0.018,0.981,0.296,-1.313,0.237,1.244,0.0,0.0
42151,0.004,0.976,0.265,0.176,-0.206,1.542,0.0,0.0
42211,-0.009,0.958,0.298,0.855,-0.107,1.290,0.0,0.0
42271,0.006,0.968,0.320,-3.481,0.977,0.038,0.0,0.0
42331,0.021,0.991,0.291,-0.099,0.427,0.382,0.0,0.0
42391,0.010,0.979,0.313,-11.817,0.145,0.550,0.0,0.0
42454,-0.011,0.995,0.240,1.008,-1.084,1.107,0.0,0.0
42514,0.002,0.931,0.346,-0.237,0.626,1.336,0.0,0.0
42574,0.005,0.957,0.329,-4.817,0.504,0.702,0.0,0.0
42635,0.008,0.990,0.274,-2.595,0.069,1.130,0.0,0.0
42694,-0.012,0.988,0.281,-1.153,-0.802,1.206,0.0,0.0
42755,-0.007,0.917,0.366,-3.534,1.107,-0.550,0.0,0.0
42815,0.012,0.998,0.291,-6.237,0.328,0.458,0.0,0.0
42874,0.002,0.956,0.333,-2.847,-0.115,1.504,0.0,0.0
42935,0.004,0.963,0.302,-3.115,-0.420,1.656,0.0,0.0
42995,-0.001,0.924,0.353,-3.321,0.603,1.244,0.0,0.0
43059,0.011,1.002,0.273,-19.840,-0.015,-3.565,0.0,0.0
43118,-0.002,0.931,0.400,11.985,-0.405,2.038,0.0,0.0
43179,0.007,0.977,0.299,-8.466,0.038,1.168,0.0,0.0
43239,-0.020,0.899,0.409,4.115,-0.084,2.153,0.0,0.0
43299,-0.010,0.963,0.303,-7.183,0.359,0.389,0.0,0.0
43360,0.007,0.980,0.299,3.771,-0.031,1.344,0.0,0.0
43419,0.000,0.942,0.381,-2.733,0.847,0.870,0.0,0.0
43480,-0.006,0.956,0.338,-3.153,0.168,1.687,0.0,0.0
43540,-0.004,0.966,0.289,-1.359,-0.664,1.176,0.0,0.0
43603,-0.006,0.933,0.346,5.237,0.534,1.618,0.0,0.0
43664,0.012,0.948,0.365,-6.740,0.901,1.153,0.0,0.0
43723,0.019,0.992,0.290,0.740,-0.229,2.725,0.0,0.0
43784,-0.015,0.929,0.358,-3.084,-0.038,0.794,0.0,0.0
43844,0.006,0.979,0.300,-7.198,-0.565,1.023,0.0,0.0
43905,0.006,0.949,0.361,4.855,-0.405,1.328,0.0,0.0
43965,-0.004,0.958,0.330,4.786,-0.321,2.748,0.0,0.0
44025,-0.015,0.928,0.355,13.206,-2.687,7.183,0.0,0.0
44086,-0.001,0.975,0.290,4.221,-1.336,3.931,0.0,0.0
44189,0.067,0.909,0.398,30.344,-3.229,4.038,0.0,0.0
44253,0.052,0.947,0.291,20.435,-13.580,11.863,0.0,0.0
44313,0.061,1.105,0.032,17.893,3.053,1.489,0.0,0.0
44374,0.053,1.053,0.146,-55.107,9.511,-4.794,0.0,0.0
44434,0.036,0.902,0.408,-54.061,11.221,-2.763,0.0,0.0
44494,0.017,0.917,0.374,-9.038,3.794,-1.885,0.0,0.0
44555,0.022,0.999,0.281,-30.008,3.786,-3.870,0.0,0.0
44615,0.008,0.965,0.375,-45.282,2.336,-4.084,0.0,0.0
44676,0.056,0.904,0.451,-36.397,1.115,-8.931,0.0,0.0
44736,-0.019,0.891,0.479,-34.046,-2.237,-8.229,0.0,0.0
44800,-0.018,0.820,0.549,-19.206,2.496,0.954,0.0,0.0
44860,-0.003,0.862,0.525,5.985,1.046,7.015,0.0,0.0
44920,0.013,0.900,0.474,5.878,-0.038,4.023,0.0,0.0
44981,0.023,0.926,0.454,-5.664,2.489,3.901,0.0,0.0
45041,0.019,0.900,0.499,-10.702,5.893,0.427,0.0,0.0
45102,0.005,0.897,0.473,-16.008,5.008,-0.832,0.0,0.0
45162,-0.010,0.860,0.546,-12.046,1.061,-1.748,0.0,0.0
45222,-0.012,0.845,0.550,8.672,-1.595,0.466,0.0,0.0
45283,-0.002,0.886,0.495,9.015,-2.069,1.718,0.0,0.0
45343,0.002,0.882,0.509,4.008,-0.618,2.305,0.0,0.0
45408,0.016,0.888,0.491,4.214,0.489,2.290,0.0,0.0
45468,-0.005,0.898,0.487,0.260,1.344,1.588,0.0,0.0
45529,-0.010,0.881,0.491,1.275,0.634,2.962,0.0,0.0
45589,0.011,0.884,0.493,3.221,0.954,1.748,0.0,0.0
45649,0.004,0.896,0.472,3.275,0.649,0.328,0.0,0.0
45710,-0.003,0.898,0.481,-5.313,2.237,0.748,0.0,0.0
45770,0.007,0.878,0.496,0.763,0.115,0.832,0.0,0.0
45832,-0.002,0.897,0.479,2.725,-0.489,0.847,0.0,0.0
45900,0.008,0.904,0.471,-0.382,-0.260,1.153,0.0,0.0
45960,0.005,0.900,0.467,-2.580,-0.183,-0.229,0.0,0.0
46023,0.001,0.884,0.489,-3.702,0.145,-0.137,0.0,0.0
46083,-0.002,0.877,0.477,-0.099,0.145,0.740,0.0,0.0
46143,-0.001,0.896,0.496,0.076,-0.405,1.679,0.0,0.0
46202,-0.029,0.910,0.443,1.634,-2.466,5.244,0.0,0.0
46263,0.007,1.130,0.366,-67.557,7.924,16.924,0.0,0.0
46322,0.059,1.073,0.438,-143.298,8.908,29.481,0.0,0.0
46383,0.013,0.526,0.674,-136.534,16.145,33.611,0.0,0.0
46442,0.074,0.573,0.612,-112.282,25.443,30.031,0.0,0.0
46502,0.068,0.351,0.821,-64.725,37.260,15.878,0.0,0.0
46559,0.037,0.492,0.717,-182.702,46.908,9.267,0.0,83.0
46612,-0.163,0.047,1.110,-173.550,27.038,17.450,0.0,84.0
46655,-0.109,-0.018,1.105,-83.718,5.496,34.908,7.0,85.0
46697,-0.073,-0.085,1.092,-40.122,-3.160,32.901,5.0,86.0
46739,-0.064,-0.006,1.006,-8.702,-4.679,29.130,5.0,87.0
46782,-0.010,0.158,0.917,-31.008,0.450,23.450,4.0,87.0
46824,-0.002,-0.033,1.003,-39.389,5.863,11.550,7.0,88.0
46877,-0.033,-0.040,1.032,-21.107,6.275,8.366,0.0,88.0
46920,-0.077,-0.078,1.119,-10.099,-3.344,3.649,3.0,88.0
46977,-0.047,-0.005,1.054,20.069,-12.489,8.366,0.0,88.0
47031,-0.020,0.061,1.006,19.504,-15.947,6.885,0.0,88.0
47116,0.027,0.097,0.986,7.427,-11.573,7.046,8.0,89.0
47159,0.014,0.103,1.001,3.511,-8.588,10.015,8.0,89.0
47202,0.052,0.105,1.002,2.618,-7.420,10.519,5.0,89.0
47244,0.052,0.099,0.965,-1.763,-4.458,10.038,8.0,89.0
47287,0.057,0.078,0.956,-11.595,0.321,6.450,4.0,89.0
47329,0.056,0.013,1.001,-12.198,4.580,2.031,5.0,90.0
47372,0.040,0.021,1.010,-2.824,6.656,-1.145,3.0,90.0
47414,0.016,0.031,1.028,-0.542,6.573,-4.435,7.0,90.0
47460,0.003,0.043,1.034,5.695,4.198,-6.756,5.0,89.0
47502,0.012,0.055,1.029,4.931,0.511,-8.855,3.0,89.0
47545,0.021,0.047,1.021,15.046,-0.053,-8.481,4.0,89.0
47587,0.029,0.115,0.982,11.038,1.794,-8.710,6.0,89.0
47640,0.023,0.095,0.998,1.626,3.824,-10.038,0.0,88.0
47694,0.002,0.122,1.007,8.046,5.443,-7.511,0.0,88.0
47748,-0.018,0.158,1.028,-11.939,1.481,-4.046,0.0,88.0
47802,-0.005,0.088,1.035,3.481,-2.511,2.565,0.0,88.0
47845,0.018,0.119,0.991,0.527,-2.977,4.542,7.0,88.0
47890,0.018,0.056,1.006,-2.802,-2.107,0.847,6.0,88.0
47933,0.011,0.063,1.001,6.015,0.267,-1.198,9.0,88.0
47986,0.022,0.076,0.999,6.214,1.893,-4.313,0.0,88.0
48040,0.010,0.066,1.021,11.198,2.664,-8.656,0.0,88.0
48094,-0.014,0.153,1.020,9.992,-0.084,-9.519,0.0,88.0
48148,0.007,0.100,1.046,11.725,-5.023,-10.641,0.0,87.0
48201,0.010,0.220,0.980,25.534,-7.542,-6.412,0.0,86.0
48256,0.028,0.200,0.990,-2.427,-6.817,-7.443,0.0,86.0
48309,0.034,0.144,1.013,19.718,-4.672,-2.260,0.0,86.0
48363,0.031,0.249,0.971,8.382,-3.282,-3.481,0.0,86.0
48419,0.026,0.180,1.011,2.603,-2.687,-3.183,0.0,86.0
48474,-0.001,0.195,1.044,6.458,-7.679,-1.023,0.0,86.0
48517,0.024,0.153,1.050,9.725,-18.374,-3.580,11.0,85.0
48560,0.053,0.170,1.010,27.534,-21.344,-2.267,11.0,84.0
48602,0.085,0.253,0.942,34.634,-19.023,-2.328,10.0,84.0
48645,0.115,0.314,0.894,17.176,-13.275,-5.595,11.0,84.0
48688,0.092,0.297,1.008,-3.695,-10.336,-5.496,11.0,83.0
48731,0.075,0.208,1.062,4.947,-20.260,-5.710,12.0,83.0
48784,0.080,0.236,1.005,36.130,-27.672,-3.420,0.0,82.0
48840,0.142,0.239,0.960,40.504,-28.901,-7.664,0.0,81.0
48894,0.181,0.219,0.928,56.794,-28.473,-18.458,0.0,80.0
48948,0.129,0.403,0.924,17.687,-26.565,-28.298,0.0,79.0
49001,0.087,0.186,0.982,2.328,-28.786,-40.550,0.0,77.0
49044,0.127,0.273,0.849,7.122,-12.550,-61.802,22.0,75.0
49097,0.241,0.326,0.745,-60.252,3.351,-82.267,0.0,72.0
49160,0.087,0.234,0.854,-27.779,38.168,-115.794,0.0,171.0
49213,-0.051,0.574,0.855,49.565,45.260,-80.611,0.0,67.0
49276,-0.178,0.694,1.140,214.382,4.229,-49.344,0.0,0.0
49341,0.028,1.468,0.380,-53.969,-24.855,31.672,0.0,0.0
49399,-0.017,0.565,0.926,-154.076,8.527,46.176,0.0,167.0
49458,-0.159,0.390,1.095,-117.855,-36.031,65.817,0.0,169.0
49502,0.018,0.356,1.016,-22.740,-64.771,95.069,29.0,69.0
49545,0.145,0.309,0.881,-24.718,-69.878,92.336,30.0,71.0
49631,0.378,0.150,0.748,-9.763,-44.412,63.855,23.0,68.0
49674,0.425,0.032,0.765,-23.191,-21.939,31.435,22.0,76.0
49717,0.437,-0.044,0.810,14.076,7.366,10.763,22.0,76.0
49760,0.395,0.252,0.789,6.756,29.511,-5.313,22.0,74.0
49806,0.270,0.261,0.990,-27.817,35.580,-4.557,22.0,74.0
49856,0.276,0.148,1.124,13.824,9.695,0.031,148.0,74.0
49907,0.259,0.228,0.979,51.443,-13.008,-1.802,149.0,74.0
49950,0.283,0.237,0.964,15.038,-14.695,-6.061,25.0,74.0
49993,0.319,0.149,0.927,46.855,-10.115,0.160,24.0,74.0
50044,0.399,0.453,0.768,33.122,-7.504,-11.969,150.0,74.0
50095,0.395,0.233,0.837,12.389,8.824,-30.511,150.0,75.0
50145,0.413,0.391,0.743,21.313,23.962,-33.985,151.0,73.0
50203,0.472,0.162,0.684,104.809,28.237,-76.458,153.0,0.0
50268,0.272,0.950,0.052,250.130,-3.885,-122.145,0.0,0.0
50328,0.706,2.000,-0.198,250.130,71.855,64.901,0.0,0.0
50388,-0.412,0.678,0.560,-81.076,103.794,-30.099,0.0,0.0
50450,-0.168,0.783,0.720,-121.985,118.221,-38.496,0.0,0.0
50503,-0.941,-0.206,2.000,-173.863,44.023,5.466,16.0,0.0
50553,0.148,0.094,1.477,242.229,-41.420,8.573,18.0,0.0
50608,0.090,1.384,-0.131,90.267,-19.817,-0.679,20.0,0.0
50658,-0.011,1.267,0.168,-78.275,21.351,-16.893,20.0,0.0
50712,0.040,0.472,0.954,-42.855,14.145,-10.931,19.0,0.0
50766,0.123,1.070,0.595,42.511,-2.626,1.916,19.0,0.0
50820,-0.042,0.905,0.485,-19.931,-3.420,4.374,20.0,0.0
50870,-0.059,0.844,0.506,-2.695,1.763,-6.344,19.0,0.0
50924,0.003,0.865,0.651,-1.466,0.305,-1.489,19.0,0.0
50974,-0.003,0.703,0.849,-5.809,4.229,7.573,19.0,0.0
51028,-0.094,0.892,0.398,10.672,-1.244,2.786,20.0,0.0
51079,-0.019,0.820,0.623,2.969,1.840,-2.924,20.0,0.0
51133,0.015,0.929,0.601,-5.229,-1.221,6.405,19.0,0.0
51183,-0.123,0.638,0.669,-2.748,-0.519,5.443,19.0,0.0
51236,-0.056,0.912,0.430,1.389,-1.779,-2.840,19.0,0.0
51291,-0.040,0.770,0.671,2.397,0.687,0.977,21.0,0.0
51341,-0.071,0.722,0.665,9.427,2.206,2.466,20.0,0.0
51395,-0.014,0.910,0.514,5.435,-1.137,0.794,19.0,0.0
51445,-0.043,0.847,0.533,0.145,-1.420,3.244,19.0,0.0
51500,-0.056,0.760,0.647,8.687,2.702,0.893,20.0,0.0
51550,0.069,0.924,0.689,31.366,-3.771,8.405,19.0,0.0
51604,-0.029,0.876,0.499,17.977,-4.580,9.672,20.0,0.0
51654,-0.092,0.848,0.426,2.618,0.901,-0.733,20.0,0.0
51708,0.021,0.842,0.636,24.015,-2.863,3.931,20.0,0.0
51763,-0.029,0.962,0.361,-9.282,-0.939,3.992,20.0,0.0
51813,-0.111,0.652,0.698,51.832,-9.252,2.031,21.0,0.0
51867,0.047,1.144,0.250,67.992,-5.962,8.130,21.0,0.0
51918,-0.023,0.863,0.414,-1.802,-2.198,0.618,21.0,0.0
51972,0.026,0.942,0.466,-37.809,3.198,-1.908,22.0,0.0
52023,0.002,1.052,0.284,-87.389,13.336,-3.466,20.0,0.0
52077,-0.124,0.383,0.987,-0.260,-1.603,-1.084,20.0,0.0
52127,-0.007,0.991,0.289,90.405,-9.573,16.015,21.0,0.0
52182,0.174,1.552,-0.158,-155.115,19.359,-16.779,20.0,0.0
52279,-0.093,0.561,0.616,197.206,-23.725,24.443,20.0,0.0
52333,0.156,1.606,-0.291,-16.336,3.519,-0.809,20.0,0.0
52384,-0.132,0.267,1.094,-43.137,3.786,0.947,20.0,0.0
52439,-0.029,1.091,0.257,45.519,-6.153,8.092,22.0,0.0
52489,-0.041,0.779,0.591,-14.466,0.084,-2.824,20.0,0.0
52545,-0.004,0.869,0.581,-10.557,2.008,-0.580,20.0,0.0
52598,-0.023,0.789,0.604,24.153,-2.405,4.229,21.0,0.0
52647,0.038,1.034,0.354,-24.809,2.374,-4.771,20.0,0.0
52701,-0.078,0.769,0.610,-30.221,3.206,-3.122,19.0,0.0
52753,0.014,1.040,0.281,-32.664,4.855,-7.710,20.0,0.0
52806,-0.014,0.613,0.884,-98.000,11.878,-10.458,19.0,0.0
52856,-0.113,0.440,0.878,94.443,-9.588,15.595,20.0,0.0
52910,0.155,1.367,0.030,58.176,-0.809,6.031,21.0,0.0
52959,-0.052,0.564,0.874,-66.237,7.191,-6.092,20.0,0.0
53012,-0.101,0.379,1.033,109.366,-14.321,15.237,19.0,0.0
53062,0.243,1.784,-0.468,54.634,6.931,8.382,21.0,0.0
53115,0.005,0.931,0.413,-200.137,19.130,-21.092,20.0,0.0
53165,-0.207,-0.024,1.317,46.595,-6.863,6.870,20.0,0.0
53221,0.035,1.291,0.048,79.107,-7.779,6.061,20.0,0.0
53270,0.003,0.840,0.624,-81.046,8.756,-9.023,19.0,0.0
53323,-0.150,0.385,0.943,81.198,-13.130,9.122,19.0,0.0
53373,0.053,1.247,0.043,26.954,-2.588,-2.672,20.0,0.0
53427,0.056,0.905,0.558,-71.305,7.740,-13.939,20.0,0.0
53477,-0.143,0.502,0.819,28.794,-4.511,-0.351,20.0,0.0
53530,-0.015,1.173,0.146,-12.336,6.969,-3.679,20.0,0.0
53579,-0.023,0.772,0.765,-53.214,6.740,-8.664,21.0,0.0
53633,-0.059,0.619,0.861,65.824,-7.061,12.023,20.0,0.0
53686,-0.002,1.185,0.099,-25.000,1.008,1.191,21.0,0.0
53739,-0.104,0.642,0.754,-58.824,6.046,-9.947,19.0,0.0
53789,0.048,0.885,0.628,90.977,-5.214,9.542,20.0,0.0
53842,-0.088,0.940,0.255,-11.595,-0.542,2.947,21.0,0.0
53892,-0.026,0.992,0.452,-28.916,4.145,-18.763,21.0,0.0
53946,-0.070,0.688,0.844,-12.870,2.069,4.519,20.0,0.0
53995,-0.073,0.962,0.308,0.359,-5.450,7.328,21.0,0.0
54048,-0.081,0.802,0.529,-4.733,1.183,-3.076,20.0,0.0
54098,0.023,0.896,0.667,-12.298,1.527,4.275,20.0,0.0
54152,-0.109,0.825,0.398,-7.603,-2.817,1.878,20.0,0.0
54205,-0.118,0.786,0.497,-26.924,4.031,-7.565,20.0,0.0
54258,-0.104,0.682,0.710,1.061,0.023,3.901,20.0,0.0
54307,-0.035,0.951,0.417,-6.229,-1.099,4.420,20.0,0.0
54362,-0.056,0.771,0.677,-4.832,-0.954,-0.214,19.0,0.0
54411,-0.076,0.755,0.621,25.427,-6.076,14.679,20.0,0.0
54465,-0.036,0.948,0.420,-19.992,-0.687,-1.649,20.0,0.0
54514,-0.002,0.812,0.664,-45.901,4.634,-1.962,20.0,0.0
54568,-0.079,0.646,0.794,9.160,0.153,2.366,19.0,0.0
54618,-0.015,0.816,0.610,66.626,-5.565,11.802,19.0,0.0
54671,0.022,1.218,0.102,-40.008,4.481,-3.023,20.0,0.0
54724,-0.068,0.657,0.749,-62.748,5.809,-6.550,20.0,0.0
54774,-0.043,0.689,0.790,39.344,-1.511,6.046,19.0,0.0
54828,0.039,1.211,0.248,-7.099,1.282,5.473,19.0,0.0
54921,-0.071,0.557,0.886,12.878,-1.198,3.092,19.0,0.0
54974,-0.039,0.911,0.500,16.664,-1.687,3.779,19.0,0.0
55024,-0.031,0.831,0.588,-9.573,0.626,-0.847,19.0,0.0
55077,-0.041,0.767,0.693,2.802,-0.450,2.595,20.0,0.0
55128,-0.008,0.885,0.554,0.076,-0.061,-0.534,20.0,0.0
55180,-0.048,0.774,0.657,-10.260,1.710,-1.450,20.0,0.0
55234,-0.028,0.821,0.629,4.794,-0.198,1.466,19.0,0.0
55283,-0.037,0.802,0.603,-3.282,0.496,2.397,19.0,0.0
55337,-0.052,0.792,0.626,-3.160,0.313,0.237,19.0,0.0
55387,-0.023,0.794,0.658,11.214,-1.214,3.473,19.0,0.0
55441,-0.023,0.824,0.597,1.069,-0.344,2.137,19.0,0.0
55491,-0.049,0.766,0.650,-2.305,-0.214,1.145,19.0,0.0
55544,-0.005,0.842,0.598,14.840,-2.664,4.893,19.0,0.0
55595,-0.031,0.781,0.621,-11.237,0.817,1.863,19.0,0.0
55648,-0.051,0.786,0.621,14.107,-1.412,1.679,19.0,0.0
55701,-0.001,0.849,0.582,0.977,0.618,2.275,19.0,0.0
55751,-0.037,0.800,0.606,-1.061,0.198,2.176,19.0,0.0
55804,-0.012,0.832,0.595,2.588,-0.664,1.901,19.0,0.0
55855,-0.047,0.790,0.612,4.122,0.550,1.565,19.0,0.0
55908,-0.015,0.816,0.593,12.473,-0.443,1.641,19.0,0.0
55958,-0.012,0.861,0.559,-2.840,1.221,2.122,20.0,0.0
56011,-0.037,0.803,0.605,-0.427,-0.435,0.855,19.0,0.0
56061,-0.019,0.841,0.565,5.191,-0.557,2.092,19.0,0.0
56115,0.006,0.863,0.551,3.046,-0.855,1.115,19.0,0.0
56168,-0.016,0.823,0.605,-6.397,0.397,0.359,19.0,0.0
56222,-0.039,0.818,0.585,1.420,0.214,1.038,19.0,0.0
56272,-0.015,0.855,0.558,1.656,0.260,1.473,19.0,0.0
56326,-0.031,0.796,0.599,1.061,0.489,2.992,19.0,0.0
56376,-0.014,0.857,0.538,3.160,-0.260,2.794,20.0,0.0
56429,-0.026,0.820,0.588,-1.046,0.550,1.076,19.0,0.0
56479,-0.027,0.829,0.572,7.534,-1.244,3.244,19.0,0.0
56532,-0.025,0.861,0.529,5.908,-0.603,1.023,19.0,0.0
56583,0.011,0.873,0.550,-9.069,1.305,-0.748,19.0,0.0
56637,-0.007,0.820,0.609,1.565,0.634,2.275,19.0,0.0
56685,-0.011,0.867,0.517,2.168,-0.756,0.473,20.0,0.0
56738,-0.003,0.855,0.568,-5.344,0.511,0.443,19.0,0.0
56788,-0.038,0.826,0.559,-0.107,-0.122,0.802,19.0,0.0
56843,-0.023,0.823,0.576,-1.588,0.076,1.565,20.0,0.0
56893,-0.012,0.832,0.580,9.427,-1.489,3.939,20.0,0.0
56946,-0.021,0.871,0.529,8.794,-0.580,3.771,20.0,0.0
56996,-0.015,0.804,0.605,15.542,-3.046,7.038,21.0,0.0
57051,-0.028,0.790,0.629,53.389,-7.099,9.779,20.0,0.0
57101,0.028,0.921,0.464,61.641,-8.603,17.908,22.0,0.0
57164,0.111,0.941,0.352,59.794,-9.183,9.664,0.0,0.0
57225,-0.015,1.009,0.220,-8.443,0.840,0.359,0.0,0.0
57285,0.042,0.885,0.464,-30.618,3.740,-2.115,0.0,0.0
57347,0.009,0.869,0.508,-6.611,3.511,1.763,0.0,0.0
57407,0.002,0.914,0.438,14.076,-1.588,3.511,0.0,0.0
57467,0.058,0.932,0.394,14.519,1.260,4.344,0.0,0.0
57528,0.017,0.959,0.356,5.443,-0.282,-0.435,0.0,0.0
57631,0.030,0.906,0.428,0.756,-0.511,3.282,0.0,0.0
57692,0.035,0.915,0.416,11.603,-2.069,1.718,0.0,0.0
57752,0.057,0.978,0.320,8.656,-1.679,-0.023,0.0,0.0
57817,0.052,0.951,0.385,-18.656,-0.908,-5.282,0.0,0.0
57877,-0.033,0.862,0.513,-9.298,-6.771,6.718,0.0,0.0
57937,0.040,0.951,0.427,5.939,-2.389,11.771,0.0,0.0
57998,0.068,0.947,0.443,-2.107,-8.802,34.084,0.0,0.0
58059,0.146,0.950,0.356,-2.252,-3.901,30.397,0.0,0.0
58120,0.201,0.967,0.408,-28.618,-3.756,16.092,0.0,0.0
58180,0.151,0.910,0.518,-36.878,-3.489,26.374,0.0,0.0
58242,0.190,1.025,0.389,-33.420,-12.511,37.092,0.0,0.0
58302,0.264,0.833,0.530,-68.214,-4.725,16.870,0.0,0.0
58366,0.207,0.677,0.582,-65.176,-4.924,0.740,0.0,0.0
58427,0.209,0.683,0.632,-15.672,-4.321,-3.290,0.0,0.0
58487,0.198,0.790,0.548,-1.130,-5.656,-6.794,0.0,0.0
58549,0.237,0.721,0.607,-50.870,4.733,-22.832,0.0,0.0
58609,0.254,0.729,0.562,-58.038,20.130,-28.496,0.0,0.0
58670,0.184,0.436,0.716,-39.557,44.534,-41.435,0.0,0.0
58731,0.124,0.710,0.752,25.527,46.267,-52.733,0.0,0.0
58791,-0.475,1.371,0.960,11.962,12.931,-14.809,0.0,0.0
58853,0.040,0.547,0.673,29.023,-8.985,20.282,0.0,0.0
58916,0.017,0.899,0.589,28.695,4.053,-12.313,0.0,0.0
58978,-0.015,0.797,0.618,11.076,-1.763,3.344,0.0,0.0
59038,0.026,0.787,0.632,11.305,-1.962,-2.092,0.0,0.0
59100,0.014,0.801,0.622,9.626,-1.489,0.611,0.0,0.0
59160,0.013,0.815,0.607,0.824,1.481,1.305,0.0,0.0
59220,0.003,0.791,0.633,1.023,1.176,2.145,0.0,0.0
59282,0.002,0.802,0.621,7.336,0.748,3.115,0.0,0.0
59342,0.011,0.828,0.601,7.023,-0.527,2.626,0.0,0.0
59403,0.017,0.822,0.589,0.893,0.053,2.038,0.0,0.0
59464,0.019,0.818,0.603,-1.580,0.313,1.221,0.0,0.0
59528,0.010,0.811,0.598,0.595,0.237,1.511,0.0,0.0
59593,0.021,0.813,0.600,2.061,0.160,1.366,0.0,0.0
59654,0.023,0.803,0.625,5.206,0.412,1.565,0.0,0.0
59713,-0.000,0.798,0.617,21.458,0.313,2.786,0.0,0.0
59772,0.023,0.871,0.538,26.130,-7.366,7.252,0.0,0.0
59833,0.017,0.772,0.621,29.473,-8.092,5.557,0.0,0.0
59892,0.017,0.949,0.551,34.504,-16.847,2.847,0.0,0.0
59953,0.059,1.076,0.530,-61.107,-10.725,7.557,0.0,0.0
60012,-0.106,0.976,0.656,-48.183,-35.183,13.275,0.0,0.0
60072,-0.044,0.734,0.987,-92.840,-54.084,21.145,0.0,0.0
60135,-0.229,1.042,0.906,-36.153,-98.527,41.679,0.0,0.0
60195,0.102,0.807,0.746,-85.817,-117.473,47.145,0.0,0.0
60246,0.325,0.658,0.634,-103.473,-110.481,45.412,158.0,68.0
60298,0.318,0.573,0.582,-103.947,-102.397,33.420,0.0,66.0
60354,0.472,0.432,0.547,-93.412,-97.053,46.382,0.0,64.0
60402,0.378,0.583,0.458,-121.565,-96.321,35.611,141.0,62.0
60451,0.613,0.273,0.571,-116.053,-114.412,29.992,145.0,57.0
60499,0.791,0.250,0.472,-22.359,-122.427,41.847,141.0,49.0
60559,0.879,0.486,0.212,-46.504,-118.435,54.122,142.0,46.0
