Timestamp(ms),AccelX(g),AccelY(g),AccelZ(g),GyroX(deg/s),GyroY(deg/s),GyroZ(deg/s),DistanceLeft(cm),DistanceRight(cm)
199099,0.196,-0.168,0.988,-3.267,-0.244,-0.718,32.0,0.0
199182,0.214,-0.125,0.970,-2.305,-0.466,-0.427,32.0,0.0
199265,0.205,-0.136,0.958,3.779,0.382,0.550,32.0,0.0
199348,0.195,-0.162,0.996,1.916,0.870,0.313,32.0,0.0
199432,0.194,-0.146,0.988,-3.099,-0.137,-0.916,32.0,0.0
199515,0.202,-0.127,0.963,-1.076,-0.321,-0.939,32.0,0.0
199598,0.200,-0.130,0.973,2.260,0.786,-0.115,32.0,0.0
199682,0.197,-0.150,0.986,1.634,0.679,-0.695,32.0,0.0
199768,0.196,-0.123,0.981,-2.313,0.160,-0.527,33.0,0.0
199851,0.191,-0.116,0.966,2.153,0.443,-0.573,33.0,0.0
199933,0.196,-0.122,0.978,1.595,-0.008,-0.427,33.0,0.0
200017,0.200,-0.147,0.996,3.244,-0.450,0.237,33.0,0.0
200100,0.194,-0.140,0.991,-2.947,0.168,-1.405,32.0,0.0
200184,0.201,-0.115,0.973,2.756,-0.511,-1.267,32.0,0.0
200268,0.193,-0.120,0.988,-0.947,0.115,-0.664,32.0,0.0
200351,0.199,-0.127,0.985,2.557,-1.061,-1.473,32.0,0.0
200435,0.195,-0.138,0.982,2.069,-0.405,-1.626,33.0,0.0
200521,0.200,-0.142,0.994,-0.374,-0.748,-2.015,32.0,0.0
200605,0.196,-0.112,0.980,-0.664,-0.046,-0.924,33.0,0.0
200689,0.205,-0.109,0.972,0.618,0.168,0.092,33.0,0.0
200772,0.201,-0.117,0.979,-1.099,0.458,-0.504,33.0,0.0
200856,0.198,-0.119,0.989,1.176,0.489,0.061,33.0,0.0
200939,0.196,-0.119,0.977,-0.847,0.397,-0.947,33.0,0.0
201023,0.194,-0.108,0.973,-1.115,0.420,-0.137,33.0,0.0
201107,0.198,-0.117,0.978,-0.092,-0.366,0.427,33.0,0.0
201190,0.202,-0.127,0.977,-3.656,-0.374,-0.061,33.0,0.0
201277,0.207,-0.115,0.977,-0.321,0.031,-0.061,32.0,0.0
201361,0.201,-0.115,0.972,0.687,-0.137,0.191,33.0,0.0
201444,0.188,-0.125,0.982,0.084,0.183,-0.038,32.0,0.0
201528,0.202,-0.109,0.969,-1.595,-0.603,-0.908,33.0,0.0
201612,0.199,-0.108,0.971,3.160,-0.160,0.290,33.0,0.0
201696,0.194,-0.129,0.985,2.771,0.229,-0.267,33.0,0.0
201779,0.201,-0.123,0.988,-8.176,-0.450,-1.405,33.0,0.0
201863,0.199,-0.101,0.964,-1.015,-0.252,0.122,33.0,0.0
201947,0.182,-0.111,0.972,0.550,0.229,0.618,33.0,0.0
202033,0.196,-0.098,0.965,0.672,1.023,1.252,32.0,0.0
202117,0.195,-0.125,0.982,-0.366,0.092,0.489,32.0,0.0
202201,0.200,-0.109,0.975,-2.084,-0.023,-0.649,32.0,0.0
202284,0.191,-0.089,0.968,3.580,0.847,0.992,32.0,0.0
202368,0.189,-0.139,0.987,2.504,1.252,2.069,33.0,0.0
202451,0.185,-0.143,0.988,-2.817,1.107,0.031,32.0,0.0
202535,0.190,-0.118,0.979,-1.069,0.878,-0.267,32.0,0.0
202618,0.199,-0.123,0.965,5.000,2.435,-1.252,32.0,0.0
202702,0.181,-0.109,0.979,-1.229,4.550,-2.695,33.0,0.0
202789,0.206,-0.154,0.959,26.649,11.679,-0.443,32.0,0.0
202873,0.205,-0.148,0.888,64.725,33.634,-7.183,34.0,0.0
202957,0.063,0.259,0.834,43.359,59.473,-4.198,35.0,0.0
203041,-0.017,0.004,1.111,-3.901,50.794,-15.450,38.0,0.0
203127,-0.270,0.004,1.308,99.061,5.550,6.046,58.0,0.0
203212,-0.001,0.295,0.816,53.290,10.771,3.511,66.0,0.0
203298,-0.112,0.447,1.000,32.450,2.092,4.710,57.0,0.0
203383,-0.095,0.307,0.940,42.924,-2.336,2.550,57.0,194.0
203467,-0.059,0.440,0.902,22.023,-3.008,-3.481,58.0,193.0
203564,-0.077,0.502,0.887,7.282,0.260,-0.611,0.0,192.0
203658,-0.067,0.438,0.902,-6.679,1.679,-0.534,0.0,0.0
203751,-0.081,0.408,0.913,1.618,0.977,-1.023,0.0,193.0
203844,-0.081,0.493,0.901,-0.282,2.847,-4.511,0.0,193.0
203929,-0.086,0.432,0.877,-25.290,2.679,-2.985,57.0,194.0
204014,-0.074,0.260,0.954,-3.069,0.000,8.695,57.0,0.0
204107,-0.115,0.394,0.932,33.695,-5.420,-0.962,0.0,192.0
204200,-0.094,0.588,0.858,19.588,-3.206,-2.137,0.0,192.0
204294,-0.070,0.437,0.896,-23.527,3.267,3.099,0.0,193.0
204390,-0.073,0.346,0.931,-4.580,-0.267,1.191,0.0,193.0
204483,-0.093,0.447,0.886,14.481,-2.168,-3.931,0.0,193.0
204576,-0.065,0.508,0.883,-11.954,1.328,0.916,0.0,193.0
204669,-0.100,0.380,0.921,-1.550,0.092,0.008,0.0,194.0
204754,-0.086,0.453,0.895,6.908,0.328,-1.901,58.0,193.0
204839,-0.076,0.515,0.888,5.718,-0.679,1.534,58.0,192.0
204933,-0.082,0.421,0.903,-3.351,0.832,2.359,0.0,193.0
205026,-0.080,0.416,0.909,2.267,-0.603,-1.824,0.0,192.0
205119,-0.076,0.493,0.880,-2.550,-0.595,-0.023,0.0,193.0
205215,-0.083,0.444,0.895,0.710,0.359,0.603,0.0,194.0
205308,-0.081,0.452,0.889,-1.672,-0.069,-0.313,0.0,193.0
205402,-0.093,0.469,0.892,3.427,-0.687,-0.069,0.0,193.0
205495,-0.084,0.452,0.895,-1.214,0.718,0.183,0.0,193.0
205588,-0.085,0.455,0.900,3.183,-0.290,0.229,0.0,192.0
205681,-0.084,0.468,0.897,-0.206,-0.817,0.115,0.0,192.0
205774,-0.084,0.462,0.902,3.855,0.038,-0.740,0.0,192.0
205868,-0.075,0.465,0.885,0.076,0.191,0.351,0.0,193.0
205961,-0.081,0.437,0.886,-0.840,-0.420,-0.550,0.0,193.0
206057,-0.081,0.487,0.888,2.130,-0.779,0.115,0.0,192.0
206151,-0.084,0.457,0.885,-2.191,0.061,-0.221,0.0,193.0
206244,-0.075,0.468,0.881,0.359,0.122,-0.260,0.0,193.0
206338,-0.075,0.470,0.892,-2.053,-0.305,0.099,0.0,193.0
206431,-0.084,0.465,0.885,0.588,0.000,-0.069,0.0,193.0
206524,-0.074,0.488,0.891,-1.580,-0.405,0.305,0.0,193.0
206617,-0.078,0.467,0.889,0.992,-0.229,-0.321,0.0,193.0
206710,-0.075,0.475,0.895,0.267,0.076,-0.183,0.0,193.0
206796,-0.079,0.467,0.884,0.382,-0.397,-0.153,58.0,193.0
206889,-0.076,0.476,0.884,-0.527,-0.023,0.008,0.0,193.0
206987,-0.074,0.470,0.890,0.863,-0.099,-0.099,0.0,0.0
207080,-0.084,0.472,0.886,-1.466,0.206,-0.313,0.0,0.0
207173,-0.077,0.467,0.883,0.076,0.038,0.084,0.0,193.0
207267,-0.079,0.476,0.894,1.450,-0.107,-0.405,0.0,0.0
207361,-0.067,0.463,0.886,-0.626,-0.443,-0.107,0.0,194.0
207455,-0.078,0.473,0.880,0.794,-0.031,-0.214,0.0,0.0
207548,-0.079,0.465,0.882,-0.710,-0.122,-0.206,0.0,193.0
207641,-0.078,0.469,0.883,1.153,-0.244,-0.168,0.0,193.0
207734,-0.081,0.462,0.895,-0.947,0.107,-0.008,0.0,193.0
207832,-0.078,0.478,0.877,0.053,-0.115,-0.122,0.0,0.0
207925,-0.079,0.470,0.895,0.603,0.023,-0.160,0.0,194.0
208019,-0.079,0.475,0.889,0.214,-0.145,-0.176,0.0,192.0
208113,-0.085,0.467,0.890,0.542,-0.443,-0.344,0.0,193.0
208206,-0.077,0.480,0.884,0.031,-0.397,-0.214,0.0,194.0
208301,-0.082,0.478,0.885,1.504,0.031,-0.099,0.0,192.0
208394,-0.076,0.473,0.888,-0.939,-0.061,0.069,0.0,192.0
208488,-0.078,0.474,0.884,0.397,-0.351,-0.153,0.0,192.0
208581,-0.072,0.475,0.888,-0.221,-0.084,0.008,0.0,192.0
208678,-0.081,0.469,0.885,1.557,-0.290,-0.053,0.0,192.0
208773,-0.084,0.476,0.881,0.588,-0.115,0.061,0.0,192.0
208866,-0.076,0.484,0.890,0.496,-0.153,-0.305,0.0,192.0
208960,-0.082,0.474,0.884,-0.092,-0.176,-0.122,0.0,192.0
209054,-0.074,0.489,0.876,-1.672,-0.275,-0.206,0.0,192.0
209147,-0.076,0.478,0.883,1.061,0.023,-0.122,0.0,193.0
209242,-0.075,0.483,0.874,-1.092,-0.015,-0.053,0.0,192.0
209335,-0.073,0.489,0.883,0.557,-0.046,0.008,0.0,192.0
209429,-0.075,0.486,0.873,-0.366,0.000,-0.008,0.0,192.0
209531,-0.083,0.473,0.888,1.954,-0.229,-0.427,0.0,192.0
209624,-0.069,0.485,0.877,-0.336,0.137,-0.069,0.0,192.0
209717,-0.073,0.486,0.871,0.092,0.038,-0.069,0.0,193.0
209809,-0.079,0.490,0.875,0.710,-0.008,-0.015,0.0,193.0
209902,-0.075,0.490,0.885,2.321,-0.214,-0.405,0.0,192.0
209995,-0.072,0.481,0.885,-0.275,-0.443,-0.099,0.0,192.0
210087,-0.085,0.498,0.877,0.656,-0.115,-0.076,0.0,192.0
210181,-0.075,0.489,0.878,-0.519,0.260,-0.053,0.0,192.0
210274,-0.079,0.486,0.874,1.740,-0.305,-0.260,0.0,192.0
210369,-0.077,0.490,0.871,-0.962,0.122,-0.023,0.0,192.0
210462,-0.076,0.502,0.866,1.092,-0.221,-0.206,0.0,192.0
210554,-0.070,0.494,0.871,0.511,0.084,-0.069,0.0,192.0
210639,-0.078,0.492,0.878,0.137,-0.328,-0.374,67.0,192.0
210733,-0.072,0.504,0.864,-0.626,-0.023,-0.107,0.0,192.0
210826,-0.075,0.504,0.871,1.397,-0.321,-0.366,0.0,192.0
210919,-0.067,0.494,0.871,-0.313,-0.458,-0.267,0.0,192.0
211011,-0.071,0.505,0.866,0.046,-0.031,-0.321,0.0,192.0
211104,-0.072,0.490,0.874,-1.718,0.137,-0.092,0.0,192.0
211201,-0.080,0.502,0.872,0.786,-0.008,-0.206,0.0,192.0
211293,-0.083,0.492,0.868,-1.183,0.267,-0.397,0.0,191.0
211386,-0.073,0.502,0.868,-0.145,-0.053,-0.420,0.0,192.0
211479,-0.074,0.499,0.868,0.084,0.000,-0.183,0.0,191.0
211572,-0.079,0.497,0.876,-0.260,0.008,-0.237,0.0,192.0
211664,-0.065,0.496,0.867,-1.420,0.084,-0.160,0.0,192.0
211758,-0.079,0.506,0.868,0.076,-0.023,0.137,0.0,192.0
211851,-0.081,0.495,0.872,0.534,-0.282,0.130,0.0,192.0
211944,-0.079,0.506,0.865,0.313,-0.351,0.023,0.0,192.0
212039,-0.078,0.499,0.876,-0.008,-0.092,-0.069,0.0,192.0
212132,-0.078,0.507,0.861,0.702,-0.511,-0.107,0.0,192.0
212226,-0.078,0.497,0.870,-0.038,-0.031,-0.252,0.0,192.0
212319,-0.072,0.505,0.859,-0.130,-0.328,-0.046,0.0,192.0
212412,-0.082,0.502,0.872,0.275,-0.191,-0.084,0.0,193.0
212505,-0.075,0.509,0.860,-0.603,0.137,0.115,0.0,193.0
212597,-0.072,0.509,0.857,1.206,0.015,-0.160,0.0,192.0
212690,-0.077,0.499,0.866,-0.145,-0.305,-0.046,0.0,192.0
212784,-0.082,0.505,0.868,0.733,-0.221,-0.069,0.0,192.0
212880,-0.070,0.502,0.869,-0.870,-0.023,-0.206,0.0,192.0
212973,-0.081,0.516,0.854,0.908,-0.427,-0.076,0.0,192.0
213066,-0.082,0.505,0.865,-0.244,0.137,0.008,0.0,192.0
213159,-0.073,0.510,0.867,-0.550,-0.107,-0.153,0.0,192.0
213253,-0.075,0.505,0.859,-0.237,-0.122,-0.115,0.0,192.0
213346,-0.080,0.509,0.873,-0.695,-0.145,-0.107,0.0,193.0
213439,-0.074,0.505,0.868,-0.626,0.008,-0.145,0.0,192.0
213532,-0.078,0.522,0.860,-0.412,-0.015,0.237,0.0,192.0
213625,-0.076,0.504,0.864,0.252,-0.168,-0.206,0.0,192.0
213721,-0.081,0.514,0.867,-1.008,-0.290,-0.214,0.0,192.0
213814,-0.075,0.501,0.861,-0.008,-0.084,-0.206,0.0,192.0
213907,-0.077,0.532,0.858,-1.573,-0.374,0.321,0.0,192.0
214000,-0.086,0.499,0.885,-0.321,-1.992,0.931,0.0,192.0
214094,-0.065,0.487,0.882,-3.076,-5.282,0.046,0.0,192.0
214188,-0.087,0.346,1.022,41.069,-16.137,-0.382,0.0,0.0
214282,-0.030,0.661,0.780,66.756,-40.725,-7.557,0.0,0.0
214365,0.101,0.567,0.851,127.702,-46.160,10.779,0.0,20.0
214450,-0.055,0.721,0.473,250.130,-91.786,59.893,176.0,17.0
214532,0.306,1.116,-0.049,185.000,-59.893,128.267,172.0,18.0
214624,0.536,0.638,0.007,84.229,-27.939,111.298,170.0,0.0
214716,0.500,0.640,-0.151,32.000,9.168,66.863,168.0,0.0
214807,0.678,0.863,-0.219,26.771,3.992,59.527,168.0,0.0
214901,0.691,0.759,-0.254,6.634,-14.718,35.038,196.0,0.0
214994,0.704,0.676,-0.226,23.015,-3.115,14.237,0.0,0.0
215089,0.763,0.639,-0.275,-9.481,7.015,9.733,0.0,0.0
215173,0.841,0.509,-0.064,7.015,-7.710,5.336,0.0,44.0
215261,0.817,0.508,-0.089,-6.542,5.069,7.718,0.0,43.0
215339,0.810,0.478,-0.081,-30.405,0.603,11.038,75.0,45.0
215416,0.847,0.588,-0.179,-20.664,-0.450,7.679,74.0,50.0
215494,0.833,0.567,-0.199,-21.137,6.443,0.969,74.0,50.0
215581,0.764,0.450,-0.207,-23.908,-10.023,-7.351,73.0,0.0
215668,0.819,0.484,-0.195,45.947,-13.191,7.504,74.0,0.0
215754,0.942,0.790,-0.274,21.565,3.305,7.924,74.0,0.0
215841,0.840,0.493,-0.064,-13.374,2.275,1.885,83.0,0.0
215929,0.841,0.205,-0.007,-3.450,0.229,4.053,83.0,0.0
216018,0.821,0.384,-0.154,23.748,2.511,7.985,82.0,0.0
216105,0.850,0.683,-0.223,3.313,14.153,5.626,82.0,0.0
216194,0.945,0.825,-0.188,-41.435,7.733,7.122,82.0,0.0
216281,0.879,0.455,-0.120,-41.176,4.649,-2.412,82.0,0.0
216368,0.817,0.258,-0.013,6.939,0.855,2.962,82.0,0.0
216455,0.898,0.400,-0.049,-1.237,4.290,2.389,82.0,0.0
216542,0.919,0.521,-0.129,3.641,5.336,9.565,82.0,0.0
216629,0.917,0.515,-0.160,-3.710,6.893,9.947,82.0,0.0
216716,0.849,0.449,-0.128,-5.969,5.969,-1.687,81.0,0.0
216803,0.864,0.591,-0.219,30.008,-6.550,8.863,83.0,0.0
216893,0.887,0.621,-0.211,10.786,0.046,2.237,83.0,0.0
216980,0.954,0.531,-0.073,1.023,2.679,5.122,80.0,0.0
217067,0.901,0.382,-0.065,0.328,4.092,9.046,79.0,0.0
217154,0.939,0.492,-0.113,6.832,11.573,8.458,74.0,0.0
217240,0.934,0.379,-0.013,-12.389,2.817,2.298,72.0,0.0
217327,0.932,0.243,0.012,-5.313,5.069,4.023,71.0,0.0
217414,0.929,0.365,-0.001,-1.634,7.756,2.977,72.0,0.0
217500,0.898,0.484,-0.087,11.687,6.290,2.565,72.0,0.0
217587,0.969,0.478,-0.090,-7.099,8.076,4.939,72.0,0.0
217677,0.929,0.394,-0.048,7.198,-1.160,2.031,70.0,0.0
217763,0.905,0.316,0.012,-6.336,5.679,-1.977,71.0,0.0
217850,0.885,0.300,0.013,3.397,-6.252,-1.015,71.0,0.0
217937,0.952,0.344,-0.037,-3.153,2.206,1.969,71.0,0.0
218023,0.964,0.337,0.006,-3.145,3.298,3.603,71.0,0.0
218110,0.996,0.435,-0.024,0.527,13.977,4.565,70.0,0.0
218196,0.900,0.377,-0.018,-8.397,3.313,0.183,70.0,0.0
218284,0.910,0.267,0.059,9.008,8.344,3.382,70.0,0.0
218370,0.956,0.344,0.031,27.931,10.580,10.466,70.0,0.0
218460,0.963,0.459,0.027,6.244,16.351,5.595,69.0,0.0
218546,0.904,0.154,0.164,15.489,5.397,10.115,69.0,0.0
218633,0.901,0.181,0.177,-4.450,-2.328,-2.893,68.0,0.0
218720,0.938,0.377,0.082,-7.198,1.748,-8.336,69.0,0.0
218806,0.961,0.414,0.100,-7.695,-0.313,0.687,68.0,0.0
218893,1.009,0.510,0.042,-18.336,4.962,1.519,68.0,0.0
218979,0.927,0.504,-0.010,-10.641,-1.145,-2.840,68.0,0.0
219066,0.884,0.360,0.029,2.618,-1.824,2.977,68.0,0.0
219152,0.959,0.255,0.141,25.733,-0.420,4.779,68.0,0.0
219239,0.956,0.304,0.175,-0.244,6.015,-1.725,68.0,0.0
219329,0.945,0.325,0.083,-36.092,0.534,-0.695,68.0,0.0
219415,0.950,0.317,0.094,-19.023,-9.840,-12.931,68.0,0.0
219502,0.913,0.339,0.100,-8.046,3.527,-11.641,68.0,0.0
219589,0.955,0.281,0.187,-2.237,-2.198,-4.550,68.0,0.0
219675,0.927,0.288,0.169,-11.702,1.626,-5.656,68.0,0.0
219762,0.928,0.258,0.188,-4.679,3.672,-1.267,69.0,0.0
219849,0.950,0.304,0.174,-2.794,4.473,3.878,69.0,0.0
219936,0.941,0.456,0.051,-5.893,3.069,-0.863,69.0,0.0
220022,0.914,0.454,0.061,0.985,-2.794,0.023,69.0,0.0
220112,0.932,0.428,0.041,5.672,6.687,-11.427,69.0,0.0
220199,0.970,0.358,0.130,5.473,-3.252,6.412,69.0,0.0
220286,0.936,0.362,0.156,-8.206,3.855,-12.214,69.0,0.0
220372,0.893,0.409,0.103,-1.504,-3.000,1.191,69.0,0.0
220460,0.943,0.393,0.202,-2.870,3.412,-0.489,69.0,0.0
220547,0.925,0.454,0.063,-9.840,9.374,8.183,69.0,0.0
220634,0.928,0.497,0.070,-5.412,-2.954,0.366,70.0,0.0
220720,0.904,0.424,0.102,5.847,-2.122,-2.344,68.0,0.0
220807,0.926,0.317,0.196,4.466,-7.504,-3.359,69.0,0.0
220902,0.925,0.366,0.141,5.977,-1.023,2.893,69.0,0.0
220987,0.929,0.387,0.127,-5.130,0.565,-2.412,69.0,0.0
221073,0.917,0.408,0.112,-7.092,-1.420,2.115,69.0,0.0
221159,0.957,0.427,0.108,-4.038,0.969,-0.305,69.0,0.0
221245,0.903,0.475,0.032,-0.931,0.695,-2.053,69.0,0.0
221330,0.906,0.345,0.106,30.305,-3.893,-2.794,68.0,0.0
221416,0.885,0.264,0.158,22.130,-3.137,3.603,69.0,0.0
221502,0.938,0.352,0.166,18.038,-2.573,4.069,69.0,0.0
221588,0.926,0.435,0.090,-4.664,0.939,1.534,69.0,0.0
221676,0.943,0.353,0.177,-20.718,-8.244,-5.214,69.0,0.0
221762,0.879,0.358,0.020,-20.412,-9.710,-12.198,70.0,0.0
221848,0.950,0.054,0.266,11.687,-8.481,-7.748,69.0,0.0
221934,0.881,0.477,0.066,13.733,-5.107,4.840,70.0,0.0
222020,0.919,0.602,0.003,10.985,8.252,3.275,69.0,0.0
222106,0.937,0.574,0.002,13.733,0.702,5.359,70.0,0.0
222192,0.915,0.583,0.021,3.618,4.443,3.824,70.0,0.0
222278,0.880,0.488,0.049,8.221,-0.511,0.321,70.0,0.0
222364,0.890,0.477,0.044,8.015,-5.809,-2.573,70.0,0.0
222450,0.893,0.397,0.095,8.221,-7.153,-5.855,70.0,0.0
222538,0.894,0.450,0.021,-0.588,-7.931,-9.298,71.0,0.0
222625,0.889,0.409,0.131,-14.947,-8.519,-18.511,71.0,0.0
222711,0.853,0.449,0.007,15.115,-17.237,-13.878,72.0,0.0
222797,0.853,0.476,-0.002,-15.298,1.397,-39.366,73.0,0.0
222883,0.827,0.507,0.025,-48.015,3.099,-55.069,74.0,0.0
222976,0.728,0.626,-0.006,13.947,19.511,-72.672,176.0,0.0
223068,0.756,0.706,0.008,-21.260,30.649,-92.840,176.0,0.0
223151,0.562,0.810,0.177,-58.855,61.641,-109.397,174.0,32.0
223233,0.333,0.822,0.410,15.679,71.176,-75.588,166.0,28.0
223318,0.281,0.945,0.452,-85.832,32.145,-62.328,169.0,25.0
223398,0.060,1.066,0.454,-86.122,46.985,-62.427,171.0,22.0
223481,0.069,0.768,0.654,6.221,40.389,-39.954,189.0,21.0
223564,0.007,0.851,0.629,-41.847,12.099,-33.450,189.0,20.0
223648,-0.017,0.919,0.565,-9.916,28.695,-21.389,0.0,20.0
223731,-0.063,0.916,0.679,-44.985,28.641,-10.160,0.0,20.0
223815,-0.143,0.890,0.814,-52.504,22.176,-0.153,0.0,26.0
223908,-0.271,1.011,1.035,-155.588,20.870,-8.214,0.0,0.0
223997,-0.516,0.604,1.526,-198.618,-84.954,-1.664,70.0,0.0
224080,-0.085,-0.491,1.094,-82.260,-250.137,-69.214,47.0,168.0
224166,0.364,0.773,0.177,-146.947,-4.649,-49.458,51.0,0.0
224249,0.261,-0.432,0.762,56.015,-94.382,-13.496,52.0,170.0
224335,0.433,-0.321,0.744,-110.588,-39.092,-32.748,52.0,0.0
224420,0.517,-0.384,0.756,-56.099,-47.183,-31.924,53.0,199.0
224515,0.577,0.106,0.528,-68.954,-33.840,-24.160,0.0,196.0
224599,0.593,-0.125,0.638,-5.389,-30.763,-33.855,44.0,195.0
224684,0.698,-0.315,0.675,2.053,-21.389,-28.237,58.0,192.0
224771,0.661,-0.184,0.587,31.954,-32.023,-12.160,46.0,167.0
224854,0.717,-0.281,0.587,11.557,-28.588,-9.901,50.0,162.0
224937,0.706,-0.267,0.537,-4.450,-26.038,-14.298,49.0,182.0
225020,0.931,-0.105,0.407,-20.275,-16.443,-12.466,49.0,160.0
225103,0.860,0.158,0.328,6.160,-2.015,-1.183,50.0,157.0
225185,1.028,-0.240,0.558,13.496,-19.168,-7.527,51.0,155.0
225268,0.795,-0.186,0.492,-52.672,-2.664,-15.359,50.0,145.0
225350,0.965,0.019,0.429,23.168,-16.267,-8.351,50.0,153.0
225436,0.784,-0.227,0.494,14.817,-7.969,-0.855,50.0,154.0
225519,0.886,-0.252,0.523,6.840,-7.954,0.519,51.0,156.0
225600,1.044,-0.051,0.463,0.527,-10.282,-6.740,51.0,129.0
225683,0.850,-0.199,0.505,11.214,-28.534,5.382,51.0,154.0
225764,0.886,0.063,0.286,-60.885,1.641,2.458,51.0,131.0
225846,0.847,0.014,0.286,61.802,-18.153,-4.282,52.0,128.0
225928,0.768,-0.389,0.481,-16.664,-1.061,-5.198,52.0,152.0
226010,0.936,-0.026,0.356,-16.038,-9.580,-3.824,52.0,126.0
226091,0.914,-0.039,0.364,-8.679,-3.771,-10.252,53.0,125.0
226176,0.880,-0.170,0.383,0.733,-7.847,-6.450,54.0,124.0
226256,0.829,0.200,0.265,3.565,0.664,-5.878,55.0,124.0
226338,0.896,-0.159,0.439,6.656,0.427,-13.366,57.0,129.0
226419,0.931,0.021,0.357,-14.275,0.519,-6.137,58.0,129.0
226502,0.888,-0.129,0.448,4.496,-4.893,-3.542,57.0,148.0
226584,0.993,0.039,0.364,-8.977,-1.756,-8.038,57.0,136.0
226666,0.993,-0.116,0.373,-8.580,-5.893,-3.321,58.0,123.0
226747,0.938,0.154,0.241,13.870,-1.328,1.725,59.0,123.0
226829,0.945,-0.082,0.428,-7.725,2.756,-8.000,59.0,122.0
226921,0.951,0.197,0.311,-16.962,2.130,-15.550,0.0,120.0
227003,0.849,0.135,0.334,1.992,0.527,-3.412,61.0,120.0
227084,0.943,0.041,0.365,9.076,-1.573,-10.847,61.0,117.0
227165,0.930,0.139,0.315,-7.053,1.229,3.557,62.0,117.0
227247,0.948,-0.013,0.371,21.656,-4.855,-9.527,62.0,117.0
227328,0.950,0.084,0.300,11.832,1.542,-18.427,63.0,116.0
227409,0.917,0.057,0.394,0.267,0.137,-0.794,64.0,115.0
227490,0.996,0.052,0.384,3.076,-5.053,-6.947,64.0,115.0
227572,0.979,0.121,0.287,4.702,-1.924,-12.695,65.0,119.0
227656,0.973,0.196,0.302,-8.573,6.954,1.153,65.0,119.0
227738,0.933,-0.056,0.409,32.496,-6.145,-9.206,65.0,114.0
227827,0.976,0.190,0.331,0.580,3.053,-5.122,0.0,112.0
227916,0.892,-0.069,0.464,33.542,-9.282,1.771,0.0,112.0
228004,0.953,0.222,0.287,-2.634,1.565,-4.687,0.0,111.0
228086,1.015,0.053,0.352,38.489,-9.382,-2.290,67.0,111.0
228167,0.963,0.175,0.362,-37.420,5.527,-14.000,71.0,110.0
228256,0.984,0.223,0.304,16.870,-1.725,-11.664,0.0,110.0
228345,0.902,0.227,0.362,17.076,1.695,-0.618,0.0,109.0
228430,0.966,0.118,0.381,8.748,-0.878,-25.244,70.0,108.0
228511,0.909,0.301,0.324,-7.275,0.985,-4.046,70.0,108.0
228600,0.908,0.107,0.418,9.313,-5.336,-1.237,0.0,109.0
228682,1.035,0.240,0.318,-17.328,-0.443,-9.267,72.0,110.0
228764,1.036,0.245,0.282,19.168,-8.481,-1.496,73.0,111.0
228852,0.887,0.289,0.280,-18.122,4.137,-0.313,0.0,111.0
228941,1.014,0.293,0.299,7.298,0.038,-2.511,0.0,111.0
229030,0.989,0.360,0.272,21.847,-5.893,-4.916,0.0,110.0
229120,0.911,0.161,0.381,-13.626,-2.168,5.817,0.0,108.0
229212,1.031,0.206,0.318,2.908,-2.733,-9.954,0.0,107.0
229293,1.000,0.165,0.320,-27.763,4.557,-9.489,72.0,107.0
229374,0.965,0.350,0.231,10.947,-1.466,5.511,72.0,107.0
229456,0.813,0.180,0.296,10.366,0.084,-6.565,74.0,108.0
229545,0.943,0.199,0.297,9.183,-1.557,10.107,0.0,108.0
229634,0.822,0.202,0.298,12.420,-4.191,6.344,0.0,107.0
229723,0.919,0.108,0.297,-1.260,-4.626,-9.084,0.0,107.0
229812,0.934,0.199,0.208,-10.351,1.305,2.534,0.0,107.0
229901,0.860,0.248,0.288,8.489,-0.038,-0.481,0.0,107.0
229993,0.902,0.216,0.336,-17.420,5.053,1.931,0.0,107.0
230082,0.860,0.355,0.258,4.893,-2.573,1.176,0.0,110.0
230170,0.895,0.158,0.340,10.092,-5.191,2.443,0.0,107.0
230259,0.834,0.247,0.300,-5.718,-4.893,3.863,0.0,106.0
230348,1.054,0.247,0.302,12.214,-6.832,16.641,0.0,107.0
230437,0.895,0.051,0.352,-23.344,-5.832,-7.847,0.0,111.0
230526,0.948,0.435,0.128,-19.122,-0.382,4.740,0.0,107.0
230616,0.963,0.287,0.207,28.748,-6.954,5.962,0.0,106.0
230705,0.990,0.255,0.226,9.115,2.145,-3.954,0.0,106.0
230797,0.965,0.230,0.284,-12.053,1.496,-0.382,0.0,106.0
230879,1.035,0.339,0.265,-3.809,8.450,-0.183,75.0,106.0
230960,0.894,0.092,0.333,-61.160,0.031,-7.481,74.0,106.0
231050,0.960,0.710,0.054,45.115,-1.244,15.679,0.0,116.0
231139,0.938,-0.078,0.411,32.794,-4.992,-2.611,0.0,106.0
231228,0.950,0.225,0.320,-5.634,-3.359,-16.405,0.0,106.0
231317,0.912,0.110,0.361,-2.969,-4.733,-26.580,0.0,105.0
231406,1.031,0.429,0.208,-41.947,6.588,-10.160,0.0,105.0
231494,0.843,0.368,0.215,40.702,-8.427,0.885,0.0,105.0
231587,0.928,0.137,0.336,-18.702,4.015,-11.832,0.0,104.0
231675,0.881,0.241,0.277,25.206,-13.618,3.916,0.0,105.0
231771,0.865,0.144,0.324,-42.718,1.473,-7.260,0.0,105.0
231859,0.969,0.386,0.193,-5.244,-2.168,-4.649,0.0,104.0
231946,0.932,0.177,0.293,5.603,-6.947,-3.282,0.0,104.0
232027,0.972,0.382,0.166,-45.351,13.611,-9.656,82.0,104.0
232115,0.860,0.125,0.340,-78.420,20.084,-14.282,0.0,104.0
232203,0.970,0.558,0.174,35.214,-0.481,-2.794,0.0,104.0
232291,0.881,0.025,0.464,7.511,-1.168,4.542,0.0,105.0
232381,0.969,0.454,0.219,-63.481,12.649,-9.252,0.0,105.0
232469,0.887,0.158,0.385,47.702,-10.786,9.511,0.0,105.0
232557,0.929,0.216,0.329,-23.771,4.885,-6.267,0.0,105.0
232638,0.954,0.346,0.271,18.282,-3.771,1.282,81.0,105.0
232726,0.864,0.141,0.382,26.275,-3.954,13.435,0.0,105.0
232814,0.837,0.346,0.238,-9.802,1.008,-13.275,0.0,105.0
232902,0.901,0.314,0.282,14.092,-0.137,8.824,0.0,105.0
232983,0.909,0.329,0.278,-2.443,3.580,4.855,82.0,105.0
233065,0.884,0.008,0.412,32.458,-12.015,9.504,82.0,105.0
233149,0.960,0.499,0.153,-51.282,14.962,-6.511,82.0,112.0
233231,0.818,-0.033,0.447,60.771,-19.389,5.718,82.0,110.0
233312,0.981,0.663,0.100,27.679,0.160,-4.099,83.0,104.0
233394,0.913,0.083,0.404,-15.145,-1.885,-4.359,83.0,105.0
233476,0.939,0.752,0.057,-55.733,11.053,-13.878,85.0,111.0
233556,0.898,0.010,0.373,73.107,-19.290,11.122,85.0,105.0
233638,1.031,0.818,-0.019,-67.870,15.527,-10.153,85.0,105.0
233720,0.949,-0.050,0.384,80.931,-15.397,14.557,83.0,105.0
233804,0.864,0.302,0.187,-91.740,12.321,-12.084,84.0,105.0
233886,0.972,0.338,0.177,61.229,-12.076,0.863,85.0,105.0
233967,0.792,-0.104,0.435,-66.046,11.641,-11.366,84.0,104.0
234049,0.964,0.629,0.144,-29.038,5.427,-17.328,85.0,104.0
234131,0.998,0.500,0.193,26.435,-0.191,8.748,83.0,104.0
234212,0.935,-0.050,0.461,-2.542,5.611,-2.687,83.0,104.0
234294,0.974,0.417,0.264,-72.031,11.344,-8.061,82.0,104.0
234375,0.973,0.692,0.183,48.351,-8.214,8.763,83.0,104.0
234457,0.769,-0.234,0.502,36.115,-5.573,0.115,82.0,104.0
234541,0.905,0.342,0.227,-82.069,14.496,-5.107,83.0,104.0
234622,1.302,0.702,0.094,-6.870,1.084,27.137,82.0,105.0
234703,0.736,0.330,0.233,121.664,-25.611,52.168,81.0,107.0
234785,0.728,-0.194,0.438,-45.817,12.740,-2.160,80.0,107.0
234867,1.047,0.672,0.065,-38.443,10.237,12.450,80.0,109.0
234949,0.906,0.143,0.336,89.664,-16.145,20.336,80.0,107.0
235030,0.744,-0.234,0.458,-127.664,15.023,2.489,78.0,110.0
235112,1.023,1.232,-0.147,-6.916,6.115,-8.359,80.0,108.0
235194,0.959,-0.003,0.426,72.489,-12.466,13.206,78.0,109.0
235278,1.001,-0.079,0.535,-7.328,-2.221,18.695,74.0,109.0
235359,0.863,0.213,0.255,-43.580,7.237,12.137,76.0,109.0
235441,1.017,0.203,0.264,41.252,-3.130,17.817,73.0,110.0
235522,0.864,0.168,0.254,-14.977,4.176,13.389,72.0,113.0
235603,0.913,0.009,0.295,5.634,0.443,44.092,69.0,112.0
235685,0.984,0.019,0.327,63.649,-5.351,50.649,68.0,130.0
235774,0.974,0.085,0.225,26.687,4.374,39.351,0.0,118.0
235865,0.939,-0.058,0.241,-2.863,16.221,34.137,0.0,149.0
235956,0.880,-0.101,0.229,29.817,12.733,45.885,0.0,150.0
236051,0.884,-0.105,0.233,35.214,13.031,61.061,0.0,178.0
236135,0.917,-0.209,0.285,49.527,14.046,74.718,41.0,182.0
236220,0.855,-0.342,0.336,55.924,2.450,66.427,57.0,195.0
236305,0.671,-0.295,0.285,84.168,9.160,58.053,37.0,0.0
236389,0.543,-0.058,0.244,84.565,28.695,32.527,35.0,0.0
236474,0.575,-0.104,0.463,73.588,48.267,-14.130,37.0,0.0
236558,0.672,-0.231,0.941,126.618,72.450,-58.740,37.0,0.0
236644,0.532,0.186,1.070,149.748,70.573,-74.031,66.0,0.0
236741,0.408,0.416,1.122,76.809,56.840,-68.427,0.0,0.0
236826,0.555,0.538,1.079,62.954,50.786,-36.855,43.0,0.0
236911,0.473,0.654,0.883,36.130,46.198,-12.718,51.0,0.0
236996,0.332,0.545,0.879,-9.198,5.656,-7.885,38.0,0.0
237080,0.230,0.567,0.809,-2.908,15.107,6.763,38.0,0.0
237165,0.312,0.443,0.856,-18.168,13.008,-3.015,36.0,0.0
237249,0.249,0.463,0.882,-11.557,9.374,-4.565,37.0,0.0
237334,0.257,0.500,0.860,-2.160,4.031,0.908,35.0,0.0
237418,0.241,0.487,0.857,-10.427,3.664,-0.359,36.0,0.0
237503,0.231,0.432,0.886,-10.374,0.389,-0.069,36.0,0.0
237590,0.242,0.421,0.875,-5.031,-3.153,-0.786,35.0,0.0
237675,0.264,0.434,0.868,0.389,-4.305,-1.611,35.0,0.0
237759,0.247,0.455,0.858,-5.420,-0.275,-0.977,35.0,0.0
237843,0.234,0.442,0.857,-0.511,1.702,-0.214,35.0,0.0
237928,0.243,0.434,0.871,-8.992,2.580,-1.763,35.0,0.0
238012,0.240,0.422,0.888,-13.305,3.336,-2.382,36.0,0.0
238097,0.233,0.395,0.898,-6.038,2.198,-1.389,35.0,0.0
238181,0.232,0.417,0.896,-0.908,2.992,1.191,35.0,0.0
238266,0.243,0.413,0.876,0.496,8.519,2.656,35.0,0.0
238353,0.223,0.435,0.881,-6.328,14.901,6.962,35.0,0.0
238438,0.226,0.394,0.903,-23.221,20.489,10.901,38.0,0.0
238523,0.172,0.484,0.861,-102.664,37.565,9.649,37.0,0.0
238607,0.094,0.263,0.935,-124.832,17.916,-4.496,26.0,0.0
238691,0.003,-0.135,1.014,-73.710,10.702,2.992,30.0,0.0
238775,0.068,-0.120,1.005,-36.481,-5.511,-3.809,23.0,0.0
238859,0.102,-0.235,1.025,-31.656,-7.840,-4.878,29.0,0.0
238943,0.114,-0.145,0.961,-17.588,-8.992,-2.870,22.0,0.0
239027,0.124,-0.174,0.963,-6.504,-8.565,-5.099,27.0,0.0
239114,0.143,-0.201,0.970,-7.664,-3.092,-3.260,21.0,0.0
239198,0.147,-0.208,0.978,-2.947,-2.206,-3.588,21.0,0.0
239282,0.166,-0.198,0.984,-4.450,-1.321,-2.550,21.0,0.0
239366,0.135,-0.212,0.958,-6.794,-0.603,-1.298,21.0,0.0
239450,0.154,-0.201,0.951,2.351,0.863,-0.550,22.0,0.0
239534,0.137,-0.201,0.968,4.748,0.702,-2.550,22.0,0.0
239618,0.139,-0.231,0.972,9.237,0.580,-9.313,28.0,0.0
239702,0.172,-0.248,0.950,17.031,1.603,-25.374,23.0,0.0
239787,0.146,-0.229,0.925,41.931,16.198,-47.458,30.0,0.0
239874,0.098,-0.154,0.964,45.618,34.313,-53.885,32.0,0.0
239959,0.031,0.130,0.969,22.366,40.695,-50.198,36.0,0.0
240045,0.013,0.208,1.007,20.901,38.687,-34.221,55.0,0.0
240130,-0.112,0.160,1.031,38.420,26.802,-20.450,64.0,170.0
240216,-0.083,0.534,0.925,32.344,-5.649,5.931,65.0,0.0
240302,-0.053,0.075,0.956,9.885,10.786,10.649,64.0,0.0
240388,-0.100,0.033,1.094,32.641,5.115,-3.504,58.0,0.0
240482,-0.084,0.299,0.944,38.656,0.473,-0.244,0.0,0.0
240576,-0.085,0.436,0.956,-11.229,-0.878,2.366,0.0,0.0
240673,-0.089,0.273,0.957,-7.870,-1.328,3.267,0.0,0.0
240759,-0.080,0.319,0.959,17.122,-4.076,4.527,58.0,0.0
240845,-0.048,0.342,0.924,-0.557,-0.534,-3.443,58.0,193.0
240939,-0.073,0.204,0.959,4.275,4.321,-8.840,0.0,194.0
241033,-0.067,0.399,0.945,14.550,1.061,-2.534,0.0,192.0
241126,-0.075,0.385,0.935,2.733,1.725,1.656,0.0,192.0
241212,-0.104,0.323,0.961,11.458,0.130,1.076,59.0,192.0
241306,-0.071,0.364,0.917,1.519,1.229,-3.168,0.0,192.0
241399,-0.067,0.406,0.911,-1.641,0.893,-0.870,0.0,192.0
241497,-0.108,0.377,0.915,4.282,0.374,2.679,0.0,192.0
241591,-0.118,0.416,0.954,-9.137,-2.992,3.603,0.0,192.0
241684,-0.093,0.369,0.924,-42.443,-12.328,14.298,0.0,193.0
241778,-0.001,0.410,0.904,0.473,-5.481,36.305,0.0,0.0
241864,-0.094,0.255,0.979,-25.756,-4.832,27.382,57.0,0.0
241959,0.015,0.249,0.988,18.046,-11.702,23.145,0.0,0.0
242045,0.053,0.288,0.866,39.954,5.305,15.099,58.0,0.0
242130,0.015,0.462,0.916,0.160,16.718,3.473,40.0,0.0
242215,0.013,0.451,0.906,36.992,1.588,8.191,39.0,0.0
242313,0.007,0.501,0.919,22.359,-2.122,3.977,0.0,0.0
242407,0.006,0.528,0.889,8.099,1.885,-1.221,0.0,0.0
242501,-0.018,0.572,0.873,-5.519,1.786,-0.321,0.0,0.0
242595,-0.019,0.485,0.875,-23.611,2.076,-2.550,0.0,0.0
242685,-0.010,0.350,0.933,-10.389,0.756,-1.634,41.0,0.0
242770,-0.009,0.380,0.882,-0.580,-0.198,-5.901,39.0,0.0
242854,-0.025,0.460,0.933,-11.412,-0.687,-0.809,39.0,0.0
242938,-0.012,0.338,0.933,13.176,-1.405,-2.626,38.0,0.0
243022,-0.012,0.474,0.888,-18.137,-8.595,-4.656,38.0,0.0
243109,0.074,0.508,0.874,-5.504,-7.687,-10.695,38.0,0.0
243193,0.041,0.493,0.990,-21.534,-24.221,-7.962,38.0,0.0
243288,0.063,0.516,0.916,-65.954,-34.840,-10.374,0.0,0.0
243373,0.118,0.361,0.862,-123.664,-12.168,-22.519,57.0,0.0
243459,0.117,-0.043,0.985,-78.718,-8.145,-24.687,61.0,0.0
243544,0.097,-0.022,1.008,-36.267,-8.695,-13.176,61.0,0.0
243630,0.107,-0.081,1.028,-14.122,-9.221,0.305,63.0,0.0
243712,0.134,-0.101,1.006,-9.275,-10.252,4.405,37.0,172.0
243795,0.164,-0.106,0.984,-4.649,-7.519,6.969,33.0,0.0
243883,0.159,-0.007,0.930,0.046,-3.580,2.290,34.0,0.0
243966,0.160,-0.078,0.990,-2.092,0.695,9.649,31.0,0.0
244050,0.149,-0.118,1.015,-6.748,-3.321,7.145,32.0,0.0
244133,0.160,-0.152,1.005,-4.183,-3.412,5.137,31.0,0.0
244217,0.163,-0.125,0.983,-5.191,-2.084,1.748,32.0,0.0
244301,0.161,-0.130,0.991,-1.542,-0.221,1.443,31.0,0.0
244385,0.164,-0.114,0.988,-0.061,-0.779,0.130,31.0,0.0
244469,0.162,-0.093,0.972,0.939,-0.366,0.008,31.0,0.0
244553,0.161,-0.092,0.977,-2.855,0.145,-0.351,31.0,0.0
244639,0.161,-0.104,0.985,0.527,-0.641,0.450,31.0,0.0
244723,0.162,-0.112,0.982,2.763,0.443,-0.198,30.0,0.0
244807,0.156,-0.102,0.992,2.221,0.427,-1.603,30.0,0.0
244891,0.157,-0.111,1.008,13.687,1.504,-0.176,31.0,0.0
244975,0.165,-0.053,0.976,0.710,-1.229,-0.130,32.0,0.0
245059,0.155,-0.084,0.998,10.290,-0.008,1.496,31.0,0.0
245143,0.162,-0.107,1.004,-2.916,0.366,-1.252,31.0,0.0
245227,0.160,-0.028,0.983,0.794,0.198,-1.511,32.0,0.0
245311,0.155,-0.057,1.004,5.053,-0.901,0.603,33.0,0.0
245397,0.153,-0.060,0.997,-2.748,-0.947,-0.107,32.0,0.0
245482,0.168,-0.065,0.989,0.473,-0.160,-1.008,31.0,0.0
245566,0.156,-0.065,0.986,1.611,-0.015,0.176,32.0,0.0
245650,0.154,-0.036,0.976,-0.847,0.374,-1.107,32.0,0.0
245734,0.155,-0.035,0.976,1.656,0.832,0.420,30.0,0.0
245818,0.145,-0.078,1.007,-3.954,3.595,0.794,32.0,0.0
245902,0.150,-0.052,0.994,-0.046,2.534,0.595,32.0,0.0
245986,0.133,-0.074,1.022,0.198,2.115,0.321,32.0,0.0
246070,0.132,-0.056,1.004,-3.145,-1.832,-1.008,32.0,0.0
246154,0.156,-0.051,0.956,2.336,-1.969,-2.015,31.0,0.0
246241,0.142,-0.037,0.992,0.458,3.687,-1.252,32.0,0.0
246325,0.148,-0.052,1.016,-1.802,3.260,1.527,32.0,0.0
246409,0.138,-0.072,1.008,-1.840,-0.656,1.328,31.0,0.0
246493,0.130,-0.056,0.995,1.634,0.511,-0.229,31.0,0.0
246577,0.147,-0.080,1.000,0.412,-1.252,-2.076,32.0,0.0
246661,0.150,-0.053,0.997,-0.634,-1.557,-1.679,31.0,0.0
246745,0.133,-0.024,0.989,-2.115,-0.382,-1.809,32.0,0.0
246829,0.133,-0.067,1.008,4.740,-1.015,0.985,32.0,0.0
246913,0.142,-0.080,0.999,-2.176,-1.908,-0.656,31.0,0.0
247000,0.148,-0.024,0.995,-2.069,0.748,-1.099,32.0,0.0
247084,0.153,-0.043,0.985,0.099,-0.603,0.802,31.0,0.0
247169,0.148,-0.075,0.995,5.069,-2.267,-0.382,32.0,0.0
247252,0.136,-0.054,1.010,-1.053,0.412,-1.527,32.0,0.0
247336,0.152,-0.070,0.997,-0.481,-2.015,-0.725,32.0,0.0
247420,0.165,-0.013,0.956,10.580,0.412,0.214,32.0,0.0
247504,0.141,-0.071,1.016,-6.519,3.832,0.824,33.0,0.0
247589,0.140,-0.032,1.002,-4.916,2.282,0.840,32.0,0.0
247673,0.135,-0.063,1.002,4.252,0.183,2.275,37.0,0.0
247760,0.138,-0.076,1.009,0.855,-0.008,-1.038,35.0,0.0
247845,0.143,-0.050,1.000,-3.000,1.015,-0.473,33.0,0.0
247929,0.136,-0.032,0.995,-4.130,0.580,0.947,33.0,0.0
248013,0.131,-0.060,0.995,-0.275,0.924,0.099,32.0,0.0
248098,0.140,-0.079,1.002,-1.885,0.534,-1.473,32.0,0.0
248182,0.137,-0.061,0.998,-7.435,-0.237,-2.740,32.0,0.0
248266,0.144,-0.038,0.991,-5.947,-1.450,-2.092,32.0,0.0
248351,0.141,-0.064,0.995,-5.260,-3.130,-0.794,32.0,0.0
248435,0.136,-0.072,0.995,-5.084,-3.824,1.000,32.0,0.0
248522,0.148,-0.080,0.997,-3.870,-4.244,0.603,31.0,0.0
248606,0.165,-0.067,0.966,-4.000,-2.260,0.496,31.0,0.0
248691,0.156,-0.081,0.980,0.435,0.473,2.710,32.0,0.0
248775,0.153,-0.101,1.000,0.687,0.885,1.328,32.0,0.0
248859,0.156,-0.115,1.010,-1.023,-1.015,0.313,32.0,0.0
248943,0.158,-0.089,0.986,0.939,-1.962,0.107,32.0,0.0
249028,0.158,-0.121,0.997,0.817,-0.076,0.107,32.0,0.0
249112,0.155,-0.096,1.000,-3.878,0.176,-0.237,31.0,0.0
249196,0.160,-0.081,0.988,-0.328,0.053,0.687,32.0,0.0
249292,0.154,-0.102,0.997,0.916,0.267,-0.282,31.0,0.0
249379,0.159,-0.086,0.988,-0.061,0.069,-0.405,32.0,0.0
249466,0.157,-0.069,0.973,2.443,0.191,0.771,32.0,0.0
249552,0.144,-0.086,0.990,5.740,0.237,1.359,32.0,0.0
249639,0.159,-0.105,1.003,3.664,0.817,0.183,32.0,0.0
249725,0.146,-0.114,1.010,-3.244,0.634,-0.481,31.0,0.0
249812,0.156,-0.073,0.994,-4.855,-0.641,-0.824,32.0,0.0
249900,0.150,-0.068,0.986,-0.817,-0.107,-0.183,32.0,0.0
249987,0.152,-0.068,0.992,2.557,0.344,-0.023,32.0,0.0
250074,0.147,-0.086,0.999,0.595,-0.481,-0.229,32.0,0.0
250164,0.153,-0.092,1.001,-0.389,-0.053,-0.382,32.0,0.0
250250,0.157,-0.087,0.995,-1.679,-0.084,-0.580,32.0,0.0
250337,0.155,-0.067,0.992,-2.672,0.435,-0.160,32.0,0.0
250424,0.147,-0.063,0.976,0.046,0.573,0.229,32.0,0.0
250511,0.151,-0.089,0.999,0.031,0.603,-0.412,32.0,0.0
250598,0.152,-0.086,1.003,-1.962,-0.252,-0.023,32.0,0.0
250685,0.149,-0.071,0.987,-2.672,-0.168,-0.282,32.0,0.0
250772,0.157,-0.067,0.985,1.534,0.214,0.183,32.0,0.0
250858,0.146,-0.075,0.990,0.374,1.115,-0.321,31.0,0.0
250948,0.146,-0.085,0.993,0.725,0.168,0.023,32.0,0.0
251035,0.151,-0.097,1.001,-0.237,0.977,-0.573,32.0,0.0
251122,0.156,-0.063,0.995,-0.954,0.084,-0.191,32.0,0.0
251209,0.148,-0.066,0.982,1.939,0.145,0.069,32.0,0.0
251296,0.142,-0.070,0.997,0.229,0.557,-0.817,31.0,0.0
251382,0.152,-0.046,0.985,-0.618,-0.069,-0.771,31.0,0.0
