Timestamp(ms),AccelX(g),AccelY(g),AccelZ(g),GyroX(deg/s),GyroY(deg/s),GyroZ(deg/s),DistanceLeft(cm),DistanceRight(cm)
47832,-0.081,-0.985,0.225,-4.695,-0.641,-3.092,111.0,112.0
47879,-0.068,-0.991,0.231,-3.466,-4.305,2.695,111.0,70.0
47927,-0.049,-0.996,0.209,-1.664,-5.557,5.275,111.0,69.0
47974,-0.050,-0.974,0.217,-0.779,1.130,6.435,110.0,69.0
48021,-0.063,-0.979,0.228,-0.351,3.069,6.992,110.0,69.0
48069,-0.065,-0.985,0.216,-0.046,-0.412,7.473,110.0,68.0
48116,-0.063,-0.981,0.206,-1.061,-3.176,6.374,109.0,68.0
48166,-0.043,-0.984,0.209,-1.374,-4.786,3.992,110.0,67.0
48214,-0.033,-0.973,0.204,-1.183,2.229,1.947,109.0,67.0
48261,-0.057,-0.980,0.227,-2.733,2.466,1.008,108.0,67.0
48309,-0.072,-0.980,0.218,-2.122,-3.794,-0.160,108.0,71.0
48356,-0.051,-0.983,0.205,-2.420,-3.618,-0.740,108.0,64.0
48403,-0.049,-0.988,0.219,-2.824,-1.481,-1.458,108.0,69.0
48450,-0.052,-0.981,0.208,-2.305,1.107,-1.344,109.0,68.0
48498,-0.057,-0.980,0.205,-2.870,1.740,-1.534,109.0,69.0
48545,-0.066,-0.986,0.204,-2.977,-0.954,-2.656,108.0,71.0
48598,-0.056,-0.971,0.197,-3.687,2.168,-2.290,108.0,112.0
48646,-0.073,-0.981,0.201,-3.321,2.084,-0.389,108.0,69.0
48693,-0.045,-0.976,0.182,-2.344,2.183,0.664,108.0,64.0
48740,-0.057,-0.980,0.194,-3.168,6.053,1.473,108.0,64.0
48787,-0.076,-0.995,0.205,-2.412,1.802,1.969,108.0,71.0
48835,-0.040,-0.973,0.187,-2.473,1.672,2.305,107.0,76.0
48882,-0.045,-0.984,0.194,-2.733,3.878,2.702,107.0,78.0
48930,-0.043,-0.987,0.178,-2.237,7.237,0.802,107.0,78.0
48977,-0.053,-0.982,0.186,-2.771,7.313,-0.885,107.0,67.0
49028,-0.061,-0.978,0.173,-2.977,6.328,-2.160,107.0,64.0
49075,-0.058,-0.979,0.190,-3.718,7.244,-2.985,106.0,65.0
49122,-0.051,-0.991,0.176,-4.069,8.290,-4.740,105.0,63.0
49169,-0.072,-0.978,0.174,-5.626,10.137,-6.252,106.0,63.0
49216,-0.067,-0.979,0.177,-6.664,9.000,-7.008,105.0,60.0
49262,-0.078,-0.980,0.176,-7.405,9.527,-6.244,104.0,60.0
49309,-0.082,-0.972,0.174,-8.038,7.275,-5.992,103.0,62.0
49356,-0.073,-0.970,0.158,-8.679,7.206,-6.076,103.0,67.0
49403,-0.062,-0.971,0.162,-8.664,10.740,-6.740,102.0,64.0
49453,-0.021,-0.958,0.091,-9.183,25.969,-5.565,101.0,63.0
49500,-0.051,-0.960,0.089,-12.069,63.702,1.221,100.0,70.0
49547,-0.088,-0.983,0.088,-3.885,89.267,5.351,99.0,72.0
49598,-0.185,-0.970,0.126,-8.137,110.626,7.000,100.0,127.0
49646,-0.319,-1.012,0.160,-15.198,103.450,20.405,57.0,130.0
49693,-0.472,-1.009,0.324,-27.267,28.947,25.725,51.0,129.0
49744,-0.380,-0.992,0.305,-36.489,-60.427,25.252,98.0,132.0
49797,-0.095,-1.119,0.242,-12.382,-92.366,18.168,118.0,133.0
49848,0.552,-0.292,0.238,33.969,-2.076,-19.618,94.0,83.0
49893,0.671,0.001,-0.251,61.473,182.588,-90.565,58.0,84.0
49941,-0.045,-0.065,-0.519,74.779,250.130,-91.053,31.0,163.0
49991,-1.074,-0.890,0.461,27.992,119.153,-12.344,30.0,190.0
50039,-0.724,-2.000,0.055,-63.038,-250.137,27.244,23.0,148.0
50087,-0.008,-1.491,-0.134,-38.260,-250.137,-41.885,75.0,109.0
50135,1.334,-1.312,-0.848,55.496,-86.412,-136.656,79.0,82.0
50186,0.157,-1.002,0.039,-15.863,79.000,-75.771,98.0,140.0
50273,0.908,-1.730,-0.874,21.000,-30.305,-2.863,43.0,82.0
50327,0.403,-0.959,-0.258,-28.336,188.489,-72.725,97.0,133.0
50378,0.190,-0.983,0.721,-85.931,81.153,25.595,98.0,131.0
50429,0.543,-1.432,-0.339,71.595,123.695,-31.534,95.0,141.0
50480,-0.320,-0.092,0.332,24.809,211.687,-41.206,75.0,152.0
50530,-0.726,-0.873,1.363,-82.389,-169.924,43.496,76.0,138.0
50580,0.924,-1.938,-0.833,107.603,-179.160,-1.282,75.0,137.0
50630,0.454,-0.384,-0.198,75.794,176.336,-58.603,77.0,137.0
50680,-0.767,-0.635,0.733,-70.611,89.603,23.244,76.0,135.0
50734,-0.249,-1.553,-0.000,21.115,-208.031,85.290,74.0,136.0
50785,0.357,-0.764,-0.149,77.397,-74.794,9.763,94.0,138.0
50834,0.193,-0.428,-0.005,-36.282,16.260,63.260,74.0,137.0
50884,0.389,-1.339,-0.209,-71.191,32.954,65.389,74.0,138.0
50934,-0.092,-1.063,0.128,19.756,111.031,-13.176,76.0,138.0
50984,-0.656,-0.941,0.818,-76.145,-103.313,34.000,75.0,138.0
51035,0.469,-2.000,-0.509,-9.885,-244.305,54.519,71.0,137.0
51085,0.753,-0.752,-0.339,74.267,57.511,-4.267,74.0,140.0
51133,-0.665,-0.704,0.680,-48.496,29.519,37.099,74.0,118.0
51186,0.175,-1.789,-0.156,14.481,-168.435,51.618,74.0,143.0
51233,0.671,-0.657,-0.507,121.656,135.893,-16.595,75.0,84.0
51281,-0.874,-0.439,0.532,-19.626,125.626,9.618,78.0,103.0
51329,-0.437,-1.302,0.263,-34.412,-143.305,28.008,78.0,82.0
51376,0.605,-1.392,-0.922,102.321,84.840,-48.389,79.0,83.0
51425,-0.729,-0.250,0.279,-18.527,204.939,-6.145,84.0,104.0
51472,-0.858,-1.086,0.726,-96.977,-109.298,45.908,61.0,107.0
51519,0.397,-1.656,-0.745,34.122,-96.244,5.344,79.0,84.0
51569,0.028,-0.489,0.210,8.000,134.878,9.023,80.0,86.0
51617,-0.314,-0.965,0.469,-36.336,57.794,66.328,81.0,107.0
51666,0.045,-1.406,0.013,49.206,38.168,10.969,81.0,103.0
51715,-0.735,-0.767,0.749,21.740,-29.229,-3.519,81.0,100.0
51763,-0.644,-0.959,0.444,-19.427,-250.137,29.832,81.0,102.0
51808,0.307,-1.141,-0.453,37.099,-157.481,-12.885,81.0,53.0
51854,-0.194,-0.667,0.424,-33.374,-49.481,-4.344,83.0,54.0
51901,0.081,-1.251,0.174,-27.145,-33.053,-0.962,109.0,54.0
51948,0.303,-0.780,-0.000,31.511,165.382,-20.435,94.0,56.0
51999,-0.717,-0.702,0.698,-30.580,179.901,7.244,89.0,100.0
52047,-0.702,-1.051,0.704,-15.870,-35.176,24.527,95.0,83.0
52099,-0.176,-0.932,0.421,22.031,-117.023,30.008,114.0,106.0
52153,0.049,-0.763,0.226,17.489,-64.634,27.679,0.0,82.0
52206,0.174,-0.949,0.210,11.710,-0.687,11.687,0.0,80.0
52260,-0.058,-0.796,0.298,18.634,90.962,-28.947,0.0,80.0
52315,-0.304,-0.876,0.400,-7.450,33.221,-18.198,0.0,78.0
52368,-0.123,-1.008,0.221,9.252,-16.595,-16.092,0.0,76.0
52425,-0.416,-0.834,0.433,-14.710,-10.290,-12.687,0.0,75.0
52476,-0.284,-1.276,0.253,-27.435,-113.519,10.145,137.0,87.0
52526,-0.013,-0.970,0.416,-14.557,-77.802,14.641,123.0,67.0
52575,0.098,-0.727,0.491,31.786,-31.870,78.779,127.0,69.0
52623,0.112,-0.892,0.295,95.740,38.313,61.603,119.0,66.0
52676,-0.280,-0.655,0.246,120.740,132.214,-13.618,0.0,65.0
52729,-1.355,-1.180,0.892,37.275,21.687,-100.115,0.0,62.0
52826,0.435,-0.512,-0.070,53.931,-207.267,-46.641,0.0,57.0
52882,-0.034,-0.270,-0.047,-68.015,250.130,-89.328,0.0,60.0
52934,-0.895,-0.789,0.550,-49.252,142.076,-9.534,132.0,60.0
52984,-0.244,-0.899,0.392,7.702,20.550,-54.809,144.0,66.0
53037,-0.361,-0.653,0.559,-35.641,-5.290,-90.092,143.0,110.0
53086,-0.018,-0.645,0.634,-54.000,-174.947,-30.687,113.0,70.0
53134,0.669,-1.127,0.103,67.702,-122.038,-48.275,110.0,67.0
53190,0.765,-0.529,-0.441,88.794,143.260,-85.641,115.0,0.0
53232,-0.345,-0.563,0.241,-75.756,250.130,30.092,100.0,0.0
53280,-0.890,-0.914,1.398,-158.573,-31.916,83.695,61.0,124.0
53335,-0.016,-1.557,0.402,6.519,-250.137,51.924,95.0,130.0
53380,0.948,-1.080,-0.336,84.641,-136.359,-40.046,67.0,46.0
53429,0.733,-0.397,-0.165,-22.427,131.252,-29.931,117.0,83.0
53480,-0.093,-0.977,0.156,-136.740,233.565,-4.992,93.0,117.0
53529,-0.657,-1.640,0.986,-115.244,31.656,1.992,94.0,115.0
53578,-0.088,-1.173,0.449,1.443,-132.954,2.214,92.0,91.0
53626,0.331,-1.011,0.133,-56.038,-125.397,23.611,91.0,89.0
53673,0.376,-1.208,0.131,-57.038,-29.931,19.053,58.0,92.0
53719,0.179,-1.384,0.128,-27.412,36.191,0.985,58.0,65.0
53767,0.025,-0.722,0.403,-15.321,33.847,53.702,59.0,65.0
53813,0.108,-1.273,0.206,-26.099,-30.954,26.153,60.0,64.0
53859,0.367,-0.949,-0.069,39.321,58.344,-51.130,60.0,92.0
53908,-0.137,-0.822,0.052,-2.733,143.595,-31.954,93.0,88.0
53956,-0.504,-1.098,0.529,-44.748,-12.206,17.031,94.0,89.0
54005,-0.005,-1.304,-0.045,10.573,-115.534,39.763,94.0,87.0
54060,0.363,-0.949,-0.322,16.985,22.458,11.710,94.0,87.0
54107,-0.131,-0.895,0.055,-26.672,80.366,10.786,94.0,88.0
54155,-0.089,-1.345,0.062,-14.458,17.641,11.382,95.0,87.0
54205,0.124,-0.979,-0.098,32.588,85.069,0.237,95.0,85.0
54252,-0.244,-0.845,0.124,-23.588,101.122,18.527,96.0,84.0
54300,-0.257,-1.167,0.227,-34.237,9.359,19.740,97.0,85.0
54347,0.189,-1.114,-0.203,23.046,36.107,9.183,97.0,86.0
54394,0.089,-0.840,-0.271,19.069,163.252,10.153,61.0,114.0
54441,-0.521,-0.794,0.187,-23.588,125.305,19.771,60.0,111.0
54489,-0.456,-1.013,0.248,-32.855,-31.443,19.412,61.0,111.0
54536,-0.059,-0.877,0.051,12.382,-67.824,31.038,62.0,113.0
54585,0.153,-0.588,-0.041,32.443,13.618,35.023,63.0,89.0
54632,0.198,-0.402,-0.095,38.084,111.672,28.740,61.0,111.0
54679,0.033,-0.118,-0.022,48.168,185.855,22.931,62.0,109.0
54726,-0.173,-0.189,-0.016,47.641,196.504,22.137,64.0,106.0
54772,-0.868,-0.476,0.279,31.847,74.176,-6.931,60.0,102.0
54818,-1.185,-0.815,0.114,-50.336,-250.137,-99.305,60.0,97.0
54865,-0.732,-1.389,-0.143,-83.321,-250.137,-76.656,60.0,96.0
54908,0.623,-2.000,-0.809,146.206,-196.359,20.863,62.0,45.0
54952,0.407,-1.589,-0.529,139.595,101.290,51.863,60.0,46.0
55001,0.209,-0.793,-0.696,-12.573,250.130,111.679,59.0,94.0
55048,-0.547,-1.147,-0.270,-139.733,250.130,90.710,61.0,94.0
55094,-1.169,-1.461,1.094,-190.618,135.618,-73.397,63.0,96.0
55140,-1.149,-1.602,0.763,-34.435,-237.046,-129.618,64.0,92.0
55187,0.099,-1.436,-0.417,38.885,-250.137,-127.328,67.0,89.0
55276,-0.084,-0.756,-0.448,-6.588,250.130,-11.702,70.0,85.0
55322,-0.868,-0.959,-0.069,-16.458,250.130,36.870,72.0,85.0
55373,-0.907,-0.846,0.103,1.840,20.550,65.229,73.0,169.0
55424,-0.312,-0.905,-0.180,-26.870,-199.947,16.740,74.0,83.0
55470,0.576,-1.411,-1.259,60.565,15.962,-29.756,75.0,80.0
55521,-0.683,-0.639,0.086,19.321,181.229,-67.542,75.0,166.0
55571,-0.869,-1.031,0.722,-99.031,-120.023,-15.328,76.0,141.0
55617,0.061,-1.552,-0.428,43.435,-218.244,3.489,76.0,79.0
55663,-0.070,-0.667,-0.115,24.458,-118.557,-38.389,77.0,79.0
55710,0.029,-0.913,0.090,-50.260,-122.527,2.153,78.0,80.0
55756,0.571,-1.468,-0.722,46.275,57.863,16.260,79.0,78.0
55802,-0.409,-0.569,0.046,47.947,169.870,27.458,79.0,78.0
55846,-0.797,-0.752,0.510,-47.183,-42.847,42.076,80.0,77.0
55894,-0.005,-1.392,-0.191,-12.031,-168.015,30.443,81.0,77.0
55940,0.271,-0.761,-0.379,57.122,46.397,-16.046,82.0,77.0
55987,-0.544,-0.458,0.300,-12.611,21.908,30.405,83.0,76.0
56033,-0.180,-1.216,0.204,-15.443,-117.221,34.542,85.0,75.0
56080,0.315,-1.388,-0.928,94.817,161.824,-55.473,85.0,73.0
56126,-1.097,-0.199,0.469,-30.786,150.489,11.870,85.0,73.0
56173,-0.856,-1.033,0.578,-98.458,-136.748,52.542,86.0,73.0
56222,-0.124,-1.249,-0.654,74.229,-32.809,-14.519,87.0,72.0
56269,-1.195,0.001,0.627,-60.389,-150.702,19.809,87.0,73.0
56318,-0.163,-1.395,-0.353,-110.595,-250.137,28.649,154.0,53.0
56367,1.106,-0.874,-1.051,88.664,195.985,-59.908,132.0,53.0
56414,-1.316,0.042,0.741,-49.382,242.221,63.031,87.0,72.0
56464,-1.287,-1.686,0.646,-65.817,-250.137,75.412,163.0,52.0
56510,0.647,-1.528,-1.033,86.351,-179.962,-25.298,132.0,24.0
56558,-0.149,-0.276,0.050,20.511,69.878,-24.084,158.0,24.0
56602,-0.387,-1.039,0.117,-82.008,17.214,-2.748,33.0,24.0
56652,-0.025,-1.985,-0.848,13.427,96.748,-77.664,164.0,46.0
56696,-1.097,-0.268,0.624,14.160,117.527,-25.809,36.0,71.0
56744,-0.940,-0.976,0.070,-60.939,-146.366,65.305,147.0,47.0
56787,-0.025,-1.331,-0.194,-13.519,-147.214,27.084,37.0,49.0
56830,0.181,-1.141,-0.471,40.191,45.916,-44.031,36.0,54.0
56881,-0.418,-0.594,-0.107,6.176,171.427,-28.550,167.0,51.0
56932,-0.697,-0.980,0.477,-49.954,3.519,31.229,168.0,77.0
56984,-0.001,-1.181,-0.512,50.870,27.420,-48.031,167.0,80.0
57038,-1.033,-0.281,0.587,-65.504,-25.122,0.573,167.0,63.0
57089,-0.691,-1.514,-0.005,-45.267,-250.137,15.046,166.0,63.0
57140,0.614,-1.080,-0.623,108.069,-90.832,-39.321,163.0,61.0
57189,-0.232,-0.419,-0.079,31.076,144.084,-23.618,132.0,61.0
57240,-0.643,-1.001,0.299,-57.130,24.420,-1.710,160.0,79.0
57290,-0.213,-1.453,-0.114,34.076,-101.550,-20.374,148.0,65.0
57338,-0.043,-0.646,-0.027,50.244,-1.550,-18.786,141.0,32.0
57390,-0.317,-0.836,0.396,-43.443,-40.466,14.672,0.0,34.0
57444,0.258,-1.472,-0.243,44.290,-19.473,8.076,0.0,36.0
57495,0.213,-0.666,-0.035,57.176,179.130,-7.702,138.0,99.0
57547,-0.463,-0.727,0.447,-20.107,179.702,13.794,147.0,102.0
57603,-0.593,-1.098,0.528,-2.733,-1.931,12.954,0.0,100.0
57658,-0.465,-0.872,0.406,1.557,-158.176,1.405,0.0,105.0
57751,0.429,-0.847,-0.146,22.374,9.092,-9.550,133.0,76.0
57806,-0.199,-0.639,0.298,-20.328,180.595,-8.641,156.0,140.0
57861,-0.735,-1.146,0.525,-17.786,58.008,1.481,158.0,126.0
57914,-0.464,-1.055,0.275,7.458,-127.351,9.275,157.0,116.0
57969,-0.013,-0.963,-0.056,17.557,-83.901,9.832,156.0,84.0
58020,-0.204,-0.810,0.235,1.305,-7.038,-2.221,156.0,88.0
58073,-0.209,-1.020,0.197,11.015,-28.519,2.527,157.0,83.0
58126,-0.067,-0.926,0.106,17.817,-3.718,2.626,157.0,118.0
58178,-0.429,-0.813,0.407,-17.107,-16.786,2.099,158.0,87.0
58230,-0.146,-1.066,0.168,4.809,-106.176,17.527,159.0,87.0
58283,0.215,-0.942,-0.113,38.939,36.168,-5.282,158.0,95.0
58337,-0.332,-0.839,0.341,-15.908,108.382,-15.573,158.0,111.0
58391,-0.349,-1.092,0.380,5.290,-8.878,5.427,159.0,81.0
58443,-0.023,-0.857,0.092,21.405,33.763,-2.420,160.0,85.0
58497,-0.504,-0.890,0.452,-28.656,26.405,-16.305,160.0,110.0
58549,-0.199,-1.076,0.100,12.969,-52.099,1.000,160.0,81.0
58601,-0.425,-0.617,0.227,-14.412,10.275,-5.939,160.0,82.0
58653,-0.767,-0.952,0.397,-66.794,-194.061,24.511,0.0,54.0
58707,0.335,-1.228,-0.282,6.420,-128.191,21.397,0.0,73.0
58758,0.036,-0.764,-0.165,15.366,149.122,-14.061,159.0,54.0
58810,-0.814,-0.943,0.736,-58.649,25.901,-11.626,159.0,94.0
58868,-0.027,-1.270,0.040,25.687,-112.733,1.038,0.0,100.0
58921,-0.022,-0.751,0.273,-8.794,32.389,-16.466,0.0,60.0
58976,-0.160,-1.106,0.307,-24.672,-24.779,12.733,0.0,75.0
59027,0.040,-0.907,0.075,18.176,16.733,-8.221,156.0,74.0
59078,-0.246,-0.854,0.298,-14.794,3.038,-2.153,155.0,75.0
59131,-0.120,-1.076,0.221,-7.084,-48.458,-21.107,0.0,63.0
59185,0.182,-0.976,-0.114,14.756,47.611,-24.069,0.0,65.0
59238,-0.509,-0.721,0.511,-25.687,-2.046,12.366,0.0,63.0
59290,-0.112,-0.942,0.296,-19.672,-134.153,27.695,0.0,42.0
59345,0.655,-1.299,-0.429,38.626,67.321,-35.702,0.0,42.0
59399,-0.534,-0.992,0.057,23.481,250.130,-93.015,155.0,107.0
59448,-1.503,-0.943,0.972,-35.115,-190.000,4.595,133.0,61.0
59500,0.172,-0.940,-0.351,3.198,-250.137,36.237,0.0,44.0
59552,1.046,-0.817,-0.745,35.298,129.504,-37.962,0.0,43.0
59603,0.008,-0.275,-0.480,24.947,250.130,-46.588,128.0,113.0
59657,-1.587,-0.420,0.772,3.702,250.130,-15.420,138.0,112.0
59707,-1.094,-0.597,0.658,-27.802,-250.137,6.618,127.0,83.0
59755,0.741,-1.014,-0.845,4.511,-250.137,-59.420,58.0,49.0
59801,0.693,-0.611,-0.481,28.374,75.206,-95.824,58.0,82.0
59847,-0.394,-1.524,0.267,-11.641,161.382,-23.763,69.0,81.0
59892,-0.351,-1.186,0.153,22.718,31.160,57.985,66.0,54.0
59937,-0.091,-1.267,0.198,-31.412,-24.260,138.305,61.0,58.0
59982,0.240,-1.639,0.213,-71.183,-38.847,99.832,59.0,60.0
60027,0.028,-1.885,0.118,-54.542,-16.618,-99.603,58.0,61.0
60072,-0.101,-1.366,0.235,-48.954,-26.641,-143.298,57.0,64.0
60118,-0.167,-1.085,0.424,-73.313,-95.298,-41.176,57.0,66.0
60167,0.459,-1.543,0.108,-5.473,-166.252,57.198,58.0,69.0
60213,0.700,-1.216,-0.310,43.687,12.397,-39.771,63.0,69.0
60259,0.344,-0.699,-0.221,0.107,195.855,-41.092,63.0,72.0
60350,-0.540,-1.527,0.401,-15.710,-199.046,44.519,90.0,84.0
60398,0.511,-1.149,-0.495,74.893,-136.061,-21.565,81.0,87.0
60451,0.317,-0.721,-0.155,-12.893,47.046,0.817,84.0,88.0
60498,-0.034,-1.297,0.545,-67.489,37.740,20.427,83.0,92.0
60546,0.274,-1.482,-0.032,67.679,20.954,-15.260,83.0,93.0
60595,0.127,-0.872,0.012,56.130,78.649,-19.038,73.0,83.0
60641,-0.378,-0.681,0.639,-29.885,-27.908,-7.298,74.0,84.0
60687,0.292,-1.258,-0.005,-9.214,-168.817,-5.695,72.0,84.0
60731,0.757,-0.738,-0.354,69.321,29.603,-62.824,39.0,84.0
60777,-0.152,-0.291,0.250,7.397,124.198,-28.489,44.0,109.0
60822,-0.274,-0.881,0.523,-37.809,-45.137,18.130,57.0,84.0
60868,0.365,-1.219,-0.191,42.015,-35.504,-31.649,57.0,83.0
60913,-0.049,-0.456,0.072,19.191,69.954,-34.420,57.0,84.0
60959,-0.573,-0.794,0.549,-85.191,-84.779,32.229,71.0,85.0
61006,0.133,-1.555,-0.101,-18.924,-235.824,36.847,42.0,85.0
61051,0.912,-0.883,-0.448,73.931,-20.641,-39.985,42.0,89.0
61096,0.165,-0.689,-0.432,24.466,227.641,-33.107,44.0,88.0
61143,-0.634,-0.436,0.432,-79.840,151.908,17.412,64.0,90.0
61189,-0.562,-1.106,0.818,-86.298,-133.389,59.985,64.0,93.0
61236,0.301,-1.375,-0.144,56.443,-201.588,-14.183,67.0,95.0
61282,0.656,-0.911,-0.356,49.634,-30.649,-56.130,65.0,99.0
61329,0.349,-0.950,-0.110,-35.779,94.221,6.863,63.0,101.0
61378,-0.207,-1.361,0.459,-35.481,-36.786,63.282,61.0,104.0
61426,0.387,-1.298,0.025,40.756,-185.565,60.191,59.0,131.0
61472,0.662,-1.072,-0.307,30.962,-80.969,-27.466,45.0,106.0
61519,0.222,-0.976,0.312,-34.947,-59.328,-24.389,57.0,107.0
61564,0.730,-1.890,-0.422,42.252,-30.847,7.809,24.0,108.0
61612,0.308,-1.004,-0.074,104.916,123.374,20.191,59.0,106.0
61658,-0.208,-0.728,0.521,-4.885,37.931,63.435,58.0,107.0
61703,0.383,-1.434,-0.106,6.260,-9.664,-2.321,24.0,105.0
61748,0.293,-0.736,0.020,45.977,108.290,-38.061,22.0,102.0
61795,-0.448,-0.672,0.486,-34.733,46.137,-0.947,23.0,101.0
61839,-0.179,-1.369,0.412,-35.695,-108.427,10.053,24.0,100.0
61884,0.624,-1.129,-0.253,79.420,39.435,-28.573,24.0,100.0
61928,-0.002,-0.618,0.290,14.992,154.580,16.702,26.0,98.0
61973,-0.218,-0.944,0.568,-30.244,67.260,19.511,28.0,97.0
62025,0.140,-1.129,0.220,22.282,21.611,-9.565,167.0,96.0
62078,-0.269,-0.726,0.585,12.908,-29.458,-28.901,173.0,95.0
62132,0.399,-1.138,0.034,4.405,-89.962,-38.863,173.0,94.0
62184,0.400,-0.742,0.150,27.237,112.588,-55.191,175.0,94.0
62234,-0.348,-0.819,0.573,0.618,65.840,-24.962,71.0,93.0
62287,-0.039,-1.054,0.438,5.985,-85.008,-30.924,178.0,93.0
62341,0.400,-0.815,0.045,33.489,-47.840,-25.298,81.0,0.0
62396,0.058,-0.765,0.281,-20.084,-2.656,8.015,180.0,128.0
62455,0.506,-1.239,0.035,7.321,-40.099,0.817,174.0,0.0
62511,0.593,-0.691,-0.158,27.863,183.115,-42.672,175.0,137.0
62561,-0.679,-0.722,0.835,-45.672,166.878,-8.130,81.0,131.0
62610,-0.535,-1.015,0.857,-33.496,-218.504,16.595,82.0,131.0
62665,0.994,-0.902,-0.335,28.550,-123.420,-11.878,38.0,0.0
62712,0.647,-0.775,-0.101,-12.817,209.321,-1.191,43.0,131.0
62806,-0.448,-0.924,0.896,-9.290,6.565,19.282,87.0,126.0
62856,0.199,-0.904,0.238,3.061,-65.702,2.405,90.0,123.0
62905,0.320,-0.786,0.151,-11.901,27.603,5.916,93.0,124.0
62961,-0.000,-0.887,0.444,-31.496,42.000,13.893,0.0,121.0
63014,0.173,-1.007,0.184,4.840,41.817,5.740,144.0,120.0
63066,-0.045,-0.904,0.430,-33.374,69.779,16.405,131.0,118.0
63114,-0.170,-1.211,0.348,-22.733,8.145,12.634,58.0,116.0
63165,-0.082,-0.860,0.178,-25.107,-30.466,3.489,59.0,116.0
63212,-0.215,-0.776,0.282,-49.038,-72.344,35.267,58.0,124.0
63259,0.243,-1.124,0.009,-16.466,-85.405,41.969,54.0,94.0
63307,0.549,-0.959,-0.132,15.099,104.847,4.954,104.0,90.0
63362,-0.018,-0.991,0.085,-13.290,250.130,-0.511,133.0,155.0
63419,-0.953,-1.010,0.823,-8.626,52.344,25.626,133.0,0.0
63471,-0.316,-0.992,0.141,-13.237,-216.656,18.397,134.0,124.0
63522,0.582,-1.067,-0.473,12.313,-40.870,4.069,135.0,94.0
63576,0.090,-0.948,-0.188,-2.672,209.198,11.290,110.0,110.0
63630,-0.555,-1.055,0.323,-14.092,156.099,13.519,139.0,136.0
63684,-0.358,-1.195,0.210,14.099,-26.809,-10.176,155.0,134.0
63737,-0.019,-0.944,-0.133,10.870,6.916,-30.298,144.0,134.0
63796,-0.435,-0.917,0.268,-30.328,-21.870,-18.634,144.0,0.0
63849,-0.007,-1.117,-0.088,7.382,-75.611,-7.656,145.0,135.0
63906,0.052,-0.939,-0.075,9.290,52.244,-2.992,138.0,199.0
63960,-0.450,-1.061,0.340,-16.733,19.130,-1.122,157.0,111.0
64017,-0.086,-1.089,0.109,8.855,-40.053,-0.389,142.0,199.0
64078,-0.147,-0.910,0.152,-4.962,30.145,8.489,158.0,0.0
64137,-0.256,-0.976,0.293,-7.565,-46.366,18.206,158.0,0.0
64195,0.137,-1.010,-0.082,27.000,45.000,-1.641,152.0,0.0
64256,-0.878,-0.716,0.678,-21.321,6.969,0.115,0.0,0.0
64308,-0.439,-1.110,-0.018,-2.450,-250.137,30.779,129.0,118.0
64360,0.547,-1.054,-0.413,11.237,-111.229,24.802,0.0,53.0
64415,0.211,-0.899,-0.154,9.443,150.115,11.374,127.0,159.0
64472,-0.345,-0.914,0.239,-5.985,185.748,13.847,127.0,0.0
64528,-0.420,-1.017,0.387,6.817,50.847,13.702,154.0,107.0
64579,-0.272,-0.953,0.237,-8.267,-0.779,-5.496,127.0,107.0
64630,-0.542,-0.853,0.386,-35.092,-88.603,-6.427,126.0,108.0
64683,-0.099,-0.947,0.046,-18.618,-152.695,10.099,125.0,115.0
64734,0.464,-0.986,-0.276,30.573,24.534,12.168,124.0,108.0
64785,0.218,-0.402,-0.249,30.824,250.130,5.076,125.0,106.0
64837,-0.454,-0.394,-0.056,25.427,250.130,1.221,152.0,104.0
64890,-0.852,-0.417,0.409,20.130,170.664,-50.519,94.0,169.0
64940,-0.917,-0.422,0.229,5.786,-156.221,-21.679,91.0,101.0
64994,-0.384,-0.678,-0.554,-38.527,-250.137,36.802,120.0,95.0
65040,0.215,-1.460,-0.289,-9.832,-202.000,88.641,71.0,74.0
65085,0.733,-2.000,-1.096,150.855,142.534,94.359,70.0,54.0
65139,-0.229,-0.994,-0.551,110.626,250.130,51.183,0.0,92.0
65196,-0.958,-1.164,0.030,7.053,250.130,2.076,0.0,115.0
65247,-1.371,-0.938,0.906,-49.817,-38.321,-114.046,92.0,129.0
65299,-0.869,-1.160,0.183,-99.649,-250.137,-162.664,169.0,90.0
65347,0.046,-1.358,-0.032,-43.206,-152.573,-111.130,72.0,88.0
65397,0.253,-1.515,-0.419,39.053,34.847,2.229,74.0,87.0
65492,-1.058,-0.781,0.465,-81.466,-56.519,0.756,159.0,87.0
65540,0.140,-1.384,-0.194,-16.267,-205.809,-1.939,73.0,85.0
65587,0.417,-1.162,-0.470,101.779,15.153,-132.336,74.0,84.0
65634,-0.054,-0.600,-0.332,66.969,182.649,-96.176,78.0,85.0
65687,-0.674,-0.772,0.073,-47.863,82.038,25.527,97.0,150.0
65735,-0.698,-1.133,0.184,-64.863,-145.015,52.008,100.0,85.0
65782,-0.024,-1.235,-0.105,-17.985,-250.137,38.756,75.0,85.0
65830,0.472,-1.074,-0.537,30.000,-94.779,-65.855,73.0,86.0
65881,0.242,-0.935,-0.504,11.015,175.733,-58.504,73.0,89.0
65928,-0.222,-0.539,-0.071,-33.985,234.626,98.298,75.0,91.0
65979,-0.805,-1.280,0.596,-52.557,57.649,74.244,129.0,93.0
66030,0.146,-1.272,-0.016,55.053,-61.359,-9.160,131.0,92.0
66085,0.474,-0.868,-0.600,92.740,172.405,-75.557,149.0,159.0
66134,-0.390,-0.736,-0.149,-1.412,250.130,-38.992,97.0,74.0
66182,-1.334,-1.092,0.924,-59.733,-15.962,-13.450,97.0,73.0
66236,-0.591,-1.264,-0.115,4.893,-250.137,7.328,97.0,178.0
66287,0.369,-0.798,-0.637,6.191,-250.137,3.931,72.0,97.0
66335,0.348,-0.877,-0.361,-21.206,-47.908,5.710,71.0,98.0
66382,-0.059,-1.114,-0.098,-12.733,47.718,4.985,71.0,99.0
66434,-0.394,-1.297,0.186,16.702,-7.313,36.473,121.0,100.0
66485,-0.043,-1.061,-0.049,33.534,-69.626,34.809,116.0,102.0
66533,0.270,-0.948,-0.122,27.962,13.061,19.069,66.0,105.0
66580,-0.036,-1.144,0.031,14.786,78.397,-24.977,68.0,105.0
66632,-0.352,-1.136,0.235,4.061,37.237,-42.122,119.0,109.0
66680,-0.093,-0.918,0.240,2.145,-48.534,16.672,67.0,111.0
66734,0.503,-1.278,-0.258,46.282,-12.305,-3.626,96.0,111.0
66787,0.308,-0.781,-0.289,65.702,231.450,-63.237,95.0,174.0
66841,-0.958,-0.718,0.426,-9.489,231.626,-14.847,95.0,183.0
66897,-1.029,-1.008,0.708,-45.618,-238.611,44.206,95.0,0.0
66958,0.312,-1.049,-0.418,18.389,-250.137,4.748,121.0,177.0
67014,0.417,-0.771,-0.127,15.328,-20.847,-29.962,129.0,0.0
67069,-0.173,-1.017,0.213,-4.374,78.962,-12.679,117.0,0.0
67124,-0.068,-0.867,0.459,13.695,-66.756,34.809,118.0,177.0
67178,0.524,-0.880,-0.335,36.824,136.611,-13.519,120.0,126.0
67234,-0.660,-0.889,0.787,-23.656,107.191,-15.366,125.0,0.0
67289,-0.205,-1.064,0.312,16.939,-193.733,41.397,124.0,176.0
67340,0.474,-0.924,-0.388,31.038,-23.473,5.534,125.0,121.0
67392,-0.230,-0.877,0.339,-30.840,34.748,24.901,124.0,120.0
67445,0.024,-1.290,0.176,10.504,-58.145,56.405,114.0,174.0
67496,0.382,-0.957,-0.218,47.267,119.191,-19.466,128.0,119.0
67554,-0.463,-0.733,0.512,-25.198,179.832,-18.115,132.0,0.0
67610,-0.717,-1.161,0.528,-2.145,-84.168,10.183,133.0,0.0
67656,0.264,-0.942,-0.160,13.885,-93.878,0.916,134.0,0.0
67712,0.137,-0.818,-0.125,-2.160,85.954,-8.145,134.0,0.0
67769,-0.567,-1.007,0.468,-40.481,3.794,12.748,136.0,0.0
67825,-0.181,-0.959,0.225,-4.298,-104.351,21.229,135.0,0.0
67881,0.305,-1.003,-0.125,14.359,21.565,-0.527,135.0,0.0
67937,-0.235,-0.876,0.188,2.840,157.198,-5.038,138.0,176.0
67996,-0.730,-0.907,0.525,-24.290,33.069,33.687,0.0,176.0
68048,-0.135,-1.089,0.140,0.924,-118.061,37.130,151.0,112.0
68152,-0.386,-0.846,0.291,1.718,125.168,-43.115,142.0,0.0
68195,-0.735,-1.007,0.446,-13.573,-41.389,22.679,143.0,0.0
68252,-0.337,-0.949,0.230,-10.740,-140.191,19.000,143.0,0.0
68295,0.216,-1.093,-0.223,15.000,-3.985,-37.191,142.0,0.0
68353,-0.113,-0.862,0.041,21.718,133.122,-56.366,143.0,0.0
68410,-0.725,-0.897,0.439,-18.908,58.473,28.870,156.0,0.0
68467,-0.562,-1.009,0.203,-30.763,-125.031,74.443,144.0,0.0
68525,-0.085,-0.987,-0.053,-22.985,-113.221,23.206,142.0,0.0
68578,-0.088,-0.881,0.111,-9.664,-21.542,-31.573,141.0,126.0
68637,-0.240,-0.969,0.212,-5.122,13.099,-11.672,140.0,0.0
68694,-0.393,-0.929,0.368,-16.076,-28.359,23.336,127.0,0.0
68746,-0.187,-1.112,0.249,-9.405,-79.878,27.504,138.0,111.0
68797,0.042,-1.073,0.007,13.397,-27.473,-29.420,124.0,111.0
68849,-0.017,-0.800,0.112,0.038,85.244,-24.969,137.0,129.0
68902,-0.399,-0.892,0.340,-19.489,44.725,39.015,147.0,128.0
68956,-0.312,-0.942,0.302,-5.305,-43.153,32.267,147.0,111.0
69008,-0.173,-0.973,0.139,-3.237,-47.550,-15.137,147.0,113.0
69063,-0.081,-0.931,0.117,-2.779,-21.275,-14.534,145.0,112.0
69117,-0.119,-0.986,0.152,-2.740,10.023,0.008,144.0,150.0
69169,0.083,-1.042,0.003,20.885,47.046,-4.374,128.0,98.0
69220,-0.109,-0.855,0.152,1.702,126.718,-23.450,146.0,98.0
69272,-0.372,-0.991,0.195,-9.374,85.214,-3.412,139.0,111.0
69323,-0.502,-0.918,0.295,-10.855,1.756,-0.977,147.0,90.0
69376,-0.329,-0.977,0.146,-12.252,-66.817,0.672,146.0,108.0
69427,-0.100,-0.982,0.035,-9.504,-35.542,17.252,146.0,90.0
69478,-0.076,-0.841,0.097,-3.649,37.573,42.870,145.0,90.0
69531,-0.261,-0.897,0.149,-9.061,65.802,47.450,146.0,85.0
69583,-0.295,-0.889,0.004,-6.679,64.053,28.893,148.0,106.0
69636,-0.416,-0.768,0.065,-27.916,65.221,16.687,147.0,103.0
69688,-0.515,-0.914,0.107,-21.481,17.939,8.237,148.0,100.0
69743,-0.336,-0.831,0.122,-3.931,9.092,11.183,0.0,101.0
69791,-0.411,-0.865,0.253,-7.237,32.107,7.107,79.0,100.0
69846,-0.410,-0.838,0.084,6.626,17.130,-11.802,0.0,100.0
69894,-0.461,-0.782,-0.011,-1.115,36.260,-17.908,75.0,97.0
69944,-0.452,-0.811,-0.211,10.046,33.122,-25.885,73.0,96.0
69991,-0.571,-0.667,-0.046,-19.137,0.298,-13.580,73.0,97.0
70038,-0.537,-0.904,0.155,-60.389,-87.985,21.427,69.0,95.0
70086,-0.101,-1.076,0.348,-7.458,-117.061,81.565,137.0,49.0
70136,0.396,-1.301,-0.087,82.260,-3.092,26.069,117.0,95.0
70182,0.426,-1.006,-0.292,87.420,175.405,-44.687,62.0,93.0
70228,-0.765,-1.319,-0.540,103.878,250.130,-85.183,59.0,90.0
70275,-1.558,-0.323,0.407,-41.702,-20.305,-7.206,59.0,89.0
70321,-0.825,-1.095,-0.048,-151.847,-250.137,69.840,59.0,87.0
70376,0.013,-1.570,-0.137,-51.145,-250.137,81.206,155.0,82.0
70429,0.740,-1.414,-0.675,24.557,-97.947,-117.305,0.0,83.0
70479,0.317,-1.167,-1.145,33.466,250.130,-152.115,121.0,85.0
70525,-1.298,-0.475,-0.688,-34.771,250.130,-65.794,64.0,76.0
70572,-2.000,-1.300,0.736,-184.725,32.626,14.969,66.0,74.0
70617,-1.076,-1.582,-0.121,-51.481,-250.137,97.886,68.0,75.0
70669,0.199,-1.049,-0.391,-33.069,-250.137,59.053,167.0,78.0
70756,-0.434,-1.111,-0.776,59.267,250.130,-54.153,71.0,23.0
70805,-1.478,-0.404,0.161,0.275,187.046,20.466,70.0,73.0
70851,-0.998,-0.848,-0.076,-79.344,-123.084,62.748,70.0,74.0
70897,-0.416,-0.900,0.230,-71.969,-242.817,56.977,73.0,74.0
70946,0.276,-1.419,-0.525,23.366,-132.718,-45.191,170.0,23.0
70994,0.354,-0.839,-0.617,62.817,146.962,-95.954,169.0,20.0
71041,-0.937,-0.759,-0.123,25.260,219.519,-65.450,73.0,72.0
71084,-0.991,-0.789,0.175,-32.435,-27.603,12.901,73.0,20.0
71128,-0.737,-0.992,0.039,-17.908,-174.092,55.351,75.0,19.0
71176,-0.028,-1.009,-0.070,7.664,-209.046,66.061,158.0,21.0
71227,0.559,-1.023,-0.545,59.847,80.137,-61.450,157.0,21.0
71273,-0.412,-1.044,-0.581,56.939,250.130,-98.496,75.0,73.0
71319,-1.475,-0.466,0.610,-26.802,125.771,-32.015,75.0,71.0
71365,-1.116,-1.294,0.125,-47.168,-231.977,22.664,75.0,73.0
71413,-0.036,-1.209,-0.428,15.275,-250.137,23.084,157.0,22.0
71460,0.455,-0.919,-0.456,9.969,-14.779,-23.626,130.0,24.0
71508,0.009,-1.029,-0.240,-7.359,164.595,-38.969,156.0,26.0
71553,-0.761,-0.997,0.336,-8.809,130.855,-33.153,76.0,28.0
71600,-0.732,-1.082,0.326,-23.786,-99.031,5.794,77.0,30.0
71644,-0.066,-1.178,-0.093,9.969,-157.099,7.542,78.0,30.0
71691,0.357,-1.054,-0.425,43.168,10.328,-45.580,126.0,30.0
71738,-0.219,-0.842,0.011,-0.221,119.137,-56.504,77.0,80.0
71785,-0.602,-0.991,0.295,-33.702,0.756,-8.244,77.0,81.0
71830,-0.319,-1.067,0.238,-9.481,-126.893,4.740,78.0,57.0
71879,0.320,-1.089,-0.325,36.641,-57.031,-10.031,126.0,57.0
71929,-0.011,-0.837,-0.174,13.252,107.405,-39.527,127.0,86.0
71980,-0.717,-0.819,0.349,-41.328,8.710,-1.718,126.0,87.0
72033,-0.619,-1.115,0.254,-40.840,-249.382,6.267,125.0,87.0
72082,0.568,-1.118,-0.584,17.496,-173.573,-0.275,124.0,60.0
72130,0.727,-0.914,-0.480,20.573,138.382,-44.252,124.0,61.0
72180,0.044,-0.786,-0.401,18.626,250.130,-13.359,125.0,81.0
72227,-0.979,-0.833,0.528,-18.046,237.718,11.198,76.0,89.0
72275,-0.927,-1.022,0.545,-27.168,-154.588,29.687,76.0,99.0
72326,-0.233,-0.940,-0.164,-20.183,-250.137,32.580,126.0,81.0
72376,0.485,-1.154,-0.477,-16.107,-186.267,26.511,126.0,82.0
72428,0.505,-1.026,-0.423,6.786,95.863,-0.214,131.0,59.0
72478,-0.286,-1.061,-0.177,-2.992,212.321,-8.290,127.0,80.0
72527,-1.047,-0.939,0.602,-28.321,-13.603,-0.313,129.0,79.0
72580,-0.498,-1.037,0.010,-20.229,-250.137,7.679,155.0,80.0
72630,0.519,-1.050,-0.632,7.290,-132.435,4.542,160.0,54.0
72681,-0.017,-0.954,-0.149,8.573,117.397,-4.740,163.0,54.0
72729,-0.556,-0.946,0.291,-12.412,38.435,2.153,129.0,55.0
72778,-0.293,-1.029,0.129,-7.420,-75.992,-6.550,130.0,53.0
72826,0.083,-1.094,-0.295,11.160,-12.351,-7.992,130.0,54.0
72877,-0.237,-0.852,0.085,-10.893,27.924,9.504,129.0,17.0
72923,-0.247,-1.034,0.111,-6.672,-15.710,6.870,130.0,16.0
72971,0.358,-1.295,-0.560,47.519,48.908,-3.260,164.0,15.0
73022,-0.053,-0.776,-0.536,47.137,250.130,-36.443,132.0,93.0
73070,-0.955,-0.691,0.451,-40.153,163.725,7.687,76.0,92.0
73118,-0.633,-1.235,0.256,-11.031,-136.886,-0.656,76.0,92.0
73214,-0.097,-0.768,-0.049,2.733,0.191,3.962,141.0,116.0
73267,-0.623,-1.042,0.321,-22.840,-122.878,13.450,162.0,94.0
73321,0.275,-1.300,-0.463,19.344,-201.084,3.908,0.0,15.0
73370,0.506,-0.906,-0.659,32.748,142.244,-36.321,162.0,17.0
73423,-0.675,-0.754,0.500,-32.130,143.870,5.656,166.0,98.0
73477,-0.591,-1.151,0.359,8.519,-136.183,17.191,166.0,98.0
73532,0.180,-0.976,-0.332,23.389,-56.130,5.282,164.0,40.0
73580,-0.802,-0.875,0.677,-23.557,-131.718,25.198,163.0,18.0
73620,-0.458,-1.234,-0.127,1.748,-250.137,33.908,38.0,18.0
73660,0.438,-1.048,-0.531,11.840,-244.031,3.107,33.0,20.0
73711,0.916,-1.021,-0.667,24.618,42.863,-15.649,0.0,33.0
73764,-0.300,-0.674,0.054,2.160,250.130,-19.366,0.0,33.0
73812,-0.901,-1.145,0.730,-12.656,67.305,2.924,161.0,36.0
73862,0.007,-1.178,-0.060,47.176,-57.168,-12.435,162.0,41.0
73910,-0.097,-0.680,0.155,10.038,77.702,-30.435,162.0,38.0
73961,-0.364,-1.124,0.248,-13.305,-34.435,7.595,0.0,38.0
74012,0.152,-1.007,-0.368,25.244,53.679,-26.802,0.0,38.0
74061,-0.573,-0.708,0.487,-33.000,33.053,13.832,166.0,37.0
74112,-0.162,-1.132,0.158,-12.092,-124.183,17.160,0.0,37.0
74166,0.422,-0.885,-0.095,22.382,68.649,-11.870,0.0,39.0
74217,-0.504,-1.068,0.376,6.794,114.115,0.420,0.0,41.0
74268,-1.119,-0.960,0.872,-7.069,-250.137,25.023,0.0,40.0
74318,1.173,-1.338,-1.154,28.389,-202.977,-28.336,0.0,34.0
74370,0.154,-0.535,-0.103,23.641,250.130,-30.359,0.0,37.0
74419,-0.791,-1.116,0.648,-14.977,145.916,39.389,162.0,38.0
74468,-0.770,-1.079,0.453,39.435,-28.176,-21.786,161.0,43.0
74517,-0.664,-0.849,0.321,-15.748,-250.137,45.176,163.0,41.0
74568,0.800,-1.307,-0.565,-4.206,-192.702,11.702,0.0,42.0
74622,0.580,-0.951,-0.661,31.573,250.130,-52.397,0.0,41.0
74672,-1.135,-0.768,0.918,-46.153,196.336,12.115,161.0,41.0
74721,-0.863,-1.200,0.538,-8.344,-207.443,-8.328,163.0,41.0
74772,0.479,-0.897,-0.214,9.252,-179.817,-10.878,0.0,44.0
74823,0.102,-0.646,0.198,-8.771,103.679,-9.908,0.0,45.0
74875,-0.687,-1.221,0.740,-31.679,-70.466,13.885,0.0,46.0
74927,0.302,-1.154,0.073,19.855,-138.489,-20.092,0.0,39.0
74978,0.350,-0.831,0.084,23.664,72.748,-33.053,0.0,48.0
75029,-0.263,-1.045,0.431,-7.137,15.176,47.672,0.0,48.0
75084,0.184,-1.194,0.113,23.534,-35.679,-10.908,0.0,47.0
75136,0.375,-0.914,-0.443,42.359,194.687,-24.489,0.0,47.0
75184,-0.622,-0.880,0.550,-27.595,135.908,20.244,143.0,42.0
75236,-0.384,-1.125,0.619,5.588,-63.687,0.527,0.0,46.0
75284,0.419,-0.967,0.023,64.550,-0.496,-61.924,149.0,47.0
75333,-0.479,-0.702,0.504,13.206,112.435,-88.405,143.0,58.0
75382,-1.216,-1.042,0.796,-6.534,-243.725,-49.885,147.0,51.0
75425,-0.050,-0.453,0.197,-3.580,-250.137,-46.099,36.0,60.0
75482,0.709,-1.820,-0.137,17.534,-66.649,-5.603,66.0,60.0
75536,0.468,-1.335,0.573,80.824,-25.863,57.328,0.0,63.0
75590,0.913,-0.937,0.132,68.298,-96.626,-0.183,50.0,0.0
75637,0.472,-0.518,-0.171,59.565,76.557,-88.840,50.0,67.0
75691,-0.514,-0.094,0.373,45.031,62.885,-52.611,36.0,0.0
75787,0.837,-1.089,-0.524,-8.221,-241.458,-58.389,30.0,0.0
75840,1.686,-0.614,-0.097,-7.756,68.443,42.374,27.0,0.0
75893,0.804,-0.984,0.307,-10.069,227.603,32.313,29.0,0.0
75954,-0.016,-0.962,0.445,1.313,216.740,-24.275,159.0,195.0
76017,-1.064,-0.786,1.000,11.954,-118.145,33.321,160.0,196.0
76070,0.021,-0.993,-0.170,5.023,-250.137,85.382,32.0,0.0
76124,1.559,-0.849,-0.721,52.550,-108.107,38.137,38.0,0.0
76181,0.958,-0.522,-0.136,44.107,233.466,16.397,101.0,0.0
76238,0.076,-0.970,0.113,8.611,250.130,-10.267,101.0,0.0
76294,-0.588,-0.668,0.940,-7.756,175.198,-4.695,0.0,66.0
76350,-0.421,-1.094,0.846,-72.580,-117.298,-44.145,0.0,73.0
76400,0.180,-0.886,0.522,-72.527,-178.061,-54.305,97.0,79.0
76448,0.514,-0.770,0.376,-49.824,-78.046,-12.435,39.0,100.0
76497,0.601,-0.969,0.223,-19.573,49.802,11.328,38.0,69.0
76545,0.225,-0.548,0.376,-9.679,146.053,6.794,39.0,81.0
76591,0.004,-0.128,0.553,-4.985,116.458,32.038,39.0,81.0
76638,-0.011,-0.079,0.393,11.023,71.435,30.458,41.0,73.0
76692,-0.094,-0.122,0.163,20.382,23.351,2.298,0.0,51.0
76742,-0.862,-1.097,0.354,-57.962,-206.359,-17.504,128.0,53.0
76793,-0.091,-1.317,-0.418,-75.466,-250.137,45.634,99.0,94.0
76843,1.293,-1.163,-0.926,36.634,-159.832,81.351,37.0,112.0
76892,0.988,-0.929,-0.488,10.069,145.748,39.069,38.0,71.0
76938,0.136,-1.362,-0.445,-30.794,250.130,-16.885,38.0,70.0
76988,-0.646,-1.812,0.602,-104.855,189.901,-13.931,65.0,105.0
77036,-0.826,-1.718,0.532,-54.962,-211.412,44.290,61.0,73.0
77082,-0.090,-1.359,-0.071,-53.282,-250.137,67.435,35.0,76.0
77128,0.836,-1.576,-0.634,-14.122,-250.137,84.405,25.0,81.0
77174,1.207,-1.073,-0.566,19.534,11.679,26.763,19.0,83.0
77220,0.573,-0.896,-0.430,2.374,250.130,20.466,23.0,80.0
77268,-0.098,-1.122,-0.202,-13.420,250.130,18.282,55.0,79.0
77320,-1.023,-1.093,0.765,-8.122,68.985,27.031,57.0,78.0
77368,-0.437,-1.036,0.142,-20.786,-213.229,27.023,58.0,77.0
77416,0.277,-1.147,-0.202,-10.992,-206.603,26.565,58.0,78.0
77463,0.696,-1.346,-0.250,23.924,-23.176,7.290,58.0,78.0
77511,0.452,-1.225,-0.117,28.420,187.695,-25.893,59.0,73.0
77559,-0.061,-0.844,0.123,25.191,250.130,-12.733,65.0,69.0
77607,-0.456,-1.024,0.312,41.450,202.168,11.809,71.0,67.0
77656,-0.663,-0.955,0.399,72.557,18.076,8.466,74.0,64.0
77714,-0.153,-0.722,-0.098,37.374,-99.679,16.718,200.0,60.0
77763,0.144,-0.729,-0.048,-15.061,-93.824,44.115,100.0,59.0
77813,-0.095,-0.715,0.074,13.679,-67.290,33.817,101.0,68.0
77862,-0.348,-0.700,0.069,50.924,-85.802,32.427,88.0,70.0
77911,-0.405,-1.100,-0.163,58.893,-90.092,31.771,65.0,73.0
77959,-0.178,-0.919,-0.260,73.954,-44.466,74.099,64.0,73.0
78008,-0.373,-1.309,-0.148,23.359,-28.718,76.779,66.0,82.0
78055,-0.623,-1.902,-0.182,0.855,-29.885,14.840,58.0,71.0
78106,-0.250,-1.041,-0.150,-16.664,-88.450,22.847,111.0,69.0
78155,0.080,-1.299,-0.007,-70.344,38.450,59.511,41.0,67.0
78202,0.312,-1.451,0.257,4.130,169.908,-12.557,50.0,63.0
78251,-0.312,-0.938,0.026,50.916,250.130,-97.702,79.0,55.0
