Timestamp(ms),AccelX(g),AccelY(g),AccelZ(g),GyroX(deg/s),GyroY(deg/s),GyroZ(deg/s),DistanceLeft(cm),DistanceRight(cm)
31770,-0.198,-0.439,0.853,-0.427,-6.458,0.916,28.0,65.0
31814,-0.156,-0.414,0.817,-0.557,1.603,4.504,29.0,96.0
31858,-0.326,-0.474,1.144,-8.427,-7.832,-1.916,28.0,92.0
31902,-0.042,-0.555,0.822,6.733,-5.931,2.000,27.0,88.0
31944,-0.179,-0.443,0.844,-1.382,8.298,1.954,27.0,70.0
31988,-0.255,-0.457,0.874,-0.725,5.351,4.489,29.0,88.0
32032,-0.177,-0.452,0.870,-0.435,-6.435,1.321,27.0,96.0
32080,-0.135,-0.459,0.864,-1.855,1.649,1.496,30.0,96.0
32124,-0.177,-0.464,0.878,1.351,2.397,1.489,27.0,96.0
32168,-0.206,-0.452,0.860,1.573,1.924,1.145,27.0,96.0
32212,-0.223,-0.427,0.862,-1.176,-0.832,0.786,27.0,95.0
32257,-0.214,-0.436,0.867,-3.519,-6.389,-1.710,30.0,95.0
32301,-0.168,-0.445,0.864,-4.969,-8.229,-3.389,28.0,97.0
32346,-0.147,-0.483,0.864,-2.359,-3.382,-3.427,27.0,97.0
32390,-0.145,-0.494,0.855,1.099,-0.366,-2.580,27.0,96.0
32434,-0.163,-0.472,0.858,4.725,6.771,0.053,28.0,97.0
32478,-0.188,-0.461,0.860,4.595,4.061,0.939,27.0,96.0
32520,-0.163,-0.445,0.854,5.244,4.802,-0.153,27.0,92.0
32564,-0.185,-0.446,0.874,4.916,5.679,0.634,29.0,92.0
32608,-0.194,-0.422,0.890,3.992,3.878,-1.015,27.0,93.0
32653,-0.191,-0.428,0.862,2.511,3.763,-0.656,27.0,100.0
32697,-0.203,-0.443,0.867,2.076,3.267,0.198,28.0,101.0
32742,-0.203,-0.447,0.863,0.405,1.038,0.733,27.0,98.0
32786,-0.190,-0.436,0.884,0.435,0.405,1.954,26.0,99.0
32830,-0.181,-0.447,0.871,0.244,1.733,1.656,27.0,98.0
32874,-0.196,-0.441,0.883,0.740,0.840,0.626,27.0,97.0
32922,-0.200,-0.438,0.858,1.344,2.420,-0.221,27.0,97.0
32966,-0.219,-0.453,0.868,1.099,1.115,-1.053,28.0,91.0
33010,-0.205,-0.442,0.865,1.893,2.656,0.710,28.0,89.0
33053,-0.226,-0.440,0.864,0.183,0.389,0.588,28.0,88.0
33097,-0.213,-0.432,0.862,-0.962,-2.351,-0.183,28.0,87.0
33141,-0.196,-0.443,0.861,-0.901,-1.542,-0.420,28.0,88.0
33185,-0.194,-0.436,0.879,0.389,-0.122,-0.137,28.0,87.0
33229,-0.201,-0.442,0.869,-0.389,-1.366,-1.405,29.0,87.0
33273,-0.203,-0.429,0.865,-0.901,-1.069,-1.389,27.0,87.0
33320,-0.188,-0.464,0.851,-0.076,-0.824,-0.252,27.0,89.0
33364,-0.208,-0.444,0.876,0.160,-0.008,2.641,27.0,90.0
33409,-0.215,-0.422,0.876,-2.817,-6.237,1.298,27.0,98.0
33454,-0.207,-0.405,0.885,-6.435,-8.435,-1.405,28.0,99.0
33499,-0.182,-0.442,0.882,-7.038,-10.885,-3.618,29.0,98.0
33543,-0.145,-0.465,0.840,-3.130,-6.481,-3.183,29.0,89.0
33587,-0.150,-0.500,0.844,0.794,0.099,-0.389,28.0,89.0
33630,-0.176,-0.469,0.857,2.916,3.191,1.435,28.0,70.0
33674,-0.179,-0.459,0.845,1.786,2.504,2.061,27.0,90.0
33721,-0.190,-0.438,0.878,-0.931,-1.504,1.229,28.0,90.0
33765,-0.169,-0.440,0.877,-1.969,-3.282,0.382,28.0,89.0
33808,-0.166,-0.443,0.861,-1.916,-3.412,-0.053,30.0,69.0
33853,-0.152,-0.473,0.839,0.748,0.817,0.412,30.0,95.0
33897,-0.170,-0.470,0.856,3.107,3.664,1.802,29.0,96.0
33940,-0.179,-0.449,0.868,2.573,3.855,1.802,28.0,68.0
34026,-0.165,-0.445,0.874,-1.878,-1.328,-0.710,27.0,69.0
34071,-0.175,-0.467,0.861,0.008,0.580,0.023,27.0,96.0
34115,-0.181,-0.454,0.860,1.382,2.053,1.076,27.0,96.0
34163,-0.178,-0.464,0.853,1.664,2.183,1.237,27.0,96.0
34206,-0.190,-0.456,0.864,1.458,1.794,1.374,27.0,68.0
34248,-0.182,-0.450,0.867,1.198,1.267,0.710,27.0,67.0
34291,-0.177,-0.450,0.875,1.046,0.542,-0.160,27.0,67.0
34334,-0.181,-0.439,0.861,1.458,1.931,-0.023,28.0,69.0
34379,-0.202,-0.447,0.872,1.107,1.588,0.145,29.0,88.0
34423,-0.191,-0.448,0.870,1.000,0.969,0.397,30.0,89.0
34467,-0.189,-0.445,0.873,0.427,1.496,1.046,30.0,89.0
34511,-0.198,-0.442,0.866,0.504,0.458,0.473,29.0,90.0
34560,-0.179,-0.449,0.869,0.420,1.382,0.183,29.0,90.0
34604,-0.198,-0.450,0.865,0.863,1.718,0.206,29.0,91.0
34648,-0.197,-0.443,0.856,0.573,0.588,0.244,28.0,90.0
34693,-0.199,-0.450,0.867,-0.282,-0.656,-0.153,28.0,90.0
34737,-0.191,-0.450,0.854,-0.473,-0.435,-0.504,28.0,90.0
34781,-0.199,-0.440,0.865,-0.153,0.168,0.473,29.0,91.0
34826,-0.195,-0.443,0.854,-0.290,-0.313,0.023,29.0,91.0
34870,-0.197,-0.440,0.879,-0.046,-0.214,-0.115,29.0,92.0
34915,-0.191,-0.447,0.859,-0.092,-0.649,-0.496,29.0,93.0
34962,-0.193,-0.450,0.864,-1.405,-1.130,-0.328,30.0,70.0
35006,-0.188,-0.454,0.863,-0.473,-0.443,-0.023,30.0,91.0
35051,-0.192,-0.448,0.876,-0.802,-1.237,-0.008,30.0,91.0
35095,-0.186,-0.460,0.863,-0.305,-0.679,-0.298,29.0,91.0
35140,-0.183,-0.448,0.869,0.397,0.695,0.267,29.0,91.0
35184,-0.189,-0.457,0.858,0.160,-0.748,-0.229,29.0,93.0
35229,-0.176,-0.453,0.865,0.351,1.115,-0.336,29.0,92.0
35274,-0.182,-0.454,0.860,2.855,2.947,0.573,30.0,93.0
35317,-0.192,-0.453,0.844,3.099,5.176,0.878,28.0,68.0
35363,-0.228,-0.447,0.868,2.122,3.786,1.817,28.0,68.0
35408,-0.225,-0.428,0.887,-0.107,-2.786,1.435,28.0,96.0
35453,-0.184,-0.446,0.863,-2.420,-3.206,-0.275,30.0,96.0
35499,-0.175,-0.453,0.849,-0.130,-0.664,-0.290,30.0,95.0
35543,-0.194,-0.444,0.875,1.160,1.046,-0.313,30.0,95.0
35587,-0.198,-0.450,0.857,0.885,1.023,-0.191,28.0,68.0
35630,-0.210,-0.452,0.860,0.061,-0.366,0.351,28.0,69.0
35673,-0.196,-0.450,0.862,-0.198,-0.992,0.305,28.0,68.0
35718,-0.194,-0.453,0.856,-0.298,-0.183,0.832,28.0,97.0
35766,-0.193,-0.441,0.876,0.489,-0.168,0.611,30.0,94.0
35811,-0.191,-0.443,0.861,0.649,0.412,0.084,30.0,95.0
35856,-0.202,-0.439,0.868,0.176,0.000,0.076,28.0,96.0
35899,-0.206,-0.442,0.857,-0.099,-0.504,-0.137,28.0,69.0
35943,-0.202,-0.447,0.866,-0.328,-1.229,-0.031,28.0,69.0
35986,-0.182,-0.442,0.863,-0.336,-0.481,0.351,28.0,68.0
36029,-0.195,-0.452,0.867,0.305,0.885,0.603,28.0,67.0
36073,-0.199,-0.448,0.865,0.725,0.382,0.420,28.0,69.0
36116,-0.191,-0.445,0.860,0.382,-0.198,0.015,28.0,67.0
36162,-0.195,-0.445,0.868,0.244,0.244,0.466,28.0,69.0
36206,-0.203,-0.445,0.869,0.153,-0.359,0.244,28.0,68.0
36292,-0.189,-0.448,0.854,0.656,0.901,0.832,28.0,69.0
36337,-0.199,-0.434,0.860,0.244,0.244,0.870,30.0,96.0
36382,-0.194,-0.437,0.877,-1.267,-2.305,-0.008,29.0,97.0
36427,-0.176,-0.447,0.862,-0.527,-1.305,-0.908,29.0,97.0
36471,-0.202,-0.450,0.861,1.595,2.550,0.168,30.0,69.0
36514,-0.209,-0.451,0.862,1.611,1.313,0.664,28.0,67.0
36558,-0.210,-0.441,0.885,-0.443,-0.809,1.229,28.0,68.0
36603,-0.186,-0.446,0.857,-0.740,-1.489,0.779,30.0,96.0
36652,-0.184,-0.455,0.865,1.122,1.695,0.710,29.0,99.0
36697,-0.219,-0.438,0.878,0.748,0.550,0.397,30.0,97.0
36742,-0.206,-0.425,0.868,-0.817,-2.504,-1.092,30.0,96.0
36786,-0.193,-0.451,0.855,-1.786,-2.313,-1.229,30.0,69.0
36830,-0.198,-0.461,0.857,-0.084,-0.893,0.015,28.0,69.0
36873,-0.187,-0.471,0.853,1.069,1.542,0.863,28.0,69.0
36917,-0.191,-0.460,0.851,2.580,2.947,2.443,28.0,68.0
36960,-0.208,-0.436,0.875,1.328,0.557,1.939,28.0,69.0
37005,-0.206,-0.428,0.887,-2.000,-3.206,-0.160,28.0,96.0
37054,-0.182,-0.446,0.861,-1.519,-3.176,-1.779,30.0,98.0
37099,-0.181,-0.468,0.859,2.076,3.107,-0.153,28.0,98.0
37144,-0.206,-0.452,0.862,3.634,4.504,1.748,28.0,98.0
37189,-0.217,-0.443,0.865,1.298,1.023,1.771,28.0,96.0
37235,-0.207,-0.430,0.882,-1.359,-3.137,0.519,28.0,98.0
37280,-0.183,-0.429,0.870,-2.527,-3.893,-0.832,28.0,96.0
37325,-0.176,-0.449,0.863,-0.382,-0.176,-0.931,28.0,96.0
37370,-0.199,-0.453,0.864,1.634,2.351,0.282,28.0,98.0
37422,-0.209,-0.444,0.861,1.588,1.092,0.802,28.0,96.0
37467,-0.198,-0.440,0.859,0.176,0.076,0.817,28.0,68.0
37511,-0.196,-0.446,0.861,0.053,-0.649,0.351,28.0,97.0
37555,-0.197,-0.435,0.866,-0.908,-0.832,0.069,28.0,96.0
37599,-0.195,-0.446,0.856,-0.672,-1.725,-0.458,28.0,97.0
37643,-0.204,-0.437,0.876,-0.275,-0.710,0.168,28.0,97.0
37686,-0.193,-0.452,0.861,-0.397,-1.244,-0.366,28.0,69.0
37729,-0.206,-0.450,0.872,-0.779,-1.298,-0.336,28.0,69.0
37773,-0.182,-0.458,0.850,0.687,0.710,0.069,28.0,97.0
37817,-0.181,-0.456,0.863,3.031,3.649,1.405,28.0,97.0
37864,-0.206,-0.433,0.873,1.901,2.649,0.725,28.0,97.0
37908,-0.208,-0.439,0.866,1.015,1.702,0.198,29.0,99.0
37953,-0.215,-0.437,0.861,0.137,-0.855,0.947,29.0,96.0
37997,-0.205,-0.432,0.870,-0.878,-1.947,0.534,29.0,96.0
38041,-0.196,-0.444,0.869,0.137,-0.641,0.282,28.0,96.0
38085,-0.190,-0.445,0.872,0.893,1.504,0.588,28.0,93.0
38129,-0.210,-0.438,0.871,0.962,2.084,0.756,29.0,89.0
38173,-0.207,-0.447,0.854,0.748,0.649,0.954,28.0,89.0
38216,-0.192,-0.442,0.864,0.756,0.763,0.038,28.0,88.0
38263,-0.209,-0.446,0.872,0.489,0.397,0.328,28.0,88.0
38307,-0.195,-0.452,0.846,1.458,1.794,0.863,28.0,89.0
38351,-0.218,-0.440,0.871,0.595,0.275,0.824,29.0,87.0
38394,-0.192,-0.434,0.863,0.427,-0.832,0.046,28.0,87.0
38438,-0.204,-0.434,0.875,-1.076,-1.069,0.489,28.0,87.0
38482,-0.207,-0.442,0.870,-1.061,-3.023,-0.992,28.0,87.0
38569,-0.212,-0.452,0.870,1.191,1.099,0.748,28.0,88.0
38614,-0.188,-0.444,0.856,1.580,1.588,1.214,28.0,87.0
38658,-0.200,-0.441,0.874,2.389,3.313,0.931,28.0,87.0
38704,-0.215,-0.434,0.871,2.008,2.542,0.527,29.0,87.0
38748,-0.228,-0.431,0.888,-0.443,-1.359,-0.237,29.0,87.0
38792,-0.193,-0.435,0.860,-0.176,-1.969,-0.687,30.0,87.0
38836,-0.204,-0.425,0.872,-0.672,-0.053,0.038,29.0,87.0
38880,-0.199,-0.445,0.848,0.427,0.275,-0.221,29.0,87.0
38924,-0.209,-0.448,0.873,0.389,0.779,1.191,29.0,88.0
38968,-0.192,-0.443,0.863,0.580,-1.313,0.641,28.0,88.0
39012,-0.191,-0.435,0.862,0.405,0.771,0.321,29.0,88.0
39056,-0.211,-0.451,0.873,0.405,0.603,-0.427,29.0,87.0
39103,-0.222,-0.427,0.882,-0.290,-1.191,1.031,29.0,87.0
39147,-0.209,-0.440,0.871,-0.794,-2.412,0.634,29.0,87.0
39191,-0.194,-0.436,0.870,-0.366,-1.595,0.405,29.0,87.0
39235,-0.189,-0.441,0.865,0.595,0.534,-0.603,29.0,88.0
39279,-0.207,-0.439,0.873,0.489,0.573,-0.649,29.0,88.0
39322,-0.211,-0.441,0.855,0.733,0.603,-0.107,28.0,87.0
39366,-0.218,-0.439,0.872,0.695,-0.008,0.366,29.0,87.0
39411,-0.204,-0.434,0.871,0.389,-0.160,0.382,30.0,88.0
39455,-0.208,-0.443,0.864,0.084,-0.565,0.290,30.0,88.0
39502,-0.190,-0.442,0.859,0.145,-0.496,0.237,29.0,87.0
39545,-0.206,-0.442,0.859,-0.137,0.130,0.305,28.0,88.0
39589,-0.219,-0.432,0.875,-0.420,-0.977,-0.008,27.0,88.0
39634,-0.197,-0.427,0.862,-0.527,-2.160,-0.313,30.0,88.0
39678,-0.188,-0.441,0.852,0.176,-0.168,-0.305,29.0,87.0
39723,-0.201,-0.433,0.868,0.183,0.412,0.260,29.0,87.0
39767,-0.209,-0.451,0.869,0.084,-0.275,0.275,28.0,87.0
39811,-0.207,-0.442,0.871,0.382,0.038,0.695,29.0,87.0
39855,-0.194,-0.443,0.868,0.924,1.214,0.786,28.0,89.0
39902,-0.202,-0.419,0.875,0.084,0.015,0.718,29.0,88.0
39946,-0.208,-0.425,0.872,-0.573,-1.237,-0.931,29.0,89.0
39990,-0.198,-0.447,0.854,0.634,0.786,-0.145,28.0,87.0
40034,-0.225,-0.441,0.865,0.573,0.328,0.718,28.0,87.0
40078,-0.204,-0.434,0.863,-0.008,-1.542,0.527,29.0,87.0
40123,-0.199,-0.443,0.860,-0.847,-1.137,-0.435,29.0,87.0
40167,-0.180,-0.439,0.847,1.046,1.198,0.130,28.0,87.0
40211,-0.226,-0.426,0.886,1.107,3.191,1.450,27.0,87.0
40255,-0.216,-0.442,0.871,-1.115,-3.679,-0.901,27.0,87.0
40299,-0.184,-0.448,0.873,0.115,-1.000,0.939,29.0,87.0
40346,-0.200,-0.448,0.875,2.008,-0.374,0.802,28.0,87.0
40390,-0.203,-0.427,0.866,1.145,0.603,-0.260,28.0,87.0
40434,-0.214,-0.435,0.866,0.298,0.252,0.191,28.0,87.0
40478,-0.213,-0.434,0.878,0.130,-1.046,0.336,28.0,87.0
40523,-0.199,-0.441,0.862,0.466,-1.382,0.863,29.0,87.0
40567,-0.196,-0.441,0.867,0.382,-0.939,0.687,29.0,87.0
40611,-0.197,-0.446,0.874,0.542,-0.374,0.580,29.0,88.0
40655,-0.205,-0.442,0.861,0.641,-0.389,0.443,28.0,89.0
40699,-0.194,-0.438,0.862,0.748,0.580,-0.160,27.0,88.0
40748,-0.190,-0.426,0.862,1.992,2.527,-0.069,28.0,91.0
40836,-0.218,-0.418,0.881,0.931,0.534,-0.191,29.0,100.0
40881,-0.205,-0.436,0.856,-1.061,-1.321,-0.145,29.0,100.0
40926,-0.211,-0.442,0.865,0.313,0.015,0.840,29.0,99.0
40970,-0.216,-0.434,0.872,-1.176,-2.038,0.473,28.0,91.0
41015,-0.181,-0.444,0.833,0.924,-0.015,-0.504,27.0,92.0
41060,-0.202,-0.452,0.874,1.885,3.847,2.183,28.0,100.0
41105,-0.205,-0.423,0.862,2.580,2.344,1.374,28.0,99.0
41150,-0.214,-0.414,0.871,1.924,3.542,1.374,28.0,99.0
41198,-0.227,-0.406,0.888,-0.359,-0.756,0.122,28.0,99.0
41243,-0.202,-0.434,0.850,-0.687,-1.626,-1.397,28.0,99.0
41288,-0.220,-0.436,0.865,-0.344,-0.489,0.359,28.0,98.0
41333,-0.204,-0.437,0.846,0.198,-1.015,0.313,28.0,99.0
41377,-0.204,-0.442,0.865,0.809,1.626,0.435,28.0,99.0
41422,-0.202,-0.431,0.865,1.664,2.183,0.229,28.0,99.0
41467,-0.206,-0.426,0.868,2.198,3.756,0.481,28.0,99.0
41513,-0.220,-0.414,0.872,2.405,2.641,1.130,28.0,117.0
41560,-0.240,-0.413,0.870,-0.679,-2.176,-0.504,28.0,118.0
41610,-0.230,-0.425,0.857,-2.275,-2.802,-0.618,28.0,118.0
41656,-0.223,-0.442,0.862,-2.153,-5.099,-0.733,28.0,119.0
41702,-0.199,-0.448,0.866,-1.076,-2.099,-0.122,30.0,119.0
41748,-0.190,-0.454,0.848,2.443,2.634,1.473,29.0,117.0
41797,-0.208,-0.419,0.878,3.779,6.511,1.489,30.0,164.0
41843,-0.237,-0.396,0.896,2.427,4.076,0.603,28.0,119.0
41892,-0.237,-0.409,0.886,-0.992,-1.641,-0.947,28.0,164.0
41939,-0.220,-0.429,0.852,-1.168,-0.710,0.191,29.0,133.0
41986,-0.219,-0.451,0.844,0.084,-1.550,0.702,28.0,118.0
42036,-0.216,-0.444,0.869,0.947,1.023,2.519,28.0,130.0
42082,-0.193,-0.430,0.851,3.786,3.611,1.618,29.0,118.0
42128,-0.234,-0.426,0.868,3.672,8.725,2.176,27.0,117.0
42174,-0.241,-0.403,0.869,4.389,4.863,0.802,27.0,117.0
42219,-0.263,-0.406,0.882,0.733,1.267,0.069,28.0,97.0
42264,-0.245,-0.408,0.877,-1.420,-5.687,-0.519,27.0,97.0
42311,-0.209,-0.420,0.865,-1.565,-3.710,0.397,27.0,131.0
42358,-0.216,-0.421,0.864,0.481,-0.023,-0.145,27.0,132.0
42405,-0.230,-0.423,0.877,1.710,4.038,0.924,29.0,130.0
42455,-0.245,-0.408,0.886,0.069,-0.015,-0.229,27.0,98.0
42503,-0.240,-0.407,0.867,-1.061,-0.565,-0.496,27.0,164.0
42550,-0.241,-0.425,0.872,-0.824,-1.290,0.466,28.0,131.0
42597,-0.227,-0.425,0.869,0.221,-1.198,0.595,29.0,117.0
42643,-0.222,-0.423,0.874,0.382,-0.023,0.359,29.0,118.0
42689,-0.238,-0.417,0.862,-0.389,0.420,-0.168,29.0,118.0
42735,-0.229,-0.416,0.876,-1.198,-1.336,-0.855,28.0,118.0
42782,-0.227,-0.418,0.863,-1.252,-1.191,-0.305,28.0,118.0
42827,-0.219,-0.421,0.869,-0.611,-1.031,-0.038,28.0,99.0
42876,-0.228,-0.421,0.875,-0.863,-0.901,-0.664,27.0,99.0
42923,-0.231,-0.424,0.870,-0.947,-1.649,-0.756,27.0,118.0
42969,-0.234,-0.433,0.871,-1.221,-2.931,-0.473,28.0,117.0
43016,-0.204,-0.424,0.859,-1.130,-1.260,-0.176,29.0,118.0
43062,-0.234,-0.425,0.868,-0.672,-1.252,0.069,29.0,116.0
43108,-0.221,-0.423,0.864,-1.947,-3.229,-0.321,28.0,117.0
43198,-0.210,-0.433,0.876,1.160,1.420,-0.267,28.0,118.0
43244,-0.212,-0.429,0.866,1.916,3.405,-0.046,30.0,116.0
43297,-0.235,-0.435,0.872,1.550,2.031,0.489,29.0,99.0
43341,-0.227,-0.431,0.874,0.244,-1.031,0.702,29.0,98.0
43386,-0.213,-0.425,0.860,-0.687,-0.908,-0.031,28.0,97.0
43430,-0.237,-0.419,0.882,-0.267,-0.550,-0.206,27.0,97.0
43474,-0.221,-0.428,0.883,-0.931,-2.695,-0.313,28.0,97.0
43518,-0.200,-0.431,0.866,0.550,-0.504,-0.061,30.0,97.0
43563,-0.216,-0.420,0.863,1.901,2.626,0.588,28.0,98.0
43608,-0.233,-0.413,0.875,0.099,0.183,-0.412,28.0,99.0
43652,-0.231,-0.438,0.885,-0.740,-0.870,-0.046,28.0,99.0
43699,-0.221,-0.442,0.883,-0.931,-2.382,0.336,27.0,97.0
43743,-0.208,-0.443,0.877,0.435,-0.328,0.382,27.0,98.0
43787,-0.216,-0.436,0.856,1.893,1.832,0.534,28.0,97.0
43833,-0.227,-0.432,0.882,0.840,-0.557,-0.718,28.0,118.0
43878,-0.219,-0.431,0.877,-0.817,-0.634,-0.786,28.0,116.0
43931,-0.215,-0.425,0.863,0.893,1.053,0.076,28.0,117.0
43975,-0.232,-0.426,0.865,0.153,1.336,0.977,28.0,97.0
44019,-0.221,-0.417,0.874,-0.023,-1.427,0.924,28.0,98.0
44063,-0.203,-0.435,0.865,-0.244,-1.153,0.076,28.0,96.0
44107,-0.213,-0.431,0.863,0.664,0.282,0.008,28.0,97.0
44154,-0.215,-0.427,0.854,0.450,0.153,-0.595,28.0,98.0
44198,-0.230,-0.430,0.866,0.298,0.664,0.008,28.0,99.0
44242,-0.224,-0.427,0.867,0.672,0.198,0.557,28.0,98.0
44288,-0.216,-0.432,0.865,1.336,1.282,1.229,28.0,99.0
44332,-0.219,-0.425,0.876,1.687,1.794,0.855,28.0,99.0
44376,-0.223,-0.429,0.875,0.939,1.382,-0.084,28.0,100.0
44421,-0.224,-0.422,0.878,0.336,-0.084,-0.458,29.0,116.0
44467,-0.215,-0.422,0.869,0.260,0.298,-0.046,30.0,117.0
44512,-0.239,-0.433,0.865,0.802,0.672,0.450,30.0,117.0
44561,-0.230,-0.422,0.867,0.557,0.771,0.504,30.0,117.0
44606,-0.218,-0.429,0.870,0.221,-0.069,0.145,30.0,117.0
44652,-0.224,-0.426,0.868,0.779,0.885,0.092,30.0,118.0
44697,-0.219,-0.421,0.862,0.824,0.420,0.099,28.0,117.0
44742,-0.235,-0.427,0.870,0.305,0.137,0.084,27.0,117.0
44788,-0.236,-0.409,0.885,-0.099,-0.466,0.573,28.0,116.0
44833,-0.219,-0.439,0.851,0.786,0.916,0.885,30.0,116.0
44878,-0.207,-0.427,0.866,1.710,5.450,2.389,30.0,98.0
44922,-0.254,-0.405,0.886,2.527,5.527,2.939,27.0,96.0
44969,-0.249,-0.400,0.895,-2.450,-6.473,-0.893,27.0,98.0
45015,-0.191,-0.426,0.855,-3.321,-4.779,-1.672,30.0,117.0
45061,-0.235,-0.441,0.863,-0.405,-1.145,0.595,30.0,116.0
45106,-0.233,-0.430,0.867,-1.588,-1.305,0.763,30.0,116.0
45152,-0.232,-0.441,0.865,-0.939,-1.336,1.206,28.0,116.0
45197,-0.237,-0.429,0.865,-1.000,-2.634,1.038,28.0,117.0
45243,-0.223,-0.422,0.874,-1.237,-3.740,0.321,27.0,117.0
45288,-0.209,-0.429,0.867,-1.298,-2.389,0.634,27.0,117.0
45334,-0.226,-0.428,0.881,-1.198,-2.924,0.420,27.0,116.0
45382,-0.205,-0.433,0.863,-1.305,-1.786,-0.359,27.0,117.0
45428,-0.225,-0.430,0.865,-1.489,-0.374,0.389,28.0,118.0
45515,-0.211,-0.439,0.867,-1.962,-1.046,0.389,29.0,97.0
45560,-0.223,-0.442,0.875,0.038,-2.786,0.344,29.0,98.0
45605,-0.193,-0.435,0.856,-0.901,-1.550,0.748,29.0,97.0
45649,-0.213,-0.444,0.863,0.260,-0.092,1.351,29.0,97.0
45693,-0.216,-0.432,0.871,0.847,-0.802,0.160,29.0,96.0
45739,-0.202,-0.429,0.856,0.130,0.420,0.053,29.0,96.0
45783,-0.218,-0.436,0.862,0.878,2.420,-0.015,28.0,97.0
45830,-0.220,-0.434,0.870,0.153,-0.840,0.008,28.0,95.0
45875,-0.203,-0.428,0.874,-1.076,-1.939,-0.198,28.0,97.0
45919,-0.200,-0.435,0.868,-1.160,-1.038,-0.008,29.0,96.0
45964,-0.209,-0.437,0.866,-0.626,-1.870,-0.015,29.0,95.0
46008,-0.201,-0.432,0.864,-0.588,-1.145,0.115,30.0,97.0
46053,-0.198,-0.442,0.862,0.145,0.015,0.412,30.0,95.0
46097,-0.210,-0.441,0.859,0.267,-0.504,0.542,30.0,95.0
46142,-0.216,-0.436,0.856,-0.626,-0.763,-0.015,30.0,96.0
46187,-0.203,-0.443,0.870,-0.244,-0.588,0.229,30.0,96.0
46234,-0.197,-0.436,0.868,0.145,-0.229,0.229,30.0,97.0
46279,-0.200,-0.446,0.872,0.740,1.366,0.031,30.0,98.0
46323,-0.209,-0.436,0.867,1.557,1.985,0.618,27.0,98.0
46368,-0.211,-0.429,0.874,0.908,0.420,0.626,27.0,96.0
46412,-0.211,-0.439,0.872,0.282,0.344,0.450,27.0,96.0
46457,-0.212,-0.442,0.854,0.908,-0.649,-0.740,27.0,96.0
46501,-0.219,-0.424,0.859,-1.252,0.458,-0.252,27.0,96.0
46546,-0.222,-0.442,0.870,-1.756,-2.275,0.145,27.0,95.0
46590,-0.183,-0.448,0.863,-0.786,-1.901,0.389,30.0,97.0
46639,-0.196,-0.445,0.867,2.237,4.008,1.855,30.0,96.0
46684,-0.229,-0.433,0.878,1.000,1.382,0.931,28.0,97.0
46728,-0.216,-0.424,0.863,0.183,-0.290,0.489,27.0,96.0
46773,-0.211,-0.434,0.871,-1.229,-1.924,0.244,27.0,96.0
46817,-0.202,-0.445,0.857,-1.679,-2.855,-0.008,27.0,96.0
46862,-0.202,-0.442,0.862,-0.870,-2.542,0.313,30.0,96.0
46907,-0.188,-0.448,0.861,0.863,1.206,0.382,30.0,96.0
46951,-0.206,-0.439,0.865,1.916,3.786,0.817,27.0,97.0
46996,-0.214,-0.446,0.861,2.145,2.458,0.786,27.0,96.0
47043,-0.210,-0.432,0.869,0.328,-0.573,0.672,27.0,96.0
47088,-0.204,-0.423,0.868,0.015,-0.198,0.282,27.0,95.0
47132,-0.206,-0.440,0.862,0.756,1.061,-0.443,27.0,96.0
47177,-0.221,-0.423,0.863,0.947,1.519,0.771,27.0,96.0
47222,-0.225,-0.428,0.876,0.397,-1.076,-0.069,27.0,97.0
47266,-0.205,-0.432,0.871,-1.344,-1.206,-0.275,27.0,96.0
47311,-0.216,-0.446,0.876,-0.595,-0.565,0.168,27.0,96.0
47356,-0.201,-0.433,0.856,0.160,-0.489,0.565,27.0,97.0
47400,-0.219,-0.437,0.872,-0.519,0.359,0.679,28.0,98.0
47449,-0.207,-0.434,0.870,-0.511,-2.756,-0.023,30.0,96.0
47494,-0.199,-0.439,0.861,-0.679,-0.756,0.504,30.0,96.0
47539,-0.205,-0.437,0.868,0.878,0.252,-0.435,30.0,98.0
47584,-0.215,-0.430,0.876,-1.687,-1.733,-0.244,29.0,98.0
47629,-0.207,-0.433,0.874,-1.817,-4.145,-0.649,29.0,97.0
47674,-0.198,-0.440,0.868,-1.794,-3.137,-0.069,30.0,98.0
47719,-0.188,-0.449,0.844,-0.237,-0.420,0.053,30.0,98.0
47807,-0.199,-0.446,0.849,0.924,-0.031,1.038,30.0,97.0
47852,-0.198,-0.444,0.861,0.939,1.198,0.786,30.0,97.0
47900,-0.182,-0.441,0.851,3.092,2.153,0.237,29.0,98.0
47945,-0.221,-0.429,0.880,2.153,3.145,1.344,28.0,98.0
47990,-0.215,-0.424,0.869,1.496,0.672,-0.290,27.0,97.0
48034,-0.212,-0.441,0.867,0.099,0.023,0.115,28.0,97.0
48079,-0.206,-0.425,0.880,0.298,-0.405,0.435,28.0,98.0
48124,-0.206,-0.430,0.858,-0.260,-0.397,0.420,27.0,97.0
48169,-0.220,-0.434,0.867,-1.679,-2.489,-0.137,27.0,98.0
48215,-0.195,-0.438,0.860,-1.618,-2.527,-0.221,29.0,98.0
48260,-0.203,-0.450,0.872,0.412,1.282,0.527,28.0,98.0
48308,-0.212,-0.441,0.867,0.634,1.435,0.771,27.0,98.0
48353,-0.208,-0.448,0.861,0.710,0.573,0.313,27.0,99.0
48398,-0.208,-0.440,0.878,0.771,1.137,0.328,27.0,98.0
48443,-0.206,-0.436,0.865,0.901,1.321,0.573,27.0,97.0
48488,-0.215,-0.430,0.872,-0.885,-1.580,0.191,27.0,98.0
48533,-0.197,-0.427,0.867,-0.634,-0.504,-0.053,27.0,97.0
48577,-0.193,-0.442,0.859,0.313,1.824,0.649,27.0,97.0
48622,-0.207,-0.450,0.856,1.351,2.397,0.718,27.0,98.0
48667,-0.230,-0.436,0.866,1.031,-0.397,0.718,27.0,97.0
48715,-0.214,-0.432,0.871,-0.168,-1.282,0.977,27.0,99.0
48761,-0.202,-0.436,0.876,-0.992,-0.924,-0.435,28.0,99.0
48806,-0.212,-0.435,0.868,0.328,0.336,0.344,27.0,96.0
48851,-0.212,-0.431,0.864,1.038,0.084,0.687,28.0,97.0
48897,-0.213,-0.436,0.874,-0.023,-0.313,-0.015,28.0,98.0
48942,-0.206,-0.435,0.859,0.183,0.115,0.137,28.0,97.0
48987,-0.221,-0.438,0.872,-0.328,0.107,0.481,27.0,99.0
49032,-0.215,-0.445,0.857,-0.405,-1.145,0.344,27.0,97.0
49077,-0.204,-0.443,0.862,0.718,0.328,0.542,27.0,99.0
49125,-0.211,-0.438,0.855,0.725,0.427,0.550,27.0,98.0
49170,-0.220,-0.436,0.864,-0.511,-0.656,0.069,27.0,98.0
49215,-0.213,-0.442,0.854,-0.733,-1.771,-0.160,28.0,97.0
49260,-0.215,-0.437,0.868,-0.527,-0.954,0.206,27.0,98.0
49305,-0.201,-0.430,0.869,-0.168,-0.771,0.023,27.0,99.0
49351,-0.199,-0.443,0.862,0.641,1.153,0.076,27.0,99.0
49396,-0.213,-0.450,0.869,1.534,1.496,0.092,27.0,99.0
49441,-0.218,-0.430,0.859,1.107,1.176,0.733,27.0,97.0
49486,-0.212,-0.449,0.864,0.336,-0.992,0.519,27.0,98.0
49531,-0.209,-0.429,0.866,0.313,0.664,0.351,28.0,98.0
49580,-0.204,-0.440,0.880,0.397,-0.718,-0.252,27.0,99.0
49626,-0.211,-0.438,0.873,0.374,0.824,0.702,28.0,99.0
49671,-0.211,-0.436,0.848,1.679,0.481,0.237,28.0,100.0
49716,-0.211,-0.444,0.858,0.962,2.023,0.779,28.0,99.0
49767,-0.224,-0.428,0.870,1.031,0.466,0.824,29.0,98.0
49811,-0.220,-0.417,0.861,-1.206,-1.802,0.130,29.0,97.0
49855,-0.212,-0.441,0.866,-0.672,-0.779,-0.786,28.0,98.0
49900,-0.204,-0.432,0.867,1.321,1.168,0.664,29.0,99.0
49944,-0.227,-0.432,0.872,0.863,1.282,0.366,29.0,97.0
49991,-0.213,-0.430,0.869,0.321,0.359,-0.076,28.0,97.0
50035,-0.228,-0.443,0.863,-1.046,-0.809,-0.099,29.0,99.0
50122,-0.205,-0.447,0.866,0.397,0.985,0.374,27.0,98.0
50167,-0.218,-0.424,0.870,0.672,0.221,0.885,28.0,97.0
50211,-0.218,-0.434,0.866,-0.863,-2.641,-0.855,28.0,98.0
50255,-0.210,-0.434,0.862,-1.252,-1.481,0.084,29.0,98.0
50300,-0.205,-0.448,0.864,1.588,1.443,0.672,29.0,98.0
50344,-0.216,-0.435,0.866,1.557,3.053,1.382,29.0,98.0
50388,-0.229,-0.431,0.865,0.664,-0.031,0.237,30.0,99.0
50436,-0.204,-0.437,0.867,0.145,-0.435,0.145,30.0,98.0
50483,-0.209,-0.445,0.867,0.740,-0.611,-0.389,29.0,133.0
50527,-0.212,-0.426,0.864,0.229,0.718,0.145,30.0,87.0
50573,-0.222,-0.436,0.857,-0.214,-0.252,-0.023,27.0,132.0
50619,-0.220,-0.436,0.871,0.046,-0.366,0.282,27.0,131.0
50665,-0.209,-0.438,0.866,-0.145,-0.267,0.443,29.0,130.0
50710,-0.205,-0.439,0.860,0.580,0.305,0.229,29.0,99.0
50756,-0.217,-0.435,0.870,-0.137,0.191,0.351,30.0,131.0
50801,-0.221,-0.429,0.870,-0.573,-1.725,-0.038,30.0,117.0
50850,-0.198,-0.432,0.863,-0.206,-0.374,0.168,29.0,119.0
50896,-0.210,-0.434,0.872,1.527,1.992,1.107,30.0,131.0
50942,-0.212,-0.438,0.852,1.687,2.221,0.008,27.0,118.0
50989,-0.241,-0.423,0.875,0.191,0.053,0.611,27.0,130.0
51035,-0.208,-0.437,0.865,-0.313,-1.863,0.557,30.0,130.0
51081,-0.213,-0.443,0.880,0.420,-0.084,0.771,29.0,130.0
51128,-0.216,-0.420,0.874,0.580,-0.046,0.023,30.0,130.0
51174,-0.220,-0.428,0.862,0.397,0.595,0.290,27.0,131.0
51220,-0.225,-0.438,0.880,0.153,-2.305,0.504,30.0,129.0
51268,-0.200,-0.428,0.864,-0.275,0.344,0.733,29.0,118.0
51315,-0.219,-0.441,0.871,0.405,1.000,0.351,30.0,130.0
51361,-0.208,-0.420,0.862,0.420,0.252,-0.290,30.0,129.0
51407,-0.224,-0.434,0.879,-0.115,-0.954,0.160,30.0,129.0
51454,-0.199,-0.433,0.853,0.763,1.015,0.061,30.0,129.0
51501,-0.231,-0.430,0.876,0.450,1.115,0.763,30.0,131.0
51547,-0.213,-0.425,0.871,-0.267,-1.969,-0.046,30.0,130.0
51593,-0.235,-0.427,0.888,-1.076,-0.435,1.015,29.0,117.0
51640,-0.212,-0.431,0.857,0.115,-1.634,-0.176,30.0,129.0
51688,-0.212,-0.436,0.873,0.733,1.298,0.466,29.0,118.0
51735,-0.213,-0.430,0.870,1.069,0.687,0.649,30.0,131.0
51781,-0.214,-0.435,0.863,0.115,-0.038,0.122,30.0,130.0
51827,-0.210,-0.430,0.872,0.351,-0.351,0.382,29.0,117.0
51872,-0.211,-0.426,0.866,0.137,-0.176,-0.336,29.0,117.0
51918,-0.223,-0.433,0.874,-0.160,0.092,-0.176,29.0,118.0
51964,-0.214,-0.421,0.874,0.344,-0.183,0.527,29.0,118.0
52011,-0.224,-0.438,0.870,-0.893,-1.947,-0.176,28.0,131.0
52057,-0.215,-0.433,0.862,-0.916,-1.122,0.588,29.0,118.0
52106,-0.209,-0.442,0.873,-0.046,-1.656,-0.038,29.0,119.0
52153,-0.194,-0.437,0.863,0.443,0.374,0.366,28.0,130.0
52198,-0.208,-0.430,0.862,1.534,1.618,0.382,29.0,120.0
52244,-0.232,-0.430,0.867,0.954,1.290,0.244,29.0,119.0
52290,-0.217,-0.429,0.864,-0.275,-1.481,-0.076,29.0,119.0
52336,-0.203,-0.433,0.869,-0.321,-0.466,0.260,29.0,120.0
52382,-0.231,-0.433,0.883,-0.076,-0.305,0.244,29.0,119.0
52471,-0.216,-0.438,0.865,0.321,0.389,0.305,29.0,119.0
52518,-0.220,-0.432,0.875,0.198,-0.305,0.069,29.0,131.0
52567,-0.203,-0.435,0.858,0.702,0.382,0.053,29.0,118.0
52614,-0.228,-0.429,0.880,-0.229,0.748,0.863,29.0,129.0
52661,-0.211,-0.432,0.861,0.366,-2.351,-0.191,29.0,131.0
52707,-0.203,-0.431,0.858,0.855,1.870,0.588,29.0,120.0
52753,-0.225,-0.430,0.872,1.542,2.298,-0.298,30.0,130.0
52800,-0.239,-0.420,0.874,-2.069,-2.557,-0.748,30.0,130.0
52846,-0.224,-0.429,0.868,-4.015,-8.046,-1.481,29.0,132.0
52893,-0.187,-0.457,0.863,-2.519,-5.588,-0.664,28.0,130.0
52940,-0.197,-0.445,0.863,-0.145,-2.153,-1.038,27.0,131.0
52989,-0.210,-0.434,0.871,-1.924,-4.878,-1.336,27.0,131.0
53037,-0.186,-0.438,0.850,-0.901,-0.985,-1.221,28.0,131.0
53083,-0.196,-0.446,0.869,0.687,0.962,-0.443,28.0,120.0
53130,-0.176,-0.446,0.849,4.107,5.679,0.565,27.0,130.0
53176,-0.204,-0.446,0.873,4.756,7.336,2.473,27.0,132.0
53223,-0.211,-0.421,0.877,0.924,0.107,1.710,27.0,130.0
53269,-0.214,-0.431,0.864,-2.137,-4.603,0.198,27.0,131.0
53316,-0.187,-0.438,0.859,-1.366,-1.847,-0.374,28.0,131.0
53366,-0.211,-0.425,0.865,-0.092,-0.802,-0.565,27.0,130.0
53412,-0.202,-0.445,0.859,0.824,1.489,0.366,27.0,130.0
53459,-0.213,-0.438,0.865,0.885,0.695,0.626,28.0,130.0
53507,-0.199,-0.426,0.870,0.366,1.206,-0.008,28.0,130.0
53553,-0.200,-0.430,0.870,0.618,-0.160,0.107,28.0,131.0
53600,-0.182,-0.440,0.865,0.786,1.366,0.099,28.0,130.0
53646,-0.218,-0.431,0.873,1.267,1.595,0.977,28.0,130.0
53693,-0.223,-0.424,0.871,-1.366,-1.878,0.382,29.0,129.0
53740,-0.204,-0.427,0.861,-2.115,-3.008,-0.053,28.0,131.0
53790,-0.188,-0.450,0.863,0.489,0.267,0.015,28.0,129.0
53836,-0.198,-0.437,0.861,2.351,2.939,0.969,28.0,131.0
53883,-0.213,-0.434,0.869,0.969,1.504,0.534,29.0,129.0
53931,-0.215,-0.429,0.861,-0.855,-1.282,-0.359,29.0,129.0
53978,-0.201,-0.427,0.875,0.542,-0.916,0.214,27.0,130.0
54024,-0.196,-0.428,0.870,0.427,1.672,0.641,28.0,130.0
54071,-0.227,-0.424,0.885,0.534,0.397,0.542,29.0,129.0
54118,-0.203,-0.429,0.864,-1.046,-1.763,0.473,28.0,131.0
54165,-0.199,-0.439,0.868,-0.443,-1.389,-0.244,28.0,130.0
54215,-0.199,-0.433,0.860,0.817,1.702,0.481,29.0,131.0
54261,-0.220,-0.444,0.860,0.015,0.137,0.504,30.0,131.0
54308,-0.210,-0.433,0.876,-0.336,-1.092,0.962,29.0,130.0
54355,-0.199,-0.432,0.866,-0.038,-1.824,0.656,28.0,132.0
54403,-0.198,-0.433,0.866,0.031,0.321,0.076,29.0,131.0
54450,-0.211,-0.443,0.880,1.168,1.145,-0.069,30.0,130.0
54497,-0.212,-0.436,0.869,0.611,0.374,0.656,30.0,130.0
54544,-0.201,-0.426,0.874,-0.046,-0.099,0.137,30.0,131.0
54591,-0.209,-0.435,0.874,0.168,-0.130,0.031,30.0,130.0
54641,-0.208,-0.433,0.867,0.603,-0.061,0.313,30.0,130.0
54688,-0.206,-0.432,0.868,0.450,0.137,0.611,30.0,131.0
54735,-0.202,-0.438,0.859,0.038,0.000,-0.298,30.0,130.0
54782,-0.208,-0.436,0.864,0.634,1.115,0.931,30.0,131.0
54872,-0.193,-0.434,0.861,0.046,0.374,0.580,30.0,129.0
54920,-0.211,-0.431,0.859,0.740,0.137,0.702,29.0,131.0
54966,-0.209,-0.431,0.859,-0.267,-0.374,0.863,29.0,130.0
55014,-0.202,-0.438,0.872,-0.008,-0.924,0.053,29.0,131.0
55061,-0.201,-0.442,0.861,1.038,1.473,0.359,29.0,131.0
55111,-0.224,-0.427,0.878,1.038,0.725,0.168,30.0,130.0
55158,-0.219,-0.435,0.870,-1.183,-1.870,-0.260,30.0,129.0
55205,-0.197,-0.440,0.864,0.115,-0.435,0.481,29.0,131.0
55252,-0.208,-0.429,0.859,0.672,0.718,0.496,30.0,129.0
55300,-0.209,-0.438,0.871,0.176,0.122,0.458,30.0,131.0
55347,-0.199,-0.427,0.864,0.122,-1.038,0.237,29.0,130.0
55394,-0.204,-0.436,0.866,0.427,0.718,0.053,30.0,131.0
55441,-0.213,-0.437,0.872,0.137,-0.573,0.397,30.0,131.0
55488,-0.213,-0.437,0.876,-0.092,-0.160,0.214,30.0,131.0
55538,-0.219,-0.432,0.882,-0.603,-1.160,0.275,30.0,130.0
55585,-0.185,-0.443,0.857,-0.122,-0.527,0.229,29.0,130.0
55632,-0.208,-0.432,0.871,1.000,1.282,1.481,29.0,129.0
55680,-0.204,-0.430,0.870,0.985,0.916,-0.122,30.0,130.0
55727,-0.220,-0.440,0.865,-0.145,0.420,0.153,30.0,129.0
55774,-0.209,-0.430,0.870,-0.466,-1.160,0.069,30.0,131.0
55827,-0.198,-0.441,0.863,0.786,-0.710,0.450,29.0,130.0
55873,-0.200,-0.433,0.857,0.679,1.679,0.656,30.0,129.0
55919,-0.220,-0.431,0.873,0.099,-0.275,0.053,28.0,129.0
55968,-0.211,-0.433,0.873,-1.191,-1.595,-0.092,30.0,129.0
56014,-0.194,-0.437,0.865,0.107,-1.496,0.481,30.0,129.0
56060,-0.196,-0.434,0.865,1.359,2.435,0.664,30.0,131.0
56107,-0.227,-0.428,0.865,-0.031,-0.649,0.595,30.0,129.0
56154,-0.199,-0.431,0.870,-1.176,-1.618,0.160,30.0,130.0
56200,-0.196,-0.438,0.872,0.115,-0.290,-0.260,30.0,130.0
56246,-0.203,-0.432,0.866,0.985,1.389,0.626,30.0,130.0
56292,-0.209,-0.435,0.860,1.008,0.473,0.405,30.0,130.0
56338,-0.197,-0.435,0.868,0.573,1.008,0.626,30.0,129.0
56387,-0.216,-0.428,0.879,0.573,0.130,0.550,30.0,129.0
56433,-0.204,-0.423,0.875,-0.427,-1.221,-0.023,30.0,130.0
56479,-0.206,-0.437,0.869,0.229,0.229,0.122,30.0,129.0
56525,-0.217,-0.430,0.868,0.229,-0.542,0.214,30.0,130.0
56571,-0.213,-0.432,0.868,-0.908,-1.863,-0.038,30.0,129.0
56619,-0.196,-0.437,0.858,0.084,-0.282,0.290,30.0,130.0
56665,-0.209,-0.428,0.873,0.557,0.779,0.748,30.0,129.0
56711,-0.215,-0.432,0.871,0.221,-0.176,-0.198,30.0,131.0
56757,-0.208,-0.423,0.863,-0.405,-0.557,0.626,30.0,130.0
56806,-0.196,-0.427,0.881,-0.588,-1.649,-0.008,30.0,130.0
56853,-0.207,-0.439,0.873,0.046,0.282,0.069,30.0,130.0
56899,-0.204,-0.435,0.871,0.374,0.336,0.412,28.0,131.0
56945,-0.216,-0.440,0.871,0.137,-0.267,-0.069,30.0,130.0
56991,-0.211,-0.429,0.865,-0.550,-1.366,0.115,28.0,118.0
57036,-0.198,-0.436,0.858,0.206,0.351,0.580,28.0,118.0
57082,-0.218,-0.431,0.878,0.053,-0.069,0.122,28.0,118.0
57127,-0.201,-0.444,0.858,0.076,-0.496,-0.084,28.0,117.0
57174,-0.199,-0.433,0.876,0.275,0.160,0.977,28.0,118.0
57265,-0.220,-0.425,0.879,-0.107,-0.092,0.588,28.0,118.0
57311,-0.200,-0.435,0.865,-0.038,-1.076,-0.443,27.0,118.0
57356,-0.211,-0.437,0.864,-0.427,-0.015,0.198,27.0,118.0
57402,-0.203,-0.434,0.867,0.832,0.145,0.611,27.0,119.0
57448,-0.197,-0.435,0.871,1.237,1.031,0.664,27.0,119.0
57493,-0.218,-0.435,0.873,0.649,0.115,0.252,27.0,118.0
57539,-0.214,-0.430,0.871,-1.000,-1.053,0.076,27.0,130.0
57586,-0.200,-0.437,0.868,-0.008,-0.420,-0.160,28.0,130.0
57631,-0.202,-0.443,0.865,0.702,0.695,0.435,28.0,119.0
57680,-0.206,-0.429,0.870,1.153,1.351,0.718,28.0,117.0
57725,-0.217,-0.427,0.876,0.420,-0.397,0.145,28.0,118.0
57772,-0.204,-0.429,0.863,-0.664,-1.275,-0.206,28.0,119.0
57818,-0.199,-0.433,0.852,0.412,0.053,0.290,28.0,118.0
57864,-0.217,-0.432,0.865,-0.221,-0.916,0.145,27.0,130.0
57910,-0.208,-0.434,0.876,0.733,0.618,0.458,27.0,130.0
57956,-0.210,-0.431,0.873,0.702,1.435,0.489,28.0,130.0
58003,-0.209,-0.433,0.878,-0.160,-0.725,0.718,28.0,130.0
58049,-0.201,-0.439,0.870,0.130,-0.397,0.145,28.0,119.0
58097,-0.215,-0.442,0.863,0.748,1.115,0.420,28.0,118.0
58143,-0.213,-0.424,0.871,0.344,-0.809,0.389,27.0,118.0
58189,-0.214,-0.437,0.867,-1.084,-1.542,-0.053,27.0,130.0
58235,-0.192,-0.437,0.857,0.389,0.092,0.015,28.0,118.0
58281,-0.214,-0.436,0.877,0.641,0.840,0.015,28.0,118.0
58327,-0.194,-0.433,0.866,1.542,1.992,-0.229,28.0,118.0
58374,-0.212,-0.443,0.862,2.298,2.985,0.405,28.0,129.0
58420,-0.225,-0.426,0.868,1.519,1.366,0.298,29.0,130.0
58467,-0.219,-0.430,0.860,0.168,0.000,0.656,29.0,130.0
58525,-0.219,-0.422,0.875,-0.527,-1.214,0.641,28.0,131.0
58574,-0.191,-0.426,0.865,0.038,-0.992,0.160,28.0,129.0
58622,-0.197,-0.438,0.868,1.916,2.374,-0.176,28.0,130.0
58672,-0.219,-0.426,0.873,1.649,2.198,0.092,29.0,131.0
58721,-0.228,-0.423,0.862,0.397,-0.015,-0.168,29.0,129.0
58770,-0.222,-0.428,0.880,-0.214,-0.710,0.718,28.0,129.0
58819,-0.206,-0.423,0.876,0.206,0.038,0.481,28.0,129.0
58867,-0.210,-0.434,0.866,0.725,0.962,0.420,29.0,129.0
58916,-0.221,-0.416,0.870,0.809,1.198,0.473,29.0,131.0
58969,-0.223,-0.424,0.869,0.427,-0.099,0.351,29.0,129.0
59018,-0.223,-0.423,0.866,-0.534,-0.695,0.359,29.0,129.0
59067,-0.217,-0.428,0.866,-0.389,-0.328,0.618,29.0,129.0
59116,-0.220,-0.429,0.867,-0.855,-0.817,0.351,28.0,131.0
59165,-0.218,-0.437,0.873,-0.038,-0.191,0.519,28.0,129.0
59214,-0.214,-0.428,0.867,0.198,-0.267,0.198,28.0,130.0
59264,-0.207,-0.430,0.867,0.420,0.977,-0.031,28.0,131.0
59313,-0.222,-0.427,0.865,0.595,0.252,-0.046,28.0,131.0
59361,-0.224,-0.422,0.868,0.206,-0.649,0.206,28.0,131.0
59414,-0.225,-0.425,0.878,-0.344,-0.092,0.679,29.0,131.0
59462,-0.241,-0.427,0.885,-2.931,-4.275,-0.786,29.0,129.0
59512,-0.215,-0.438,0.879,-2.809,-6.443,-1.298,28.0,131.0
59560,-0.177,-0.447,0.838,0.855,0.603,-0.191,28.0,120.0
59610,-0.231,-0.442,0.874,2.641,3.618,1.794,28.0,130.0
