Timestamp(ms),AccelX(g),AccelY(g),AccelZ(g),GyroX(deg/s),GyroY(deg/s),GyroZ(deg/s),DistanceLeft(cm),DistanceRight(cm)
39587,-0.282,-0.364,0.864,-0.580,-3.191,3.969,38.0,35.0
39629,-0.281,-0.356,0.866,0.023,-1.000,3.840,38.0,35.0
39670,-0.305,-0.345,0.883,0.664,-0.031,3.160,38.0,35.0
39711,-0.312,-0.346,0.893,-0.595,-2.290,2.481,38.0,35.0
39753,-0.300,-0.357,0.876,-0.412,-2.229,2.794,38.0,35.0
39794,-0.292,-0.356,0.875,0.145,-0.977,2.962,38.0,35.0
39835,-0.303,-0.355,0.868,-0.458,-1.313,2.977,39.0,35.0
39880,-0.306,-0.365,0.876,-0.641,-2.229,2.817,39.0,35.0
39921,-0.302,-0.368,0.864,-0.725,-2.443,3.534,39.0,35.0
39962,-0.297,-0.361,0.874,-0.473,-2.954,3.756,38.0,35.0
40004,-0.290,-0.351,0.875,-0.122,-1.580,3.382,39.0,35.0
40045,-0.308,-0.357,0.879,-0.191,-1.137,3.145,39.0,35.0
40087,-0.306,-0.353,0.881,-0.481,-2.305,3.015,39.0,35.0
40128,-0.290,-0.359,0.869,-0.389,-2.061,2.824,39.0,35.0
40169,-0.302,-0.352,0.872,-0.031,-1.260,2.595,39.0,35.0
40211,-0.298,-0.355,0.862,0.634,-0.084,2.779,39.0,35.0
40255,-0.325,-0.362,0.879,-0.863,-2.069,2.832,39.0,35.0
40296,-0.297,-0.352,0.875,-0.908,-3.542,3.038,39.0,35.0
40338,-0.290,-0.367,0.862,0.015,-1.130,3.458,39.0,35.0
40379,-0.304,-0.355,0.877,0.229,0.214,3.847,39.0,35.0
40421,-0.327,-0.352,0.884,-1.397,-3.489,3.008,39.0,35.0
40462,-0.286,-0.362,0.857,-1.756,-4.466,2.672,38.0,35.0
40504,-0.285,-0.362,0.886,-0.511,-2.252,3.458,38.0,35.0
40545,-0.292,-0.357,0.866,0.588,-0.832,2.832,39.0,35.0
40587,-0.320,-0.347,0.887,-0.260,0.053,2.992,39.0,35.0
40628,-0.300,-0.352,0.873,0.031,-3.099,2.519,39.0,35.0
40673,-0.292,-0.367,0.861,0.198,-1.130,3.145,39.0,35.0
40714,-0.301,-0.350,0.876,0.092,-1.115,3.931,39.0,35.0
40756,-0.298,-0.356,0.876,-0.397,-1.901,2.710,39.0,35.0
40797,-0.300,-0.346,0.873,-0.298,-0.863,3.092,39.0,35.0
40839,-0.315,-0.358,0.872,-0.992,-3.092,2.893,37.0,35.0
40880,-0.293,-0.351,0.865,-0.053,-1.878,3.336,37.0,35.0
40922,-0.301,-0.361,0.877,0.756,-0.893,3.328,37.0,35.0
40963,-0.308,-0.357,0.875,0.969,0.992,3.489,37.0,35.0
41004,-0.325,-0.354,0.889,-0.962,-2.527,3.511,37.0,35.0
41049,-0.282,-0.352,0.859,-0.550,-4.397,3.939,38.0,35.0
41090,-0.295,-0.348,0.885,0.840,0.733,3.382,37.0,35.0
41132,-0.307,-0.327,0.868,-0.053,0.160,2.305,36.0,35.0
41172,-0.311,-0.366,0.865,-0.702,-2.237,1.969,37.0,35.0
41214,-0.298,-0.369,0.856,0.672,-1.031,3.672,37.0,35.0
41255,-0.320,-0.360,0.872,0.649,-0.832,4.153,37.0,35.0
41297,-0.310,-0.341,0.878,-0.733,-2.328,3.496,37.0,35.0
41338,-0.294,-0.358,0.865,-0.198,-2.366,3.328,37.0,35.0
41380,-0.308,-0.332,0.880,0.603,-0.244,4.282,37.0,35.0
41424,-0.311,-0.317,0.878,-0.275,-1.237,2.725,37.0,35.0
41466,-0.312,-0.346,0.879,-1.366,-3.351,2.183,37.0,35.0
41507,-0.296,-0.356,0.860,-1.000,-3.076,2.527,37.0,35.0
41549,-0.307,-0.364,0.867,-0.107,-0.695,3.023,37.0,35.0
41591,-0.315,-0.354,0.868,-0.359,-1.427,3.221,37.0,35.0
41632,-0.314,-0.361,0.863,-0.687,-1.916,3.672,37.0,35.0
41717,-0.300,-0.347,0.861,0.740,-0.176,3.809,40.0,35.0
41764,-0.320,-0.341,0.895,-0.565,-1.885,4.229,142.0,35.0
41806,-0.304,-0.342,0.874,-2.275,-5.168,2.221,39.0,35.0
41851,-0.305,-0.350,0.886,-2.458,-5.061,2.130,39.0,35.0
41893,-0.284,-0.363,0.860,-0.038,-1.282,2.290,40.0,35.0
41940,-0.316,-0.367,0.879,0.779,0.443,3.573,141.0,35.0
41988,-0.305,-0.367,0.864,0.130,-0.977,4.198,141.0,35.0
42030,-0.312,-0.347,0.884,-0.450,-2.924,3.962,39.0,35.0
42072,-0.286,-0.342,0.857,-0.527,-1.313,2.183,39.0,35.0
42120,-0.311,-0.346,0.873,-0.397,-1.336,2.969,140.0,35.0
42167,-0.299,-0.353,0.872,-0.115,-2.160,3.527,141.0,35.0
42209,-0.307,-0.350,0.885,-0.328,-1.985,2.649,40.0,35.0
42260,-0.305,-0.358,0.867,-0.298,-0.206,3.298,141.0,35.0
42301,-0.331,-0.342,0.886,-0.573,-2.626,3.206,38.0,35.0
42343,-0.300,-0.364,0.864,-0.893,-3.000,2.427,37.0,35.0
42385,-0.297,-0.352,0.871,0.389,-0.786,3.634,37.0,35.0
42427,-0.307,-0.355,0.874,-0.130,-1.015,3.008,37.0,35.0
42468,-0.320,-0.343,0.869,-0.076,0.084,3.649,38.0,35.0
42510,-0.321,-0.351,0.871,-1.053,-3.756,2.504,38.0,35.0
42552,-0.287,-0.357,0.857,0.702,-0.885,3.649,38.0,35.0
42594,-0.327,-0.341,0.883,-0.237,0.160,3.481,38.0,35.0
42638,-0.323,-0.329,0.888,-1.298,-3.382,2.840,38.0,35.0
42680,-0.307,-0.357,0.864,-2.511,-6.137,1.702,37.0,35.0
42722,-0.276,-0.360,0.853,-0.427,-1.427,2.260,37.0,35.0
42764,-0.316,-0.373,0.875,0.893,1.321,3.115,38.0,35.0
42806,-0.334,-0.356,0.879,0.053,-1.206,3.947,38.0,35.0
42848,-0.314,-0.357,0.864,-0.519,-3.603,4.008,38.0,35.0
42895,-0.297,-0.338,0.866,-1.450,-3.305,3.947,141.0,35.0
42943,-0.298,-0.352,0.865,-0.290,-1.443,2.618,140.0,35.0
42991,-0.309,-0.344,0.892,0.809,-0.733,3.122,141.0,35.0
43041,-0.306,-0.354,0.875,0.382,-0.855,2.695,141.0,35.0
43089,-0.309,-0.362,0.862,0.084,-0.748,2.496,141.0,35.0
43138,-0.336,-0.345,0.881,-0.962,-2.046,3.618,141.0,35.0
43180,-0.321,-0.350,0.874,-3.763,-7.198,3.122,38.0,35.0
43222,-0.300,-0.357,0.861,-3.137,-6.321,3.290,37.0,35.0
43264,-0.291,-0.355,0.867,-2.107,-4.351,2.939,37.0,34.0
43305,-0.291,-0.354,0.875,-1.542,-2.053,2.649,37.0,34.0
43347,-0.310,-0.352,0.867,-1.260,-1.901,2.634,37.0,34.0
43389,-0.306,-0.361,0.859,-1.458,-2.802,2.527,38.0,34.0
43435,-0.291,-0.365,0.862,0.427,-1.557,3.008,38.0,34.0
43476,-0.292,-0.366,0.870,1.824,1.336,4.176,38.0,35.0
43518,-0.308,-0.359,0.860,1.840,1.786,3.718,38.0,35.0
43560,-0.318,-0.352,0.872,0.130,-1.290,3.046,37.0,35.0
43602,-0.298,-0.355,0.865,-1.092,-2.863,3.176,37.0,35.0
43644,-0.297,-0.354,0.875,-0.939,-3.466,2.595,37.0,35.0
43686,-0.302,-0.357,0.869,0.794,0.275,2.863,37.0,35.0
43728,-0.315,-0.346,0.872,0.267,-1.282,3.351,38.0,35.0
43770,-0.309,-0.359,0.863,-0.366,-2.710,3.702,38.0,35.0
43815,-0.299,-0.344,0.870,-0.176,-1.519,3.458,37.0,35.0
43857,-0.312,-0.349,0.876,-0.634,-1.244,2.763,37.0,35.0
43942,-0.303,-0.357,0.854,0.000,-1.374,3.290,38.0,35.0
43984,-0.307,-0.352,0.871,0.275,-0.595,3.756,38.0,35.0
44026,-0.320,-0.351,0.877,-0.847,-2.092,3.542,38.0,35.0
44068,-0.305,-0.353,0.870,-1.702,-4.595,3.336,37.0,35.0
44111,-0.290,-0.353,0.866,-0.855,-3.160,3.305,37.0,35.0
44153,-0.308,-0.355,0.885,-0.489,-1.298,3.565,37.0,35.0
44195,-0.313,-0.349,0.883,-1.130,-2.519,2.679,37.0,35.0
44240,-0.313,-0.353,0.870,-1.534,-3.672,3.275,37.0,35.0
44282,-0.304,-0.359,0.871,-1.626,-4.275,2.794,37.0,35.0
44324,-0.284,-0.356,0.867,-1.084,-2.244,3.198,37.0,35.0
44367,-0.309,-0.355,0.862,-0.779,-2.061,3.450,39.0,36.0
44409,-0.303,-0.356,0.872,-1.092,-2.740,3.221,39.0,36.0
44451,-0.297,-0.359,0.866,-0.267,-1.824,3.038,39.0,35.0
44494,-0.296,-0.357,0.872,-0.344,-1.382,2.748,39.0,35.0
44536,-0.292,-0.371,0.865,1.145,-0.947,3.359,37.0,35.0
44578,-0.311,-0.355,0.870,1.832,1.809,4.878,37.0,35.0
44623,-0.338,-0.325,0.902,-0.824,-2.977,3.260,37.0,35.0
44666,-0.307,-0.340,0.890,-2.588,-5.053,1.450,39.0,36.0
44708,-0.270,-0.371,0.848,-0.099,-1.466,2.863,39.0,35.0
44750,-0.312,-0.373,0.871,1.191,0.947,3.672,37.0,35.0
44793,-0.315,-0.344,0.866,0.824,-0.832,3.580,39.0,35.0
44835,-0.311,-0.351,0.878,-1.015,-2.992,3.695,39.0,36.0
44877,-0.289,-0.350,0.858,-0.603,-1.740,2.901,39.0,36.0
44920,-0.317,-0.353,0.867,0.656,0.206,4.298,37.0,36.0
44962,-0.315,-0.332,0.867,-0.397,-2.725,2.969,37.0,35.0
45012,-0.312,-0.348,0.874,-1.977,-4.130,1.702,39.0,36.0
45053,-0.288,-0.368,0.851,-0.527,-1.672,2.725,39.0,35.0
45094,-0.298,-0.370,0.856,1.763,2.183,4.557,37.0,35.0
45136,-0.337,-0.346,0.873,0.878,0.359,4.069,37.0,35.0
45177,-0.318,-0.345,0.877,-0.641,-3.229,3.015,37.0,35.0
45218,-0.293,-0.359,0.849,-0.985,-3.229,3.260,37.0,35.0
45259,-0.298,-0.343,0.870,0.550,-0.260,4.511,37.0,35.0
45301,-0.314,-0.345,0.878,0.496,-0.046,3.000,37.0,36.0
45342,-0.312,-0.336,0.871,-0.618,-1.893,2.611,37.0,35.0
45386,-0.305,-0.348,0.875,-0.382,-2.115,2.748,37.0,35.0
45427,-0.294,-0.360,0.871,0.015,-0.634,3.008,37.0,35.0
45468,-0.324,-0.353,0.880,0.382,-0.298,3.672,37.0,35.0
45510,-0.326,-0.348,0.878,-1.099,-2.817,2.947,37.0,35.0
45551,-0.300,-0.370,0.861,-0.458,-2.771,3.176,37.0,35.0
45592,-0.301,-0.340,0.872,1.023,-0.290,4.267,37.0,35.0
45634,-0.321,-0.336,0.876,-0.092,-0.519,3.122,37.0,35.0
45675,-0.331,-0.331,0.882,-2.603,-4.053,2.336,37.0,35.0
45716,-0.315,-0.365,0.871,-2.122,-5.298,2.519,37.0,35.0
45761,-0.291,-0.354,0.862,0.000,-0.885,3.244,37.0,35.0
45802,-0.312,-0.358,0.875,0.817,0.076,3.023,37.0,35.0
45843,-0.315,-0.357,0.869,0.786,1.107,3.115,37.0,35.0
45885,-0.341,-0.358,0.875,-0.015,-1.305,4.053,38.0,36.0
45926,-0.329,-0.325,0.880,-1.489,-4.290,3.466,37.0,35.0
45967,-0.312,-0.341,0.883,-2.573,-5.679,2.550,37.0,35.0
46009,-0.279,-0.348,0.860,-0.267,-2.458,2.863,39.0,35.0
46093,-0.325,-0.351,0.872,-1.244,-3.527,1.565,37.0,35.0
46135,-0.296,-0.385,0.839,0.023,-0.855,2.397,37.0,35.0
46179,-0.306,-0.362,0.859,1.878,1.168,5.130,37.0,35.0
46221,-0.336,-0.340,0.887,-0.176,-1.260,4.153,37.0,35.0
46262,-0.300,-0.347,0.861,-0.359,-2.992,3.038,37.0,35.0
46303,-0.327,-0.338,0.896,-0.626,-1.748,4.229,37.0,35.0
46345,-0.312,-0.328,0.882,-1.237,-4.336,1.725,39.0,35.0
46387,-0.317,-0.339,0.881,-3.206,-5.733,1.687,39.0,35.0
46428,-0.275,-0.365,0.842,-0.618,-3.046,1.344,37.0,35.0
46470,-0.306,-0.379,0.859,2.420,4.053,3.969,37.0,35.0
46511,-0.333,-0.361,0.863,2.053,1.191,4.206,37.0,35.0
46555,-0.328,-0.339,0.870,-0.924,-2.718,3.580,37.0,35.0
46597,-0.300,-0.345,0.872,-1.687,-4.389,2.916,37.0,36.0
46639,-0.304,-0.350,0.868,-0.542,-1.710,3.489,37.0,36.0
46680,-0.309,-0.335,0.870,0.878,-0.580,3.947,37.0,36.0
46722,-0.327,-0.348,0.887,-0.702,-1.931,3.046,37.0,35.0
46763,-0.315,-0.338,0.864,-1.496,-3.618,2.466,37.0,35.0
46804,-0.308,-0.352,0.879,-1.733,-3.718,2.046,37.0,35.0
46845,-0.292,-0.355,0.858,-0.313,-1.435,2.031,37.0,35.0
46887,-0.323,-0.362,0.868,0.908,0.550,3.336,37.0,35.0
46931,-0.325,-0.350,0.875,-0.366,-3.092,3.763,37.0,35.0
46973,-0.303,-0.356,0.865,-0.817,-3.183,2.992,37.0,35.0
47015,-0.302,-0.349,0.880,-0.412,-1.191,3.382,37.0,35.0
47056,-0.312,-0.342,0.871,-0.015,-1.290,3.221,37.0,35.0
47098,-0.311,-0.347,0.876,0.840,-1.015,3.023,37.0,36.0
47140,-0.311,-0.347,0.872,0.565,-0.504,3.557,37.0,36.0
47181,-0.323,-0.348,0.877,-0.351,-1.450,2.718,37.0,36.0
47223,-0.322,-0.349,0.881,-1.397,-3.336,2.824,37.0,36.0
47265,-0.312,-0.352,0.856,-1.290,-2.809,2.863,37.0,36.0
47309,-0.318,-0.347,0.880,-0.962,-2.611,3.053,37.0,36.0
47351,-0.313,-0.350,0.870,-1.237,-3.313,2.962,37.0,35.0
47393,-0.318,-0.352,0.881,-1.473,-3.412,3.122,37.0,35.0
47434,-0.306,-0.354,0.862,-1.595,-3.588,3.267,37.0,35.0
47476,-0.306,-0.351,0.872,-1.626,-3.374,2.832,37.0,35.0
47518,-0.303,-0.355,0.869,-1.115,-3.130,3.191,39.0,35.0
47560,-0.306,-0.348,0.868,-0.527,-2.313,3.511,39.0,35.0
47601,-0.302,-0.350,0.868,0.046,-0.985,3.053,39.0,35.0
47643,-0.315,-0.354,0.874,0.542,-0.695,3.053,39.0,35.0
47688,-0.308,-0.356,0.872,-0.168,-2.221,3.634,37.0,35.0
47730,-0.306,-0.348,0.856,0.511,0.244,3.290,37.0,35.0
47771,-0.343,-0.347,0.901,-1.550,-2.420,3.382,37.0,35.0
47813,-0.314,-0.328,0.867,-2.275,-7.000,2.603,39.0,36.0
47855,-0.291,-0.365,0.853,-0.702,-1.664,3.023,39.0,35.0
47897,-0.303,-0.352,0.895,1.031,0.237,4.153,39.0,35.0
47939,-0.307,-0.352,0.877,0.023,-0.985,3.366,39.0,35.0
47981,-0.300,-0.350,0.867,0.099,-0.267,2.863,39.0,35.0
48023,-0.325,-0.363,0.874,-0.008,-1.038,2.916,37.0,35.0
48067,-0.298,-0.358,0.860,0.183,-2.046,3.374,37.0,35.0
48109,-0.302,-0.341,0.876,1.405,0.756,4.595,37.0,35.0
48151,-0.337,-0.326,0.894,-0.702,-2.366,2.695,37.0,35.0
48236,-0.295,-0.360,0.860,-1.115,-3.191,2.611,37.0,35.0
48278,-0.304,-0.357,0.863,0.366,0.237,3.405,37.0,35.0
48319,-0.321,-0.362,0.871,-0.298,-1.641,2.641,37.0,35.0
48361,-0.311,-0.357,0.872,-1.069,-2.053,3.931,37.0,35.0
48403,-0.307,-0.349,0.876,-1.794,-4.855,3.069,37.0,35.0
48445,-0.301,-0.345,0.861,-1.275,-3.221,3.069,37.0,35.0
48490,-0.306,-0.347,0.872,-1.817,-4.298,2.412,37.0,36.0
48532,-0.298,-0.341,0.875,-1.580,-3.802,2.061,38.0,35.0
48574,-0.281,-0.365,0.852,0.275,-0.969,1.824,37.0,35.0
48616,-0.307,-0.368,0.872,1.542,2.099,3.397,37.0,35.0
48658,-0.330,-0.348,0.883,0.130,-1.328,4.229,37.0,35.0
48700,-0.304,-0.348,0.865,-0.473,-2.595,3.679,37.0,35.0
48742,-0.308,-0.349,0.872,-1.366,-3.573,2.954,37.0,35.0
48783,-0.302,-0.338,0.866,-1.298,-2.656,3.145,37.0,35.0
48825,-0.304,-0.342,0.880,-1.145,-4.015,2.863,37.0,35.0
48871,-0.293,-0.370,0.852,-0.099,-1.840,2.893,37.0,35.0
48912,-0.308,-0.348,0.879,0.145,-0.160,3.366,37.0,35.0
48954,-0.320,-0.353,0.873,-1.061,-2.916,3.008,37.0,35.0
48996,-0.303,-0.352,0.863,-0.824,-2.412,2.969,37.0,35.0
49038,-0.305,-0.354,0.872,-0.061,-2.092,3.473,37.0,35.0
49080,-0.299,-0.356,0.868,0.229,-2.000,3.298,39.0,36.0
49122,-0.302,-0.354,0.867,0.069,-0.611,3.305,37.0,35.0
49164,-0.316,-0.354,0.875,-0.527,-2.153,3.267,37.0,35.0
49206,-0.310,-0.344,0.863,-1.244,-3.656,3.427,37.0,35.0
49248,-0.298,-0.363,0.871,-0.611,-2.565,3.351,37.0,35.0
49294,-0.285,-0.344,0.868,0.641,-0.260,3.466,39.0,35.0
49336,-0.321,-0.358,0.878,0.771,0.611,2.802,37.0,35.0
49378,-0.309,-0.342,0.867,-0.153,-1.656,2.931,37.0,35.0
49420,-0.315,-0.351,0.872,-0.855,-2.366,3.504,37.0,35.0
49462,-0.305,-0.352,0.865,-0.237,-2.824,2.916,37.0,35.0
49504,-0.304,-0.357,0.874,-0.153,-0.618,3.573,37.0,35.0
49546,-0.323,-0.348,0.879,-0.015,-1.458,3.725,37.0,35.0
49588,-0.300,-0.344,0.865,-0.672,-3.115,3.588,37.0,35.0
49630,-0.304,-0.356,0.860,-0.359,-1.153,2.962,37.0,35.0
49676,-0.302,-0.356,0.865,-0.359,-2.328,3.137,37.0,35.0
49718,-0.303,-0.341,0.874,-0.260,-0.634,3.298,37.0,35.0
49760,-0.320,-0.354,0.873,-0.634,-2.244,2.473,37.0,35.0
49802,-0.313,-0.361,0.862,-0.985,-3.031,2.718,37.0,35.0
49844,-0.303,-0.351,0.876,-0.328,-2.321,3.733,39.0,35.0
49887,-0.321,-0.350,0.871,-1.336,-1.550,3.725,39.0,35.0
49929,-0.306,-0.351,0.867,-1.099,-3.656,2.374,39.0,36.0
49971,-0.290,-0.360,0.858,0.450,-0.595,3.702,39.0,36.0
50014,-0.309,-0.354,0.880,0.985,-0.145,3.725,39.0,35.0
50059,-0.310,-0.339,0.872,-0.260,-0.603,3.160,39.0,35.0
50102,-0.321,-0.352,0.891,-0.870,-2.832,3.115,39.0,35.0
50144,-0.307,-0.352,0.859,0.160,-1.420,3.084,39.0,35.0
50186,-0.325,-0.349,0.891,-0.794,-1.931,3.122,40.0,35.0
50229,-0.305,-0.354,0.868,-0.893,-4.351,2.687,39.0,35.0
50271,-0.291,-0.347,0.860,0.046,-0.130,3.649,39.0,35.0
50313,-0.310,-0.356,0.888,0.275,-1.237,2.176,39.0,35.0
50399,-0.325,-0.343,0.888,-0.130,-1.939,2.794,40.0,35.0
50441,-0.314,-0.341,0.865,-1.534,-3.595,1.954,39.0,35.0
50491,-0.311,-0.363,0.866,-0.504,-1.046,4.290,40.0,35.0
50533,-0.313,-0.358,0.876,-0.557,-2.053,4.580,39.0,35.0
50574,-0.303,-0.351,0.875,-0.878,-2.786,3.885,39.0,36.0
50615,-0.303,-0.360,0.873,-0.313,-1.275,3.168,39.0,36.0
50657,-0.312,-0.350,0.866,-0.794,-1.901,2.649,39.0,35.0
50698,-0.308,-0.346,0.869,-0.282,-1.702,2.809,39.0,35.0
50739,-0.313,-0.332,0.889,-0.656,-2.763,2.733,39.0,35.0
50781,-0.305,-0.346,0.872,-0.771,-1.901,2.153,39.0,35.0
50822,-0.305,-0.362,0.871,-0.084,-1.275,2.504,39.0,35.0
50866,-0.301,-0.372,0.857,0.924,-0.244,3.962,37.0,35.0
50908,-0.304,-0.353,0.869,1.084,0.244,4.328,37.0,35.0
50949,-0.305,-0.338,0.871,1.145,1.389,3.160,37.0,36.0
50990,-0.333,-0.340,0.876,0.389,0.740,3.321,37.0,35.0
51031,-0.332,-0.341,0.886,-1.061,-3.618,2.969,38.0,35.0
51073,-0.302,-0.349,0.866,-1.145,-4.260,1.992,37.0,35.0
51113,-0.295,-0.349,0.867,0.313,-0.565,2.885,37.0,35.0
51154,-0.320,-0.344,0.876,0.260,-0.191,3.298,38.0,35.0
51196,-0.336,-0.344,0.877,-0.290,-1.695,3.756,38.0,35.0
51240,-0.321,-0.340,0.862,-1.023,-3.763,3.198,37.0,35.0
51281,-0.302,-0.345,0.861,-0.725,-2.015,3.191,37.0,35.0
51323,-0.315,-0.346,0.875,-0.748,-1.718,3.092,37.0,35.0
51364,-0.320,-0.347,0.866,-1.252,-2.153,3.443,37.0,35.0
51406,-0.318,-0.347,0.872,-1.221,-4.145,3.130,37.0,35.0
51447,-0.310,-0.354,0.873,-1.214,-2.985,3.160,37.0,35.0
51488,-0.309,-0.347,0.878,-0.962,-2.427,2.977,37.0,35.0
51530,-0.305,-0.350,0.864,-1.336,-2.992,2.740,37.0,35.0
51571,-0.311,-0.344,0.879,-1.405,-2.954,3.061,37.0,35.0
51616,-0.323,-0.346,0.870,-2.069,-4.000,2.786,37.0,35.0
51657,-0.300,-0.352,0.869,-2.122,-4.237,2.565,39.0,35.0
51699,-0.305,-0.357,0.874,-1.748,-3.756,2.611,39.0,35.0
51740,-0.309,-0.354,0.866,-1.366,-3.191,3.069,39.0,35.0
51782,-0.298,-0.362,0.871,-0.336,-2.290,3.000,39.0,35.0
51824,-0.289,-0.347,0.873,0.718,-0.702,2.985,39.0,36.0
51865,-0.296,-0.349,0.865,1.458,0.916,3.351,39.0,35.0
51907,-0.310,-0.345,0.880,0.618,0.191,3.443,40.0,35.0
51948,-0.325,-0.349,0.881,-0.214,-1.740,3.053,40.0,35.0
51993,-0.309,-0.352,0.875,-1.435,-3.817,2.809,39.0,35.0
52035,-0.296,-0.356,0.856,-0.802,-2.389,3.206,39.0,35.0
52076,-0.313,-0.350,0.868,0.038,-1.084,3.580,40.0,35.0
52118,-0.328,-0.345,0.873,-0.237,-1.489,3.504,39.0,35.0
52159,-0.313,-0.353,0.868,-1.023,-3.977,3.153,39.0,35.0
52201,-0.295,-0.351,0.869,-0.634,-2.687,3.153,39.0,35.0
52243,-0.299,-0.354,0.865,0.328,-0.275,2.344,39.0,35.0
52284,-0.318,-0.345,0.874,0.618,0.718,3.504,39.0,35.0
52326,-0.326,-0.351,0.868,-0.359,-2.443,3.038,39.0,36.0
52371,-0.301,-0.358,0.866,-0.153,-1.588,3.206,39.0,35.0
52413,-0.306,-0.357,0.875,-0.008,-1.389,3.580,39.0,35.0
52454,-0.313,-0.345,0.868,-0.107,-1.458,3.374,39.0,36.0
52539,-0.317,-0.336,0.891,-1.237,-2.672,3.237,39.0,36.0
52581,-0.294,-0.345,0.867,-1.290,-4.038,2.069,39.0,35.0
52623,-0.292,-0.361,0.859,0.168,0.214,3.008,39.0,36.0
52664,-0.319,-0.351,0.874,0.992,0.290,3.733,38.0,35.0
52706,-0.326,-0.344,0.875,-0.298,-1.878,3.176,38.0,35.0
52748,-0.309,-0.355,0.863,-1.046,-3.092,3.092,37.0,36.0
52792,-0.303,-0.346,0.880,-0.954,-3.115,3.565,37.0,35.0
52834,-0.292,-0.347,0.866,0.328,-1.099,2.985,37.0,35.0
52876,-0.316,-0.349,0.881,0.153,-0.924,2.786,37.0,35.0
52917,-0.319,-0.332,0.884,-0.824,-2.389,2.840,37.0,35.0
52959,-0.311,-0.349,0.862,-1.939,-4.282,2.237,37.0,35.0
53001,-0.296,-0.361,0.845,-0.511,-0.687,2.947,37.0,35.0
53043,-0.323,-0.365,0.874,0.557,-0.420,4.130,37.0,36.0
53084,-0.308,-0.348,0.869,0.122,-2.015,4.489,38.0,35.0
53126,-0.302,-0.354,0.872,0.160,-1.290,3.313,38.0,35.0
53171,-0.306,-0.351,0.867,0.099,-0.160,3.916,37.0,36.0
53213,-0.310,-0.332,0.870,0.176,-0.435,2.802,37.0,35.0
53254,-0.344,-0.334,0.911,-0.595,-1.802,3.305,37.0,35.0
53296,-0.295,-0.347,0.859,-1.496,-4.733,1.985,37.0,35.0
53338,-0.301,-0.346,0.867,0.237,0.130,3.290,37.0,35.0
53380,-0.322,-0.357,0.865,0.153,-0.397,2.595,37.0,35.0
53421,-0.329,-0.365,0.858,0.145,-0.298,3.336,38.0,35.0
53463,-0.341,-0.354,0.880,-0.435,-3.252,4.084,38.0,35.0
53505,-0.301,-0.340,0.873,-1.328,-4.015,3.511,37.0,35.0
53550,-0.295,-0.353,0.872,0.008,-1.221,2.908,37.0,35.0
53592,-0.317,-0.348,0.873,1.527,1.275,3.786,37.0,35.0
53633,-0.353,-0.325,0.905,0.000,-1.916,3.458,37.0,35.0
53675,-0.318,-0.334,0.883,-2.305,-5.611,1.794,37.0,35.0
53716,-0.295,-0.362,0.853,-1.107,-2.221,2.153,37.0,35.0
53758,-0.314,-0.359,0.849,1.160,1.382,3.260,37.0,35.0
53800,-0.338,-0.361,0.865,0.634,0.206,3.969,38.0,36.0
53842,-0.329,-0.342,0.881,-0.969,-4.412,3.496,37.0,35.0
53883,-0.292,-0.351,0.866,-0.885,-4.008,3.267,37.0,35.0
53928,-0.303,-0.334,0.878,0.817,0.527,2.954,37.0,35.0
53970,-0.330,-0.327,0.882,-0.725,-2.466,2.473,37.0,35.0
54012,-0.321,-0.337,0.866,-1.313,-3.137,2.718,37.0,35.0
54054,-0.326,-0.342,0.873,-1.466,-4.641,2.641,37.0,35.0
54096,-0.292,-0.356,0.859,-1.168,-2.679,2.618,37.0,35.0
54138,-0.312,-0.363,0.859,0.443,0.458,3.290,37.0,35.0
54180,-0.325,-0.355,0.869,0.374,-1.397,3.672,37.0,35.0
54222,-0.316,-0.352,0.876,0.061,-1.504,3.420,37.0,36.0
54264,-0.322,-0.345,0.878,-1.237,-2.847,2.924,37.0,36.0
54309,-0.309,-0.355,0.863,-0.137,-0.969,3.435,37.0,36.0
54351,-0.335,-0.335,0.867,-0.282,-2.473,3.603,37.0,36.0
54393,-0.320,-0.323,0.886,-1.405,-4.206,3.031,37.0,36.0
54435,-0.301,-0.351,0.878,-1.397,-2.427,2.137,37.0,36.0
54477,-0.306,-0.355,0.862,-0.221,-0.611,2.489,37.0,35.0
54519,-0.315,-0.358,0.859,0.641,0.664,2.573,37.0,35.0
54561,-0.326,-0.372,0.864,1.176,0.160,3.847,37.0,35.0
54603,-0.324,-0.349,0.862,-0.115,-1.298,4.115,37.0,35.0
54688,-0.328,-0.324,0.891,-1.282,-2.046,3.450,37.0,35.0
54733,-0.323,-0.312,0.885,-2.412,-5.397,2.611,37.0,35.0
54775,-0.304,-0.345,0.880,-2.588,-6.595,2.160,37.0,36.0
54817,-0.280,-0.357,0.849,0.145,-0.282,2.351,37.0,35.0
54859,-0.322,-0.364,0.856,2.145,4.145,3.038,37.0,35.0
54901,-0.347,-0.346,0.876,0.344,-0.740,3.595,38.0,35.0
54943,-0.321,-0.358,0.864,-2.008,-5.260,3.794,37.0,35.0
54986,-0.309,-0.336,0.880,-1.244,-3.725,4.084,37.0,36.0
55028,-0.316,-0.337,0.874,-0.885,-3.160,2.931,37.0,35.0
55070,-0.311,-0.341,0.878,-0.901,-2.634,2.947,37.0,35.0
55115,-0.304,-0.344,0.878,-0.779,-2.397,2.573,37.0,35.0
55157,-0.309,-0.355,0.870,-0.893,-2.176,2.153,37.0,35.0
55199,-0.311,-0.368,0.861,-0.374,-1.534,1.969,37.0,35.0
55241,-0.305,-0.367,0.851,0.672,-0.160,3.466,38.0,35.0
55284,-0.321,-0.348,0.865,0.519,-0.939,4.824,37.0,35.0
55326,-0.320,-0.334,0.868,-0.748,-2.511,3.855,37.0,35.0
55368,-0.321,-0.332,0.885,-1.183,-2.206,2.695,37.0,35.0
55410,-0.313,-0.342,0.880,-0.542,-3.275,2.817,37.0,35.0
55452,-0.292,-0.350,0.856,0.870,-0.206,2.702,37.0,35.0
55498,-0.323,-0.345,0.874,0.351,0.298,2.588,37.0,36.0
55540,-0.322,-0.359,0.863,-0.130,-0.634,2.695,38.0,35.0
55582,-0.323,-0.356,0.871,-0.168,-0.939,3.695,38.0,35.0
55624,-0.322,-0.353,0.868,0.008,-1.954,3.878,38.0,35.0
55666,-0.312,-0.346,0.871,-0.038,-1.412,3.481,37.0,36.0
55709,-0.316,-0.342,0.867,-0.061,-1.931,3.084,38.0,35.0
55751,-0.326,-0.344,0.875,0.061,-0.397,3.198,38.0,35.0
55793,-0.328,-0.339,0.870,-0.458,-2.061,2.847,38.0,35.0
55836,-0.318,-0.342,0.872,-0.802,-2.725,2.824,38.0,35.0
55881,-0.315,-0.349,0.873,-0.809,-2.221,3.282,38.0,36.0
55928,-0.315,-0.352,0.867,-0.519,-3.084,3.229,38.0,36.0
55970,-0.316,-0.353,0.869,-0.626,-1.702,3.099,38.0,36.0
56011,-0.310,-0.350,0.859,0.473,-0.389,3.176,38.0,35.0
56052,-0.346,-0.339,0.882,-0.160,-1.405,3.389,38.0,35.0
56094,-0.322,-0.342,0.863,-1.389,-3.420,3.130,38.0,35.0
56135,-0.322,-0.343,0.871,-1.603,-3.618,2.855,38.0,35.0
56176,-0.321,-0.343,0.876,-2.595,-5.855,1.977,38.0,35.0
56217,-0.320,-0.342,0.868,-2.794,-5.229,2.725,38.0,35.0
56262,-0.319,-0.351,0.864,-2.618,-5.511,3.137,37.0,35.0
56303,-0.305,-0.352,0.860,-1.634,-4.389,3.206,37.0,35.0
56344,-0.284,-0.356,0.858,0.786,-1.244,3.069,39.0,35.0
56386,-0.296,-0.356,0.885,2.626,3.153,3.664,40.0,35.0
56433,-0.314,-0.343,0.882,2.130,2.603,3.397,141.0,35.0
56474,-0.341,-0.348,0.881,0.168,-0.221,3.252,38.0,35.0
56525,-0.330,-0.360,0.878,-1.557,-4.290,2.435,0.0,35.0
56572,-0.312,-0.360,0.864,-1.679,-3.748,3.229,142.0,35.0
56620,-0.315,-0.355,0.856,0.496,-1.084,3.412,141.0,35.0
56667,-0.320,-0.345,0.878,0.840,-0.099,3.359,141.0,35.0
56717,-0.319,-0.339,0.888,-0.557,-3.069,3.389,141.0,35.0
56764,-0.294,-0.345,0.871,-0.198,-1.260,3.168,140.0,36.0
56811,-0.312,-0.346,0.870,-0.046,-0.939,2.481,141.0,35.0
56902,-0.329,-0.353,0.864,-0.214,-2.435,3.000,141.0,35.0
56949,-0.316,-0.348,0.873,-0.969,-2.573,3.344,141.0,35.0
56996,-0.308,-0.354,0.865,-0.237,-1.809,3.069,141.0,35.0
57044,-0.325,-0.343,0.877,0.710,0.328,3.656,141.0,35.0
57092,-0.323,-0.335,0.878,-0.534,-2.824,2.977,141.0,35.0
57142,-0.310,-0.353,0.876,-0.626,-2.084,3.183,141.0,35.0
57189,-0.311,-0.347,0.865,0.069,-0.977,2.863,141.0,35.0
57236,-0.318,-0.346,0.878,-0.466,-1.718,2.618,140.0,35.0
57284,-0.325,-0.347,0.867,-0.527,-1.298,2.992,140.0,36.0
57331,-0.328,-0.340,0.879,-0.466,-1.626,3.565,141.0,35.0
57378,-0.313,-0.345,0.860,-0.687,-2.740,3.412,140.0,35.0
57425,-0.318,-0.339,0.876,0.450,0.015,3.389,141.0,36.0
57474,-0.321,-0.334,0.875,-0.397,-1.473,2.763,141.0,36.0
57521,-0.313,-0.347,0.865,-0.588,-2.069,2.847,142.0,35.0
57571,-0.316,-0.351,0.873,-0.427,-1.634,3.069,142.0,35.0
57619,-0.325,-0.342,0.869,-1.069,-3.298,2.687,141.0,35.0
57666,-0.308,-0.349,0.862,-0.115,-1.626,2.954,141.0,35.0
57713,-0.326,-0.341,0.876,0.405,0.214,3.252,141.0,35.0
57761,-0.330,-0.341,0.865,-0.511,-2.489,2.962,141.0,35.0
57808,-0.328,-0.350,0.873,-1.275,-4.168,3.099,141.0,35.0
57856,-0.301,-0.343,0.863,-0.573,-1.695,3.145,140.0,35.0
57904,-0.325,-0.343,0.873,-1.267,-1.496,2.824,140.0,35.0
57951,-0.340,-0.354,0.878,-1.687,-3.817,3.504,140.0,35.0
57996,-0.294,-0.342,0.864,-1.695,-4.962,2.405,38.0,35.0
58043,-0.316,-0.328,0.863,-2.832,1.137,3.412,142.0,35.0
58085,-0.344,-0.350,0.883,-2.695,-8.282,2.519,40.0,35.0
58127,-0.298,-0.363,0.869,-3.076,-7.366,3.611,39.0,35.0
58168,-0.285,-0.374,0.863,0.137,-1.763,3.168,39.0,35.0
58210,-0.310,-0.364,0.875,0.336,0.252,3.206,39.0,35.0
58261,-0.326,-0.339,0.876,-0.557,-0.176,3.053,0.0,35.0
58312,-0.303,-0.358,0.856,-0.267,-5.099,2.870,0.0,35.0
58362,-0.312,-0.348,0.880,1.183,2.229,2.679,0.0,35.0
58407,-0.327,-0.348,0.896,-0.237,-1.305,1.710,39.0,35.0
58456,-0.338,-0.332,0.879,-5.221,-3.298,2.168,141.0,35.0
58503,-0.327,-0.355,0.890,-6.229,-11.481,1.260,141.0,35.0
58545,-0.260,-0.388,0.843,-1.740,-8.053,2.740,39.0,35.0
58587,-0.248,-0.384,0.842,3.618,2.573,2.298,39.0,35.0
58637,-0.345,-0.349,0.904,0.656,6.191,2.214,0.0,35.0
58688,-0.330,-0.332,0.853,-2.740,-5.496,2.817,0.0,34.0
58739,-0.291,-0.367,0.861,-0.672,-8.191,2.931,0.0,35.0
58787,-0.282,-0.348,0.882,1.985,6.328,3.756,141.0,34.0
58842,-0.350,-0.347,0.870,-3.794,-5.290,1.496,0.0,34.0
58889,-0.270,-0.368,0.832,-3.992,-11.992,3.947,141.0,34.0
58931,-0.264,-0.403,0.847,0.252,-3.023,2.985,39.0,34.0
58973,-0.298,-0.342,0.876,3.176,6.893,3.870,39.0,35.0
59020,-0.347,-0.335,0.893,-1.863,-3.374,2.237,140.0,35.0
59068,-0.263,-0.354,0.852,-1.992,-7.588,2.191,141.0,35.0
59116,-0.294,-0.378,0.872,1.191,3.351,2.725,141.0,34.0
59163,-0.331,-0.342,0.867,1.328,1.885,3.565,141.0,35.0
59211,-0.319,-0.373,0.883,-4.511,-10.153,1.962,141.0,35.0
59305,-0.272,-0.384,0.849,2.450,3.160,3.053,141.0,35.0
59353,-0.332,-0.357,0.884,2.565,4.298,3.817,140.0,35.0
59401,-0.331,-0.352,0.891,-2.237,-6.954,2.855,141.0,34.0
59448,-0.254,-0.354,0.871,-2.214,-5.191,3.000,140.0,35.0
59496,-0.283,-0.376,0.863,2.641,4.504,2.336,140.0,34.0
59538,-0.345,-0.366,0.870,3.214,3.168,2.641,38.0,35.0
59580,-0.307,-0.362,0.862,2.962,-0.710,2.740,37.0,35.0
59621,-0.278,-0.357,0.881,2.046,0.275,3.260,38.0,35.0
59663,-0.290,-0.343,0.894,2.115,2.840,4.580,38.0,35.0
59708,-0.328,-0.345,0.884,-1.290,-0.084,5.115,39.0,35.0
59750,-0.322,-0.341,0.872,-2.237,-4.908,4.267,39.0,35.0
59792,-0.303,-0.354,0.871,-1.794,-6.573,2.504,39.0,35.0
59834,-0.291,-0.363,0.868,-0.710,-2.771,2.588,38.0,35.0
59876,-0.314,-0.366,0.864,-0.908,-1.000,4.519,39.0,35.0
59918,-0.330,-0.360,0.878,-2.511,-5.626,4.267,39.0,35.0
59960,-0.283,-0.356,0.851,-3.832,-4.046,1.611,39.0,35.0
60002,-0.298,-0.350,0.868,-1.702,-1.099,1.321,39.0,35.0
60045,-0.283,-0.386,0.848,1.069,-2.977,1.435,39.0,35.0
60090,-0.292,-0.380,0.882,5.015,7.504,4.023,37.0,35.0
60131,-0.330,-0.343,0.876,4.206,4.298,3.160,37.0,35.0
60179,-0.354,-0.340,0.915,-1.992,-3.687,0.664,141.0,35.0
60227,-0.288,-0.342,0.835,-5.817,-4.840,1.176,142.0,35.0
60275,-0.324,-0.372,0.854,-2.405,-6.351,4.954,141.0,34.0
60323,-0.285,-0.355,0.885,-0.130,-8.366,4.534,141.0,34.0
60370,-0.291,-0.364,0.875,0.214,2.000,2.511,141.0,34.0
60412,-0.302,-0.337,0.871,-1.855,-1.305,2.344,40.0,34.0
60461,-0.318,-0.370,0.876,-2.115,-5.023,3.405,141.0,35.0
60512,-0.268,-0.371,0.844,0.153,-2.496,4.664,141.0,34.0
60554,-0.336,-0.361,0.896,-0.557,-2.634,4.107,38.0,35.0
60596,-0.282,-0.343,0.864,-2.328,-4.809,2.901,38.0,35.0
60639,-0.282,-0.370,0.865,-0.397,-1.107,3.160,38.0,35.0
60686,-0.297,-0.368,0.858,1.855,2.824,3.046,140.0,35.0
60734,-0.324,-0.371,0.873,1.130,0.191,3.435,140.0,35.0
60782,-0.311,-0.349,0.879,0.756,-1.977,3.962,140.0,35.0
60830,-0.299,-0.340,0.875,-0.695,-1.786,3.710,140.0,35.0
60878,-0.306,-0.352,0.868,-1.397,-1.931,3.198,140.0,35.0
60930,-0.316,-0.372,0.868,-0.237,-0.015,3.626,141.0,35.0
60978,-0.315,-0.356,0.874,-0.069,-2.771,4.198,142.0,36.0
61020,-0.276,-0.362,0.869,0.687,-0.786,3.473,40.0,35.0
61068,-0.298,-0.350,0.879,1.206,2.038,3.405,140.0,35.0
61110,-0.331,-0.343,0.867,-0.977,-1.748,2.847,38.0,35.0
61152,-0.335,-0.364,0.864,-1.779,-7.000,2.290,37.0,35.0
61194,-0.279,-0.367,0.856,-0.382,-3.733,3.504,39.0,35.0
61237,-0.305,-0.381,0.862,-0.099,-0.672,2.092,39.0,35.0
61279,-0.301,-0.378,0.851,1.198,2.336,1.855,39.0,35.0
61324,-0.331,-0.351,0.870,1.794,0.527,3.565,40.0,35.0
61367,-0.320,-0.346,0.875,-0.160,-1.649,4.237,37.0,35.0
61414,-0.302,-0.350,0.856,-0.328,-2.885,3.679,141.0,35.0
61457,-0.301,-0.346,0.877,0.489,0.092,3.641,37.0,35.0
61499,-0.319,-0.344,0.873,-0.328,-0.435,3.046,37.0,35.0
61584,-0.298,-0.365,0.856,-0.336,-1.832,3.405,39.0,35.0
61627,-0.298,-0.364,0.866,0.794,0.618,2.954,40.0,35.0
61669,-0.314,-0.355,0.855,1.748,2.557,2.527,38.0,35.0
61711,-0.325,-0.352,0.861,2.282,1.313,3.565,38.0,36.0
61754,-0.321,-0.341,0.878,1.916,-0.008,3.053,38.0,36.0
61805,-0.319,-0.337,0.873,1.015,0.656,3.115,141.0,36.0
61858,-0.315,-0.345,0.869,0.321,-0.847,3.221,141.0,36.0
61905,-0.319,-0.343,0.857,0.947,0.084,3.832,141.0,37.0
61946,-0.329,-0.344,0.872,-0.328,-3.176,2.710,39.0,36.0
61993,-0.316,-0.351,0.861,-0.382,-2.061,3.076,141.0,36.0
62035,-0.328,-0.347,0.869,-0.435,-1.092,4.069,38.0,36.0
62076,-0.347,-0.336,0.878,-2.389,-4.527,3.489,38.0,36.0
62117,-0.337,-0.344,0.870,-3.473,-7.313,2.794,38.0,35.0
62169,-0.314,-0.345,0.865,-2.840,-6.023,2.771,0.0,35.0
62219,-0.318,-0.351,0.866,-1.985,-3.435,3.481,142.0,36.0
62266,-0.319,-0.365,0.861,-1.511,-2.901,3.389,142.0,35.0
62313,-0.308,-0.355,0.872,-1.298,-3.641,2.847,142.0,35.0
62364,-0.301,-0.351,0.860,0.122,0.038,2.573,0.0,36.0
62414,-0.319,-0.348,0.878,1.496,0.389,2.863,0.0,35.0
62465,-0.311,-0.358,0.864,2.412,3.344,2.260,0.0,36.0
62516,-0.345,-0.350,0.861,3.191,4.702,4.687,0.0,37.0
62567,-0.330,-0.331,0.887,-0.824,-3.695,3.420,0.0,37.0
62614,-0.324,-0.345,0.870,-0.962,-1.328,3.214,142.0,37.0
62664,-0.329,-0.360,0.855,-1.382,-3.382,2.137,141.0,36.0
62711,-0.324,-0.356,0.861,-0.611,-3.229,3.931,141.0,36.0
62758,-0.315,-0.337,0.865,-2.855,-5.496,2.962,140.0,35.0
62807,-0.316,-0.353,0.860,-1.084,-3.603,2.771,141.0,36.0
62854,-0.314,-0.354,0.854,0.145,-0.183,3.427,140.0,36.0
62909,-0.330,-0.354,0.862,0.084,-1.916,2.779,141.0,36.0
62956,-0.312,-0.350,0.870,0.237,-1.832,2.840,142.0,35.0
63003,-0.317,-0.343,0.891,0.695,-0.504,3.160,141.0,35.0
63053,-0.327,-0.344,0.876,-0.305,-1.641,2.603,0.0,36.0
63104,-0.328,-0.348,0.863,-0.924,-2.802,2.969,142.0,36.0
63151,-0.315,-0.350,0.867,-1.779,-4.763,2.511,142.0,36.0
63199,-0.320,-0.352,0.868,-1.573,-3.076,2.656,141.0,35.0
63246,-0.311,-0.354,0.857,-0.420,-1.420,3.000,141.0,35.0
63293,-0.326,-0.334,0.879,-0.977,-3.229,3.168,141.0,35.0
63340,-0.312,-0.353,0.881,-1.878,-3.649,2.725,141.0,35.0
63387,-0.305,-0.371,0.845,-0.313,-3.542,3.366,141.0,35.0
63434,-0.314,-0.362,0.879,0.763,1.443,3.565,141.0,36.0
63481,-0.327,-0.348,0.862,0.405,-0.603,4.038,142.0,36.0
63535,-0.351,-0.325,0.910,-3.389,-6.382,2.023,0.0,35.0
63583,-0.283,-0.369,0.829,-2.038,-4.496,0.733,141.0,35.0
63630,-0.319,-0.376,0.860,2.282,1.954,3.626,141.0,36.0
63677,-0.321,-0.336,0.877,2.534,2.534,4.557,141.0,36.0
63724,-0.341,-0.333,0.886,-1.076,-3.382,3.084,142.0,35.0
63775,-0.313,-0.361,0.853,-2.969,-4.733,2.511,0.0,35.0
63822,-0.298,-0.359,0.850,0.916,-0.046,4.023,141.0,36.0
63864,-0.340,-0.336,0.886,0.733,-0.710,3.679,38.0,36.0
63905,-0.319,-0.344,0.877,-0.519,-2.168,2.237,38.0,37.0
63993,-0.319,-0.366,0.849,1.351,1.221,3.809,39.0,36.0
64034,-0.343,-0.336,0.879,0.221,-0.824,3.740,39.0,36.0
64076,-0.321,-0.340,0.867,-0.687,-2.473,3.038,39.0,37.0
64117,-0.329,-0.357,0.872,-0.580,-2.580,3.344,38.0,38.0
64159,-0.310,-0.351,0.865,-1.015,-2.847,3.863,38.0,38.0
64206,-0.327,-0.344,0.875,-1.130,-2.374,3.756,142.0,37.0
64250,-0.325,-0.349,0.871,-0.977,-2.237,3.115,39.0,70.0
64291,-0.331,-0.347,0.877,-2.244,-5.061,2.931,38.0,37.0
64333,-0.315,-0.355,0.865,-1.962,-3.878,3.298,38.0,36.0
64377,-0.308,-0.351,0.862,-0.985,-2.115,3.527,38.0,36.0
64419,-0.323,-0.354,0.872,0.107,-0.351,3.122,38.0,37.0
64466,-0.328,-0.345,0.873,-0.611,-2.137,3.252,141.0,37.0
64508,-0.311,-0.351,0.869,-0.611,-2.740,3.160,38.0,36.0
64556,-0.300,-0.351,0.859,0.924,-0.489,3.527,141.0,37.0
64607,-0.319,-0.354,0.871,2.176,2.740,3.550,0.0,36.0
64661,-0.328,-0.327,0.861,1.740,1.603,3.679,0.0,37.0
64709,-0.363,-0.332,0.899,-3.611,-6.985,2.038,141.0,36.0
64759,-0.298,-0.364,0.846,-2.962,-5.557,2.954,0.0,35.0
64811,-0.303,-0.367,0.861,1.527,0.901,3.626,141.0,35.0
64858,-0.350,-0.347,0.884,0.832,0.244,3.015,141.0,36.0
64905,-0.330,-0.345,0.855,0.382,-1.000,3.092,141.0,36.0
64947,-0.335,-0.334,0.871,-0.962,-3.008,3.435,38.0,36.0
64989,-0.307,-0.340,0.856,-0.504,-2.740,2.351,38.0,36.0
65030,-0.326,-0.351,0.883,-0.099,-0.382,2.809,39.0,36.0
65072,-0.320,-0.349,0.859,0.321,-0.908,3.519,39.0,36.0
65114,-0.326,-0.344,0.860,-0.160,-0.550,3.527,39.0,36.0
65155,-0.326,-0.347,0.851,-0.313,-1.947,3.664,38.0,36.0
65209,-0.323,-0.343,0.864,-1.137,-2.695,3.015,38.0,36.0
65253,-0.332,-0.347,0.865,-0.954,-2.260,2.489,38.0,36.0
65297,-0.310,-0.349,0.846,0.412,-1.481,3.267,38.0,36.0
65341,-0.341,-0.353,0.886,-0.122,-1.137,3.153,38.0,36.0
65385,-0.318,-0.344,0.870,-0.656,-2.985,3.038,38.0,36.0
65429,-0.315,-0.360,0.854,0.947,0.008,2.802,38.0,36.0
65473,-0.340,-0.341,0.873,-0.336,-1.015,3.321,39.0,37.0
65523,-0.336,-0.342,0.873,-1.985,-5.107,2.771,140.0,36.0
65573,-0.307,-0.356,0.866,-1.519,-4.115,3.290,141.0,35.0
65627,-0.305,-0.359,0.854,1.084,1.023,3.450,141.0,36.0
65677,-0.344,-0.346,0.877,0.985,0.053,3.450,141.0,36.0
65726,-0.327,-0.338,0.871,0.130,-1.206,3.191,141.0,36.0
65771,-0.328,-0.337,0.869,-1.069,-2.740,2.672,39.0,36.0
65815,-0.330,-0.341,0.869,-1.183,-2.740,3.130,39.0,36.0
65859,-0.320,-0.352,0.876,-0.786,-3.511,2.824,38.0,36.0
65903,-0.320,-0.355,0.867,-0.061,-0.687,3.397,38.0,36.0
65947,-0.341,-0.353,0.861,-0.443,-1.115,3.336,38.0,36.0
65991,-0.325,-0.358,0.857,0.046,-1.679,3.870,38.0,36.0
66039,-0.311,-0.344,0.867,0.443,-0.679,3.550,38.0,38.0
66085,-0.356,-0.333,0.877,-0.740,-1.992,2.947,38.0,69.0
66129,-0.309,-0.341,0.865,-2.443,-5.969,2.786,38.0,36.0
66173,-0.298,-0.365,0.858,0.015,-0.817,2.817,38.0,36.0
66217,-0.332,-0.346,0.865,0.695,0.351,2.969,39.0,36.0
