Timestamp(ms),AccelX(g),AccelY(g),AccelZ(g),GyroX(deg/s),GyroY(deg/s),GyroZ(deg/s),DistanceLeft(cm),DistanceRight(cm)
29532,-0.011,0.457,0.957,0.58,-0.473,-1.427,28,134
29581,-0.016,0.453,0.96,0.626,-0.252,-1.015,28,134
29631,-0.019,0.454,0.957,0.641,-0.45,-1.282,28,134
29680,-0.012,0.454,0.952,0.603,-0.511,-1.45,28,134
29729,-0.007,0.455,0.95,1.061,-0.45,-1.389,28,134
29778,-0.013,0.454,0.954,0.466,-0.985,-1.397,28,134
29828,-0.014,0.46,0.951,0.832,-0.779,-1.42,28,134
29881,-0.019,0.461,0.954,0.649,0.382,-1.473,28,134
29930,-0.026,0.454,0.966,1.298,-0.733,-0.939,27,134
29979,-0.007,0.462,0.944,1.374,-1.496,-1.237,27,134
30028,-0.018,0.467,0.948,0.397,-0.099,-1.649,27,134
30077,-0.012,0.467,0.947,0.237,-0.26,-1.336,27,134
30128,-0.02,0.46,0.949,0.656,-0.145,-1.099,27,134
30177,-0.019,0.463,0.955,0.939,-1.244,-0.924,27,134
30226,-0.011,0.47,0.953,0.725,-0.916,-0.992,27,134
30275,-0.016,0.465,0.945,0.565,-0.863,-1.137,27,134
30327,-0.014,0.474,0.952,0.817,-0.924,-1.275,27,134
30377,-0.014,0.465,0.951,0.26,-0.519,-1.336,27,134
30427,-0.019,0.474,0.945,0.168,-0.901,-1.45,27,133
30476,-0.017,0.474,0.945,-0.153,-0.542,-1.244,27,134
30526,-0.017,0.469,0.955,-0.252,-0.779,-1.389,27,134
30575,-0.015,0.473,0.958,-0.427,-1.313,-0.969,27,133
30624,-0.009,0.464,0.932,-0.58,-1.489,-1.466,27,134
30674,-0.015,0.467,0.949,-1.351,-1.435,-1.198,27,134
30724,-0.016,0.459,0.951,-1.366,-1.542,-1.473,27,134
30776,-0.019,0.467,0.942,-0.817,-0.573,-1.076,27,133
30825,-0.016,0.463,0.955,-0.42,-2.092,-0.809,27,134
30875,-0.004,0.468,0.94,-1.359,-2.26,-1.389,26,133
30924,-0.005,0.464,0.941,-1.725,-0.458,-1.481,26,133
30973,-0.012,0.461,0.96,-1.321,-0.282,-1.26,27,134
31024,-0.012,0.463,0.948,-1.183,-0.901,-1.176,27,134
31073,-0.015,0.456,0.951,-1.55,-1.969,-0.985,27,134
31123,0.002,0.462,0.947,-1.252,-1.244,-0.969,27,134
31172,-0.014,0.456,0.951,-1.641,-0.305,-1.099,27,134
31224,-0.006,0.457,0.95,-1.153,-1.214,-1.229,27,134
31275,-0.011,0.46,0.957,-1.221,-1.573,-1.053,27,134
31324,0,0.462,0.948,-1.153,-1.244,-1.16,27,134
31374,-0.005,0.46,0.95,-1.382,-0.527,-1.069,27,134
31423,-0.006,0.459,0.957,-0.977,-1.214,-1.084,27,134
31473,-0.006,0.463,0.951,-1.008,-1.084,-1.099,27,134
31522,-0.002,0.468,0.963,-0.87,-0.786,-1.221,27,134
31572,-0.015,0.461,0.95,-1.221,-1.794,-1.42,28,134
31622,-0.012,0.458,0.966,-1.336,-1.382,-1.336,28,133
31674,-0.008,0.449,0.959,-1.084,-0.427,-0.893,28,134
31724,0,0.448,0.96,-0.771,-0.939,-0.931,27,134
31773,-0.005,0.448,0.949,-0.763,-1.16,-1.359,27,134
31823,-0.003,0.452,0.955,-1,-0.542,-1.496,27,134
31873,-0.007,0.447,0.951,-0.74,-0.29,-1.405,28,134
31923,-0.018,0.455,0.962,-0.847,-0.351,-1.267,28,134
31973,-0.012,0.451,0.954,-0.038,-1.573,-0.832,28,134
32065,-0.014,0.441,0.959,-0.336,0.099,-1.359,27,134
32115,-0.011,0.449,0.965,-0.145,-0.344,-1.504,28,134
32167,-0.011,0.452,0.954,0.221,-1.092,-1.336,27,134
32218,-0.013,0.449,0.958,0.237,-0.466,-1.412,28,134
32267,-0.013,0.45,0.958,0.191,0.015,-1.137,28,134
32317,-0.022,0.459,0.958,0.71,-0.672,-1.26,27,134
32366,-0.004,0.463,0.964,0.748,-0.496,-1.26,27,134
32416,-0.003,0.454,0.956,0.924,-0.626,-1.198,27,134
32465,-0.012,0.456,0.944,0.397,-0.878,-1.458,27,134
32516,-0.009,0.459,0.967,-0.061,-1.107,-1.519,27,134
32565,-0.023,0.458,0.949,0.359,0.107,-1.275,27,134
32618,-0.016,0.463,0.947,0.832,-0.122,-0.878,27,134
32667,-0.01,0.462,0.955,1.061,-1.763,-1.099,27,134
32717,-0.005,0.458,0.947,0.443,-0.588,-1.634,27,133
32766,-0.009,0.461,0.958,0.496,0.153,-1.527,27,134
32817,-0.022,0.457,0.956,0.557,-0.221,-1.458,27,133
32867,-0.011,0.458,0.957,0.924,-1.397,-1.191,27,134
32916,-0.009,0.464,0.948,1.053,-0.237,-1.351,27,134
32966,-0.017,0.464,0.961,1.092,-0.267,-1.115,27,134
33015,-0.01,0.46,0.953,1.16,-1.55,-1.328,27,133
33069,-0.007,0.468,0.96,0.664,-0.878,-1.389,27,134
33118,-0.016,0.467,0.945,0.458,-0.336,-1.382,27,134
33168,-0.013,0.468,0.953,0.557,-0.29,-1.336,27,134
33218,-0.019,0.471,0.95,0.412,-0.786,-1.198,27,134
33267,-0.016,0.465,0.955,0.382,-0.863,-1.038,27,134
33317,-0.014,0.47,0.951,0.45,-1.374,-1.366,27,134
33368,-0.014,0.467,0.95,-0.267,-1.076,-1.13,27,134
33417,-0.014,0.469,0.943,-0.504,-1.87,-1.42,27,134
33467,-0.013,0.466,0.941,-0.916,-0.427,-1.29,27,134
33520,-0.019,0.466,0.955,-0.382,-0.962,-0.725,27,133
33569,-0.007,0.467,0.943,-0.534,-2.771,-0.885,27,134
33619,0.004,0.471,0.944,-1.29,-0.756,-1.672,27,134
33670,-0.015,0.465,0.951,-1.328,-0.45,-1.366,27,134
33720,-0.021,0.464,0.957,-1,-0.618,-1.168,27,134
33770,-0.016,0.468,0.958,-0.885,-1.542,-1.031,31,134
33819,-0.007,0.467,0.948,-0.931,-1.534,-0.939,27,134
33869,-0.013,0.463,0.952,-1.084,-0.618,-1.008,27,134
33920,-0.013,0.467,0.946,-1.252,-1.275,-1.336,27,133
33973,-0.007,0.461,0.956,-1.282,-1.198,-1.305,27,134
34022,-0.014,0.459,0.958,-1.176,-0.565,-1.252,27,134
34072,-0.013,0.456,0.949,-1.115,-1.168,-1.115,27,134
34122,-0.01,0.46,0.949,-0.779,-1.336,-1.145,27,134
34172,-0.004,0.458,0.948,-0.817,-1.176,-1.214,27,134
34223,-0.01,0.457,0.955,-0.756,-1.069,-1.26,27,134
34272,-0.017,0.46,0.951,-0.786,-1.099,-1.145,27,134
34322,-0.011,0.457,0.948,-1.351,-1.893,-1.214,27,134
34375,-0.011,0.459,0.948,-1.252,-0.748,-1.092,27,134
34425,-0.006,0.453,0.962,-0.756,-0.634,-0.679,27,134
34476,-0.005,0.456,0.952,-0.786,-1.221,-1.198,27,133
34526,-0.005,0.463,0.948,-1.122,-0.855,-1.695,27,134
34618,-0.014,0.454,0.956,-0.489,-0.366,-1.137,28,134
34669,-0.018,0.457,0.961,-0.687,-1.855,-1.046,27,134
34718,-0.001,0.458,0.948,-0.534,-1.336,-0.969,27,134
34768,-0.003,0.46,0.953,-0.847,0.13,-1.221,27,134
34819,-0.019,0.453,0.958,-0.87,-0.985,-1.511,28,134
34872,-0.013,0.449,0.956,-0.695,-1.328,-1.328,28,134
34922,-0.009,0.452,0.949,-0.817,-1.252,-1.153,28,134
34972,-0.01,0.454,0.96,-0.824,-0.71,-1.145,28,134
35022,-0.009,0.451,0.963,-0.809,-0.916,-1.023,28,133
35073,-0.008,0.453,0.961,-0.679,-0.725,-1.16,28,134
35123,-0.008,0.446,0.965,-0.458,-0.557,-1.275,28,134
35173,-0.005,0.451,0.953,-0.252,-0.244,-1.145,28,134
35223,-0.016,0.452,0.964,-0.16,-1.015,-1.344,28,134
35273,-0.015,0.448,0.965,-0.191,-1.183,-1.435,28,134
35326,-0.009,0.45,0.954,0.244,0.183,-1.206,28,134
35377,-0.007,0.456,0.965,0.733,0.084,-1.061,28,134
35427,-0.007,0.455,0.954,0.519,-0.534,-1.679,28,134
35477,-0.01,0.455,0.949,0.275,0.053,-1.71,28,134
35527,-0.015,0.452,0.952,0.702,0.489,-1.405,28,134
35577,-0.016,0.453,0.959,0.443,-0.672,-1.176,28,134
35628,-0.008,0.454,0.947,1.107,-1.321,-1.221,28,134
35678,-0.007,0.457,0.957,0.786,0.344,-1.168,27,134
35727,-0.022,0.451,0.96,1.053,-0.198,-1.282,27,134
35780,-0.02,0.456,0.952,0.878,-1.084,-1.489,27,134
35830,-0.007,0.46,0.943,1.107,-0.863,-1.473,27,134
35888,-0.015,0.466,0.958,0.901,-0.336,-1.321,27,134
35937,-0.013,0.462,0.952,1.183,-0.779,-1.16,27,134
35986,-0.011,0.463,0.955,1.015,-0.878,-1.122,27,134
36035,-0.009,0.464,0.957,1.115,-0.885,-1.405,27,134
36084,-0.016,0.465,0.951,0.878,-0.824,-1.344,27,133
36133,-0.015,0.467,0.955,0.206,-1.366,-1.382,27,134
36184,-0.015,0.466,0.951,0.313,-0.252,-1.26,27,134
36236,-0.022,0.458,0.96,0.779,-0.061,-0.931,27,133
36285,-0.012,0.465,0.944,0.779,-2.084,-0.924,26,133
36334,0,0.467,0.938,0.206,-0.725,-1.664,26,133
36383,-0.011,0.468,0.946,-0.084,0.351,-1.458,26,133
36432,-0.02,0.465,0.959,-0.16,-0.794,-1.061,26,133
36482,-0.016,0.469,0.952,-0.336,-1.55,-1.137,26,133
36531,-0.01,0.469,0.948,-0.496,-1.473,-0.931,26,133
36581,-0.016,0.467,0.939,-0.756,-0.71,-1.153,26,134
36630,-0.014,0.466,0.95,-0.863,-1.466,-1.069,26,133
36682,-0.012,0.468,0.942,-1.107,-1.71,-1.397,26,134
36731,-0.012,0.462,0.959,-1.183,-1.031,-1.267,27,134
36781,-0.016,0.463,0.944,-1.13,-0.725,-1.153,27,134
36831,-0.009,0.46,0.953,-1,-1.122,-1.137,27,134
36880,-0.012,0.459,0.954,-0.824,-1.824,-1.16,26,134
36929,-0.006,0.465,0.945,-1.191,-1.206,-1.427,26,134
36979,-0.01,0.472,0.949,-1.13,-1.893,-1.298,26,134
37028,-0.014,0.461,0.956,-1.595,-1.588,-1.344,26,134
37078,-0.022,0.458,0.965,-1.664,-0.313,-0.931,26,134
37173,-0.005,0.459,0.963,-0.878,-1.656,-0.885,26,134
37223,-0.006,0.463,0.95,-1.282,-1.252,-1.634,26,134
37272,-0.007,0.461,0.953,-1.603,-0.771,-1.412,26,134
37321,-0.013,0.459,0.952,-1.237,-0.267,-1.344,27,134
37371,-0.021,0.457,0.947,-0.985,-1.74,-1.13,27,134
37421,-0.004,0.458,0.954,-0.962,-1.649,-0.878,27,133
37471,-0.01,0.456,0.957,-1.313,-0.053,-1.374,27,133
37520,-0.005,0.452,0.952,-0.901,-0.733,-1.313,27,134
37569,-0.016,0.449,0.957,-0.939,-1.122,-1.267,27,134
37622,-0.001,0.461,0.962,-1.122,-0.931,-1.29,27,134
37671,-0.013,0.454,0.965,-0.718,-0.672,-1.252,27,134
37721,-0.008,0.45,0.956,-0.557,-0.977,-1.42,27,134
37771,-0.008,0.458,0.956,-0.58,-0.763,-1.244,27,133
37820,-0.001,0.454,0.951,-0.382,-1.084,-0.939,27,134
37870,-0.006,0.447,0.961,-1.008,-1.366,-0.893,27,134
37919,-0.01,0.449,0.957,-1.061,-0.855,-1.504,27,134
37969,-0.01,0.445,0.958,-0.695,-0.099,-1.206,27,134
38019,-0.009,0.449,0.961,0.298,-0.076,-0.893,27,134
38071,-0.002,0.452,0.953,0.076,-0.725,-1.221,27,134
38121,-0.008,0.454,0.954,0.664,-0.649,-1.634,27,134
38170,-0.007,0.456,0.956,0.359,-0.061,-1.496,28,134
38220,-0.011,0.45,0.959,0.366,0.328,-1.351,28,134
38269,-0.012,0.453,0.95,0.534,-1.214,-1.313,28,134
38320,0,0.455,0.959,0.618,-0.443,-0.916,27,134
38369,-0.018,0.457,0.958,0.626,0.58,-1.092,27,134
38418,-0.013,0.458,0.951,1,-1.13,-1.336,27,134
38468,-0.007,0.452,0.956,0.855,-0.947,-1.603,27,134
38520,-0.02,0.458,0.948,0.779,-0.374,-1.45,27,134
38571,-0.02,0.461,0.958,0.939,-0.565,-1.092,28,134
38620,-0.021,0.466,0.946,1.145,-0.748,-1.183,27,134
38670,-0.016,0.462,0.952,0.962,-0.076,-1.321,27,134
38719,-0.02,0.459,0.951,0.893,-0.718,-1.366,27,134
38769,-0.021,0.466,0.947,0.634,-1.344,-1.26,27,134
38818,-0.009,0.458,0.955,0.214,-0.947,-1.267,27,134
38868,-0.024,0.458,0.958,0.481,0.023,-0.947,27,134
38918,-0.018,0.463,0.955,0.939,-1.412,-0.771,27,134
38971,-0.008,0.463,0.953,0.511,-1.565,-1.198,26,134
39020,-0.016,0.468,0.944,0.29,-0.053,-1.527,26,134
39070,-0.015,0.466,0.951,0.115,-0.344,-1.328,27,134
39119,-0.019,0.465,0.962,0.336,-1.061,-0.985,27,134
39170,-0.015,0.468,0.954,0.198,-1.504,-0.969,26,134
39219,-0.011,0.47,0.942,0.137,-0.718,-1.198,27,134
39269,-0.02,0.468,0.953,-0.275,-0.885,-1.031,27,134
39319,-0.014,0.471,0.947,-0.313,-1.695,-1.344,27,134
39368,-0.017,0.474,0.947,-0.824,-1.115,-1.313,27,134
39421,-0.015,0.46,0.954,-0.664,-0.84,-1.282,26,134
39472,-0.015,0.462,0.954,-0.618,-0.893,-1.107,27,134
39521,-0.018,0.461,0.951,-0.718,-1.504,-1.305,27,134
39571,-0.007,0.466,0.947,-1.076,-1.74,-1.328,27,134
39621,-0.014,0.47,0.957,-1.214,-0.992,-1.191,27,134
39713,-0.01,0.463,0.952,-1.847,-0.817,-1.336,26,134
39763,-0.014,0.464,0.959,-1.122,-0.504,-0.809,26,134
39814,-0.007,0.456,0.95,-1.145,-2.435,-0.84,26,134
39866,0.003,0.466,0.939,-1.496,-1.168,-1.656,26,134
39916,-0.011,0.462,0.943,-1.748,-0.336,-1.55,26,134
39966,-0.017,0.46,0.956,-1.366,-0.42,-1.252,26,134
40015,-0.019,0.457,0.97,-0.931,-1.45,-1.153,26,134
40066,-0.015,0.462,0.949,-1.176,-1.931,-0.863,26,134
40116,-0.009,0.456,0.952,-1.412,-0.092,-1.122,26,134
40165,-0.007,0.449,0.957,-1.557,-0.023,-1.382,26,134
40215,-0.018,0.455,0.964,-0.885,-1.008,-1.45,27,134
40265,-0.01,0.452,0.953,-0.878,-1.511,-1.351,27,134
40318,-0.008,0.456,0.959,-0.931,-1.084,-0.969,27,134
40368,-0.017,0.448,0.962,-0.832,-0.71,-1.198,27,134
40418,-0.009,0.452,0.959,-0.916,-0.916,-1.42,27,134
40468,-0.008,0.452,0.954,-0.336,-1.076,-1.305,27,134
40518,-0.009,0.456,0.948,-0.832,-1.092,-0.847,27,134
40567,-0.01,0.445,0.96,-1.023,-1.511,-1.366,27,134
40617,-0.011,0.457,0.959,-0.885,-0.618,-1.183,27,134
40668,-0.013,0.447,0.962,-0.565,0.153,-0.977,27,134
40718,-0.02,0.446,0.964,-0.092,-0.435,-0.702,27,134
40770,-0.01,0.45,0.953,0.107,-1.252,-1.679,27,134
40820,-0.007,0.454,0.957,-0.008,0.053,-1.595,28,134
40870,-0.012,0.448,0.964,0.275,0.214,-1.435,28,134
40921,-0.022,0.452,0.958,0.611,-0.611,-1.221,28,134
40971,-0.007,0.452,0.955,1.038,-0.519,-1.237,28,134
41021,-0.007,0.45,0.95,0.527,0.389,-1.359,27,134
41070,-0.015,0.45,0.956,0.664,-0.641,-1.351,28,134
41120,-0.017,0.457,0.954,0.679,-0.863,-1.534,28,134
41170,-0.01,0.456,0.954,0.916,-0.336,-1.366,28,133
41224,-0.016,0.456,0.955,0.916,-0.183,-1.305,28,134
41274,-0.013,0.464,0.96,0.878,-0.908,-1.374,28,133
41324,-0.019,0.455,0.947,0.985,-0.427,-1.206,28,133
41374,-0.011,0.459,0.95,1.13,-0.832,-1.214,28,133
41423,-0.013,0.463,0.943,0.916,-1.115,-1.176,28,133
41474,-0.023,0.46,0.956,0.534,-0.664,-1.244,28,133
41524,-0.027,0.459,0.948,0.55,-0.122,-1.214,28,133
41574,-0.012,0.463,0.956,1.153,-0.641,-0.802,28,133
41624,-0.004,0.46,0.956,0.977,-1.702,-1.206,27,133
41677,-0.013,0.464,0.945,0.267,-0.206,-1.557,27,133
41728,-0.027,0.463,0.956,0.481,-0.557,-1.496,28,133
41778,-0.029,0.464,0.946,0.489,-0.489,-1.153,28,133
41828,-0.019,0.469,0.95,0.725,-1.344,-0.947,28,133
41878,-0.01,0.463,0.942,0.664,-0.504,-1.115,28,133
41928,-0.023,0.466,0.953,0.321,-0.618,-1.084,28,134
41978,-0.016,0.464,0.952,0.29,-1.237,-1.252,27,134
42028,-0.017,0.473,0.948,-0.321,-0.87,-1.351,27,133
42078,-0.016,0.466,0.946,-0.405,-1.252,-1.176,28,133
42132,-0.021,0.468,0.95,-0.603,-0.695,-1.198,28,133
42182,-0.025,0.468,0.953,-0.634,-1.221,-1.16,28,133
42275,-0.004,0.467,0.948,-0.832,-0.435,-1.252,27,133
42326,-0.009,0.464,0.951,-1.389,-1.565,-1.542,28,133
42382,-0.02,0.461,0.952,-1.275,-1.053,-1.481,36,133
42432,-0.018,0.467,0.962,-0.603,-0.137,-0.748,35,134
42482,-0.01,0.459,0.953,-0.206,-1.908,-0.908,34,133
42531,-0.01,0.465,0.948,-0.275,-0.229,-1.908,35,134
42580,-0.026,0.466,0.957,-0.015,0.145,-1.443,28,133
42634,-0.027,0.465,0.958,1.008,-1.863,-1.16,34,134
42683,-0.025,0.464,0.956,2.244,-4.542,-0.74,33,133
42733,0.002,0.474,0.929,1.397,-2.649,-0.26,34,133
42782,0.005,0.465,0.939,0.473,1.092,-1.008,32,133
42832,-0.016,0.467,0.95,0.115,0.58,-1.023,32,133
42882,-0.014,0.471,0.944,0.183,-1.832,-1.489,32,133
42931,0.001,0.475,0.944,0.214,-1.053,-1.351,34,133
42981,-0.009,0.471,0.951,-0.015,1.351,-1.336,34,133
43031,-0.018,0.472,0.954,0.191,1.458,-1.321,34,133
43083,-0.025,0.474,0.957,0.412,-0.137,-0.954,34,133
43132,-0.015,0.47,0.947,0.786,-0.947,-1.023,34,133
43183,-0.012,0.479,0.945,-0.244,-1.618,-1.031,32,133
43233,-0.019,0.469,0.938,-0.267,-0.405,-1.534,34,133
43282,-0.028,0.466,0.95,0.084,0.817,-1.053,34,133
43332,-0.03,0.475,0.95,0.611,-1.756,-0.939,34,133
43392,-0.015,0.475,0.939,0.481,-1.176,-1.489,0,133
43451,-0.012,0.474,0.947,0,0.634,-1.336,0,133
43510,-0.018,0.477,0.947,0.076,-0.214,-1.275,0,133
43573,-0.017,0.477,0.939,-0.221,-1.076,-1.053,0,133
43632,-0.017,0.477,0.94,-0.672,-0.176,-1.061,0,133
43692,-0.015,0.474,0.949,-0.305,-0.931,-1.198,0,133
43751,-0.018,0.472,0.944,-0.45,-1.313,-1.313,0,133
43810,-0.01,0.469,0.938,-0.565,-0.809,-1.031,0,133
43870,-0.026,0.473,0.946,-0.588,-0.664,-1.229,0,133
43930,-0.022,0.475,0.947,-0.366,-1.389,-1.046,0,133
43990,-0.014,0.481,0.944,-0.603,-0.832,-1.229,0,133
44040,-0.016,0.47,0.953,-0.786,-0.695,-1.641,36,133
44093,-0.214,0.327,1.511,12.282,-29.038,-2.74,34,134
44142,-0.283,-0.103,1.67,120.863,-220.771,-45.542,30,135
44206,0.57,0.382,0.732,232.382,-250.137,-130.695,197,0
44263,-0.589,1.099,0.191,55.122,-111.382,-68.878,10,0
44316,-0.195,0.423,0.246,50.221,-204.924,-20.908,0,26
44359,1.124,1.245,-0.123,51.13,-67.198,-29.634,6,26
44401,0.459,0.982,0.305,-6.405,43.885,-9.794,6,26
44444,0.202,0.814,0.491,-10.664,3.374,-10.817,8,26
44486,0.358,0.86,0.454,8.893,-32.832,-26.397,8,25
44532,0.384,0.894,0.458,14.679,-7.237,-24.878,8,24
44574,0.351,0.779,0.529,17.679,-7.244,-26.092,8,25
44616,0.325,0.966,0.491,33.725,-4.634,-31.626,9,23
44659,0.266,1.018,0.266,36.626,6.504,-25.237,10,23
44709,0.164,1.016,0.244,23,9.061,-16.55,142,22
44751,0.246,0.695,0.376,15.855,3.679,-14.107,9,22
44794,0.335,0.526,0.761,40.588,2.076,-25.137,10,21
44879,0.163,1.372,-0.058,68.405,10.198,-28.802,9,20
44921,-0.173,0.863,-0.295,24.771,-3.939,-8.771,9,19
44967,0.281,0.991,-0.141,-21.893,-7.786,0.405,16,19
45010,0.353,0.8,0.442,-15.656,27.87,-3.038,16,19
45052,0.215,0.855,0.645,21.679,-3.794,-16.863,9,19
45094,0.27,0.84,0.36,49.481,0.763,-31.176,10,17
45137,0.132,1.023,0.227,65.649,4.443,-34.359,11,16
45179,-0.021,1.105,0.183,69.725,-7.611,-27.74,9,16
45221,0.123,1.111,-0.221,56.13,-14.015,-21.824,10,16
45263,0.093,1.113,-0.274,24.763,-4.336,-25.16,10,16
45306,0.06,1.188,-0.036,-1.137,-3.405,-19.466,11,15
45351,-0.01,0.914,0.177,12.038,-17.985,-13.153,12,15
45393,-0.041,1.049,-0.002,27.115,3.695,-1.885,10,14
45436,-0.143,1.032,-0.051,24.069,3.534,12.809,11,14
45478,-0.069,1.071,-0.025,9.321,-7.847,23.252,10,15
45520,0.188,1.056,-0.063,7.153,9.374,32.557,9,16
45562,0.394,0.954,-0.013,12.221,0.13,6.618,10,16
45604,0.425,1.128,-0.178,-5.13,6.939,-26.267,11,16
45647,-0.094,0.872,-0.06,-2.725,45.565,-19.336,11,15
45689,-0.331,1.136,0.143,22.519,0.13,8.748,12,15
45734,0.432,0.898,-0.461,-7.252,-4.756,1.947,11,15
45777,-0.023,0.904,0.021,-13.252,26.031,-10.183,12,15
45819,-0.1,1.115,0.154,6.458,-10.649,12.947,10,15
45861,0.345,0.993,-0.245,-3.802,-26.664,-7.42,11,14
45904,0.172,1.057,-0.021,-13.939,10.664,-20.29,10,15
45946,-0.059,1.021,0.144,-0.351,-16.931,-10.321,12,14
45988,0.173,1.004,-0.063,6.931,-10.71,-13.611,10,13
46031,0.013,0.997,-0.032,11.687,4.718,-12.229,12,14
46073,0.019,0.959,-0.042,13.489,-16.168,-7.412,12,13
46119,0.051,1.032,-0.107,16.748,-0.634,-3.847,11,14
46161,0.004,1.058,-0.164,1.45,9.725,-4.099,11,13
46203,-0.12,1.074,0.048,0.893,0.496,5.519,10,14
46245,0.126,1.022,-0.086,8.099,8.122,9.031,11,13
46287,0.181,1.055,-0.035,5.802,5.183,-2.344,11,14
46329,-0.023,1.025,-0.07,5.328,16.489,-4.985,10,14
46372,0.012,1.065,-0.088,17.221,-2.779,11.611,11,14
46414,0.349,0.977,-0.407,-4.115,2.802,-16.305,10,13
46456,-0.112,0.999,-0.037,-15.947,3.038,-19.061,12,13
46502,-0.259,1.052,0.121,17.885,0.466,25.595,12,14
46544,0.268,0.944,-0.254,14.145,-23.687,10.061,12,14
46587,0.171,1.105,-0.174,-8.092,-6.687,-9.29,11,14
46629,-0.105,0.939,0.084,6.336,0.947,7.252,11,14
46671,0.193,1.036,-0.175,12.038,-14.931,1.16,10,13
46714,0.135,0.964,-0.201,8.336,10.374,-5.511,12,13
46756,-0.056,0.958,-0.094,10.008,3.817,4.229,12,14
46798,0.068,1.024,-0.329,-4.382,-4.397,6.504,12,13
46841,-0.027,1.009,-0.089,-14.534,1.779,2.229,13,14
46886,0.26,1.122,0.09,3.954,-19.939,2.756,11,14
46929,0.432,0.97,-0.104,3.824,-8.069,-16.649,10,14
46971,0.092,0.81,-0.32,7.725,20.847,-29.969,11,13
47057,-0.104,1.082,-0.161,11.313,-9.771,13.573,11,13
47099,0.18,1.041,-0.307,-4.023,4.412,4.336,11,12
47142,0.027,1.044,-0.132,-15.382,-2.687,-9.702,11,13
47184,-0.144,1.017,0.052,-3.153,7.489,22.473,11,14
47227,0.387,0.95,-0.209,2.588,-11.847,8.244,11,15
47269,0.283,0.958,-0.183,-8.427,-2.489,-27.817,11,14
47315,-0.282,1.043,-0.021,0.481,10.664,-6.496,11,13
47357,-0.012,1.035,-0.159,5.855,-3.382,10.176,11,13
47399,0.288,1.033,-0.218,-7.618,-5.405,-2.618,11,14
47442,0.069,0.958,-0.054,-9.588,9.084,-13.519,11,13
47484,-0.192,1.009,0.082,4.771,-4.336,-2.672,11,13
47527,0.109,0.925,-0.311,15.969,-9.992,12.71,12,14
47569,0.207,0.948,-0.275,3.115,16.122,5.664,10,14
47612,0.014,1.104,-0.114,-1.565,-0.328,-0.992,12,14
47654,0.083,0.983,-0.07,5.855,-3.603,1.092,12,14
47700,0.157,1.049,-0.26,3.779,-4.74,-8.229,12,14
47744,0.113,0.942,-0.163,-4.534,-4.557,-15.527,11,13
47785,-0.139,1.034,-0.041,6.191,10.221,-0.634,12,13
47828,0.093,1.014,-0.193,9.542,-20.198,2.672,11,12
47870,0.161,1.022,-0.262,-0.595,3.947,-12.427,10,13
47913,-0.125,1.092,-0.056,-5.206,8.16,-0.153,11,13
47955,-0.057,0.962,-0.03,8.763,-8.168,14.908,12,12
47998,0.333,1.055,-0.367,7.969,-6.153,1.305,11,13
48040,0.069,0.944,-0.15,-5.573,12.634,-13.29,10,12
48092,-0.119,0.946,-0.093,10.695,-0.183,7.519,12,13
48134,0.265,0.995,-0.225,17.229,-10.878,4.084,11,12
48176,0.31,1.068,-0.357,-1.84,-6.748,-30.641,11,13
48218,-0.24,0.967,-0.139,-12.969,29.305,-15.473,13,12
48260,-0.286,1.055,0.05,10.42,-9.985,20.969,13,13
48301,0.381,1.034,-0.4,5.275,-13.298,3.557,11,12
48343,0.196,1.001,-0.216,-13.313,17.359,-11.931,11,12
48385,-0.246,0.948,0.037,1.565,5.244,-0.863,12,13
48427,0.068,1.022,-0.137,24.015,-13.496,14.206,11,12
48471,0.304,0.966,-0.459,4.679,-3.145,-6.893,11,12
48513,0.031,1.035,-0.193,-13.298,2.053,-26.221,11,12
48555,-0.315,0.959,0.038,7.565,7.229,4.55,12,12
48596,0.166,0.998,-0.322,11.26,-12.191,9.718,12,12
48638,0.208,1.003,-0.323,-2.298,-1.573,-11.023,12,12
48679,-0.089,1.02,-0.106,-6.74,8.588,-5.115,12,12
48721,-0.075,0.961,-0.088,9.977,-8.458,6.763,13,12
48763,0.231,1,-0.291,8.924,-8.687,-1.099,12,12
48805,0.057,1.002,-0.233,0.45,8.695,-7.947,15,12
48850,-0.092,0.988,-0.168,8.344,-5.863,-0.336,13,12
48892,0.13,1.014,-0.267,3.351,0.466,1.496,13,12
48934,0.069,0.939,-0.244,-2.55,2.695,-6.954,13,11
48976,-0.181,1.061,-0.101,8.107,16.985,13.069,15,13
49018,0.185,0.952,-0.32,4.26,-11.168,10.008,16,12
49060,0.326,0.964,-0.344,-11.489,-9.252,-25.29,13,12
49102,-0.324,1.027,-0.061,-1.87,30.496,-0.015,15,12
49144,-0.014,0.99,-0.144,10.084,-11.557,21.405,13,12
49229,-0.259,1.036,-0.138,-11.046,46.542,-13,15,12
49274,-0.233,1.012,-0.043,15.061,-12.84,29.191,14,13
49316,0.696,0.913,-0.598,-11.542,-32.16,-18.71,13,12
49359,-0.248,0.987,-0.056,-21.321,43.26,-23.534,14,12
49401,-0.391,0.948,0.129,22.389,-8.221,33.237,13,12
49443,0.551,0.919,-0.592,6.534,-42.878,-10.206,15,12
49485,0.036,1.099,-0.223,-17.244,23.847,-21.641,15,12
49527,-0.414,1.049,0.053,10.382,10.473,21.489,13,12
49569,0.345,0.857,-0.318,12.076,-26.397,10.336,13,12
49611,0.251,1.03,-0.346,-3.969,0.763,-21.656,14,11
49656,-0.322,1.014,-0.101,5.023,19.038,9.137,16,12
49698,0.156,0.971,-0.231,12.481,-23.206,11.626,12,12
49741,0.311,0.957,-0.376,-2.397,-0.718,-9.618,14,12
49783,-0.156,0.982,-0.153,-2.893,12.046,-6.16,13,12
49825,-0.042,1.049,-0.174,8.618,-13.71,9.687,14,13
49867,0.221,0.935,-0.319,1.206,-2.664,0.794,13,12
49909,0.062,0.975,-0.239,0.542,3.634,-10.275,12,11
49951,-0.039,0.998,-0.213,4.527,-1.84,-2.664,14,12
49993,0.081,1.002,-0.295,2.214,-3.473,-2.267,14,12
50038,0.041,1.025,-0.217,0.992,-2.229,-2.466,14,12
50080,0.028,0.932,-0.246,3.878,2.824,2.832,14,12
50122,0.052,0.998,-0.262,3.595,-7.878,0.435,12,12
50164,0.144,0.961,-0.355,-4.412,-0.29,-5.702,14,12
50206,-0.057,1.001,-0.174,-3.466,6.389,-2.473,14,12
50248,0.053,0.973,-0.241,1.626,-4.916,3.099,14,12
50290,0.108,0.979,-0.25,-0.344,-5.908,-5.145,12,12
50333,0.029,1.092,-0.181,-0.573,4.756,-5.252,14,12
50375,-0.028,0.912,-0.127,10.672,-4.038,1.344,14,12
50420,0.105,0.953,-0.349,11.802,-2.695,-4.046,17,12
50463,0.038,1.008,-0.396,-2.023,-0.534,-4.076,17,11
50505,-0.073,1.012,-0.25,-8.237,2.748,3.198,17,12
50547,0.06,0.974,-0.17,-4.344,-7.427,6.405,12,12
50589,0.161,0.931,-0.285,0.458,3.046,1.061,16,13
50632,0.019,0.992,-0.161,6.328,-0.679,-2.45,17,12
50674,0.07,1.009,-0.249,11.015,-11.305,-3.397,16,12
50716,0.08,0.975,-0.311,12.069,1.664,-4.626,16,12
50759,-0.021,1.042,-0.32,3.748,-7.176,-5.679,16,11
50804,0.032,0.897,-0.394,-5.954,5.489,0.641,16,11
50846,-0.023,1.025,-0.211,-6.718,-1.092,4.137,16,12
50889,0.11,0.896,-0.269,-3,1.031,5.725,16,12
50933,0.055,1.062,-0.168,3.206,0.275,-1.656,59,12
50987,0.136,0.922,-0.337,3.695,-4.031,-5.664,0,12
51028,0.011,1.016,-0.241,0.756,-4.573,-5.634,16,12
51072,0.062,0.935,-0.263,2.641,0.985,-5.145,16,12
51115,-0.002,0.968,-0.266,3.985,5.16,-3.618,37,12
51158,-0.023,1.029,-0.313,2.389,-1.763,2.374,16,11
51204,0.083,0.943,-0.281,-4.214,-0.687,2.382,29,12
51246,0.127,1.011,-0.268,-3.053,-3.282,-6.893,16,12
51299,-0.027,0.907,-0.224,1.443,8.198,-1.45,0,11
51341,0.049,1.056,-0.27,4.908,-3.763,1.397,16,12
51428,-0.064,0.94,-0.244,-5.015,12.473,-3.145,30,11
51471,-0.048,0.975,-0.142,5.809,-5.695,8.229,30,12
51513,0.233,0.952,-0.394,2.672,-11.015,-6.504,16,11
51558,-0.034,0.995,-0.25,-2.244,8.947,-7.031,62,11
51601,-0.128,0.983,-0.237,6.435,7.634,16.366,16,12
51646,0.262,0.936,-0.347,1.756,-12.565,0.916,17,12
51689,0.189,0.969,-0.351,-6.29,3.649,-19.336,16,11
51732,-0.283,1.012,-0.133,2.267,11.26,2.099,31,12
51775,0.119,0.941,-0.353,6.031,-16.74,9.947,16,12
51817,0.241,0.98,-0.278,-4.908,-5.038,-11.885,16,12
51860,-0.097,0.943,-0.248,-2.046,17.519,-5.763,30,11
51904,-0.1,0.986,-0.217,8.534,-13.099,10.427,29,11
51946,0.302,1.019,-0.451,-3.481,-4.489,-2.221,16,12
51989,0.013,0.915,-0.227,-8.893,8.191,-8.916,17,11
52034,-0.073,0.981,-0.224,3.924,-6.595,1.443,17,11
52078,0.138,0.98,-0.308,1.962,-1,-0.733,29,11
52120,0.064,0.965,-0.329,-1.389,-0.695,-7.275,17,11
52163,-0.058,0.988,-0.248,-0.046,2.939,1.565,30,11
52207,0.113,1.016,-0.336,-1.092,-6.992,0.695,29,11
52250,0.127,0.904,-0.286,-3.969,10.351,-7.061,30,11
52293,-0.091,0.992,-0.167,7.611,-1.382,-0.573,33,12
52337,0.112,0.963,-0.404,3.878,-4.573,-0.214,37,12
52381,0.091,1.03,-0.311,-7.305,-1.84,-9.244,38,12
52428,-0.097,0.97,-0.18,0.16,11.504,4.489,37,12
52471,0.133,1.009,-0.328,4.817,-12.771,-0.137,32,12
52515,0.123,0.939,-0.365,-7.817,1.626,-9.908,37,12
52559,-0.195,1.017,-0.154,0.779,8.29,8.366,37,12
52602,0.195,0.904,-0.342,5.786,-15.802,3.588,29,11
52645,0.264,0.939,-0.397,-7.305,6.992,-16.374,30,12
52689,-0.323,1.058,-0.092,-0.359,23.55,6.855,30,11
52732,0.178,0.886,-0.385,7.817,-21.321,6.282,29,11
52775,0.237,0.998,-0.373,-15.962,9.786,-11.168,30,12
52823,-0.241,0.963,-0.114,-3.031,17.802,6.847,30,12
52866,0.119,0.952,-0.288,5.748,-15.771,12.252,28,12
52910,0.267,1.001,-0.373,-5.336,-1.305,-11.595,28,11
52953,-0.143,0.967,-0.176,-2.985,14.893,3.053,28,11
52997,0.028,0.953,-0.199,9.718,-11.756,10.962,30,12
53040,0.305,0.987,-0.411,-1.763,-3.519,-7.519,29,12
53083,-0.048,0.992,-0.28,-6.244,14.504,-7.565,29,11
53127,-0.048,0.968,-0.147,2.878,-5.023,6.298,28,12
53170,0.222,0.979,-0.341,-1.573,-8.389,-5.405,30,12
53217,-0.001,0.964,-0.268,-0.534,14.718,-3.122,29,11
53260,-0.047,0.956,-0.187,5.733,-14.748,4.389,29,11
53304,0.301,0.981,-0.436,-3.527,0.756,-7.336,30,12
53353,-0.071,1,-0.191,-2.756,3.855,-6.466,29,11
53396,0,0.91,-0.228,4.687,-5.641,3.519,30,11
53439,0.144,0.96,-0.265,5.084,-5.809,-5.748,29,11
53481,0.057,0.963,-0.268,7.176,1.45,-7.29,30,12
53523,-0.001,1.016,-0.313,4.542,6.58,2.038,16,12
53566,0.046,0.968,-0.301,0.061,-9.87,0.908,29,12
53654,0.002,0.978,-0.223,0.611,2.45,2.458,16,12
53696,0.102,0.953,-0.311,0.855,0.092,1.351,29,12
53738,0.082,1.011,-0.319,-2.389,5.84,-3.733,16,12
53780,-0.003,0.976,-0.24,-0.573,9.008,4.45,16,12
53823,0.07,0.988,-0.199,2.611,-8.664,2.076,29,12
53866,0.189,0.939,-0.379,3.893,-2.74,-8.405,29,12
53908,-0.088,1.033,-0.31,-0.389,7.198,-0.779,30,11
53950,0.025,0.932,-0.29,-4.863,-10.061,6.214,16,12
53993,0.188,0.961,-0.263,0.069,1.763,2.55,29,11
54037,0.077,0.97,-0.235,3.588,-1.076,-6.641,58,12
54089,-0.007,0.963,-0.35,2.168,5.595,1.58,140,12
54134,0.069,0.973,-0.274,-2,-5.748,2.573,57,11
54178,0.137,0.989,-0.293,-2.58,-4.038,-3.634,57,11
54220,0.063,0.942,-0.309,-2.053,5.939,-4.603,16,12
54262,-0.048,0.965,-0.222,-1.427,-2.924,1.015,16,12
54306,0.178,1.009,-0.347,-1.641,-3.305,-0.55,57,11
54351,0.072,0.953,-0.266,-3.16,2.191,-3,58,12
54393,0.043,0.97,-0.277,-2.069,0.015,-3.13,16,12
54435,0.038,0.974,-0.292,0.832,1.824,0.901,16,12
54480,0.105,0.98,-0.32,-2.924,-4.733,-3.122,16,12
54522,0.043,0.982,-0.282,-4.443,6.756,0.969,16,12
54565,0.051,0.954,-0.224,2.443,-0.008,5.122,28,11
54607,0.132,0.957,-0.306,2.046,-6.214,-2.588,30,11
54650,0.094,1.005,-0.335,-5.076,4.885,-6.397,28,11
54693,-0.04,0.998,-0.276,-9.405,6.008,2.412,28,11
54736,0.105,0.93,-0.196,-1.237,-8.229,5.29,27,12
54779,0.191,0.953,-0.302,2.618,-2.74,-3.046,29,12
54821,0.027,0.994,-0.299,-2.481,5.74,-4.916,30,11
54867,0.017,0.986,-0.272,-3.053,-2.26,1.695,29,12
54910,0.156,1.03,-0.279,-4.29,-3.336,0.084,27,12
54953,0.125,0.899,-0.289,-4.412,4.603,-4.115,27,12
54996,-0.03,1.03,-0.196,-0.275,3.641,1.084,30,12
55040,0.069,0.939,-0.293,1.031,-1.305,8.275,27,12
55081,0.13,0.941,-0.299,-4.031,0.405,5.092,29,12
55124,0.145,0.986,-0.266,-4.26,-1.206,-0.244,17,13
55166,0.107,0.982,-0.222,-3.435,6.595,-0.679,17,12
55209,0.067,0.974,-0.24,0.969,-6.779,-2.634,25,12
55255,0.106,1.017,-0.323,-1.328,-0.031,-0.313,24,12
55298,0.095,0.986,-0.253,-7.855,2.649,-0.763,26,13
55340,0.074,0.987,-0.235,-4.733,-2.443,1.191,17,13
55383,0.098,0.951,-0.242,-3.924,-4.206,0.763,17,12
55425,0.148,0.99,-0.248,-4.427,0.137,-1.511,17,12
55467,0.1,0.955,-0.26,-3.794,-1.29,-4.382,18,12
55508,0.064,0.971,-0.205,-2.779,4.405,0.115,16,12
55552,0.09,0.964,-0.253,0.626,-3.168,0.031,17,12
55593,0.121,0.991,-0.255,-2.305,-0.756,-1.29,17,12
55639,0.088,0.984,-0.224,-1.634,-1.237,-0.489,17,12
55682,0.082,0.969,-0.214,0.031,2.107,-0.603,17,12
55724,0.118,0.982,-0.268,1.015,-7.275,-0.916,17,12
55766,0.145,0.995,-0.272,-1.282,1.748,-1.267,17,12
55852,0.114,0.97,-0.216,-0.366,1.084,-0.13,16,12
55894,0.118,0.984,-0.24,0.939,-3.511,-2.802,14,12
55936,0.08,0.988,-0.248,-0.595,1.664,-3.672,17,12
55979,0.086,0.983,-0.257,-2.802,0.84,0.74,15,12
56020,0.081,0.988,-0.179,-1.679,0.504,2.573,14,12
56066,0.137,0.962,-0.241,0.756,-1.595,-1.878,14,12
56108,0.101,1.01,-0.226,-0.595,0.237,-3.695,14,12
56151,0.081,1.014,-0.296,-1.183,-1.023,-1.695,17,12
56193,0.095,0.972,-0.254,-6.26,2.473,0.244,14,12
56235,0.1,0.999,-0.174,-3.275,-7.672,-0.908,14,12
56276,0.13,0.987,-0.227,0.427,-0.855,-2,13,12
56318,0.065,0.977,-0.209,3.527,0.962,0.519,14,12
56361,0.11,1.008,-0.279,0.008,-8.084,-2.672,14,12
56403,0.134,0.992,-0.267,-5.084,4.084,-2.046,14,12
56445,0.053,0.989,-0.163,-1.733,-3.382,-2.977,13,12
56492,0.106,0.942,-0.249,1.412,0.466,0.427,13,12
56534,0.092,1.008,-0.219,2.191,-3.252,-1.092,16,12
56576,0.127,1.004,-0.266,-3.015,2.26,-3.878,13,12
56617,0.052,1.003,-0.18,-1.855,-3.481,0.069,13,12
56660,0.113,0.948,-0.187,5.511,-9.008,-0.893,12,12
56702,0.125,1.011,-0.287,5.16,2.137,-4.695,14,12
56744,0.042,1.006,-0.297,-0.626,-3.733,-3.466,13,12
56786,0.11,1.006,-0.289,-7.214,3.916,2.817,14,12
56829,0.082,0.926,-0.134,-1.16,-4.023,-0.58,14,12
56884,0.165,0.949,-0.217,6.595,4.542,-1.679,12,12
56929,-0.014,1.008,-0.208,10.588,-7.427,-2.099,14,12
56974,0.156,1.058,-0.364,0.023,-5.221,-1.977,14,12
57018,0.089,0.964,-0.22,-6.099,6.282,-0.809,14,12
57063,0.051,1.002,-0.159,2.58,-2.985,-0.107,14,12
57108,0.14,0.936,-0.276,6.74,1.214,0.359,17,12
57153,0.082,1.006,-0.291,5.527,-5.252,-2.55,17,12
57198,0.137,0.981,-0.333,-2.534,-0.229,-1.573,17,12
57243,0.059,0.971,-0.212,-2.344,-2.649,-3.038,17,13
57292,0.091,0.975,-0.257,-0.931,2.55,-2.458,17,13
57337,0.066,0.971,-0.225,1.42,-2.649,-0.656,17,13
57382,0.144,0.991,-0.288,-0.847,-3.221,-1.885,17,13
57428,0.092,0.959,-0.234,0.511,-1.595,-4.534,17,13
57474,0.117,1.02,-0.302,-3.458,-0.649,-6.794,16,12
57519,-0.015,0.98,-0.198,-2.298,2.573,1.313,16,12
57564,0.11,0.969,-0.266,0.794,-8.847,2.74,16,13
57609,0.152,0.967,-0.311,-4.389,1.618,-1.008,17,13
57654,0.063,1,-0.213,-5.282,8.023,-2.71,15,13
57703,0.031,0.961,-0.181,1.542,-0.435,3.649,15,13
57748,0.155,0.997,-0.26,1.763,-5.794,-1.351,17,12
57793,0.096,0.987,-0.255,-0.626,3.313,-3.969,16,13
57839,0.022,0.981,-0.245,-0.237,-0.015,0.87,16,13
57884,0.124,0.982,-0.231,-1.214,-7.939,1.405,17,12
57929,0.157,0.954,-0.264,-0.237,3.053,-4.176,17,12
57974,0.017,0.997,-0.224,0.084,3.71,-0.824,16,13
58019,0.113,0.988,-0.27,0.565,-4.908,-0.115,16,13