Timestamp(ms),AccelX(g),AccelY(g),AccelZ(g),GyroX(deg/s),GyroY(deg/s),GyroZ(deg/s),DistanceLeft(cm),DistanceRight(cm)
22112,0.171,0.538,0.896,0.58,-1.802,-0.092,16,139
22162,0.173,0.539,0.891,-0.084,1.824,-0.359,30,139
22211,0.167,0.532,0.914,0.16,2.198,-0.031,16,139
22260,0.149,0.541,0.908,0.748,-0.534,0.069,16,139
22309,0.164,0.538,0.899,1.084,-0.832,0.13,16,140
22362,0.166,0.536,0.896,1.206,0.359,0.176,74,140
22410,0.159,0.536,0.89,1,0.221,0.237,16,140
22463,0.162,0.543,0.899,0.863,-0.878,-0.145,74,139
22518,0.163,0.535,0.897,0.45,0.641,0.099,74,140
22571,0.163,0.542,0.895,0.618,0.458,-0.153,74,140
22623,0.162,0.533,0.899,0.763,0.359,0.099,74,139
22675,0.158,0.552,0.891,0.947,0.336,0.145,74,139
22725,0.16,0.549,0.893,1.183,-1.046,-0.031,37,139
22774,0.169,0.545,0.883,0.473,-1.038,0.084,17,139
22823,0.174,0.545,0.892,-0.069,1.695,-0.015,17,139
22874,0.152,0.544,0.903,0.305,2.809,-0.115,31,140
22924,0.14,0.542,0.904,1.748,-1.496,0.382,31,139
22976,0.171,0.544,0.879,1.496,-2.16,0.122,33,139
23029,0.172,0.551,0.882,0.664,0.023,-0.183,75,139
23081,0.171,0.547,0.892,0.405,0.878,-0.45,75,140
23134,0.15,0.55,0.909,0.786,-0.931,0.107,74,140
23187,0.166,0.555,0.886,0.55,-0.931,0.153,75,140
23239,0.169,0.55,0.891,0.496,0.107,0.275,75,139
23291,0.165,0.547,0.886,0.061,-1.061,0.137,75,139
23345,0.175,0.55,0.878,-0.954,1.466,-0.45,75,139
23397,0.16,0.557,0.898,-1.13,2.137,-0.427,75,139
23452,0.153,0.551,0.896,-0.13,-0.443,-0.046,75,140
23505,0.166,0.552,0.89,-0.351,-0.336,0.153,75,139
23558,0.17,0.55,0.886,-0.366,0.023,0.023,75,139
23610,0.163,0.548,0.888,-1.336,-0.496,0.008,75,139
23663,0.169,0.552,0.897,-1.55,1.565,-0.13,75,139
23715,0.151,0.541,0.902,-0.824,2.687,0.221,75,139
23769,0.15,0.549,0.896,0.198,-3.176,0.206,75,139
23821,0.183,0.557,0.879,-0.634,-0.779,-0.29,75,140
23874,0.166,0.549,0.899,-1.595,2.885,-0.305,74,139
23929,0.154,0.553,0.911,-1.13,1.252,0.153,75,139
23982,0.164,0.549,0.889,-0.412,-1.885,0.099,75,139
24035,0.175,0.547,0.894,-0.878,0.26,0.061,75,139
24087,0.157,0.54,0.9,-1.008,1.336,0.008,75,139
24140,0.159,0.541,0.898,-0.473,-0.183,-0.221,75,139
24193,0.173,0.542,0.9,-0.779,0.511,-0.092,75,139
24246,0.158,0.538,0.904,-0.611,0.145,-0.237,74,139
24298,0.163,0.548,0.894,-0.374,0.229,0.061,74,139
24351,0.152,0.539,0.897,-0.489,0.969,-0.069,74,139
24404,0.156,0.539,0.901,0.046,-0.893,0.305,74,139
24460,0.165,0.542,0.888,-0.924,-1.473,0.221,74,139
24512,0.178,0.543,0.89,-1.672,1.305,-0.305,74,139
24565,0.156,0.531,0.919,-1.26,3.221,0.046,74,139
24617,0.146,0.539,0.911,-0.099,-1.466,0.214,74,139
24671,0.167,0.538,0.891,-0.191,-0.893,0.153,74,139
24766,0.167,0.533,0.907,-0.969,1.855,-0.107,74,139
24816,0.155,0.541,0.911,-0.473,-0.626,-0.153,16,139
24868,0.165,0.537,0.909,-0.802,-0.244,0.053,74,139
24922,0.164,0.537,0.901,-0.55,1.29,-0.031,74,139
24974,0.161,0.532,0.909,-0.244,-0.061,0.137,16,139
25023,0.16,0.534,0.902,-0.336,-0.069,-0.351,16,139
25072,0.163,0.535,0.905,-0.382,1.29,-0.122,16,139
25121,0.145,0.533,0.901,0.252,0.244,0.107,9,139
25170,0.156,0.541,0.89,0.595,-0.45,0.053,9,139
25219,0.161,0.539,0.891,0.588,-0.397,0.076,9,139
25268,0.171,0.537,0.902,0.389,0.229,0.015,9,139
25317,0.153,0.542,0.888,0.13,-0.153,0.351,9,139
25366,0.166,0.541,0.902,-0.069,-0.405,-0.389,9,139
25417,0.164,0.534,0.905,0.069,2.603,0.183,9,139
25466,0.148,0.53,0.915,0.985,0.038,0.053,9,139
25516,0.162,0.541,0.896,0.878,-1.824,0.153,9,139
25565,0.175,0.546,0.896,0.565,0.198,-0.443,16,139
25614,0.16,0.536,0.901,0.168,1.275,-0.298,16,139
25663,0.146,0.544,0.902,0.809,-0.389,0.046,16,139
25713,0.161,0.539,0.904,1.145,-1.053,0.061,16,139
25762,0.162,0.546,0.896,1.45,-0.099,0.267,16,139
25811,0.158,0.539,0.894,1.344,-0.427,0.206,16,140
25861,0.173,0.545,0.896,0.977,-1.458,0.092,16,140
25909,0.164,0.547,0.885,0.573,0.015,-0.282,31,139
25959,0.16,0.54,0.894,0.893,0.374,0.115,16,140
26009,0.157,0.548,0.892,0.84,-0.389,-0.046,31,139
26059,0.161,0.543,0.898,0.84,-0.137,0.092,31,140
26109,0.165,0.542,0.9,1.053,-0.534,0.008,33,140
26160,0.16,0.547,0.893,0.947,-0.435,0.153,31,140
26210,0.176,0.546,0.887,0.107,-1.076,-0.153,31,139
26260,0.172,0.544,0.887,-0.527,1.519,-0.069,31,140
26311,0.143,0.541,0.91,0.267,0.931,0.29,31,139
26364,0.173,0.553,0.894,0.847,-2.489,0.298,32,139
26415,0.172,0.546,0.876,0.198,0.252,-0.122,32,139
26465,0.165,0.553,0.897,-0.611,1.695,-0.328,32,140
26515,0.155,0.548,0.892,-0.656,0.901,-0.29,32,140
26568,0.164,0.549,0.903,-0.802,-0.351,0.099,75,139
26621,0.17,0.549,0.888,-0.519,0.466,0.015,74,140
26675,0.162,0.54,0.893,-0.527,1.053,0.29,75,139
26727,0.171,0.546,0.896,-0.863,-0.443,-0.092,75,140
26780,0.171,0.554,0.902,-1.252,1.031,-0.298,75,139
26836,0.165,0.541,0.905,-1.191,1.107,0.015,75,140
26890,0.158,0.545,0.895,-0.634,0.168,-0.008,74,140
26943,0.157,0.545,0.899,-0.58,0.183,-0.214,74,139
26996,0.157,0.542,0.902,-0.618,0.099,0.16,74,139
27048,0.157,0.543,0.885,-0.595,-0.13,0.023,74,139
27102,0.168,0.544,0.886,-1.405,-0.153,-0.237,74,140
27155,0.158,0.54,0.903,-1.779,3.115,-0.16,74,139
27205,0.14,0.535,0.912,-0.557,0.015,0.275,16,139
27258,0.179,0.546,0.891,-0.13,-2.092,0.328,74,139
27357,0.162,0.543,0.909,-1.229,1.603,-0.305,74,139
27407,0.155,0.542,0.896,-0.824,0.023,0.115,16,139
27460,0.157,0.539,0.909,-0.443,-0.954,-0.023,74,139
27513,0.157,0.537,0.904,-0.496,0.893,0.191,74,139
27563,0.158,0.54,0.906,-0.405,1,0.031,16,139
27613,0.156,0.532,0.898,-0.573,-0.344,-0.176,16,139
27662,0.16,0.537,0.908,-0.855,0.092,-0.023,16,139
27712,0.159,0.532,0.903,-0.641,0.863,-0.076,16,139
27761,0.151,0.54,0.9,-0.45,0.038,0.115,16,139
27814,0.158,0.53,0.895,-0.397,-0.084,-0.13,16,139
27864,0.16,0.539,0.907,-0.344,0.275,-0.115,16,139
27914,0.156,0.536,0.91,-0.405,0.359,-0.244,16,139
27964,0.151,0.531,0.897,-0.015,-0.71,0.313,16,139
28013,0.167,0.535,0.895,-0.763,-0.641,-0.473,16,139
28063,0.158,0.537,0.913,-0.885,2.504,-0.221,16,139
28112,0.145,0.535,0.914,0.412,0.74,0.122,9,139
28162,0.159,0.538,0.902,0.802,-2.214,0.328,9,139
28211,0.173,0.535,0.888,0.366,-0.481,-0.168,9,139
28260,0.16,0.541,0.899,-0.008,1.427,-0.244,9,139
28312,0.154,0.537,0.911,0.42,-0.191,0.267,9,139
28362,0.159,0.542,0.898,0.687,-1.504,0.183,9,139
28411,0.171,0.539,0.898,0.824,0.023,0.008,9,139
28461,0.157,0.535,0.9,0.87,-0.099,0.038,9,139
28510,0.167,0.538,0.893,1.275,-1.664,0,9,139
28559,0.176,0.542,0.889,0.695,-0.618,-0.076,9,140
28615,0.162,0.539,0.895,0.664,0.511,-0.076,9,139
28663,0.157,0.542,0.909,0.855,-0.763,0.107,9,139
28712,0.158,0.541,0.898,0.74,-0.893,-0.038,16,140
28764,0.164,0.544,0.892,0.847,-0.176,0.221,16,140
28813,0.161,0.539,0.894,0.962,-0.466,0.084,16,139
28862,0.154,0.548,0.895,0.954,-1.145,-0.038,16,140
28911,0.16,0.552,0.888,0.969,-0.626,0.092,16,139
28959,0.176,0.552,0.887,0.267,-0.695,-0.252,16,139
29012,0.171,0.543,0.894,0,1.26,-0.038,74,140
29062,0.155,0.543,0.902,0.595,0.679,0.229,16,139
29114,0.171,0.545,0.895,1.168,-2.573,0.321,74,139
29166,0.183,0.55,0.88,0.023,0.008,-0.153,74,139
29221,0.165,0.542,0.892,-0.878,1.641,-0.267,74,139
29274,0.162,0.548,0.9,-0.557,0.244,0.008,74,140
29326,0.165,0.547,0.892,-0.519,-0.756,0.053,74,139
29379,0.167,0.542,0.891,-0.565,1.176,0.046,74,140
29431,0.157,0.544,0.901,-0.26,0.786,0.145,74,139
29484,0.169,0.545,0.893,-0.267,-1.855,0.053,74,139
29536,0.174,0.541,0.888,-1.046,-0.183,-0.237,74,139
29586,0.151,0.544,0.896,-1.061,-0.427,0.015,29,139
29635,0.176,0.54,0.893,-0.954,-1.885,-0.038,17,140
29687,0.17,0.535,0.901,-0.702,-0.458,0.137,17,139
29736,0.175,0.542,0.896,-0.695,0.076,0.115,17,139
29786,0.171,0.54,0.906,-0.176,-1.145,0.26,17,140
29845,0.165,0.545,0.896,-0.641,-0.916,0.053,0,139
29937,0.181,0.542,0.899,-1.901,1.954,-0.115,17,140
29987,0.155,0.538,0.916,-1.092,2.023,0.176,27,139
30036,0.175,0.538,0.911,-0.023,-2.527,0.305,26,140
30086,0.184,0.545,0.886,-0.366,-0.947,0,17,139
30136,0.18,0.54,0.896,-1.252,1.641,-0.122,17,139
30185,0.165,0.526,0.909,-1.183,2.275,-0.16,27,139
30238,0.157,0.539,0.912,-0.107,-0.901,-0.198,27,139
30287,0.167,0.535,0.901,-0.313,-0.382,0.183,17,139
30337,0.174,0.532,0.896,-0.198,0.885,-0.053,17,139
30386,0.169,0.534,0.904,-0.023,0.038,-0.084,22,139
30435,0.175,0.534,0.9,-0.275,-0.176,-0.191,22,139
30485,0.172,0.535,0.901,-0.145,0.916,-0.176,28,139
30535,0.163,0.534,0.901,0.13,0.977,-0.16,23,140
30584,0.169,0.533,0.909,0.13,-0.267,0.046,23,139
30633,0.172,0.535,0.912,0.687,-0.344,0.084,22,139
30686,0.173,0.535,0.898,0.542,0.153,0.015,22,139
30736,0.168,0.54,0.9,0.656,0.275,-0.145,22,139
30785,0.171,0.548,0.893,0.427,-0.45,0.16,22,139
30834,0.171,0.534,0.891,0.183,-0.45,-0.122,22,139
30884,0.173,0.543,0.9,0.336,1.779,0.038,22,139
30934,0.154,0.535,0.904,0.611,0.748,0.26,22,139
30983,0.176,0.539,0.89,1.26,-2.321,0.26,22,139
31033,0.178,0.543,0.883,0.824,0.336,-0.176,22,140
31082,0.155,0.543,0.896,0.336,0.893,-0.282,22,139
31134,0.172,0.542,0.894,0.885,-0.527,0.122,22,139
31184,0.177,0.546,0.902,1.023,-1.145,0.038,22,139
31234,0.178,0.548,0.892,0.389,-0.496,0.031,18,139
31284,0.174,0.541,0.899,1.061,0.061,0.237,23,140
31333,0.178,0.543,0.887,0.588,-1.344,-0.076,23,139
31382,0.179,0.544,0.896,-0.26,0.115,-0.206,18,139
31432,0.174,0.542,0.897,-0.397,1.008,-0.023,23,139
31481,0.166,0.536,0.892,-0.351,0.405,-0.084,23,139
31532,0.171,0.542,0.896,-0.191,0.321,0.008,23,139
31584,0.174,0.543,0.9,0.015,0.412,-0.069,23,139
31634,0.167,0.542,0.901,-0.107,-0.359,-0.099,23,140
31684,0.182,0.541,0.897,-0.092,0.252,-0.015,23,140
31733,0.17,0.539,0.901,-0.618,-0.092,0.061,23,140
31783,0.182,0.543,0.894,-0.817,0.427,-0.42,23,140
31833,0.18,0.541,0.899,-0.634,2.87,0.015,22,140
31883,0.15,0.543,0.903,0.344,-0.687,0.137,22,140
31932,0.194,0.545,0.884,-0.008,-2.351,0.336,22,139
31982,0.184,0.544,0.889,-0.748,1.733,-0.267,24,139
32032,0.165,0.538,0.91,-0.893,1.679,-0.061,22,139
32084,0.17,0.541,0.901,0.046,-0.565,0.229,22,139
32135,0.182,0.529,0.892,-0.092,-1.382,-0.115,25,140
32185,0.175,0.539,0.887,-0.206,1.412,0.084,25,139
32234,0.165,0.536,0.902,0,0.214,0.115,24,140
32284,0.175,0.538,0.891,-0.092,-1.542,-0.107,23,139
32333,0.173,0.542,0.898,-0.634,0.565,-0.015,23,139
32384,0.169,0.54,0.905,-0.656,0.809,-0.076,23,140
32477,0.171,0.537,0.891,-0.16,-0.115,0.061,24,139
32527,0.181,0.542,0.892,-0.183,0.366,-0.076,23,139
32579,0.177,0.539,0.903,-0.061,0.649,0.107,22,139
32629,0.172,0.541,0.899,-0.008,-0.244,-0.061,22,139
32679,0.172,0.539,0.884,-0.863,-0.771,0.122,22,140
32729,0.181,0.541,0.901,-0.924,1.55,-0.061,26,139
32779,0.164,0.537,0.906,-0.557,2.55,0.176,28,139
32829,0.156,0.537,0.907,0.519,-2.527,0.252,27,139
32879,0.137,0.521,1.123,2.084,-13.649,0.42,23,139
32928,0.125,-0.077,1.478,60.962,-115.427,-38.16,8,140
32977,0.554,0.396,1.036,147.069,-250.137,-143.382,9,143
33034,0.229,0.754,0.433,97.641,-232.916,-169.656,7,0
33077,0.06,0.977,0.002,47.153,-187.794,-164.908,16,29
33120,-0.082,0.832,0.189,1.603,-74.901,-86.084,17,26
33164,-0.07,0.919,0.33,-13.824,-42.412,-40.595,16,25
33207,0.233,1.041,0.361,-13.092,-21.58,-21.229,16,25
33250,0.193,1.006,0.439,-15.153,9.359,-5.924,16,25
33293,0.183,0.91,0.539,-14.076,-8.733,-4.145,11,24
33346,0.295,0.884,0.476,-6.053,5.748,-3.107,0,23
33389,0.173,0.885,0.607,0.45,-0.16,-0.092,17,24
33435,0.305,0.908,0.475,-0.237,-3.824,1.588,12,25
33478,0.249,0.88,0.528,2.443,3.107,0.076,12,25
33520,0.226,0.899,0.551,4.863,-0.244,-2.519,11,24
33563,0.255,0.884,0.543,8.107,-2.893,0.137,11,24
33606,0.25,0.888,0.519,14.725,4.656,-0.107,11,24
33649,0.167,0.855,0.602,21.557,-5,-1.771,16,24
33691,0.222,0.898,0.578,35.229,-7.511,4.298,10,25
33744,0.265,0.633,0.777,65.511,16.977,14.931,197,23
33788,0.232,0.884,0.724,147.809,12.74,15.366,16,24
33835,0.544,1.22,-0.49,112.794,5.344,-2.397,17,23
33876,0.27,1.015,-0.602,4.84,-1.45,-17.481,9,22
33920,0.072,0.988,0.013,-35.794,20.26,-18.046,16,22
33963,0.145,0.997,0.392,-9.153,7.214,-7.252,17,22
34007,0.321,0.911,0.36,11.046,2.557,-1.573,17,22
34060,0.419,0.904,0.281,16.183,6.511,-21.16,0,21
34102,0.082,1.067,0.343,31.359,2.519,-24.58,10,21
34145,0.081,1.047,0.151,39.015,-2.389,-14.321,16,20
34188,0.086,1.053,0.109,32.45,5.511,-3.107,16,20
34234,0.183,1.02,0.034,23.534,5.687,-1.802,11,20
34276,0.134,1.069,0.057,14.359,8.168,-0.282,10,19
34319,0.186,1.01,0.019,9.794,9.794,-3.779,10,20
34361,0.071,1.021,0.111,8.534,10.786,3.573,10,19
34404,0.116,1.072,0.106,13.901,3.313,10.649,10,20
34446,0.224,0.98,0.098,16.603,6.336,12.374,9,19
34489,0.266,1.054,0.081,12.817,0.252,1.076,9,19
34531,0.262,0.912,0.029,10.595,8.244,-5.29,9,20
34574,0.129,0.983,0.126,15.695,11.695,-8.763,9,19
34616,0.165,0.991,0.041,16.748,-8.679,-10.275,10,19
34662,0.185,1.088,-0.028,12.695,5.878,-9.443,9,19
34704,0.039,1.073,0.01,10.382,8.206,-2.382,9,18
34790,0.202,1.023,-0.063,-0.298,7.71,0.565,9,19
34833,0.138,1.025,0.042,-1.176,9.359,0.87,10,19
34881,0.09,1.021,0.096,5.489,6,6.718,10,19
34923,0.221,1.036,-0.025,8.313,-4.237,3.198,9,18
34964,0.235,1.036,-0.065,2.16,4.878,-1.206,9,19
35006,0.103,0.977,0.017,-0.198,23.786,2.641,10,18
35048,0.097,1.005,0.075,8.748,-1.962,3,10,19
35092,0.231,1.003,-0.046,7.092,-3.863,1.214,10,19
35134,0.223,1.05,-0.077,4.481,9.42,0.771,10,18
35176,0.08,0.987,0.054,2.115,6.924,1.45,10,18
35217,0.197,1.046,-0.039,1.817,-6.595,-0.427,10,18
35259,0.187,0.974,0.008,2.641,2.573,0.267,10,18
35301,0.185,1.057,-0.01,6.29,-3.221,-3.595,10,18
35342,0.139,0.997,-0.024,7.641,2.466,-1.229,9,18
35384,0.153,1.04,-0.057,7.229,1.122,0.252,9,18
35426,0.13,1.018,-0.057,1.405,0.924,1.794,11,18
35470,0.216,0.976,-0.06,-0.359,-1.466,-0.954,9,18
35512,0.15,1.078,0.024,-1.122,4.023,-0.58,9,19
35554,0.134,0.947,-0.006,4.695,-4.061,0.58,9,18
35595,0.174,1.037,-0.022,5.786,-5.221,-1.366,9,18
35637,0.194,0.995,-0.093,3.779,-3.511,-3.16,9,18
35679,0.165,1.041,-0.075,-0.16,11.794,0.191,10,17
35721,0.064,0.994,0.023,1.443,4.031,5.519,10,17
35762,0.225,1.013,-0.072,3.389,-8.58,1.779,9,18
35812,0.21,1.014,-0.029,2.427,-3.115,-5.802,9,17
35854,0.179,0.998,-0.073,2.115,5.366,-7.099,10,18
35898,0.016,1.06,0.012,4.718,1.107,-1.527,11,17
35940,0.132,0.946,-0.108,4.504,-5.702,5.336,11,18
35982,0.189,1.097,-0.087,0.214,-2.443,3.58,10,17
36024,0.178,1.011,-0.056,-4.412,4.282,3.13,10,17
36065,0.185,0.939,-0.086,-1.42,7.244,2.504,10,17
36107,0.154,1.085,-0.054,-2.176,-4.832,-1.366,10,17
36149,0.206,0.947,-0.103,-4.985,4.168,-0.725,10,18
36191,0.131,1.05,-0.03,-4.473,-0.435,-2.718,11,18
36233,0.176,1.035,-0.036,-5.595,4.947,4.053,10,17
36277,0.152,0.984,0.006,-0.588,-1.885,1.092,9,18
36319,0.221,1.038,-0.035,-1.42,-1.351,-2.733,9,18
36361,0.129,0.972,0.005,3.061,5.275,1.664,10,17
36403,0.171,1.024,-0.019,5.115,-8.397,-0.656,10,17
36444,0.236,0.992,-0.093,3.496,0.55,-2.71,10,17
36486,0.138,1.02,-0.05,2.351,7.229,-3.046,12,17
36528,0.087,1.016,-0.035,1.679,0.725,1.885,11,17
36570,0.157,1.06,-0.062,0.794,-0.221,4.389,12,17
36612,0.19,0.996,-0.05,0.336,-3.611,3.42,10,17
36657,0.239,1.014,-0.081,1.725,0.802,-0.595,9,17
36699,0.145,1.04,-0.034,-1.313,5.298,-0.382,10,17
36741,0.147,0.972,-0.036,2.305,-0.595,-1.26,12,17
36783,0.195,1.062,-0.086,1.008,0.313,-0.244,12,18
36825,0.158,0.995,-0.045,-1.718,4.511,0.344,12,18
36867,0.176,0.999,-0.04,-1.962,-4.954,-2.023,12,18
36952,0.132,1.018,-0.017,1.992,4.649,2.634,12,17
36995,0.195,1.017,-0.085,2.542,-2.885,-0.695,12,17
37037,0.207,1.005,-0.073,-0.229,3.214,-1.84,11,17
37079,0.19,1.012,-0.082,0.695,12.267,-1.672,11,19
37124,0.093,1.018,-0.01,0.084,10.137,2.214,11,17
37166,0.167,0.994,-0.061,2.794,-5.748,-0.053,11,18
37208,0.199,1.03,-0.052,2.092,0.168,0.092,11,18
37250,0.173,1.027,-0.033,0.267,0.725,-0.176,11,18
37292,0.18,0.984,-0.077,1.42,-0.42,0.191,11,18
37335,0.153,1.014,-0.065,-0.061,3.176,1.237,13,18
37377,0.172,1.035,-0.057,-0.244,-3.435,0.466,11,18
37419,0.202,1.008,-0.069,-1.305,4.244,0.084,11,18
37460,0.162,1.01,-0.016,1.916,4.71,-0.145,11,18
37506,0.163,1.022,-0.027,4.344,-1.145,-0.542,11,18
37548,0.173,1.02,-0.079,3.878,-1.435,-0.427,11,18
37591,0.19,1.019,-0.09,2.275,8.053,1.817,11,18
37633,0.14,1.01,-0.031,0.901,-0.183,-0.45,11,16
37675,0.191,1.009,-0.054,0,-11.031,-2.229,11,16
37716,0.224,1,-0.153,-0.099,6.71,-1.992,11,17
37758,0.108,1.04,-0.001,-4.145,14.664,1.061,11,18
37801,0.167,0.992,-0.063,-1.015,-8.336,-2.321,12,17
37843,0.184,1.012,-0.083,-1.817,7.718,1.496,11,17
37889,0.134,0.993,-0.013,0.695,-2.557,1.496,11,18
37931,0.207,1.007,-0.077,1.244,-7.183,-0.817,11,18
37974,0.209,1.03,-0.094,-0.779,7.252,-1.588,11,18
38016,0.127,1.024,-0.042,-3.221,7.237,-0.374,11,17
38057,0.138,0.999,-0.035,-0.229,-6.137,-2.588,11,17
38099,0.204,1.032,-0.072,-0.206,-1.901,-0.374,11,17
38142,0.144,0.999,-0.067,0.45,4.397,0.809,11,17
38184,0.155,1.027,-0.044,-0.252,-3.092,-1.863,11,17
38226,0.177,1.014,-0.071,-1.779,0.672,-1.076,11,17
38273,0.142,1.021,-0.033,-0.626,4.031,1.13,13,17
38315,0.15,1.021,-0.05,-0.183,-3.084,0.748,11,17
38356,0.177,1.01,-0.072,-0.221,-1.16,1.351,11,17
38400,0.202,1.015,-0.053,0.267,2.29,-0.115,11,17
38441,0.154,1.024,-0.043,0.183,0.023,-1.351,11,17
38483,0.165,1.021,-0.085,-1.809,0.366,-0.496,11,17
38525,0.158,1.016,-0.051,-0.611,2.473,1.527,11,17
38568,0.163,1.011,-0.039,-0.901,-0.16,0.641,11,17
38610,0.193,1.014,-0.087,0.412,-1.206,0.031,11,17
38657,0.178,1.029,-0.115,-3.718,7.954,1.985,11,17
38699,0.134,1.01,-0.073,-9.626,5.611,0.763,11,18
38742,0.193,1.03,-0.025,-9.939,3.695,-0.191,16,18
38784,0.123,0.978,0.044,-3.947,4.611,1.221,11,18
38825,0.187,1.022,-0.007,1.87,-3.74,2.282,11,18
38868,0.193,0.994,-0.053,3.504,3.16,2.374,11,18
38910,0.192,1.036,-0.061,0.695,-2.603,-1.687,13,17
38953,0.18,1.008,-0.059,-0.916,0.626,-2.458,11,18
38995,0.173,1.004,-0.053,-0.985,5.214,0.359,11,17
39037,0.133,1.054,-0.025,-0.282,4.321,0.756,11,17
39127,0.226,1.022,-0.035,-0.008,-3.489,-0.359,11,18
39170,0.187,1.029,-0.049,-1.481,3.74,-0.603,11,18
39212,0.149,0.994,-0.009,0.832,-1.458,-0.779,11,18
39255,0.2,0.996,-0.053,2.519,-2.405,-0.672,16,18
39297,0.175,1.01,-0.028,0.496,1.397,-2.237,11,18
39340,0.156,1.016,-0.054,1.618,-0.504,0,11,17
39382,0.162,1.025,-0.026,0.802,-0.061,0.992,11,17
39424,0.199,1.013,-0.063,-0.664,-1.504,-0.542,11,16
39467,0.161,1.023,-0.033,-0.397,4.252,1.115,11,16
39512,0.16,1.012,-0.048,-1.824,-1.16,0.992,11,18
39555,0.191,1.004,-0.023,-0.702,-0.489,0.244,11,18
39597,0.187,1.032,-0.05,-1.992,-0.695,-1.366,11,18
39640,0.192,1.012,-0.045,-2.641,2.74,-0.641,11,17
39682,0.131,0.993,-0.003,-0.901,3.557,1.534,11,18
39725,0.179,1.031,-0.027,-0.847,-4.695,0.473,11,18
39767,0.202,0.987,-0.033,-0.168,2.13,0.122,11,18
39810,0.176,1.043,-0.027,-0.107,2.779,-1.183,11,18
39852,0.137,1.014,-0.031,0.168,-1.443,0.206,11,17
39898,0.192,1.02,-0.05,-0.885,1.282,1.023,11,18
39940,0.181,1.021,-0.009,0.473,0.336,-0.832,11,17
39983,0.191,0.993,-0.03,1.832,0.664,-0.527,11,17
40025,0.157,1.063,-0.051,1.969,2.191,-1.504,12,16
40068,0.16,0.999,-0.04,-1.786,-2.931,-0.542,12,17
40111,0.177,1.036,-0.041,-1.313,1.863,0.687,12,18
40153,0.157,0.987,0.023,0.481,-0.595,1.55,12,18
40196,0.203,1.025,-0.068,2.55,-2.29,0,11,18
40238,0.173,1.01,-0.037,-0.756,2.45,-0.55,12,17
40284,0.163,1.017,-0.031,0.298,0.282,-0.534,12,18
40327,0.162,1.003,-0.012,2.046,0.122,1.389,12,18
40369,0.189,1.004,-0.054,0.038,-1.901,-0.611,12,18
40412,0.19,1.035,-0.056,-0.305,1.046,-0.458,12,16
40455,0.145,1.011,-0.015,-0.565,1.962,0.924,12,16
40497,0.195,1.018,-0.042,1.595,-4.107,0.221,12,16
40540,0.168,1.022,-0.023,0.725,1.626,-0.458,12,17
40582,0.157,1.033,-0.06,0.252,0.992,0.435,12,17
40625,0.164,1.016,-0.026,-1.504,-0.565,2.031,12,18
40668,0.207,1.008,-0.021,-0.969,-2.008,-0.908,11,17
40714,0.197,1.016,-0.023,-0.061,0.237,-2.71,12,18
40757,0.151,1.026,-0.046,0.641,4.802,-0.053,17,17
40799,0.123,1.003,-0.012,1.427,-1.565,1.588,17,16
40842,0.216,1.032,-0.07,0.053,-4.137,0.908,12,17
40885,0.182,1.006,-0.021,-1.046,6.435,-0.053,12,18
40928,0.172,1.007,-0.048,-0.435,-3.855,-2.29,12,16
40971,0.182,1.026,-0.052,-1.634,4.473,-1.679,18,17
41014,0.16,1.02,-0.042,-1.397,-2.824,-1.008,17,16
41057,0.167,1.031,-0.03,-1.702,3.107,0.817,17,16
41108,0.187,0.994,-0.038,-0.427,-3,0.748,12,18
41150,0.181,1.025,-0.033,1.069,2.802,1.794,12,18
41192,0.168,1.003,-0.025,1.115,-2.954,1.137,12,18
41234,0.213,1.012,-0.037,1.229,1.557,0.473,12,18
41320,0.174,1.003,-0.052,-0.557,-2.336,-1.412,17,17
41362,0.158,1.031,-0.034,-1.191,0.908,-0.16,17,18
41404,0.172,1.003,-0.033,-2.328,1.534,-0.55,17,18
41447,0.183,1.01,-0.004,-1.656,0.221,0.679,17,18
41489,0.155,1.001,0.007,1.573,-0.687,-0.45,17,17
41534,0.193,1.035,-0.064,1.267,-0.679,-0.389,17,17
41577,0.153,1.03,-0.055,-2.221,5.145,0.771,17,17
41619,0.161,1.025,-0.013,-4.183,-3.015,0.557,17,17
41661,0.195,1.005,-0.022,-2.718,1.084,-0.336,12,17
41703,0.177,0.999,0.013,-1.084,0.985,-0.55,12,18
41745,0.14,1.05,-0.014,0.588,-1.137,1.122,12,17
41787,0.186,1.006,-0.044,0.176,-1.183,2.237,12,17
41829,0.178,1.011,-0.027,-0.45,2.802,2.573,11,17
41871,0.191,0.986,-0.014,-0.282,-4.878,-2.13,11,17
41916,0.193,1.029,-0.04,-0.863,3.649,-2.527,11,19
41958,0.129,1.005,0.002,0.763,0.649,-0.405,12,18
42000,0.177,1.01,-0.053,0.878,-0.397,1.58,12,18
42043,0.167,1.013,-0.01,0.489,2.626,1.588,17,18
42085,0.184,1.003,-0.029,0.099,-3.878,0.092,11,17
42127,0.221,1.031,-0.079,-2.412,6.305,-0.794,11,17
42169,0.131,1.001,0.003,-3.542,-5.771,-3.099,17,19
42212,0.219,1.022,-0.067,-2.786,4.198,-1.634,17,18
42254,0.12,1.02,0.032,-1.275,5.817,0.939,12,18
42296,0.184,1.033,-0.036,1.878,-7.389,0.611,17,18
42336,0.193,1.011,-0.044,-0.305,7.359,3.198,11,17
42378,0.192,1.042,-0.023,-0.664,1.885,-0.794,11,17
42420,0.188,1.006,-0.037,-2.641,-3.74,-2.527,11,17
42462,0.201,1.01,-0.044,-2.664,5.725,-2.076,12,17
42505,0.127,1.037,0.017,-2.397,-0.924,-2.229,12,19
42547,0.18,1.026,-0.032,-3.252,-3.618,-2.855,12,19
42589,0.199,0.996,-0.02,-6.153,5.496,-3.947,17,17
42632,0.136,1.027,-0.001,-4.305,-3.008,-3.84,17,17
42674,0.162,1.033,-0.005,-3.786,2.191,-1.107,17,17
42720,0.154,1,0.005,-3.466,4.626,1.221,16,17
42762,0.168,1.01,0.02,0.107,0.183,0.023,18,17
42805,0.147,1.032,0.032,-0.771,-2.267,-0.359,17,17
42847,0.195,1.017,-0.031,0.58,0.374,0.511,17,18
42890,0.157,0.998,0.012,-1.229,2.443,-0.969,17,18
42932,0.175,1.035,-0.009,-1.985,-3.489,-3.313,17,17
42975,0.136,1.007,0.02,-1.542,7.122,0.519,19,17
43017,0.141,1.016,0.043,2.092,-2.305,2.031,17,18
43060,0.178,1.032,0.013,-0.573,-2.84,0.802,17,17
43105,0.184,0.994,-0.021,-0.908,3.809,-0.824,17,19
43148,0.126,1.056,0.024,0.534,8.046,2.16,17,18
43191,0.149,1.007,0.008,1.855,0.176,3.954,19,17
43233,0.21,1.002,0.001,1.985,-4.611,0.328,12,17
43275,0.21,1.001,-0.038,0.038,0.924,-2.313,10,17
43317,0.15,1.039,-0.015,-1.756,7.908,-3.504,17,18
43360,0.106,1.025,0.039,-0.939,2.55,0.137,17,17
43403,0.154,1.02,0.019,-0.115,-2.58,1.939,17,18
43488,0.192,1.01,0.01,3.687,-2.847,-0.092,12,17
43533,0.187,1.026,-0.036,3.107,3.954,-0.115,12,17
43576,0.123,1.017,0.014,0.84,-3.122,-0.71,17,19
43619,0.212,1.036,-0.048,0.168,1.023,0.519,17,19
43661,0.125,0.988,0.035,-0.275,0.824,0.305,17,19
43704,0.202,1.033,-0.032,-0.473,-0.198,-0.328,17,19
43747,0.137,1.029,0.022,0.115,0.221,-1.588,17,19
43789,0.165,1.004,-0.015,-1.931,1.901,2.588,17,19
43832,0.168,1.051,0.015,0.489,-0.092,1.84,12,17
43874,0.183,0.992,-0.003,0.573,-0.084,0.641,12,17
43916,0.177,1.024,0.007,0.901,-2.374,-0.977,12,17
43962,0.196,1.027,-0.026,0.931,1.084,-2.328,17,17
44005,0.148,1.019,0.007,-1.672,4.29,-0.351,17,18
44047,0.12,1.042,0.019,0.519,-1.679,2.397,17,17
44090,0.209,0.994,-0.011,1.176,-0.595,2.29,12,17
44132,0.193,1.013,-0.01,0.55,-2.45,-2.115,12,17
44175,0.178,1.004,-0.027,-1.237,6.359,-0.962,17,17
44217,0.107,1.055,0.048,-0.885,1.038,1.252,17,17
44260,0.201,0.997,0.001,1.412,-4.588,1.786,12,17
44302,0.196,1.018,-0.007,1.282,2.893,0.672,12,17
44347,0.168,1.035,0.002,-0.481,-0.336,-2.137,12,17
44390,0.167,0.997,-0.011,-0.145,2.763,-0.855,17,17
44433,0.145,1.023,0.012,1.153,-1.321,1.244,17,17
44475,0.2,1.008,-0.011,1.656,-0.458,0.931,12,17
44518,0.16,1.018,0.022,2.84,0.13,-1.359,17,17
44561,0.181,1.028,-0.046,2.473,-0.756,-1.42,17,18
44603,0.14,1.028,-0.021,0.405,1.969,0.893,17,18
44646,0.166,1.033,-0.003,-0.634,-2.344,0.244,17,17
44689,0.181,1.023,-0.002,-0.718,1.183,2.244,18,17
44735,0.169,1.011,0.023,2.489,-0.16,1.42,17,17
44778,0.208,1.028,-0.028,1.687,-4.252,-1.847,17,19
44821,0.169,1.025,-0.039,-0.115,2.55,-1.794,17,17
44863,0.15,1.032,-0.005,-1.282,2.595,0.153,17,18
44906,0.155,0.993,0.024,0.237,-4.527,0.321,17,18
44949,0.21,1.01,-0.035,1.489,0.458,-0.527,17,18
44992,0.142,1.029,0.008,-0.305,2.748,0.527,17,18
45034,0.184,1.003,-0.004,0.641,-4.763,-1.038,17,18
45077,0.178,1.015,0.011,1.282,2.504,-0.557,17,18
45120,0.14,1.001,-0.008,3.702,-0.641,-1.87,17,18
45166,0.171,1.049,-0.063,0.168,-1.695,-0.344,17,18
45209,0.159,1.008,-0.013,-1.084,2.496,1.389,17,18
45252,0.159,1.006,0.002,-0.42,-3.466,1.855,17,18
45295,0.19,1.022,0.007,1.924,-1.198,0.42,20,18
45338,0.2,1.017,-0.043,3.687,-5.031,-3.107,17,18
45380,0.153,1.04,-0.031,0.794,6.71,-1.13,17,18
45423,0.116,1.014,-0.016,1.183,-1.099,2.71,17,18
45466,0.196,1.031,-0.036,-0.206,-3.122,0.366,17,18
45509,0.2,0.991,-0.021,-1.191,1.924,0.656,17,18
45555,0.134,1.029,-0.012,-0.153,2.687,0.099,17,18
45598,0.192,1.013,-0.008,0.275,-3.374,-0.344,17,18
45684,0.179,1.024,-0.025,1.168,-0.092,0.42,17,18
45727,0.168,1.039,-0.029,-1.076,0.069,-1.412,17,18
45770,0.169,1.014,-0.022,0.321,1.328,0.076,17,18
45813,0.147,0.997,-0.003,1.611,-2.435,-0.115,17,18
45856,0.197,1.02,-0.034,0.924,0.198,-0.618,17,18
45899,0.146,1.014,-0.033,1.206,-0.588,-0.969,17,17
45942,0.177,1.018,-0.041,0.221,3.122,-0.168,17,17
45988,0.14,1.019,0.001,0.74,-2.802,-0.45,17,17
46031,0.206,1.031,-0.053,-0.305,2.076,0.504,17,17
46074,0.132,1.019,0.003,0.267,0.618,0,26,17
46117,0.188,1.009,-0.04,-0.634,-2.542,-0.359,17,17
46161,0.162,1.004,-0.013,-0.031,2.321,-0.748,25,17
46204,0.172,1.029,-0.035,-0.183,-2.779,1.153,17,17
46247,0.189,1,-0.029,-0.389,1.053,-0.458,17,17
46289,0.17,1.022,-0.038,-0.702,1.084,0.733,17,17
46333,0.17,0.997,-0.022,1.359,2.061,-0.267,24,17
46386,0.169,1.018,-0.026,-1.618,-0.916,0.229,24,17
46429,0.166,1.001,-0.024,0.802,3.237,0.725,24,17
46472,0.176,1.038,-0.028,0.214,-0.74,0.702,24,17
46514,0.169,1.003,-0.019,-1.664,0.718,0.603,24,17
46557,0.181,1.019,-0.024,0.153,-0.458,0.641,17,17
46599,0.183,0.996,-0.008,1.634,3.305,0.244,23,17
46642,0.177,1.037,-0.049,1.214,-4.137,-1.115,23,17
46684,0.178,0.99,-0.05,-1.565,3.969,-0.389,16,17
46727,0.134,1.037,0.007,-1.321,-1.092,1.046,24,17
46769,0.204,1.003,-0.03,1.435,-1.26,1.107,17,17
46814,0.18,1.014,-0.034,-0.74,-0.573,-0.817,17,17
46857,0.174,1.016,-0.06,-0.847,2.763,-1.534,24,17
46900,0.138,1.028,0.003,-2.321,-0.252,0.687,24,17
46942,0.184,1.007,-0.034,-0.718,-0.954,-0.656,17,18
46985,0.171,1.021,-0.008,0.687,0.29,-1.023,24,17
47027,0.156,1.01,-0.036,1.817,-0.153,-0.336,16,17
47069,0.176,1.026,-0.037,0.656,-0.557,0.458,16,17
47111,0.151,1.025,-0.022,-1.672,1.908,0.076,16,17
47154,0.16,1.006,-0.029,0.153,-0.947,0.916,16,17
47199,0.181,1.021,-0.01,0.985,1.542,0.756,23,17
47242,0.18,1.005,-0.026,0.412,-2.481,-0.87,16,17
47284,0.17,1.027,-0.043,0.634,4.008,0.061,16,17
47326,0.13,1.01,0.008,-0.412,-2.26,1.267,16,17
47369,0.202,1.03,-0.069,-0.71,-1.206,-0.527,24,17
47411,0.144,0.999,0.002,-1.206,2.939,0.015,16,17
47454,0.172,1.023,-0.028,0.664,-2.779,0.794,24,18
47497,0.19,0.996,-0.027,-0.069,1.489,0.527,26,18
47540,0.191,1.037,-0.029,-0.023,-1.863,-2.191,26,17
47585,0.155,0.995,-0.013,0.573,5.496,-0.031,16,17
47628,0.158,1.025,-0.018,1.191,-7.031,-0.504,16,17
47670,0.203,1.028,-0.07,-1.42,4.076,-1.069,16,17
47712,0.143,1.004,0,-0.824,0.076,0.313,16,17
47755,0.181,1.001,-0.02,0.267,-0.206,0.321,16,17
47797,0.18,1.014,-0.035,0.649,-1.695,-0.893,16,17
47882,0.149,1.019,-0.017,-0.298,0.221,0.076,16,17
47925,0.178,1.014,-0.026,1.092,-0.809,1.511,16,17
47967,0.187,1.021,-0.049,0.282,0.649,-0.786,16,17
48013,0.141,1.012,-0.033,-1.206,0.573,0.809,16,17
48055,0.183,1.018,-0.025,-0.366,-1.954,0.504,16,17
48098,0.183,1.022,-0.03,-0.29,2.466,-0.107,16,17
48140,0.15,1.006,-0.003,1.557,-1.206,-0.786,16,17
48183,0.196,1.034,-0.068,1.221,0.29,-0.481,16,17
48225,0.148,1.006,-0.024,-0.382,3.031,0.374,16,17
48267,0.172,1.016,-0.042,-1.359,-2.511,0.214,16,17
48310,0.188,1.023,-0.03,-0.427,1.137,-0.336,16,17
48352,0.154,0.997,-0.018,-0.687,0.824,-0.42,16,17
48395,0.161,1.024,-0.038,0.328,-1.344,0.534,16,17
48440,0.166,1.001,-0.01,-0.214,1.061,1.015,16,17
48483,0.207,1.015,-0.042,-0.13,-3.092,-2.229,16,17
48525,0.16,1.013,-0.017,-0.16,4.824,-0.214,16,17
48568,0.145,1.029,-0.036,1.046,-3.214,0.298,16,17
48610,0.202,1.006,-0.046,0.107,-0.145,0.015,16,17
48653,0.177,1.026,-0.033,-1.061,2.191,-0.817,16,17
48695,0.142,1.004,-0.019,-0.313,1.359,-0.351,16,17
48738,0.161,1.014,-0.022,1.115,-1.397,1.191,16,17
48780,0.189,1.02,-0.052,-0.565,-2.031,0.229,16,17
48826,0.173,1.02,-0.036,-1.229,3.321,-0.252,16,17
48868,0.134,1.002,-0.009,-0.168,-0.962,0.87,16,17
48911,0.202,1.017,-0.05,0.519,-1.305,-0.038,16,17
48954,0.177,1.006,-0.03,-0.832,3.191,-0.924,16,17
48996,0.157,1.031,-0.021,0.672,-3.435,-0.863,16,17
49039,0.183,1.025,-0.034,-0.366,0.053,0.313,16,17
49081,0.167,1.007,-0.027,-1.076,0.099,0.45,16,17
49124,0.172,1.012,-0.016,-0.038,0.947,0.489,16,17
49166,0.164,1.023,-0.03,0.588,-0.13,0.771,16,17
49212,0.193,1.007,-0.024,0.122,-0.321,-0.588,16,17
49255,0.179,1.016,-0.037,-0.29,-0.252,-2.458,16,17
49297,0.143,1.022,-0.013,-0.176,4.275,0.336,16,17
49340,0.166,1.016,-0.029,0.969,-4.573,0.641,16,17
49382,0.221,1.039,-0.063,-0.656,1.893,0.328,16,17
49425,0.141,0.994,0.012,-0.641,1.832,-0.527,16,17
49468,0.198,1.027,-0.061,-0.603,-1.168,-0.489,16,17
49510,0.144,1.015,0,-1.496,4.511,0.649,16,17
49553,0.177,1.017,-0.027,-0.015,-3.786,-0.176,16,17
49607,0.148,1.019,0.015,0.718,1.672,1.435,16,17
49652,0.191,1.013,-0.054,2.718,-3.573,-0.481,16,17
49697,0.174,1.021,-0.034,0.145,4.71,-0.153,12,17
49742,0.155,1.014,-0.044,-0.489,-0.634,-0.42,13,17
49788,0.172,1.018,-0.009,-1.565,-1.557,-0.29,16,17
49833,0.203,1.009,-0.045,0.076,-0.061,-1.366,16,17
49879,0.146,1.025,-0.024,-0.29,1.885,-0.618,16,17
49924,0.159,1.008,-0.048,-0.229,-0.031,-0.26,16,17
49969,0.169,1.015,-0.031,-1.656,0.618,0.031,16,17
50018,0.169,1.018,-0.014,0.244,-0.527,0.229,16,17