Timestamp(ms),AccelX(g),AccelY(g),AccelZ(g),GyroX(deg/s),GyroY(deg/s),GyroZ(deg/s),DistanceLeft(cm),DistanceRight(cm)
30534,-0.150,-0.991,0.173,-0.519,-4.931,-4.405,100.0,48.0
30580,-0.126,-0.986,0.133,2.183,2.771,-2.954,100.0,48.0
30626,-0.156,-0.999,0.176,0.618,-0.870,-1.611,100.0,46.0
30671,-0.124,-0.975,0.150,2.557,-0.901,-0.695,101.0,46.0
30717,-0.129,-1.007,0.161,1.802,-0.145,1.023,102.0,47.0
30764,-0.116,-0.982,0.175,5.137,4.573,-0.336,99.0,49.0
30809,-0.093,-0.954,0.211,5.237,8.618,-0.863,98.0,48.0
30858,-0.125,-0.981,0.253,7.725,17.015,-1.298,104.0,48.0
30903,-0.149,-0.998,0.280,4.527,12.244,2.405,99.0,49.0
30949,-0.135,-0.986,0.251,4.672,2.809,2.191,99.0,48.0
30995,-0.096,-0.921,0.186,9.740,16.954,0.336,101.0,47.0
31041,-0.181,-0.924,0.221,3.718,23.389,-5.672,124.0,48.0
31087,-0.213,-0.945,0.205,2.824,15.160,-11.389,100.0,47.0
31134,-0.232,-0.927,0.205,-0.580,8.221,-15.908,123.0,49.0
31180,-0.197,-0.913,0.185,-6.771,2.740,-14.550,98.0,49.0
31225,-0.208,-0.902,0.199,-8.710,4.863,-10.588,99.0,48.0
31275,-0.245,-0.928,0.229,-12.229,-3.290,-7.908,101.0,50.0
31321,-0.215,-0.926,0.245,-13.092,-14.947,-8.718,99.0,50.0
31366,-0.148,-0.940,0.200,-14.397,-9.046,-6.649,97.0,51.0
31412,-0.155,-0.966,0.182,-12.389,10.870,-7.206,95.0,52.0
31458,-0.208,-1.019,0.241,-10.649,18.550,-6.420,93.0,56.0
31503,-0.252,-1.177,0.287,-11.832,3.260,-6.145,90.0,58.0
31549,-0.167,-1.278,0.247,-12.450,-12.466,-4.924,87.0,57.0
31595,-0.057,-1.358,0.182,-11.725,1.198,6.458,84.0,62.0
31641,-0.104,-1.460,0.139,-9.664,21.519,7.084,81.0,76.0
31692,-0.091,-1.042,0.117,2.580,17.794,10.863,108.0,91.0
31737,-0.145,-0.917,0.115,3.229,9.893,17.817,82.0,58.0
31784,-0.089,-1.023,-0.017,5.863,-6.977,23.954,105.0,59.0
31832,-0.056,-1.004,-0.019,4.076,-7.573,28.282,104.0,61.0
31881,-0.026,-0.930,-0.055,-1.939,-9.763,25.252,104.0,116.0
31929,-0.049,-0.785,0.017,-2.664,-8.374,15.618,102.0,72.0
31978,0.003,-0.687,-0.007,-3.672,-9.641,8.107,101.0,111.0
32027,-0.070,-0.708,0.053,-4.733,-4.336,1.809,101.0,92.0
32074,-0.100,-0.874,0.026,-3.069,-12.214,-5.084,98.0,74.0
32124,-0.102,-1.013,0.012,-5.420,-13.153,-7.008,99.0,72.0
32172,-0.115,-1.083,-0.003,-6.863,3.366,-9.786,98.0,73.0
32219,-0.197,-1.089,0.082,-3.885,12.763,-16.046,95.0,74.0
32266,-0.270,-1.101,0.147,-3.962,-1.756,-20.107,94.0,76.0
32313,-0.223,-1.212,0.127,-3.160,-9.878,-23.336,93.0,77.0
32360,-0.290,-1.375,0.206,-2.252,-17.756,-26.336,91.0,80.0
32407,-0.227,-1.523,0.127,5.878,-25.336,-20.863,89.0,81.0
32455,-0.119,-1.422,0.087,14.718,-17.160,-6.557,87.0,87.0
32508,0.031,-0.573,0.113,21.282,4.061,20.053,85.0,145.0
32561,0.038,-0.756,0.103,12.206,24.863,38.267,92.0,167.0
32613,0.071,-0.889,-0.027,31.832,64.214,39.206,147.0,93.0
32665,-0.077,-0.728,0.152,16.420,72.595,32.244,145.0,122.0
32718,-0.169,-0.745,0.198,7.130,38.534,20.382,143.0,121.0
32771,-0.129,-0.737,0.123,8.344,0.687,8.527,142.0,120.0
32823,-0.140,-0.814,0.100,-0.756,6.603,-0.107,141.0,102.0
32875,-0.182,-0.926,0.104,-7.298,11.366,-8.237,134.0,127.0
32969,-0.257,-0.970,0.191,-16.420,1.351,-18.695,136.0,106.0
33025,-0.263,-1.041,0.222,-16.229,1.473,-21.427,135.0,114.0
33076,-0.282,-1.115,0.218,-7.870,14.718,-21.000,133.0,106.0
33127,-0.301,-1.340,0.202,-4.107,11.916,-15.084,117.0,108.0
33183,-0.313,-1.406,0.259,-12.718,-7.885,-0.687,116.0,0.0
33234,-0.315,-1.328,0.155,-3.511,-22.015,-11.328,127.0,117.0
33289,-0.209,-0.724,0.142,3.206,-50.618,10.924,120.0,167.0
33335,-0.123,-0.894,-0.028,2.328,-40.458,21.527,115.0,30.0
33382,-0.072,-0.824,-0.095,10.275,-14.672,33.565,120.0,33.0
33433,-0.089,-0.759,-0.049,0.817,18.656,31.595,118.0,127.0
33483,-0.222,-0.772,-0.023,-2.840,4.580,31.740,118.0,37.0
33529,-0.205,-0.749,-0.020,-6.084,-20.153,18.282,108.0,39.0
33582,-0.157,-0.794,-0.049,-14.443,-35.542,13.550,122.0,133.0
33630,-0.170,-0.966,-0.063,-17.366,-30.076,3.344,144.0,42.0
33677,-0.202,-0.948,0.010,-15.878,-25.221,-2.282,107.0,43.0
33723,-0.241,-1.015,0.035,-20.672,-33.840,-8.603,106.0,44.0
33769,-0.231,-1.026,0.058,-19.687,-38.267,-13.779,104.0,46.0
33816,-0.196,-1.051,0.043,-16.840,-35.198,-17.969,102.0,48.0
33865,-0.237,-1.089,0.121,-15.939,-24.863,-21.359,100.0,50.0
33911,-0.256,-1.204,0.113,-7.260,-24.870,-24.626,99.0,52.0
33966,-0.295,-1.276,0.140,0.145,-35.244,-35.000,98.0,54.0
34012,-0.296,-1.415,0.147,4.466,-35.718,-34.763,98.0,56.0
34058,-0.305,-1.500,0.128,11.000,-43.145,-30.977,95.0,60.0
34112,-0.231,-1.033,0.148,24.870,-50.947,-4.168,91.0,0.0
34155,-0.070,-0.639,0.137,22.099,-50.817,41.137,137.0,0.0
34211,-0.025,-0.922,-0.022,18.366,-33.756,36.557,140.0,0.0
34271,0.068,-0.787,-0.101,36.061,39.267,40.969,139.0,0.0
34320,-0.164,-0.735,0.110,2.718,43.885,45.038,152.0,38.0
34367,-0.275,-0.794,0.178,-3.031,-0.145,39.580,135.0,39.0
34415,-0.168,-0.756,0.082,-7.137,-42.695,25.061,151.0,42.0
34463,-0.106,-0.784,0.032,-16.359,-31.939,11.023,147.0,45.0
34511,-0.174,-0.891,0.051,-22.977,-15.504,3.611,145.0,45.0
34558,-0.288,-0.906,0.186,-30.573,-30.939,-5.496,143.0,43.0
34607,-0.238,-0.928,0.147,-30.527,-42.435,-14.344,140.0,43.0
34654,-0.286,-0.945,0.232,-31.092,-33.840,-19.947,122.0,44.0
34703,-0.290,-1.052,0.208,-16.206,-36.511,-23.290,120.0,45.0
34750,-0.309,-1.037,0.198,0.618,-35.901,-21.901,118.0,47.0
34797,-0.315,-1.223,0.124,-3.855,-40.405,-25.511,117.0,48.0
34843,-0.277,-1.187,0.076,-6.580,-38.702,-26.420,109.0,50.0
34889,-0.289,-1.304,0.087,-20.366,-42.374,-12.634,108.0,50.0
34936,-0.290,-1.314,0.022,-20.420,-53.641,-1.328,106.0,53.0
34982,-0.111,-0.735,0.000,-8.802,-50.076,32.870,103.0,55.0
35030,-0.219,-0.943,0.068,-18.847,-45.160,53.824,108.0,59.0
35079,-0.213,-1.120,-0.063,-9.336,-66.198,46.076,108.0,56.0
35127,-0.162,-0.962,-0.009,-9.542,-75.641,34.664,120.0,58.0
35174,-0.089,-0.856,-0.069,-10.031,-70.832,31.176,118.0,60.0
35222,-0.120,-0.740,-0.030,-2.626,-62.290,26.145,116.0,70.0
35270,-0.130,-0.705,-0.035,-8.298,-65.298,20.641,112.0,66.0
35318,-0.167,-0.841,-0.053,-12.099,-66.237,15.260,109.0,76.0
35365,-0.111,-0.972,-0.137,-12.450,-60.878,8.229,106.0,73.0
35456,-0.155,-0.986,-0.039,-15.443,-23.053,-0.504,104.0,59.0
35503,-0.236,-0.961,0.066,-16.359,-22.328,-7.115,101.0,60.0
35553,-0.235,-0.989,0.070,-18.298,-31.634,-14.130,100.0,80.0
35601,-0.247,-1.053,0.106,-16.870,-32.366,-20.420,96.0,84.0
35648,-0.197,-1.201,0.042,-12.015,-26.611,-22.885,93.0,70.0
35695,-0.241,-1.330,0.115,-4.641,3.794,-22.405,91.0,75.0
35741,-0.318,-1.540,0.172,2.084,2.794,-13.443,88.0,71.0
35787,-0.369,-1.591,0.200,12.458,-19.076,-10.817,83.0,73.0
35834,-0.178,-1.072,0.125,26.305,-27.641,1.481,80.0,76.0
35881,-0.031,-0.560,0.144,26.481,-20.450,17.618,101.0,79.0
35933,0.034,-0.768,-0.013,27.786,20.924,20.069,101.0,82.0
35981,0.001,-0.838,-0.023,37.840,52.511,36.191,98.0,85.0
36030,-0.061,-0.718,0.055,20.992,70.145,47.771,98.0,107.0
36078,-0.183,-0.799,0.155,1.595,52.802,44.321,101.0,86.0
36127,-0.170,-0.809,0.140,4.137,19.573,27.267,117.0,88.0
36176,-0.149,-0.705,0.142,-0.779,15.183,11.229,116.0,89.0
36226,-0.208,-0.835,0.127,-5.588,25.878,-0.565,115.0,91.0
36275,-0.325,-0.912,0.191,-2.885,17.565,-16.183,114.0,92.0
36326,-0.337,-0.919,0.164,-5.504,-1.496,-28.099,113.0,121.0
36377,-0.346,-0.984,0.181,-14.687,-11.198,-33.985,91.0,96.0
36427,-0.340,-0.997,0.162,-11.328,-7.198,-30.763,89.0,119.0
36475,-0.383,-1.101,0.152,-9.817,2.557,-28.229,83.0,114.0
36524,-0.448,-1.112,0.190,-6.183,12.580,-23.611,81.0,101.0
36572,-0.483,-1.158,0.245,-11.366,3.084,-11.275,79.0,103.0
36620,-0.494,-1.370,0.213,-7.466,-17.740,7.313,76.0,115.0
36668,-0.375,-1.300,0.071,-6.595,-37.427,9.954,74.0,108.0
36717,-0.219,-0.700,0.086,-3.489,-29.611,43.176,82.0,120.0
36767,-0.237,-0.928,0.024,-6.092,-26.565,64.908,93.0,123.0
36822,-0.217,-0.945,0.000,-3.870,-36.611,55.229,93.0,134.0
36873,-0.152,-0.755,0.010,-9.176,-37.023,43.824,115.0,122.0
36926,-0.152,-0.663,0.030,-10.290,-25.038,41.756,110.0,156.0
36977,-0.212,-0.660,0.061,-6.656,-30.084,34.405,109.0,125.0
37030,-0.236,-0.858,0.021,-8.099,-40.267,12.115,107.0,164.0
37082,-0.212,-1.018,-0.051,-4.176,-29.206,-15.519,105.0,131.0
37135,-0.239,-1.017,-0.013,-6.756,-8.832,-30.183,103.0,165.0
37186,-0.258,-0.885,0.044,-8.458,10.008,-33.885,102.0,133.0
37240,-0.366,-0.912,0.148,-18.992,-5.298,-33.618,101.0,134.0
37293,-0.322,-0.982,0.104,-12.985,-6.321,-35.763,101.0,137.0
37344,-0.379,-1.045,0.155,-13.649,-3.702,-36.420,100.0,135.0
37395,-0.434,-1.265,0.144,-2.458,6.802,-32.115,99.0,139.0
37448,-0.500,-1.438,0.194,1.366,-7.679,-35.374,98.0,167.0
37495,-0.409,-1.415,0.160,11.794,-17.313,-22.534,95.0,55.0
37541,-0.239,-1.221,0.061,17.885,-12.878,4.076,94.0,51.0
37587,-0.076,-0.624,0.094,19.809,10.015,33.244,92.0,57.0
37645,-0.024,-0.675,0.084,9.252,45.374,50.267,118.0,174.0
37698,-0.105,-0.866,0.146,14.954,48.221,45.649,92.0,179.0
37751,-0.098,-0.759,0.137,19.229,47.809,26.298,113.0,150.0
37806,-0.234,-0.763,0.169,9.511,33.382,13.153,113.0,178.0
37855,-0.236,-0.768,0.120,10.496,0.473,-6.137,112.0,71.0
37909,-0.219,-0.792,0.059,7.802,6.473,-21.389,112.0,179.0
38004,-0.295,-0.969,0.113,2.031,19.618,-40.344,109.0,152.0
38057,-0.335,-0.908,0.181,-10.015,14.542,-37.366,108.0,152.0
38111,-0.386,-0.947,0.235,-9.580,-1.366,-32.290,87.0,173.0
38166,-0.301,-1.036,0.151,-5.496,-3.916,-32.183,83.0,170.0
38217,-0.365,-1.257,0.210,-7.427,11.298,-32.924,78.0,161.0
38268,-0.349,-1.388,0.158,-8.412,13.840,-24.763,76.0,152.0
38322,-0.451,-1.571,0.218,-11.443,-9.427,-11.076,74.0,185.0
38375,-0.224,-0.794,0.133,2.847,-14.672,15.847,72.0,186.0
38428,-0.294,-0.741,0.129,-7.450,-29.427,51.634,77.0,187.0
38482,-0.213,-0.911,-0.035,-1.611,-47.687,63.191,91.0,198.0
38536,-0.127,-0.712,-0.048,-6.015,-32.504,66.664,90.0,171.0
38590,-0.176,-0.739,-0.023,-13.198,-21.290,65.458,111.0,175.0
38647,-0.252,-0.795,0.038,-11.504,-38.069,47.863,108.0,178.0
38704,-0.176,-0.974,-0.059,-12.725,-49.130,19.588,105.0,0.0
38759,-0.189,-1.014,-0.018,-11.443,-32.893,-7.504,103.0,0.0
38809,-0.217,-0.941,0.028,-8.779,-22.893,-29.153,102.0,110.0
38864,-0.265,-0.892,0.093,-12.405,-29.038,-38.420,100.0,0.0
38906,-0.263,-0.932,0.120,-16.252,-38.794,-43.084,99.0,0.0
38961,-0.198,-1.025,0.070,-11.786,-28.237,-42.534,98.0,0.0
39016,-0.284,-1.164,0.169,-10.489,-14.847,-47.038,96.0,0.0
39074,-0.338,-1.421,0.228,-3.298,-11.542,-49.901,98.0,0.0
39130,-0.234,-1.351,0.194,5.427,-19.130,-32.748,92.0,0.0
39184,-0.191,-1.380,0.177,15.183,4.038,-0.198,92.0,0.0
39239,-0.080,-0.837,0.074,31.466,16.397,26.336,94.0,0.0
39293,-0.068,-0.623,0.141,16.122,45.122,55.099,90.0,0.0
39350,-0.076,-0.947,0.078,19.290,48.099,56.389,107.0,0.0
39405,-0.089,-0.769,0.132,26.427,58.122,41.321,110.0,0.0
39461,-0.123,-0.675,0.140,16.176,55.847,28.229,109.0,0.0
39517,-0.198,-0.741,0.167,12.130,28.374,9.176,108.0,0.0
39576,-0.175,-0.835,0.107,9.954,27.252,-13.489,108.0,0.0
39632,-0.299,-0.987,0.164,0.466,23.031,-36.992,107.0,0.0
39688,-0.333,-0.943,0.224,-5.695,3.924,-56.160,107.0,0.0
39743,-0.311,-0.890,0.250,-10.298,-9.931,-58.305,107.0,0.0
39798,-0.316,-0.961,0.250,-7.534,-13.878,-53.481,81.0,0.0
39853,-0.237,-1.041,0.153,-3.046,7.427,-45.435,80.0,0.0
39906,-0.276,-1.220,0.177,-7.771,26.015,-31.122,78.0,0.0
39960,-0.399,-1.381,0.242,-15.878,16.366,-15.603,75.0,0.0
40014,-0.337,-1.471,0.152,-23.382,-23.389,-2.076,73.0,0.0
40072,-0.188,-0.762,0.142,-10.565,-13.534,29.168,71.0,0.0
40126,-0.238,-0.879,0.114,-7.634,-7.977,59.389,78.0,0.0
40180,-0.234,-0.881,0.056,0.771,-28.931,66.443,90.0,0.0
40236,-0.138,-0.757,-0.017,-2.389,-17.061,67.252,88.0,0.0
40296,-0.201,-0.759,0.025,-2.656,-10.618,68.649,0.0,0.0
40357,-0.184,-0.850,-0.022,2.756,-22.191,58.611,0.0,0.0
40419,-0.147,-0.943,-0.062,-4.366,-15.557,33.153,0.0,0.0
40466,-0.171,-0.966,-0.024,0.084,5.718,7.450,0.0,0.0
40534,-0.233,-0.986,0.018,-4.618,4.740,-13.611,0.0,0.0
40600,-0.242,-0.990,0.051,-9.511,-9.985,-43.519,0.0,0.0
40660,-0.331,-1.176,0.152,-9.481,-7.458,-68.336,0.0,0.0
40706,-0.322,-1.401,0.154,3.328,-7.229,-92.870,99.0,47.0
40803,-0.390,-1.449,0.309,6.733,-6.733,-72.695,99.0,0.0
40863,-0.167,-0.955,0.107,33.229,-12.458,-26.573,0.0,0.0
40918,-0.187,-0.555,0.213,29.710,6.244,29.137,95.0,0.0
40972,-0.102,-0.856,0.028,22.168,31.931,48.870,97.0,0.0
41032,-0.104,-0.800,0.034,27.794,63.206,73.954,0.0,0.0
41095,-0.196,-0.682,0.137,10.962,74.763,75.901,0.0,0.0
41155,-0.274,-0.705,0.179,8.939,33.901,53.176,0.0,0.0
41214,-0.249,-0.824,0.157,-1.290,-8.031,6.756,0.0,0.0
41275,-0.155,-0.986,0.061,-6.901,5.176,-34.832,0.0,0.0
41335,-0.259,-0.903,0.207,-15.267,15.053,-58.870,0.0,0.0
41396,-0.302,-0.935,0.229,-16.160,-10.420,-65.924,0.0,0.0
41453,-0.230,-0.978,0.194,-23.580,-21.191,-63.305,159.0,0.0
41513,-0.256,-1.135,0.210,-25.328,-3.008,-58.092,0.0,0.0
41572,-0.261,-1.249,0.174,-16.221,6.481,-43.756,156.0,0.0
41634,-0.376,-1.602,0.197,-22.588,-12.779,-33.229,0.0,0.0
41692,-0.163,-0.944,0.061,-6.191,-29.282,-2.130,150.0,0.0
41749,-0.229,-0.896,0.104,-16.237,-32.130,43.687,147.0,0.0
41806,-0.208,-1.026,0.024,5.763,-46.901,67.336,145.0,0.0
41867,-0.141,-0.853,0.020,1.206,-44.038,85.832,0.0,0.0
41927,-0.176,-0.876,0.004,1.168,-35.794,82.733,0.0,0.0
41988,-0.150,-0.770,-0.038,13.122,-37.015,64.977,0.0,0.0
42034,-0.074,-0.820,-0.124,6.145,-17.298,49.145,0.0,0.0
42094,-0.156,-0.897,-0.050,0.794,-4.206,30.748,0.0,0.0
42143,-0.166,-0.957,-0.048,-1.786,-8.740,1.443,0.0,0.0
42190,-0.188,-0.969,-0.003,-6.924,-1.748,-22.267,0.0,0.0
42236,-0.201,-1.001,-0.003,-14.740,-5.328,-40.229,0.0,0.0
42297,-0.227,-1.073,0.053,-15.015,-5.145,-57.443,0.0,0.0
42343,-0.217,-1.225,0.023,-14.214,-0.511,-78.061,0.0,0.0
42390,-0.205,-1.354,0.042,-12.656,11.580,-84.702,0.0,0.0
42436,-0.205,-1.455,0.022,-10.069,42.580,-82.198,0.0,0.0
42497,-0.366,-1.406,0.312,-13.977,31.366,-70.786,0.0,0.0
42557,-0.235,-0.944,0.184,21.504,9.939,-32.015,0.0,0.0
42620,-0.140,-0.699,0.179,19.015,5.893,36.626,199.0,0.0
42680,-0.044,-1.030,0.012,20.565,12.786,53.198,197.0,0.0
42740,0.021,-0.798,0.036,32.863,61.779,53.275,195.0,0.0
42801,-0.074,-0.741,0.080,20.420,67.252,56.878,194.0,0.0
42861,-0.208,-0.777,0.181,17.931,27.763,37.282,0.0,0.0
42921,-0.126,-0.865,0.079,7.473,-9.672,-3.405,0.0,0.0
42982,-0.154,-0.935,0.091,-0.458,-3.962,-27.718,0.0,0.0
43041,-0.209,-0.958,0.101,-4.389,-0.870,-41.275,191.0,0.0
43102,-0.207,-0.985,0.127,-11.527,5.397,-48.191,190.0,0.0
43164,-0.242,-0.958,0.214,-14.924,16.916,-41.206,189.0,0.0
43225,-0.244,-1.069,0.177,-8.099,24.290,-31.580,188.0,0.0
43284,-0.157,-1.053,0.068,-5.779,33.740,-13.443,187.0,0.0
43339,-0.254,-1.192,0.134,-14.557,41.832,-8.847,108.0,0.0
43395,-0.208,-1.331,0.088,-24.565,9.534,-2.008,105.0,0.0
43450,-0.099,-0.990,0.103,-27.573,-16.321,9.473,104.0,0.0
43504,-0.060,-0.980,0.075,-17.832,-9.832,24.733,101.0,0.0
43559,0.018,-1.142,-0.065,-8.008,-10.679,29.511,99.0,0.0
43614,-0.009,-0.960,0.028,-13.137,4.771,34.374,98.0,0.0
43715,-0.028,-0.730,0.008,3.450,17.702,25.282,96.0,0.0
43769,0.048,-0.816,-0.122,7.176,27.832,28.328,93.0,0.0
43824,-0.012,-0.928,-0.110,18.466,63.046,24.382,92.0,0.0
43878,-0.114,-1.054,-0.133,23.153,87.702,16.557,91.0,0.0
43932,-0.229,-1.051,-0.044,18.321,76.015,-2.511,91.0,0.0
43986,-0.205,-1.019,-0.057,22.634,62.359,-18.824,92.0,0.0
44041,-0.165,-1.017,-0.095,24.924,65.740,-29.336,92.0,0.0
44096,-0.175,-1.035,-0.063,26.969,70.687,-30.313,93.0,0.0
44150,-0.129,-1.078,-0.145,46.718,107.214,-21.878,94.0,0.0
44208,-0.227,-1.130,-0.112,56.733,125.099,-16.229,95.0,0.0
44250,-0.273,-1.243,-0.106,62.046,129.328,-22.977,98.0,0.0
44300,-0.120,-0.793,-0.156,56.969,129.939,-12.099,39.0,179.0
44344,-0.137,-0.576,-0.061,41.748,152.221,7.336,36.0,67.0
44390,-0.283,-0.932,0.068,30.557,121.695,6.267,89.0,60.0
44433,-0.166,-1.097,-0.069,44.496,87.107,-12.405,39.0,58.0
44476,-0.083,-0.997,-0.096,30.305,116.092,-24.992,40.0,55.0
44519,-0.201,-0.881,0.064,1.893,137.771,-24.435,41.0,51.0
44565,-0.344,-0.906,0.143,12.275,110.847,-25.023,43.0,47.0
44608,-0.284,-0.875,0.146,17.695,72.206,-32.672,44.0,45.0
44651,-0.184,-0.955,0.025,9.893,79.168,-41.718,47.0,43.0
44693,-0.208,-0.999,0.047,2.267,99.496,-42.046,41.0,40.0
44735,-0.275,-0.964,0.108,-0.702,104.473,-33.458,43.0,38.0
44778,-0.363,-0.942,0.212,-9.435,80.000,-24.183,45.0,37.0
44820,-0.335,-1.144,0.178,-9.985,43.710,-18.198,46.0,35.0
44863,-0.236,-1.033,0.094,1.885,30.977,-2.214,47.0,34.0
44905,-0.173,-0.890,0.086,2.786,36.000,14.870,49.0,33.0
44951,-0.119,-0.947,-0.017,4.489,63.763,22.840,48.0,33.0
44993,-0.190,-1.012,-0.002,14.542,84.679,23.672,51.0,32.0
45036,-0.275,-1.120,0.009,20.336,79.969,10.000,50.0,32.0
45078,-0.240,-1.106,-0.012,20.969,62.702,-6.122,51.0,32.0
45121,-0.132,-0.927,-0.062,19.786,67.298,-2.763,51.0,32.0
45164,-0.156,-0.887,-0.051,12.275,82.229,7.198,52.0,32.0
45207,-0.229,-0.972,-0.005,8.527,80.916,5.954,60.0,32.0
45250,-0.255,-1.011,0.019,7.786,64.046,-1.878,61.0,33.0
45293,-0.218,-1.012,0.001,6.565,50.466,-12.145,60.0,34.0
45339,-0.168,-1.025,-0.032,8.321,54.305,-15.214,61.0,35.0
45389,-0.208,-1.010,0.018,10.305,65.832,-15.802,61.0,144.0
45438,-0.255,-1.043,0.098,11.679,51.344,-14.588,62.0,145.0
45489,-0.240,-1.299,0.012,26.107,58.359,-15.252,64.0,152.0
45548,-0.239,-0.896,0.147,18.550,47.672,-14.450,0.0,154.0
45606,-0.180,-0.788,0.106,20.313,46.031,5.802,0.0,156.0
45665,-0.194,-0.953,0.112,22.748,9.511,5.084,0.0,156.0
45723,0.044,-0.938,-0.073,29.687,53.481,9.817,0.0,156.0
45785,-0.180,-1.016,0.120,11.000,87.023,14.015,0.0,158.0
45845,-0.295,-0.914,0.263,15.794,34.916,-1.443,0.0,0.0
45906,-0.105,-0.813,0.089,8.832,24.962,-10.298,0.0,0.0
45967,-0.199,-0.775,0.146,4.817,45.244,-2.145,0.0,0.0
46028,-0.254,-0.757,0.186,2.832,27.237,-2.351,0.0,0.0
46089,-0.248,-0.812,0.157,-3.603,5.397,-12.374,0.0,0.0
46150,-0.291,-0.796,0.217,-8.351,-4.695,-7.748,0.0,0.0
46254,-0.106,-0.662,0.099,-3.069,-3.435,17.458,0.0,0.0
46315,-0.168,-1.341,-0.021,-4.603,6.847,24.565,0.0,198.0
46375,-0.222,-1.664,-0.045,22.267,23.450,15.756,0.0,199.0
46440,-0.227,-1.435,-0.019,3.374,-11.931,-12.893,0.0,200.0
46501,-0.154,-1.062,0.046,2.771,23.412,11.344,0.0,0.0
46562,-0.337,-0.955,0.169,-6.107,19.443,-17.221,0.0,0.0
46623,-0.305,-0.770,0.169,3.481,-24.985,-35.191,0.0,0.0
46684,-0.281,-0.863,0.120,9.183,-38.565,-39.580,0.0,0.0
46745,-0.210,-0.889,0.056,14.855,-32.511,-33.275,0.0,0.0
46807,-0.163,-0.828,0.023,17.603,4.145,-11.336,0.0,0.0
46866,-0.234,-0.721,0.098,11.931,24.924,10.656,0.0,184.0
46926,-0.173,-0.498,0.078,8.214,20.771,30.626,0.0,184.0
46985,-0.133,-0.522,0.042,4.916,27.931,42.176,0.0,0.0
47045,-0.345,-1.320,0.188,-7.015,5.817,33.794,0.0,191.0
47107,-0.089,-1.485,-0.032,5.870,-5.679,-9.542,0.0,193.0
47167,-0.296,-1.615,0.374,-40.153,12.305,21.321,0.0,0.0
47228,-0.174,-1.250,0.269,-14.542,-46.969,14.069,0.0,0.0
47290,-0.039,-0.868,0.179,-2.939,-13.679,5.908,0.0,0.0
47350,-0.027,-0.741,0.095,14.084,41.908,14.534,0.0,0.0
47412,-0.282,-0.816,0.220,8.511,33.092,-0.473,0.0,0.0
47466,-0.234,-0.792,0.163,-1.069,-16.885,-10.260,0.0,79.0
47523,-0.180,-0.810,0.095,-5.885,-18.840,-10.779,0.0,79.0
47578,-0.179,-0.863,0.064,-0.702,-6.275,-14.015,0.0,78.0
47632,-0.183,-0.666,0.121,-4.504,8.450,-5.634,0.0,76.0
47691,-0.159,-0.719,0.120,-8.298,5.328,9.000,0.0,71.0
47748,-0.188,-0.718,0.161,-6.855,19.504,16.389,0.0,69.0
47800,-0.347,-1.533,0.094,-23.214,-6.794,2.458,0.0,70.0
47856,-0.236,-1.614,-0.063,6.237,-20.267,-14.878,0.0,76.0
47909,-0.183,-1.472,-0.155,3.107,8.672,-21.656,0.0,70.0
47965,-0.196,-0.820,0.096,5.511,51.458,26.779,0.0,71.0
48018,-0.340,-0.894,0.152,-12.916,47.061,18.305,0.0,70.0
48070,-0.483,-0.959,0.229,-1.565,-16.328,-7.611,0.0,71.0
48126,-0.231,-0.870,0.026,8.702,-48.466,-21.672,0.0,74.0
48180,-0.140,-0.942,-0.037,10.878,-13.275,-14.954,0.0,76.0
48233,-0.162,-0.895,-0.037,19.641,35.176,-3.878,0.0,76.0
48286,-0.274,-0.762,0.077,11.031,31.710,1.458,0.0,76.0
48339,-0.310,-0.711,0.126,4.954,4.008,3.168,0.0,76.0
48392,-0.261,-0.677,0.084,0.031,-24.336,3.168,0.0,65.0
48447,-0.115,-0.634,-0.031,1.351,-19.412,8.046,0.0,67.0
48499,-0.180,-0.851,0.004,3.305,15.382,13.130,0.0,64.0
48552,-0.390,-1.472,0.104,0.573,-1.542,-16.901,0.0,66.0
48605,-0.177,-1.413,0.099,5.122,7.107,-7.939,0.0,65.0
48657,-0.217,-1.209,0.193,-28.374,22.855,31.130,0.0,67.0
48710,-0.402,-1.396,0.269,-24.511,-13.565,39.458,0.0,77.0
48763,-0.171,-1.119,0.125,-11.504,-25.183,9.443,0.0,74.0
48817,-0.036,-0.896,0.058,-5.794,20.580,13.023,0.0,73.0
48870,-0.237,-0.779,0.205,5.214,53.198,9.618,0.0,72.0
48925,-0.342,-0.809,0.213,6.885,8.168,-12.000,0.0,71.0
48978,-0.260,-0.823,0.113,5.573,-12.679,-24.153,0.0,72.0
49032,-0.220,-0.783,0.072,-0.267,-6.382,-26.359,0.0,77.0
49127,-0.249,-0.684,0.111,-3.679,-14.679,-16.496,0.0,65.0
49180,-0.195,-0.606,0.094,-4.160,-4.763,-4.924,0.0,62.0
49232,-0.106,-0.646,-0.022,0.763,33.618,14.137,0.0,62.0
49285,-0.188,-0.746,0.021,-6.527,39.763,26.321,0.0,67.0
49338,-0.442,-1.441,0.093,-5.160,4.382,6.321,0.0,65.0
49390,-0.430,-1.920,0.021,7.366,-49.985,-14.504,0.0,64.0
49445,-0.085,-1.453,-0.164,3.244,-31.901,-1.046,0.0,67.0
49499,-0.204,-1.333,-0.057,-14.473,28.344,11.931,0.0,62.0
49551,-0.402,-1.131,0.176,-17.359,16.786,1.954,0.0,68.0
49604,-0.295,-0.791,0.135,-7.206,-11.908,-7.229,0.0,65.0
49657,-0.247,-0.784,0.056,5.840,-7.031,-15.076,0.0,74.0
49711,-0.271,-0.813,0.038,14.740,-9.656,-26.794,0.0,69.0
49764,-0.235,-0.880,-0.013,21.443,-5.290,-20.618,0.0,80.0
49817,-0.178,-0.802,-0.063,17.504,2.908,-2.183,0.0,71.0
49870,-0.205,-0.756,-0.004,4.893,13.458,15.870,0.0,72.0
49926,-0.182,-0.798,-0.039,3.359,8.511,20.145,0.0,62.0
49978,-0.216,-0.744,0.009,4.733,12.809,9.374,0.0,63.0
50031,-0.159,-0.723,-0.033,8.595,5.740,1.221,0.0,70.0
50083,-0.174,-0.658,0.031,8.267,20.702,1.718,0.0,63.0
50137,-0.345,-1.361,0.108,-3.145,7.489,-1.969,0.0,61.0
50189,-0.197,-1.267,0.045,6.550,11.420,-9.458,0.0,64.0
50242,-0.374,-1.497,0.279,-19.397,29.832,18.252,0.0,66.0
50294,-0.427,-1.345,0.267,-14.473,-25.695,9.046,199.0,67.0
50348,-0.248,-1.124,0.156,-3.427,-41.870,15.695,196.0,70.0
50404,-0.043,-0.802,0.012,7.679,12.092,27.504,195.0,72.0
50456,-0.213,-0.736,0.129,5.519,42.519,30.817,192.0,73.0
50508,-0.298,-0.825,0.139,7.534,22.084,14.832,191.0,63.0
50561,-0.260,-0.822,0.107,2.649,-8.763,-5.000,189.0,65.0
50613,-0.223,-0.862,0.057,0.069,-4.939,-12.870,188.0,67.0
50665,-0.236,-0.723,0.100,-1.145,0.023,-10.649,186.0,64.0
50718,-0.211,-0.661,0.081,-1.840,7.786,0.229,184.0,78.0
50769,-0.211,-0.686,0.083,-1.031,4.176,5.061,182.0,62.0
50820,-0.160,-0.692,0.024,-1.603,15.115,4.435,181.0,33.0
50872,-0.276,-1.078,0.057,-7.573,27.397,-2.641,180.0,31.0
50922,-0.413,-1.550,-0.026,-2.794,-20.641,-33.565,178.0,31.0
50971,-0.328,-1.543,0.017,0.366,-26.771,-35.038,177.0,31.0
51021,-0.185,-1.301,-0.052,-11.344,4.718,-15.817,177.0,31.0
51070,-0.409,-1.350,0.110,-10.298,16.672,-4.023,176.0,32.0
51121,-0.376,-1.104,0.121,-8.672,-3.756,-7.382,176.0,32.0
51170,-0.245,-0.826,0.038,-3.992,-2.084,-0.099,175.0,32.0
51219,-0.251,-0.761,0.024,0.511,17.489,3.198,174.0,33.0
51269,-0.313,-0.866,0.043,3.435,1.908,-3.656,173.0,33.0
51321,-0.250,-0.914,-0.033,9.542,-4.229,-12.969,172.0,35.0
51371,-0.236,-0.940,-0.044,11.435,3.053,-14.412,170.0,36.0
51421,-0.216,-0.885,-0.039,6.366,9.252,-5.618,169.0,37.0
51470,-0.332,-0.891,0.087,-0.550,0.992,-2.641,167.0,38.0
51519,-0.282,-0.817,0.059,-0.481,-30.008,-2.618,165.0,40.0
51568,-0.170,-0.685,0.012,4.458,-22.817,4.710,163.0,42.0
51618,-0.156,-0.733,-0.019,7.832,3.733,9.473,161.0,45.0
51667,-0.191,-0.706,-0.005,15.863,26.466,14.107,158.0,48.0
51764,-0.177,-1.139,-0.034,3.130,7.031,19.191,154.0,53.0
51813,-0.192,-1.323,0.030,-9.893,21.076,20.878,152.0,56.0
51863,-0.518,-1.725,0.205,-11.733,24.962,-4.046,150.0,57.0
51912,-0.268,-0.995,0.277,-10.382,-8.565,6.985,148.0,59.0
51962,-0.398,-1.246,0.193,-10.351,-38.168,-5.511,146.0,58.0
52012,-0.060,-0.918,-0.047,5.824,-12.702,-5.206,145.0,61.0
52061,-0.165,-0.749,0.087,1.481,44.069,6.237,143.0,62.0
52111,-0.291,-0.804,0.133,3.214,30.252,8.527,142.0,65.0
52160,-0.274,-0.772,0.110,5.183,3.565,-1.817,140.0,67.0
52213,-0.195,-0.865,0.008,-1.122,2.863,-13.405,138.0,67.0
52262,-0.236,-0.858,0.075,5.008,23.183,-16.229,137.0,71.0
52313,-0.273,-0.831,0.082,2.947,18.137,-15.603,135.0,72.0
52362,-0.212,-0.587,0.085,3.229,20.664,0.321,133.0,64.0
52410,-0.213,-0.572,0.085,-1.969,20.450,14.649,131.0,58.0
52459,-0.138,-0.692,-0.080,5.908,40.786,24.710,129.0,62.0
52507,-0.292,-1.044,0.039,-11.649,30.397,17.191,127.0,60.0
52556,-0.427,-1.784,-0.058,3.748,4.237,-9.122,126.0,60.0
52604,-0.439,-1.796,0.040,3.160,-38.443,-20.618,123.0,61.0
52657,-0.218,-1.468,-0.085,-12.282,-28.084,-17.351,122.0,70.0
52706,-0.322,-1.247,0.005,-10.748,-9.870,-11.244,121.0,66.0
52754,-0.252,-0.888,0.031,5.336,-1.313,-10.840,120.0,67.0
52802,-0.217,-0.699,0.026,6.595,12.893,-6.557,119.0,62.0
52850,-0.192,-0.691,-0.033,18.160,33.557,0.191,117.0,60.0
52899,-0.289,-0.735,0.043,21.405,25.168,1.046,116.0,68.0
52947,-0.216,-0.882,-0.078,22.351,1.573,-3.305,114.0,70.0
52996,-0.092,-0.749,-0.141,24.229,25.565,1.580,112.0,73.0
53048,-0.188,-0.644,-0.026,15.656,52.916,9.366,111.0,70.0
53096,-0.246,-0.592,0.062,10.061,26.092,11.565,109.0,71.0
53143,-0.175,-0.623,-0.013,9.221,18.824,11.542,107.0,59.0
53190,-0.183,-1.025,-0.022,-0.069,15.611,10.481,105.0,59.0
53238,-0.420,-1.613,0.102,8.763,8.420,-24.351,103.0,57.0
53285,-0.124,-1.349,0.077,17.779,25.656,-24.519,101.0,59.0
53332,-0.612,-1.874,0.383,-15.878,31.244,-25.649,100.0,59.0
53380,-0.217,-0.829,0.355,-6.458,10.458,14.649,98.0,60.0
53427,-0.370,-0.990,0.257,1.145,0.557,45.313,97.0,64.0
53477,-0.171,-0.859,0.035,12.916,10.969,22.473,95.0,64.0
53524,-0.143,-0.723,0.047,13.840,44.382,18.901,94.0,65.0
53571,-0.296,-0.833,0.140,4.824,48.985,10.366,93.0,66.0
53618,-0.333,-0.943,0.129,10.748,23.038,-2.885,92.0,69.0
53665,-0.257,-0.872,0.103,2.298,19.389,-12.084,91.0,69.0
53712,-0.238,-0.862,0.019,1.290,40.359,-4.794,90.0,68.0
53760,-0.325,-0.860,0.115,3.626,54.595,-4.328,90.0,69.0
53808,-0.364,-0.802,0.128,-1.366,42.466,-7.405,89.0,73.0
53855,-0.339,-0.797,0.077,-0.267,37.702,-1.344,89.0,69.0
53905,-0.355,-0.731,0.104,0.267,39.969,-1.817,88.0,68.0
53951,-0.272,-0.718,0.012,4.824,45.137,-3.389,86.0,65.0
53998,-0.287,-0.712,0.044,7.817,68.832,-6.809,87.0,66.0
54045,-0.330,-0.766,0.046,10.450,67.031,-12.389,84.0,68.0
54092,-0.406,-1.189,0.104,6.634,37.947,-15.588,84.0,83.0
54142,-0.513,-2.000,-0.108,17.008,-3.092,-42.687,83.0,116.0
54233,-0.157,-1.090,0.039,9.634,23.908,34.855,80.0,83.0
54288,-0.228,-1.054,-0.002,-2.160,18.321,41.924,81.0,118.0
54343,-0.161,-0.812,-0.008,9.221,22.565,20.252,0.0,119.0
54394,-0.168,-0.764,0.014,15.244,10.466,5.206,80.0,122.0
54450,-0.151,-0.999,-0.079,28.718,22.695,-0.053,0.0,123.0
54506,-0.227,-0.975,-0.019,22.618,27.710,-15.679,0.0,125.0
54562,-0.149,-0.906,-0.113,22.038,47.573,-9.214,0.0,126.0
54618,-0.283,-0.866,-0.003,18.176,68.359,-5.076,0.0,122.0
54673,-0.305,-0.883,-0.020,24.389,58.397,-16.046,0.0,111.0
54728,-0.308,-0.817,-0.004,16.427,55.107,-13.557,0.0,109.0
54784,-0.344,-0.853,-0.001,21.481,43.992,-22.985,0.0,110.0
54841,-0.261,-0.671,-0.010,21.252,59.565,-17.450,0.0,108.0
54896,-0.336,-0.677,0.030,29.252,66.817,-15.023,0.0,109.0
54951,-0.320,-0.719,0.040,25.527,45.794,-15.695,0.0,110.0
55007,-0.324,-1.185,0.026,15.916,46.756,-6.160,0.0,111.0
55062,-0.326,-1.332,0.134,8.344,32.443,-8.626,0.0,114.0
55117,-0.390,-1.367,0.289,-8.565,43.015,19.924,0.0,114.0
55173,-0.521,-1.462,0.298,-13.649,-15.885,7.695,0.0,116.0
55228,-0.237,-1.030,0.115,7.672,-34.481,11.603,0.0,119.0
55284,-0.062,-0.838,-0.037,7.931,23.763,17.214,0.0,121.0
55343,-0.289,-0.729,0.150,9.832,46.626,20.901,0.0,123.0
55399,-0.344,-0.878,0.145,7.298,-0.595,6.221,0.0,125.0
55455,-0.251,-0.876,0.096,-5.298,-23.000,-4.656,0.0,128.0
55511,-0.170,-0.859,0.060,-5.290,-1.771,1.084,0.0,129.0
55567,-0.277,-0.741,0.184,-7.137,7.855,3.076,0.0,131.0
55624,-0.290,-0.801,0.157,-3.870,-14.389,-1.679,0.0,132.0
55681,-0.182,-0.748,0.052,8.336,-6.000,-6.611,0.0,135.0
55737,-0.188,-0.639,0.083,10.740,23.519,-0.824,0.0,136.0
55794,-0.196,-0.682,0.050,11.733,40.038,7.573,0.0,138.0
55854,-0.372,-1.079,0.195,-4.580,12.931,9.634,0.0,139.0
55911,-0.289,-1.594,-0.106,12.443,-14.084,-5.069,0.0,141.0
55967,-0.515,-1.884,-0.021,0.718,-20.802,-32.519,0.0,142.0
56025,-0.094,-1.075,-0.066,6.481,28.519,-5.290,0.0,142.0
56082,-0.423,-0.959,0.097,-7.733,78.458,-19.244,0.0,142.0
56139,-0.529,-0.668,0.287,-4.565,7.237,-11.084,0.0,143.0
56197,-0.345,-0.711,0.092,-9.534,-49.702,-12.779,0.0,145.0
56254,-0.198,-0.892,-0.104,1.366,-35.863,-15.565,0.0,146.0
56311,-0.271,-0.981,-0.014,4.328,-18.130,-26.618,0.0,148.0
56372,-0.253,-0.894,0.037,-0.282,-14.015,-0.481,0.0,150.0
56429,-0.203,-0.970,-0.043,-16.412,-18.084,14.679,0.0,152.0
56483,-0.249,-0.860,0.057,-13.649,-6.489,16.206,0.0,83.0
56536,-0.251,-0.816,0.071,-7.595,-21.427,7.496,0.0,62.0
56589,-0.172,-0.687,0.030,6.916,-10.725,1.069,0.0,68.0
56642,-0.153,-0.584,0.033,12.618,10.634,2.702,0.0,80.0
56695,-0.121,-0.605,0.004,12.840,28.725,12.664,0.0,65.0
56748,-0.459,-1.762,0.022,3.206,11.458,-8.748,0.0,67.0
56801,-0.152,-1.166,0.033,13.763,-3.916,-20.145,0.0,68.0
56857,-0.454,-1.594,0.195,-33.046,-10.832,-8.672,0.0,70.0
56904,-0.158,-0.926,0.216,-27.351,-18.771,48.023,93.0,71.0
56951,-0.394,-1.204,0.208,-13.305,-14.374,38.962,90.0,75.0
57041,-0.153,-0.788,0.123,2.313,18.595,27.023,87.0,82.0
57089,-0.265,-0.925,0.113,8.206,16.198,9.939,86.0,80.0
57142,-0.302,-0.877,0.138,10.153,-13.580,-11.137,0.0,82.0
57195,-0.212,-0.838,0.071,3.435,-9.748,-18.176,0.0,66.0
57248,-0.229,-0.769,0.111,4.580,0.023,-7.107,0.0,68.0
57294,-0.213,-0.735,0.103,8.382,11.992,2.290,89.0,68.0
57351,-0.212,-0.651,0.109,11.832,16.519,8.603,198.0,67.0
57404,-0.167,-0.649,0.087,9.038,24.603,14.412,196.0,75.0
57456,-0.261,-0.713,0.134,13.710,40.260,12.221,194.0,66.0
57508,-0.485,-1.474,0.116,6.389,10.901,-14.992,193.0,69.0
57562,-0.452,-1.725,-0.023,26.298,-24.908,-56.809,191.0,76.0
57615,-0.443,-1.763,-0.007,13.802,-53.534,-55.878,189.0,69.0
57668,0.017,-0.779,-0.019,18.740,6.328,9.092,187.0,80.0
57720,-0.269,-0.826,0.113,-26.756,41.107,49.916,186.0,73.0
57776,-0.359,-0.854,0.088,-12.389,16.053,32.275,185.0,64.0
57828,-0.245,-0.739,0.017,-9.695,-22.382,19.221,183.0,75.0
57878,-0.213,-0.988,-0.063,-12.710,-25.481,-5.481,128.0,85.0
57931,-0.203,-1.140,-0.113,1.107,-23.695,-25.481,182.0,79.0
57984,-0.192,-1.160,-0.075,-2.756,-8.374,-23.145,181.0,77.0
58033,-0.219,-0.927,0.066,-28.061,-7.641,-13.374,115.0,77.0
58080,-0.231,-0.872,0.131,-37.008,-1.374,14.321,91.0,68.0
58128,-0.309,-1.044,0.123,-25.885,-10.366,18.542,113.0,65.0
58176,-0.292,-1.018,0.098,-7.397,-27.237,-0.740,109.0,81.0
58226,-0.147,-0.966,-0.028,0.954,-15.389,-18.740,71.0,82.0
58275,-0.151,-0.991,-0.030,8.351,18.748,-15.359,114.0,82.0
58321,-0.242,-0.974,0.061,10.084,22.031,-13.153,70.0,79.0
58368,-0.211,-0.914,0.067,5.427,11.328,-5.511,69.0,73.0
58413,-0.199,-0.936,0.067,2.313,10.237,2.313,69.0,76.0
58459,-0.250,-1.012,0.106,1.282,8.031,5.939,69.0,77.0
58505,-0.264,-1.025,0.106,3.107,8.015,8.061,69.0,79.0
58553,-0.331,-0.982,0.157,0.000,-2.634,8.977,94.0,78.0
58601,-0.374,-0.965,0.183,-0.473,-34.885,3.519,115.0,79.0
58650,-0.351,-0.953,0.136,1.305,-76.260,-6.870,67.0,66.0
58695,-0.344,-0.951,0.120,-1.771,-104.733,-12.099,71.0,67.0
58741,-0.259,-0.981,0.078,-5.840,-111.893,-9.870,66.0,76.0
58787,-0.205,-0.982,0.081,-9.153,-106.573,-1.290,61.0,72.0
58832,-0.167,-0.976,0.069,-8.733,-93.740,3.611,59.0,73.0
58877,-0.154,-0.954,0.093,-5.214,-73.985,11.733,58.0,72.0
58923,-0.199,-0.932,0.193,-4.947,-73.557,19.863,57.0,68.0
58969,-0.173,-0.971,0.160,0.954,-77.504,26.405,57.0,74.0
59017,-0.174,-0.960,0.184,2.458,-77.443,30.374,56.0,76.0
59062,-0.188,-0.989,0.170,0.962,-73.031,29.916,39.0,77.0
59106,-0.164,-0.977,0.151,-4.969,-68.740,27.237,37.0,79.0
59153,-0.166,-0.968,0.082,-6.527,-49.771,23.122,36.0,129.0
59199,-0.268,-0.924,0.211,-7.832,-53.206,21.672,36.0,100.0
59246,-0.250,-0.935,0.161,-9.893,-61.626,14.183,36.0,116.0
59291,-0.244,-0.955,0.166,-13.137,-55.771,9.405,38.0,98.0
59338,-0.243,-0.938,0.211,-11.489,-55.351,10.336,36.0,116.0
59385,-0.212,-0.945,0.202,-7.061,-58.664,12.176,36.0,115.0
59436,-0.252,-0.974,0.229,-5.527,-59.206,9.740,54.0,114.0
59526,-0.205,-1.012,0.241,4.160,-49.046,6.809,33.0,113.0
59572,-0.164,-0.983,0.222,8.763,-31.870,7.725,31.0,115.0
59618,-0.211,-0.948,0.295,8.023,-25.336,13.565,31.0,114.0
59664,-0.218,-0.924,0.297,8.435,-31.145,13.160,30.0,114.0
59710,-0.243,-0.927,0.325,6.718,-43.366,13.573,30.0,114.0
59757,-0.146,-0.925,0.252,7.053,-37.382,10.389,30.0,115.0
59803,-0.174,-0.943,0.271,7.489,-21.038,7.832,29.0,115.0
59849,-0.175,-0.919,0.289,6.260,-9.153,6.420,30.0,115.0
59908,-0.281,-0.936,0.360,7.397,-16.305,8.176,29.0,115.0
59957,-0.203,-0.885,0.325,6.885,-24.962,8.122,30.0,118.0
60006,-0.185,-0.856,0.325,2.229,-13.664,11.947,28.0,117.0
60054,-0.237,-0.878,0.358,-2.023,-8.504,16.573,29.0,118.0
60103,-0.261,-0.880,0.357,-5.313,-12.702,14.649,28.0,117.0
60152,-0.311,-0.873,0.384,-6.046,-21.359,16.405,29.0,117.0
60201,-0.318,-0.869,0.378,-8.656,-30.550,20.710,29.0,121.0
60251,-0.382,-0.889,0.398,-11.260,-40.061,21.786,29.0,125.0
60304,-0.387,-0.878,0.396,-15.115,-56.405,23.664,30.0,133.0
60353,-0.354,-0.859,0.384,-13.496,-53.244,31.321,30.0,126.0
60402,-0.398,-0.899,0.403,-13.145,-49.618,34.809,30.0,127.0
60452,-0.315,-0.884,0.365,-4.969,-40.412,39.244,30.0,128.0
60503,-0.418,-0.880,0.427,-0.076,-38.344,42.473,30.0,137.0
60553,-0.425,-0.862,0.411,2.824,-55.916,33.282,31.0,134.0
60603,-0.366,-0.813,0.372,5.031,-68.588,27.557,32.0,146.0
60654,-0.330,-0.782,0.376,-1.107,-56.954,22.611,31.0,146.0
60706,-0.385,-0.842,0.422,-1.458,-51.321,19.611,31.0,177.0
60761,-0.385,-0.878,0.403,-5.099,-54.366,10.740,31.0,159.0
60819,-0.296,-0.791,0.412,-5.618,-38.863,25.008,29.0,172.0
60870,-0.275,-0.812,0.438,-6.573,-36.840,35.183,30.0,168.0
60921,-0.281,-0.789,0.469,-9.374,-49.969,42.321,30.0,172.0
60973,-0.244,-0.936,0.450,-18.466,-69.389,42.947,28.0,172.0
61018,-0.163,-1.014,0.374,-12.977,-69.015,40.641,28.0,68.0
61065,-0.127,-0.933,0.341,-8.809,-61.038,37.237,27.0,112.0
61108,-0.139,-0.863,0.359,-14.405,-48.557,28.473,28.0,41.0
61155,-0.150,-0.877,0.361,-18.809,-38.412,24.473,29.0,43.0
61199,-0.150,-0.875,0.386,-21.443,-28.458,19.183,27.0,53.0
61243,-0.175,-0.869,0.427,-22.176,-18.840,14.023,28.0,55.0
61286,-0.240,-0.874,0.476,-21.344,-17.771,10.962,30.0,25.0
61329,-0.261,-0.874,0.488,-20.473,-26.595,11.656,29.0,25.0
61372,-0.269,-0.877,0.494,-16.366,-34.878,12.183,30.0,25.0
61414,-0.239,-0.873,0.470,-11.718,-40.069,13.489,30.0,25.0
61457,-0.213,-0.861,0.449,-6.260,-38.473,11.611,30.0,24.0
61499,-0.215,-0.836,0.450,-5.069,-35.992,10.656,30.0,12.0
61544,-0.227,-0.841,0.449,-2.863,-33.298,10.481,30.0,11.0
61586,-0.213,-0.835,0.456,-1.992,-33.557,11.824,30.0,12.0
61628,-0.197,-0.835,0.454,-1.122,-25.466,12.145,30.0,11.0
61672,-0.211,-0.836,0.485,-2.748,-28.450,14.427,52.0,12.0
61715,-0.175,-0.845,0.490,-3.267,-32.656,16.519,51.0,11.0
61757,-0.163,-0.849,0.493,-2.542,-31.550,14.481,29.0,13.0
61799,-0.189,-0.836,0.496,-2.450,-31.038,14.191,29.0,12.0
61846,-0.197,-0.817,0.511,-3.191,-35.534,15.595,29.0,102.0
