Timestamp(ms),AccelX(g),AccelY(g),AccelZ(g),GyroX(deg/s),GyroY(deg/s),GyroZ(deg/s),DistanceLeft(cm),DistanceRight(cm)
27247,-0.140,-1.005,0.034,2.595,-1.313,-1.282,108.0,46.0
27292,-0.163,-0.992,0.053,2.092,-1.710,-0.733,104.0,45.0
27338,-0.159,-0.996,0.043,1.626,-6.565,1.023,105.0,46.0
27384,-0.127,-1.010,0.025,1.893,-6.405,0.733,106.0,44.0
27430,-0.135,-0.993,0.040,3.038,2.771,-0.153,104.0,44.0
27478,-0.162,-0.997,0.066,2.557,-1.069,0.061,129.0,44.0
27523,-0.141,-0.985,0.041,3.550,-0.809,0.252,104.0,45.0
27572,-0.131,-0.985,0.046,3.275,1.092,1.023,105.0,42.0
27617,-0.152,-0.993,0.049,3.771,5.916,-0.023,106.0,43.0
27663,-0.173,-1.009,0.077,3.214,1.305,-2.649,104.0,43.0
27708,-0.164,-0.987,0.060,3.412,-0.710,-2.466,106.0,42.0
27754,-0.183,-0.994,0.071,3.191,-6.443,-2.336,105.0,42.0
27800,-0.158,-0.994,0.062,3.779,-6.931,-0.893,113.0,43.0
27846,-0.142,-1.007,0.045,2.992,-3.878,0.397,104.0,44.0
27891,-0.142,-1.001,0.055,4.565,2.344,0.672,105.0,44.0
27937,-0.168,-1.010,0.078,5.198,1.405,-1.298,104.0,43.0
27985,-0.172,-0.993,0.079,6.481,0.458,-3.053,104.0,44.0
28032,-0.138,-0.985,0.060,7.740,2.695,-1.695,103.0,45.0
28078,-0.154,-0.981,0.068,6.534,6.641,-0.122,102.0,46.0
28123,-0.150,-0.990,0.074,5.687,2.870,-1.305,105.0,46.0
28169,-0.129,-1.013,0.089,8.573,11.489,-2.656,105.0,47.0
28215,-0.084,-0.950,0.100,10.450,21.237,2.611,102.0,46.0
28261,-0.111,-1.027,0.154,9.908,35.748,8.496,105.0,48.0
28307,-0.189,-1.099,0.193,11.779,36.947,6.863,105.0,49.0
28353,-0.212,-0.969,0.217,9.176,25.878,5.626,105.0,47.0
28403,-0.227,-0.934,0.176,4.695,17.344,3.008,123.0,48.0
28449,-0.266,-0.920,0.163,6.504,10.679,-1.695,102.0,49.0
28495,-0.268,-0.920,0.145,3.076,-6.916,-10.687,103.0,49.0
28541,-0.232,-0.936,0.116,-0.947,-14.794,-16.122,101.0,49.0
28588,-0.211,-0.917,0.129,-6.374,-20.267,-13.000,102.0,49.0
28634,-0.190,-0.929,0.157,-9.206,-19.191,-9.794,99.0,50.0
28679,-0.182,-0.948,0.151,-11.817,-21.191,-9.328,99.0,51.0
28725,-0.173,-0.953,0.148,-9.366,-16.687,-11.336,99.0,51.0
28773,-0.145,-0.959,0.105,-8.878,-3.519,-14.191,118.0,55.0
28821,-0.203,-0.989,0.148,-8.344,6.977,-12.176,92.0,54.0
28867,-0.215,-1.095,0.164,-5.565,7.481,-8.550,89.0,55.0
28913,-0.179,-1.155,0.133,-4.183,5.534,-0.756,91.0,60.0
28961,-0.140,-1.228,0.116,-9.748,13.832,6.718,86.0,101.0
29009,-0.219,-1.364,0.186,-18.458,-2.550,-1.824,111.0,66.0
29058,-0.166,-1.404,0.071,-14.809,-27.305,-17.756,112.0,88.0
29104,0.001,-0.928,-0.003,-7.107,-24.710,-14.069,85.0,56.0
29149,-0.031,-0.932,-0.003,-5.847,-5.290,1.168,82.0,57.0
29196,-0.053,-1.073,-0.059,1.374,-9.863,7.832,107.0,60.0
29249,-0.072,-0.952,-0.003,1.260,-13.649,11.092,105.0,115.0
29296,-0.072,-0.931,-0.025,-5.275,-30.168,8.924,103.0,67.0
29343,-0.028,-0.790,-0.033,-0.031,-27.588,4.779,102.0,67.0
29391,0.028,-0.691,-0.056,-2.366,-18.931,4.107,100.0,69.0
29438,-0.022,-0.736,-0.020,-3.183,-7.870,4.511,101.0,76.0
29488,-0.005,-0.892,-0.091,-0.901,-8.779,1.443,99.0,96.0
29535,-0.038,-0.998,-0.072,-3.786,-0.916,-4.046,95.0,76.0
29625,-0.133,-1.169,-0.017,-8.817,3.885,-3.809,93.0,75.0
29675,-0.189,-1.280,0.029,-7.786,9.168,-8.832,91.0,77.0
29722,-0.166,-1.277,0.043,4.115,8.076,-15.931,89.0,79.0
29769,-0.187,-1.546,0.045,9.947,0.069,-20.947,88.0,83.0
29816,-0.119,-1.437,0.034,19.710,23.092,-21.290,87.0,85.0
29864,-0.070,-0.911,0.179,16.916,-3.229,0.176,86.0,88.0
29914,0.119,-0.676,0.044,26.015,5.412,20.450,91.0,111.0
29965,0.129,-0.838,-0.067,21.504,30.824,25.084,148.0,92.0
30017,-0.034,-0.883,0.039,16.626,44.893,25.046,146.0,112.0
30069,-0.043,-0.862,0.060,-0.420,10.351,26.695,144.0,99.0
30130,-0.024,-0.770,0.077,2.847,16.565,17.855,143.0,0.0
30186,-0.071,-0.737,0.067,4.527,24.031,12.397,142.0,178.0
30237,-0.141,-0.834,0.083,0.450,11.382,3.237,141.0,103.0
30289,-0.180,-0.965,0.108,-6.916,4.527,-3.458,140.0,101.0
30345,-0.181,-1.038,0.112,-10.374,3.466,-11.290,138.0,172.0
30396,-0.225,-1.012,0.189,-3.046,4.130,-14.649,137.0,104.0
30448,-0.225,-1.058,0.123,5.008,2.626,-12.183,135.0,116.0
30500,-0.211,-1.183,0.040,3.191,4.786,-12.573,133.0,107.0
30556,-0.185,-1.231,0.042,-6.504,-2.992,-9.511,131.0,171.0
30613,-0.305,-1.368,0.256,-25.122,-22.656,-6.817,129.0,166.0
30667,-0.027,-1.200,0.029,-12.420,-51.008,-8.588,120.0,158.0
30724,-0.032,-0.861,0.016,4.718,-5.130,9.176,125.0,0.0
30776,-0.137,-0.921,-0.003,1.794,-29.962,10.321,116.0,126.0
30822,-0.048,-0.894,-0.090,-1.237,-45.718,9.611,123.0,33.0
30878,0.001,-0.805,-0.117,-4.046,-27.992,10.527,121.0,186.0
30924,-0.070,-0.767,-0.023,-4.687,-18.145,6.160,118.0,36.0
30971,-0.070,-0.784,-0.017,-4.084,-22.710,3.130,117.0,37.0
31028,-0.072,-0.868,-0.037,-4.206,-20.092,-1.534,116.0,163.0
31080,-0.062,-0.985,-0.085,-1.672,-12.817,-1.969,114.0,134.0
31136,-0.097,-1.007,-0.048,-5.443,-4.206,-5.008,113.0,0.0
31183,-0.141,-1.040,-0.002,-8.969,-12.023,-4.099,112.0,42.0
31229,-0.192,-1.035,0.044,-12.153,-19.137,-6.863,111.0,42.0
31277,-0.163,-1.045,0.048,-9.435,-25.588,-6.305,110.0,41.0
31323,-0.177,-1.052,0.060,-0.626,-12.977,-7.802,109.0,43.0
31370,-0.214,-1.061,0.070,4.992,-8.046,-13.420,108.0,44.0
31417,-0.234,-1.082,0.064,9.107,-13.252,-13.771,107.0,48.0
31466,-0.206,-1.207,0.008,6.695,-22.244,-13.786,105.0,49.0
31521,-0.141,-1.266,-0.005,3.534,-34.519,-7.763,102.0,0.0
31577,-0.100,-1.408,-0.025,10.809,-19.931,0.626,100.0,0.0
31624,-0.064,-1.302,-0.006,22.893,-3.695,0.847,97.0,58.0
31671,-0.040,-0.653,0.149,18.260,-2.649,19.496,94.0,61.0
31725,-0.038,-0.791,0.079,18.611,4.908,32.893,92.0,0.0
31766,-0.081,-0.928,0.047,23.336,4.611,22.573,91.0,0.0
31823,-0.167,-0.907,0.122,12.328,-1.443,20.061,144.0,0.0
31875,-0.180,-0.812,0.133,-0.328,-37.702,21.550,157.0,76.0
31928,-0.123,-0.703,0.069,-1.237,-34.359,18.939,158.0,37.0
31976,-0.119,-0.712,0.015,-4.344,-35.565,15.580,140.0,38.0
32021,-0.165,-0.817,0.042,-10.153,-31.679,10.061,82.0,39.0
32065,-0.221,-0.912,0.058,-23.947,-48.420,5.511,77.0,42.0
32114,-0.248,-1.008,0.133,-36.420,-61.336,0.908,145.0,45.0
32205,-0.204,-0.996,0.160,-21.443,-50.023,0.847,126.0,43.0
32252,-0.225,-1.026,0.078,-10.840,-48.214,-7.992,123.0,43.0
32302,-0.223,-1.084,0.027,-11.725,-51.115,-17.450,135.0,44.0
32353,-0.148,-1.127,-0.065,-23.237,-49.260,-17.611,132.0,46.0
32400,-0.212,-1.311,0.034,-37.046,-55.947,-13.031,115.0,48.0
32448,-0.144,-1.475,0.032,-36.656,-86.939,-17.359,112.0,49.0
32495,0.094,-0.945,-0.011,-16.626,-71.855,-8.397,113.0,51.0
32542,0.086,-0.967,-0.110,3.458,-25.069,6.183,105.0,46.0
32588,-0.110,-1.074,-0.085,8.313,-24.191,0.305,104.0,48.0
32636,-0.080,-0.891,-0.077,0.382,-60.725,0.298,122.0,48.0
32685,-0.039,-0.852,-0.099,-6.733,-57.832,5.466,120.0,49.0
32735,-0.097,-0.837,-0.042,-3.008,-50.023,9.206,100.0,58.0
32782,-0.130,-0.831,-0.017,-1.771,-57.542,8.534,106.0,54.0
32829,-0.100,-0.881,-0.050,-1.000,-63.160,11.634,96.0,56.0
32876,-0.081,-0.935,-0.068,3.137,-51.733,11.908,103.0,57.0
32924,-0.074,-0.981,-0.100,5.466,-41.260,9.740,100.0,66.0
32971,-0.100,-1.009,-0.085,3.588,-30.855,8.817,101.0,61.0
33018,-0.089,-0.961,-0.052,-1.794,-27.534,8.702,117.0,39.0
33065,-0.112,-0.954,-0.014,-5.763,-23.626,8.458,110.0,40.0
33114,-0.117,-0.995,-0.012,-6.840,-29.405,3.000,114.0,64.0
33165,-0.113,-1.003,-0.015,-5.191,-17.901,-4.550,93.0,72.0
33211,-0.181,-1.007,0.035,-5.282,-16.679,-8.824,92.0,54.0
33260,-0.195,-1.051,0.030,-3.565,-19.168,-10.885,107.0,73.0
33307,-0.189,-1.055,0.039,-0.794,-17.366,-12.649,105.0,63.0
33355,-0.228,-1.209,0.051,2.885,-16.275,-13.931,84.0,75.0
33408,-0.118,-1.237,-0.046,9.412,-3.450,-6.511,99.0,56.0
33454,-0.194,-1.307,0.036,1.397,4.962,-0.412,92.0,58.0
33499,-0.192,-1.430,0.024,7.290,-8.641,-6.924,90.0,66.0
33545,-0.168,-1.111,0.108,8.305,-31.427,-5.260,87.0,70.0
33594,0.046,-0.710,0.064,6.076,-27.069,22.298,85.0,71.0
33640,0.017,-0.927,0.034,10.145,-16.802,36.634,85.0,74.0
33688,0.134,-1.024,-0.082,19.015,-0.634,36.786,105.0,78.0
33735,0.108,-0.951,-0.078,22.771,56.137,37.763,105.0,79.0
33783,-0.145,-0.807,0.152,8.847,56.550,36.122,103.0,78.0
33830,-0.169,-0.840,0.114,6.275,5.351,28.542,102.0,81.0
33879,-0.109,-0.744,0.072,1.733,-13.443,17.542,104.0,83.0
33927,-0.059,-0.769,-0.018,0.267,0.901,11.687,113.0,84.0
33975,-0.202,-0.882,0.058,-1.008,11.794,2.221,99.0,85.0
34026,-0.263,-0.942,0.111,-5.298,-4.015,-15.733,111.0,89.0
34074,-0.329,-0.986,0.254,-12.351,-17.573,-24.511,97.0,89.0
34122,-0.276,-1.019,0.212,-5.786,-26.870,-16.351,95.0,98.0
34170,-0.195,-0.983,0.125,1.847,-8.382,-9.298,94.0,95.0
34219,-0.243,-1.030,0.073,6.229,16.992,-13.771,91.0,97.0
34268,-0.262,-1.096,0.047,-1.298,15.542,-19.939,83.0,113.0
34315,-0.270,-1.199,0.028,-7.947,12.198,-22.939,81.0,99.0
34362,-0.276,-1.367,0.059,-24.656,-10.313,-20.779,79.0,100.0
34415,-0.269,-1.296,0.078,-18.076,-14.229,-13.450,77.0,132.0
34462,-0.172,-0.862,0.102,-18.985,-28.733,9.275,75.0,108.0
34510,-0.166,-0.989,0.053,-9.794,-37.733,17.069,74.0,118.0
34560,-0.132,-1.026,-0.032,-3.901,-53.985,14.611,80.0,112.0
34652,-0.079,-0.886,-0.067,-6.534,-43.534,17.809,92.0,119.0
34702,-0.111,-0.816,-0.022,-6.313,-35.733,19.389,92.0,119.0
34747,-0.080,-0.761,-0.029,-5.031,-22.626,17.802,92.0,37.0
34798,-0.124,-0.815,0.003,-1.916,-21.954,15.008,95.0,152.0
34849,-0.104,-0.911,-0.056,3.802,-12.969,11.031,93.0,153.0
34906,-0.178,-1.010,-0.035,1.198,-11.389,-1.954,109.0,154.0
34957,-0.165,-0.997,-0.037,3.344,-11.718,-13.252,91.0,147.0
35009,-0.178,-1.029,-0.020,0.298,-11.595,-21.649,107.0,159.0
35061,-0.179,-0.989,0.021,0.985,1.756,-24.000,88.0,158.0
35113,-0.264,-1.164,0.062,0.412,-11.687,-29.076,104.0,159.0
35165,-0.285,-1.242,0.119,3.702,-21.229,-34.046,87.0,148.0
35217,-0.289,-1.420,0.162,3.000,-43.687,-31.031,83.0,164.0
35262,-0.267,-1.481,0.204,17.931,-56.557,-18.053,84.0,49.0
35316,0.054,-1.110,-0.021,33.084,-44.618,0.496,80.0,170.0
35369,0.146,-0.566,-0.001,28.618,19.450,30.389,98.0,171.0
35423,0.071,-0.752,-0.054,26.122,63.863,40.137,106.0,172.0
35475,-0.042,-0.811,0.015,26.855,69.756,32.389,95.0,159.0
35529,-0.089,-0.833,0.099,10.374,56.115,25.397,114.0,175.0
35582,-0.156,-0.894,0.150,2.458,48.191,15.756,94.0,166.0
35635,-0.180,-0.842,0.186,-5.435,17.786,2.031,112.0,148.0
35689,-0.214,-0.833,0.197,-4.443,9.321,-6.405,115.0,171.0
35743,-0.227,-0.935,0.160,-6.069,-7.595,-17.099,115.0,172.0
35800,-0.215,-0.921,0.155,-3.626,-0.588,-17.473,114.0,172.0
35852,-0.245,-0.942,0.164,-5.183,7.565,-16.565,93.0,149.0
35903,-0.315,-0.977,0.204,-4.206,2.969,-17.687,90.0,147.0
35954,-0.259,-1.002,0.151,-2.458,-7.435,-19.473,88.0,150.0
36005,-0.287,-1.158,0.165,-6.260,-5.084,-19.985,87.0,152.0
36059,-0.257,-1.255,0.196,-6.229,-9.359,-16.710,83.0,178.0
36111,-0.242,-1.284,0.216,-6.908,-3.321,4.168,82.0,180.0
36164,-0.202,-1.310,0.120,-10.237,-9.168,12.290,81.0,179.0
36219,-0.135,-0.823,0.129,-1.542,-3.863,17.824,81.0,185.0
36275,-0.152,-0.965,0.007,5.664,-19.176,22.092,95.0,0.0
36329,-0.082,-0.916,-0.044,8.389,-18.107,20.489,92.0,195.0
36382,-0.091,-0.868,-0.024,-7.313,-21.870,20.374,91.0,194.0
36436,-0.132,-0.789,0.036,-6.580,-26.344,16.359,111.0,175.0
36491,-0.070,-0.721,0.012,-6.603,-35.504,6.038,111.0,175.0
36546,-0.074,-0.812,0.010,-5.878,-16.221,3.779,109.0,196.0
36600,-0.188,-1.000,0.039,-6.511,-12.092,-3.679,112.0,177.0
36656,-0.188,-0.986,0.044,-9.985,-20.328,-9.580,106.0,185.0
36714,-0.188,-0.988,0.059,-10.198,-8.443,-11.511,105.0,197.0
36769,-0.215,-0.961,0.096,-10.313,-7.618,-14.679,102.0,0.0
36824,-0.280,-1.030,0.152,-6.740,-1.908,-18.794,96.0,0.0
36879,-0.194,-1.121,0.048,0.672,-8.626,-24.038,95.0,0.0
36933,-0.295,-1.220,0.162,-2.695,-9.771,-23.893,93.0,0.0
36987,-0.191,-1.418,0.057,7.198,-12.687,-16.153,91.0,196.0
37042,-0.175,-1.406,0.063,13.550,-10.328,-6.542,91.0,196.0
37096,-0.083,-1.146,0.042,19.183,-9.076,-1.855,93.0,0.0
37151,0.110,-0.580,0.007,15.763,27.221,18.740,90.0,0.0
37209,-0.073,-0.887,0.118,4.756,29.023,24.389,90.0,0.0
37264,-0.025,-0.834,0.091,13.756,9.672,21.863,106.0,0.0
37362,-0.060,-0.762,0.116,3.969,32.748,21.763,103.0,0.0
37417,-0.131,-0.833,0.119,7.405,33.092,7.771,102.0,0.0
37473,-0.179,-0.927,0.123,1.634,22.733,-4.321,108.0,0.0
37528,-0.246,-0.966,0.168,-1.008,14.221,-15.069,108.0,0.0
37583,-0.183,-0.941,0.120,-3.290,6.076,-18.221,101.0,0.0
37639,-0.243,-0.927,0.193,-5.115,12.298,-20.550,99.0,0.0
37694,-0.218,-1.058,0.118,-2.366,14.763,-19.527,104.0,0.0
37747,-0.255,-1.131,0.123,-5.015,8.687,-21.267,103.0,0.0
37800,-0.229,-1.290,0.147,-9.992,27.282,-15.046,75.0,0.0
37855,-0.168,-1.322,0.067,-6.863,35.756,-4.710,81.0,0.0
37908,-0.252,-1.221,0.149,-12.557,28.885,-10.321,72.0,0.0
37961,-0.146,-0.833,0.099,1.763,7.198,5.550,71.0,0.0
38014,-0.197,-1.005,0.055,-1.328,-23.000,5.687,70.0,0.0
38070,-0.089,-0.964,-0.046,1.229,-31.824,9.351,92.0,0.0
38124,-0.076,-0.823,-0.018,-7.313,-25.962,21.786,90.0,0.0
38182,-0.080,-0.722,0.028,-0.061,-16.206,28.198,90.0,0.0
38237,-0.028,-0.748,-0.054,0.252,-7.130,27.748,90.0,0.0
38292,-0.111,-0.829,-0.025,2.412,5.092,18.786,112.0,0.0
38348,-0.183,-0.971,-0.028,0.153,-12.740,4.672,110.0,0.0
38404,-0.176,-1.073,-0.053,-1.344,-12.840,-10.076,109.0,0.0
38460,-0.204,-1.022,0.001,-8.412,-12.626,-23.221,108.0,0.0
38514,-0.248,-1.042,0.045,-10.389,-12.924,-31.687,82.0,0.0
38568,-0.234,-1.116,0.030,-7.817,-19.366,-37.115,80.0,0.0
38622,-0.173,-1.266,-0.014,-7.489,-15.565,-35.733,79.0,0.0
38680,-0.235,-1.292,0.104,-1.542,-7.863,-26.176,80.0,0.0
38733,-0.116,-1.426,0.063,9.183,0.832,-4.756,81.0,0.0
38789,-0.165,-1.189,0.119,26.794,13.458,4.679,99.0,0.0
38850,-0.013,-0.628,0.082,23.809,13.702,23.985,0.0,0.0
38910,-0.049,-0.857,0.031,15.855,9.282,30.359,0.0,0.0
38972,0.035,-0.833,-0.028,17.855,37.137,38.321,0.0,0.0
39031,-0.110,-0.795,0.114,7.115,51.573,35.947,169.0,0.0
39092,-0.144,-0.811,0.133,9.008,18.817,27.809,0.0,0.0
39153,-0.134,-0.874,0.072,8.466,26.893,12.908,0.0,0.0
39216,-0.220,-0.943,0.096,-0.359,10.534,-3.168,166.0,0.0
39276,-0.235,-0.928,0.109,-0.824,7.603,-20.985,0.0,0.0
39337,-0.270,-0.957,0.119,-5.099,-2.489,-32.618,0.0,0.0
39396,-0.294,-1.010,0.142,-3.748,-4.366,-39.885,161.0,0.0
39455,-0.234,-1.195,0.030,-1.779,7.244,-36.840,159.0,0.0
39514,-0.290,-1.148,0.121,-13.313,14.756,-25.435,157.0,0.0
39572,-0.382,-1.445,0.169,-14.779,4.443,-13.412,154.0,0.0
39630,-0.288,-1.224,0.093,-5.847,-19.977,-0.977,152.0,0.0
39689,-0.189,-0.745,0.086,-4.832,-29.809,32.924,149.0,0.0
39750,-0.228,-1.018,-0.015,5.252,-33.855,45.817,145.0,0.0
39808,-0.115,-0.890,-0.066,1.611,-35.069,55.031,143.0,0.0
39869,-0.165,-0.758,0.004,-8.206,-21.374,65.992,0.0,0.0
39930,-0.194,-0.794,0.020,-1.924,-27.168,64.321,0.0,0.0
39992,-0.142,-0.868,-0.060,-8.397,-40.061,46.802,0.0,0.0
40039,-0.149,-0.929,-0.052,-8.779,-20.954,18.450,0.0,0.0
40086,-0.197,-0.984,-0.034,-5.840,-16.809,-11.076,0.0,0.0
40133,-0.223,-0.965,-0.009,-5.221,-15.962,-39.206,0.0,0.0
40238,-0.199,-0.976,0.020,-11.618,-14.000,-58.214,0.0,0.0
40289,-0.306,-1.136,0.101,-14.046,-14.359,-63.031,0.0,0.0
40355,-0.335,-1.298,0.140,-7.771,-23.573,-66.221,0.0,0.0
40401,-0.251,-1.491,0.104,0.794,-30.084,-64.221,0.0,0.0
40462,-0.218,-1.302,0.156,15.618,3.382,-44.221,0.0,0.0
40508,-0.169,-1.195,0.069,28.023,9.061,2.481,0.0,0.0
40567,-0.115,-0.681,0.119,29.099,17.122,20.824,0.0,0.0
40628,-0.056,-0.760,0.093,19.550,25.565,31.084,199.0,0.0
40687,0.016,-0.924,0.026,31.962,33.809,42.832,196.0,0.0
40748,-0.009,-0.825,0.052,17.863,73.038,42.748,195.0,0.0
40810,-0.161,-0.807,0.187,4.084,35.802,32.580,0.0,0.0
40870,-0.049,-0.752,0.100,3.832,15.603,19.160,0.0,0.0
40931,-0.118,-0.863,0.077,1.504,29.122,2.939,0.0,0.0
40990,-0.232,-0.960,0.113,-0.656,31.252,-15.061,0.0,0.0
41051,-0.254,-0.971,0.149,-9.672,12.450,-35.031,191.0,0.0
41110,-0.265,-1.015,0.165,-12.153,10.878,-46.847,189.0,0.0
41165,-0.231,-1.182,0.126,-6.924,15.641,-47.542,109.0,0.0
41220,-0.245,-1.204,0.177,-10.718,30.107,-33.504,107.0,0.0
41275,-0.269,-1.423,0.096,-15.802,32.290,-24.664,106.0,0.0
41333,-0.285,-1.080,0.176,-12.183,17.672,-13.679,105.0,0.0
41388,-0.172,-0.855,0.097,-11.397,1.550,10.405,103.0,0.0
41442,-0.154,-0.985,0.004,-7.260,-26.481,12.985,101.0,0.0
41497,0.016,-0.871,-0.083,-1.443,-12.382,22.786,99.0,0.0
41551,-0.000,-0.822,-0.057,-8.695,13.305,27.870,98.0,0.0
41606,-0.097,-0.834,0.018,-1.702,3.756,24.916,96.0,0.0
41660,0.025,-0.852,-0.097,4.458,10.076,16.695,95.0,0.0
41714,-0.008,-0.985,-0.105,4.435,31.626,8.229,94.0,0.0
41768,-0.115,-1.022,-0.057,9.595,45.924,-1.351,94.0,0.0
41826,-0.116,-0.993,-0.067,4.168,35.214,-7.702,94.0,0.0
41880,-0.158,-1.024,-0.041,5.794,39.412,-10.076,95.0,0.0
41934,-0.109,-1.029,-0.113,12.397,51.069,-12.649,95.0,0.0
41989,-0.204,-1.011,-0.042,15.137,67.015,-15.489,95.0,0.0
42043,-0.172,-1.029,-0.089,24.817,64.863,-18.176,96.0,0.0
42097,-0.208,-1.036,-0.036,27.595,73.221,-16.687,97.0,0.0
42152,-0.158,-1.215,-0.148,36.626,89.366,-11.038,97.0,0.0
42207,-0.161,-1.002,-0.057,29.244,91.679,-15.115,99.0,0.0
42251,-0.135,-0.813,0.003,27.931,97.855,-0.809,99.0,0.0
42305,-0.170,-0.856,0.047,24.947,82.649,1.351,100.0,0.0
42346,0.012,-0.982,-0.083,29.634,77.557,-3.298,102.0,0.0
42394,0.010,-0.988,-0.039,24.527,113.344,-2.176,103.0,72.0
42437,-0.164,-1.071,0.103,16.962,138.214,-2.000,39.0,61.0
42480,-0.268,-0.997,0.227,13.786,101.298,-4.893,51.0,55.0
42523,-0.143,-0.901,0.107,17.641,77.099,-7.176,43.0,52.0
42566,-0.137,-0.902,0.055,17.183,83.718,-12.511,43.0,49.0
42609,-0.160,-0.934,0.035,15.634,90.931,-16.435,45.0,47.0
42654,-0.235,-0.973,0.061,12.756,96.924,-19.672,47.0,44.0
42696,-0.286,-0.974,0.118,3.565,81.305,-18.939,41.0,42.0
42739,-0.214,-1.048,0.042,2.359,71.779,-11.992,43.0,40.0
42781,-0.218,-1.038,0.050,6.718,77.237,-8.107,43.0,38.0
42823,-0.171,-0.839,0.030,9.595,79.565,3.466,45.0,37.0
42908,-0.304,-1.142,0.021,21.489,80.038,10.405,47.0,34.0
42951,-0.185,-1.198,-0.105,29.962,66.031,0.802,48.0,33.0
42993,-0.174,-1.115,-0.100,21.351,76.260,-6.344,50.0,31.0
43035,-0.216,-1.002,-0.041,13.489,75.069,-10.351,50.0,30.0
43080,-0.240,-0.915,0.010,13.901,58.450,-8.130,53.0,29.0
43122,-0.194,-0.938,-0.032,10.840,46.809,-11.687,53.0,29.0
43165,-0.164,-0.992,-0.063,11.748,52.817,-15.893,55.0,28.0
43207,-0.186,-0.990,-0.043,11.916,60.893,-17.435,56.0,27.0
43250,-0.209,-1.001,-0.044,10.847,59.611,-18.252,57.0,26.0
43292,-0.223,-1.028,-0.013,11.740,56.878,-19.366,57.0,26.0
43335,-0.198,-1.039,-0.027,14.214,54.137,-19.099,58.0,26.0
43378,-0.193,-1.022,-0.012,18.573,60.450,-15.290,70.0,26.0
43430,-0.265,-1.132,0.019,22.908,64.435,-14.519,70.0,136.0
43480,-0.270,-0.898,0.115,16.084,43.359,-11.397,71.0,135.0
43537,-0.150,-0.867,0.026,17.046,56.458,5.359,0.0,137.0
43594,-0.203,-0.972,0.038,21.748,55.702,10.916,0.0,141.0
43652,-0.137,-0.824,0.056,19.382,69.672,5.916,0.0,145.0
43709,-0.213,-1.063,0.151,6.550,59.786,8.214,0.0,146.0
43767,-0.161,-1.043,0.178,3.389,30.580,5.099,0.0,146.0
43828,-0.116,-0.929,0.140,3.786,39.153,4.130,0.0,0.0
43888,-0.209,-0.980,0.156,6.061,32.863,-5.954,0.0,0.0
43952,-0.168,-0.979,0.135,0.405,28.710,-11.863,0.0,0.0
44012,-0.280,-0.947,0.207,-4.031,19.893,-10.374,0.0,0.0
44073,-0.209,-0.927,0.119,-1.183,7.534,-10.046,0.0,0.0
44134,-0.183,-0.980,0.072,-4.710,10.153,-9.366,0.0,0.0
44194,-0.238,-1.022,0.124,-2.786,13.458,-13.405,0.0,0.0
44256,-0.096,-0.882,0.013,0.580,20.847,-0.924,0.0,0.0
44316,-0.214,-0.915,0.089,-7.969,14.542,4.641,0.0,0.0
44377,-0.150,-0.925,0.011,-2.107,-3.817,9.046,0.0,0.0
44445,-0.171,-1.154,-0.043,-3.641,-13.473,4.229,0.0,0.0
44506,-0.164,-1.058,-0.044,-6.076,1.023,1.160,0.0,0.0
44568,-0.187,-1.030,-0.018,-9.122,-6.916,-2.740,0.0,0.0
44628,-0.191,-0.981,0.012,-7.206,-7.969,-2.649,0.0,0.0
44688,-0.194,-1.008,-0.005,-0.191,-5.321,-0.176,0.0,0.0
44748,-0.181,-0.976,-0.005,0.214,-7.183,1.221,0.0,0.0
44809,-0.117,-0.969,-0.052,5.496,7.992,5.336,0.0,0.0
44868,-0.226,-0.968,0.047,3.137,5.130,5.351,0.0,0.0
44929,-0.159,-0.971,-0.013,6.084,-7.321,5.298,0.0,0.0
44989,-0.172,-0.935,-0.012,6.733,4.145,1.275,0.0,0.0
45048,-0.165,-0.917,-0.018,8.221,4.053,1.435,0.0,0.0
45112,-0.196,-0.901,0.014,9.344,8.145,-1.115,0.0,0.0
45171,-0.209,-0.843,0.031,11.084,7.076,-3.901,0.0,0.0
45232,-0.197,-0.722,0.041,14.366,20.176,-3.618,0.0,0.0
45292,-0.198,-0.731,0.023,16.351,27.290,1.000,0.0,0.0
45351,-0.251,-1.185,0.042,12.015,16.847,-2.466,0.0,0.0
45412,-0.162,-1.180,0.019,16.214,20.733,-2.878,0.0,0.0
45472,-0.232,-1.128,0.120,-2.626,20.328,15.588,0.0,0.0
45533,-0.199,-1.477,-0.004,-3.160,-2.763,16.153,0.0,0.0
45593,-0.116,-0.997,0.051,-9.382,28.275,9.206,0.0,0.0
45656,-0.349,-0.958,0.194,-3.153,32.389,15.687,0.0,0.0
45759,-0.204,-0.846,0.099,-3.649,5.969,-3.969,0.0,0.0
45819,-0.312,-0.843,0.151,0.634,-2.321,-7.023,0.0,0.0
45879,-0.254,-0.825,0.071,0.511,-19.092,-11.634,0.0,188.0
45938,-0.201,-0.728,0.066,-0.679,-17.786,-9.061,0.0,190.0
45998,-0.226,-0.689,0.089,-1.779,2.023,0.351,0.0,187.0
46057,-0.223,-0.794,0.075,0.542,-18.443,-3.611,0.0,185.0
46117,-0.116,-0.792,-0.005,1.450,-0.740,2.099,0.0,186.0
46177,-0.312,-1.514,0.039,-3.031,-8.618,0.710,0.0,188.0
46238,-0.092,-1.058,-0.004,2.939,-15.824,6.260,0.0,179.0
46298,-0.445,-1.652,0.159,-18.771,-7.611,18.832,0.0,181.0
46357,-0.182,-1.192,-0.051,12.924,-47.954,-9.435,0.0,187.0
46417,-0.206,-1.135,-0.024,-5.595,1.252,-15.336,0.0,188.0
46477,-0.306,-0.974,0.097,10.321,-1.000,-8.481,0.0,188.0
46536,-0.258,-0.812,0.071,-6.061,-3.573,1.435,0.0,184.0
46597,-0.259,-0.847,0.053,1.580,-23.855,8.519,0.0,188.0
46656,-0.195,-0.866,-0.010,1.153,-11.847,2.595,0.0,190.0
46715,-0.117,-0.853,-0.054,7.740,3.107,6.313,0.0,191.0
46772,-0.224,-0.758,0.064,7.137,21.191,10.473,0.0,78.0
46826,-0.218,-0.717,0.062,10.221,7.153,6.901,0.0,79.0
46879,-0.178,-0.692,0.042,14.000,3.992,-1.992,0.0,77.0
46932,-0.167,-0.712,-0.015,20.420,29.099,-1.443,0.0,71.0
46985,-0.266,-0.983,0.063,10.229,16.053,-0.046,0.0,69.0
47038,-0.316,-1.384,0.097,11.389,-20.382,-11.000,0.0,73.0
47091,-0.142,-1.437,0.067,5.405,3.023,-0.076,0.0,72.0
47144,-0.298,-1.292,0.204,-12.573,32.679,3.710,0.0,77.0
47199,-0.447,-1.198,0.316,-16.893,-24.870,17.214,0.0,78.0
47255,-0.203,-0.939,0.131,-9.504,-32.099,12.061,0.0,76.0
47308,-0.112,-0.808,0.030,-5.168,4.969,16.893,0.0,76.0
47362,-0.295,-0.843,0.138,-2.733,10.038,3.481,0.0,78.0
47415,-0.209,-0.822,0.086,2.153,-12.916,-11.244,0.0,79.0
47469,-0.179,-0.812,0.109,-3.252,-6.481,-9.656,0.0,80.0
47522,-0.198,-0.824,0.108,-0.244,3.580,-3.740,0.0,80.0
47577,-0.198,-0.796,0.093,-0.954,5.282,1.145,0.0,78.0
47629,-0.195,-0.693,0.106,-1.435,11.389,4.687,0.0,67.0
47682,-0.248,-0.772,0.129,-2.809,0.168,4.321,0.0,67.0
47737,-0.178,-0.833,0.071,-0.969,3.634,0.351,0.0,66.0
47795,-0.208,-1.091,0.046,-5.702,3.015,-4.878,0.0,65.0
47847,-0.273,-1.470,-0.031,7.092,-3.237,-25.023,0.0,67.0
47900,-0.266,-1.442,0.032,4.893,13.298,-14.794,0.0,66.0
47953,-0.391,-1.562,0.033,5.458,-21.702,-26.802,0.0,66.0
48006,-0.115,-0.780,0.050,-5.603,-5.176,11.443,0.0,67.0
48059,-0.304,-1.050,0.057,-18.595,32.855,18.656,0.0,69.0
48113,-0.422,-0.874,0.200,2.824,-23.214,-1.855,0.0,77.0
48166,-0.180,-0.842,-0.022,4.664,-29.496,-16.473,0.0,71.0
48223,-0.138,-0.904,-0.081,12.298,5.069,-7.053,0.0,72.0
48276,-0.291,-0.893,0.073,2.908,4.267,-3.550,0.0,74.0
48329,-0.185,-0.840,0.030,1.855,-12.550,5.931,0.0,75.0
48384,-0.257,-0.899,0.083,0.557,-2.901,8.595,0.0,83.0
48437,-0.193,-0.899,0.009,8.977,-4.344,0.076,0.0,76.0
48490,-0.240,-0.792,0.089,13.504,12.046,-4.405,0.0,64.0
48586,-0.139,-0.731,-0.026,19.427,21.160,-1.160,0.0,74.0
48640,-0.302,-0.993,0.098,10.260,19.740,2.305,0.0,64.0
48693,-0.276,-1.336,0.075,3.565,-4.176,1.618,0.0,76.0
48749,-0.082,-0.870,0.082,-14.496,-1.954,23.176,0.0,67.0
48802,-0.405,-1.223,0.285,-24.672,7.626,33.084,0.0,67.0
48856,-0.257,-1.370,0.057,-10.977,-66.641,-2.366,0.0,73.0
48909,-0.078,-0.975,0.158,-13.893,-10.977,4.466,0.0,69.0
48962,-0.272,-1.047,0.214,-3.855,3.321,5.328,0.0,74.0
49015,-0.158,-0.788,0.165,8.611,2.603,6.466,0.0,73.0
49070,-0.181,-0.882,0.096,7.687,23.992,4.336,0.0,84.0
49124,-0.283,-0.907,0.148,6.855,11.359,-7.733,0.0,75.0
49177,-0.258,-0.915,0.092,3.435,-3.481,-13.992,0.0,78.0
49234,-0.211,-0.828,0.087,-2.023,3.359,-9.122,0.0,78.0
49288,-0.229,-0.747,0.120,-2.679,19.023,0.687,0.0,67.0
49341,-0.248,-0.625,0.145,-2.038,21.244,5.351,0.0,77.0
49394,-0.259,-0.689,0.116,-0.130,9.550,3.824,0.0,73.0
49447,-0.187,-0.719,0.058,4.389,8.206,-3.748,0.0,64.0
49501,-0.261,-1.010,0.067,-2.145,33.802,-3.534,0.0,61.0
49553,-0.404,-1.656,0.001,4.802,-20.206,-20.099,0.0,62.0
49606,-0.269,-1.615,-0.010,0.794,-21.061,-10.618,0.0,67.0
49659,-0.156,-1.370,-0.091,-6.954,29.679,3.527,0.0,62.0
49716,-0.385,-1.185,0.127,-2.267,21.290,-11.840,0.0,67.0
49769,-0.311,-0.872,0.125,-4.450,-4.786,-12.656,0.0,64.0
49822,-0.296,-0.788,0.130,-6.214,-19.641,0.527,200.0,66.0
49875,-0.229,-0.852,0.028,2.405,-22.885,4.252,199.0,69.0
49929,-0.072,-0.928,-0.120,6.053,-8.725,11.863,197.0,68.0
49982,-0.178,-0.943,-0.009,2.855,31.695,18.450,196.0,69.0
50035,-0.296,-1.057,0.050,-2.740,2.374,5.763,195.0,69.0
50088,-0.253,-1.000,0.029,2.473,-13.672,-10.664,195.0,70.0
50142,-0.216,-0.879,0.042,2.611,-9.565,-17.618,194.0,71.0
50199,-0.308,-0.950,0.101,5.397,-8.939,-16.855,192.0,72.0
50252,-0.221,-0.850,0.031,6.321,-22.893,-15.000,191.0,75.0
50306,-0.205,-0.802,0.034,9.328,-1.344,-4.405,190.0,75.0
50359,-0.250,-0.776,0.043,14.733,8.221,-1.931,189.0,76.0
50412,-0.249,-0.685,0.040,18.832,7.626,-4.137,186.0,75.0
50465,-0.185,-0.696,-0.006,15.573,16.359,5.336,184.0,78.0
50516,-0.280,-1.156,0.051,1.008,8.237,13.282,182.0,61.0
50570,-0.245,-1.354,0.099,-2.550,-17.962,14.214,180.0,73.0
50622,-0.145,-1.273,0.093,-14.130,23.595,36.221,178.0,61.0
50677,-0.305,-1.358,0.177,-23.687,-12.305,14.229,176.0,67.0
50728,-0.226,-1.101,0.159,-6.397,-6.992,11.137,175.0,64.0
50781,-0.235,-1.020,0.133,-4.962,3.664,-9.130,174.0,67.0
50833,-0.199,-0.795,0.141,6.008,15.527,-0.870,173.0,62.0
50883,-0.343,-0.854,0.205,0.473,9.687,-1.122,172.0,45.0
50933,-0.323,-0.931,0.175,3.252,-24.603,-6.435,170.0,42.0
50983,-0.241,-0.939,0.086,5.687,-16.573,-9.740,169.0,42.0
51035,-0.239,-0.865,0.094,6.641,-1.473,-8.893,168.0,43.0
51088,-0.233,-0.758,0.091,4.985,7.260,1.160,166.0,43.0
51138,-0.250,-0.688,0.109,1.000,4.061,8.702,164.0,44.0
51188,-0.194,-0.703,0.044,0.565,13.198,10.397,163.0,46.0
51281,-0.219,-0.827,0.020,6.313,10.931,-6.656,159.0,49.0
51332,-0.218,-0.864,0.073,-7.374,1.824,-5.611,157.0,50.0
51381,-0.210,-1.307,-0.054,-13.412,12.015,-2.855,156.0,51.0
51431,-0.389,-1.433,0.153,-15.252,-13.679,-11.679,155.0,51.0
51481,-0.250,-1.566,0.022,-4.779,-41.664,-11.076,153.0,53.0
51531,-0.284,-1.364,0.098,-7.344,-11.679,-1.405,153.0,54.0
51590,-0.371,-1.148,0.131,1.420,-12.687,-13.794,152.0,54.0
51638,-0.296,-0.875,0.095,2.931,-31.534,-18.420,151.0,55.0
51687,-0.129,-0.771,-0.032,3.405,-16.450,-3.298,149.0,46.0
51735,-0.210,-0.783,0.026,5.435,24.008,9.855,148.0,43.0
51783,-0.280,-0.896,0.029,3.779,0.985,8.656,147.0,55.0
51831,-0.169,-0.942,-0.051,8.931,6.053,8.046,145.0,45.0
51879,-0.244,-0.937,0.030,-3.924,0.137,5.076,144.0,57.0
51928,-0.218,-1.038,0.001,-3.282,-5.748,3.092,143.0,38.0
51976,-0.268,-1.007,0.051,-7.359,-17.679,-10.908,141.0,63.0
52026,-0.150,-0.921,-0.018,2.763,0.458,-14.290,140.0,38.0
52074,-0.247,-0.800,0.065,4.885,12.870,-12.458,138.0,40.0
52121,-0.219,-0.699,0.047,8.817,6.160,-7.656,137.0,41.0
52168,-0.208,-0.691,0.039,10.649,9.847,-0.695,135.0,44.0
52216,-0.176,-0.675,0.004,10.412,2.076,2.023,133.0,58.0
52265,-0.109,-0.650,-0.064,13.634,31.244,12.496,132.0,75.0
52314,-0.236,-0.864,0.081,2.038,21.779,15.931,129.0,62.0
52362,-0.344,-1.449,0.077,5.992,-7.366,-4.412,128.0,62.0
52410,-0.141,-1.242,0.063,1.733,4.962,1.809,125.0,62.0
52460,-0.400,-1.427,0.274,-22.718,23.336,18.664,123.0,62.0
52508,-0.356,-1.490,0.150,-7.901,-30.191,0.183,122.0,64.0
52556,-0.207,-1.148,0.134,-6.435,-16.313,3.863,120.0,64.0
52604,-0.200,-0.962,0.092,-4.244,22.901,9.023,119.0,82.0
52653,-0.235,-0.805,0.132,3.168,23.069,18.023,118.0,69.0
52700,-0.239,-0.764,0.115,3.969,27.977,15.260,116.0,58.0
52748,-0.258,-0.751,0.111,3.748,18.672,11.389,115.0,72.0
52796,-0.245,-0.822,0.067,0.702,9.160,0.931,113.0,73.0
52846,-0.250,-0.843,0.048,-1.084,3.168,-12.969,112.0,70.0
52893,-0.198,-0.744,0.032,0.359,12.282,-15.305,110.0,54.0
52941,-0.226,-0.760,0.038,-1.397,21.061,-12.672,108.0,82.0
52988,-0.222,-0.689,0.048,-2.412,30.809,-8.931,107.0,60.0
53035,-0.169,-0.801,-0.032,-1.595,36.595,-2.611,105.0,60.0
53082,-0.163,-0.751,-0.064,-1.344,64.527,3.496,103.0,59.0
53128,-0.237,-0.951,-0.003,-13.382,53.542,1.458,102.0,58.0
53175,-0.372,-1.425,-0.007,-7.855,17.176,-16.725,101.0,58.0
53221,-0.245,-1.611,-0.130,4.137,-5.611,-23.130,100.0,58.0
53270,-0.192,-1.587,-0.219,6.366,-7.038,-32.374,91.0,59.0
53316,-0.077,-1.128,-0.185,-10.405,13.260,5.298,90.0,60.0
53362,-0.129,-1.143,-0.179,-21.908,59.931,6.282,90.0,59.0
53408,-0.351,-0.963,0.045,-6.282,53.893,-0.893,90.0,61.0
53454,-0.248,-0.824,-0.016,3.580,32.916,-8.076,90.0,62.0
53500,-0.262,-0.870,-0.017,9.137,25.947,-15.038,89.0,62.0
53547,-0.130,-0.923,-0.154,21.924,38.580,-8.412,96.0,64.0
53594,-0.210,-0.918,-0.071,20.137,59.260,-0.351,96.0,65.0
53641,-0.242,-1.009,-0.081,15.473,43.702,6.107,96.0,71.0
53734,-0.138,-0.828,-0.128,12.702,34.969,8.702,95.0,77.0
53781,-0.238,-0.839,-0.059,11.183,33.618,5.366,94.0,74.0
53828,-0.156,-0.782,-0.126,12.649,26.740,0.267,94.0,76.0
53876,-0.197,-0.760,-0.076,15.672,49.321,1.435,92.0,84.0
53923,-0.268,-0.812,-0.028,22.092,47.282,-4.916,92.0,76.0
53970,-0.268,-0.838,-0.055,35.176,49.802,-8.824,91.0,77.0
54020,-0.214,-0.853,-0.056,36.664,53.634,-7.939,90.0,116.0
54069,-0.340,-1.298,-0.009,33.397,68.397,-7.137,88.0,116.0
54118,-0.301,-1.310,0.026,12.107,13.832,4.870,86.0,118.0
54165,-0.332,-1.577,0.117,4.412,-12.000,6.115,85.0,118.0
54214,-0.002,-1.238,-0.029,1.809,8.626,28.573,83.0,116.0
54269,-0.117,-1.266,0.049,7.458,57.214,22.679,0.0,121.0
54326,-0.181,-0.889,0.131,15.206,39.366,19.962,0.0,119.0
54381,-0.140,-0.799,0.067,17.878,40.656,13.260,0.0,119.0
54436,-0.208,-0.845,0.052,24.313,36.321,0.573,0.0,106.0
54492,-0.224,-0.902,0.035,24.878,43.168,-13.221,0.0,106.0
54547,-0.307,-0.858,0.112,13.237,29.557,-16.718,0.0,106.0
54605,-0.256,-0.833,0.056,5.611,7.237,-13.695,0.0,108.0
54661,-0.265,-0.803,0.069,3.618,9.611,-13.221,0.0,109.0
54717,-0.213,-0.727,0.051,3.786,12.023,-8.733,0.0,110.0
54772,-0.250,-0.740,0.050,4.489,31.939,-1.733,0.0,111.0
54828,-0.315,-0.846,0.090,9.168,17.603,-3.511,0.0,113.0
54884,-0.177,-0.796,0.004,6.481,32.198,7.160,0.0,115.0
54939,-0.492,-1.365,0.186,-6.015,-5.939,3.542,0.0,117.0
54995,-0.229,-1.292,0.026,8.359,-43.115,13.466,0.0,121.0
55052,-0.145,-1.884,-0.175,1.237,-13.275,8.496,0.0,123.0
55111,-0.122,-0.948,-0.017,10.084,69.344,11.405,0.0,123.0
55168,-0.355,-0.937,0.126,-9.809,53.267,12.313,0.0,123.0
55224,-0.377,-0.844,0.164,-0.977,-30.351,-2.519,0.0,124.0
55280,-0.142,-0.840,-0.028,1.038,-32.252,-10.405,0.0,125.0
55337,-0.220,-0.994,-0.007,9.786,-0.511,-12.672,0.0,127.0
55394,-0.224,-1.008,-0.021,16.397,12.939,-17.954,0.0,127.0
55450,-0.288,-0.956,0.053,10.924,24.748,-18.038,0.0,129.0
55507,-0.363,-0.974,0.117,10.504,-2.786,-20.580,0.0,129.0
55564,-0.269,-0.857,0.072,11.359,-22.489,-22.076,0.0,131.0
55624,-0.198,-0.706,0.036,14.748,4.412,-8.130,0.0,131.0
55682,-0.159,-0.625,-0.008,18.702,8.756,7.183,0.0,135.0
55738,-0.191,-0.667,-0.011,21.870,33.229,13.023,0.0,136.0
55795,-0.160,-0.674,-0.045,16.824,39.420,11.336,0.0,137.0
55848,-0.357,-1.269,0.094,6.649,38.725,10.061,0.0,60.0
55906,-0.268,-1.239,0.170,-2.885,0.046,9.748,0.0,141.0
55963,-0.525,-1.744,0.356,-29.267,-16.511,12.779,0.0,145.0
56022,-0.205,-1.097,0.224,-15.053,-38.038,25.031,0.0,146.0
56079,-0.254,-1.289,0.151,-11.008,-31.771,1.160,0.0,148.0
56139,-0.125,-0.811,0.120,9.191,0.664,7.573,178.0,151.0
56192,-0.260,-0.868,0.167,5.069,16.321,5.275,175.0,66.0
56244,-0.265,-0.854,0.133,11.588,-6.061,-3.916,174.0,81.0
56296,-0.212,-0.888,0.106,5.573,-0.870,-8.656,173.0,67.0
56347,-0.232,-0.940,0.116,1.718,-0.046,-5.389,172.0,66.0
56406,-0.240,-0.953,0.133,0.962,8.237,-1.427,0.0,156.0
56503,-0.228,-0.839,0.131,-3.908,3.443,-0.282,0.0,79.0
56561,-0.277,-0.835,0.161,-4.160,2.183,-6.573,0.0,159.0
56613,-0.225,-0.750,0.140,-0.145,6.794,-14.122,0.0,55.0
56676,-0.245,-0.647,0.160,0.443,10.534,-11.336,0.0,161.0
56729,-0.165,-0.648,0.056,7.374,25.336,-3.328,0.0,66.0
56782,-0.189,-0.710,0.053,-0.244,20.427,-0.878,0.0,62.0
56836,-0.422,-1.401,0.116,-4.939,-11.198,-13.756,0.0,67.0
56889,-0.072,-1.336,-0.115,10.214,-21.076,-9.962,0.0,70.0
56937,-0.304,-1.714,0.096,-13.237,14.229,2.924,106.0,64.0
56990,-0.299,-1.496,0.105,6.855,19.115,-0.260,0.0,65.0
57038,-0.331,-1.048,0.234,-5.321,-1.267,-7.802,107.0,65.0
57092,-0.325,-0.885,0.194,-2.649,-13.023,-9.405,0.0,67.0
57157,-0.209,-0.651,0.086,1.679,-33.351,-6.847,0.0,68.0
57208,-0.226,-0.873,0.040,3.641,-26.412,-7.924,111.0,73.0
57257,-0.155,-0.996,-0.072,13.168,-11.748,-8.481,104.0,57.0
57309,-0.231,-1.005,0.016,2.298,-4.427,-8.168,102.0,69.0
57357,-0.193,-0.922,0.042,-9.321,-8.649,8.664,102.0,49.0
57413,-0.238,-0.992,0.089,-14.901,-2.206,16.504,0.0,74.0
57463,-0.229,-0.969,0.097,-8.053,-10.634,11.885,105.0,63.0
57513,-0.216,-0.891,0.108,-1.954,-2.878,5.061,106.0,64.0
57567,-0.200,-0.851,0.098,4.870,-3.366,1.901,103.0,57.0
57622,-0.156,-0.760,0.060,14.145,12.817,2.611,0.0,67.0
57672,-0.232,-0.724,0.094,16.740,22.863,1.786,100.0,68.0
57723,-0.219,-0.778,0.053,24.733,19.191,-3.458,126.0,50.0
57779,-0.180,-0.636,0.039,20.206,14.511,-5.885,0.0,65.0
57834,-0.131,-0.882,-0.005,11.947,46.389,11.069,199.0,64.0
57890,-0.365,-1.347,0.180,2.817,6.359,-4.550,198.0,65.0
57942,-0.165,-1.307,0.141,0.809,16.366,7.053,117.0,64.0
57997,-0.490,-1.807,0.306,-28.435,-9.504,-15.458,194.0,67.0
58056,-0.203,-1.075,0.252,-9.435,-29.511,2.855,193.0,74.0
58107,-0.156,-1.012,0.118,-12.206,-21.031,-4.817,112.0,70.0
58169,-0.122,-0.688,0.129,-0.237,-1.809,9.725,192.0,71.0
58223,-0.191,-0.811,0.131,-4.557,-6.977,9.870,191.0,77.0
58274,-0.202,-1.016,0.097,-1.198,-25.214,-2.405,130.0,74.0
58326,-0.167,-1.031,0.082,-7.771,-22.405,-6.710,110.0,85.0
58375,-0.184,-0.971,0.144,-13.740,-23.176,-1.023,110.0,60.0
58423,-0.225,-1.005,0.191,-10.878,-16.901,1.740,97.0,59.0
58471,-0.271,-1.203,0.167,-11.229,-35.901,-5.878,96.0,53.0
58522,-0.105,-1.025,-0.000,9.359,-20.420,-9.038,84.0,63.0
58572,-0.079,-0.696,0.054,5.611,13.786,9.763,121.0,73.0
58624,-0.212,-0.938,0.063,-3.634,21.366,10.176,119.0,86.0
58675,-0.311,-1.104,0.090,0.481,-14.573,-4.588,111.0,83.0
58724,-0.141,-0.920,0.014,-5.076,-22.351,-7.634,115.0,53.0
58773,-0.208,-0.956,0.063,-8.137,-2.664,-3.511,111.0,52.0
58822,-0.248,-1.062,0.037,-4.924,-20.344,-11.389,112.0,50.0
58870,-0.168,-0.943,0.025,-1.832,-12.046,-8.756,112.0,50.0
58923,-0.192,-0.972,0.049,-4.740,-0.947,3.893,112.0,48.0
58971,-0.209,-0.979,0.064,-3.466,0.832,9.977,112.0,48.0
59020,-0.248,-1.006,0.088,-3.313,-5.924,4.947,112.0,50.0
59069,-0.217,-0.997,0.058,0.237,-18.160,-2.840,111.0,49.0
