Timestamp(ms),AccelX(g),AccelY(g),AccelZ(g),GyroX(deg/s),GyroY(deg/s),GyroZ(deg/s),DistanceLeft(cm),DistanceRight(cm)
30561,-0.633,-0.011,0.914,1.305,-13.382,0.275,0.0,164.0
30621,-0.420,-0.005,0.878,1.366,-17.237,-2.779,0.0,0.0
30667,-0.354,-0.012,0.801,-1.053,19.489,-1.198,0.0,0.0
30713,-0.455,-0.023,0.799,-1.206,34.573,3.504,0.0,0.0
30759,-0.571,-0.017,0.831,1.420,30.756,1.733,0.0,0.0
30806,-0.588,-0.032,0.835,3.130,18.427,0.191,0.0,0.0
30852,-0.603,-0.012,0.858,2.382,2.832,2.962,0.0,0.0
30912,-0.553,-0.001,0.835,0.649,-5.878,3.397,0.0,0.0
30961,-0.499,0.006,0.789,-1.313,7.718,1.695,0.0,0.0
31021,-0.535,-0.007,0.774,-0.542,14.885,1.244,0.0,0.0
31068,-0.604,-0.008,0.801,1.443,9.420,1.084,0.0,0.0
31127,-0.623,-0.014,0.823,0.412,-0.992,0.695,0.0,0.0
31174,-0.556,-0.009,0.817,0.076,-6.176,1.023,0.0,0.0
31234,-0.540,-0.013,0.802,-0.489,-0.794,1.618,0.0,0.0
31280,-0.556,-0.005,0.784,0.374,6.130,1.969,0.0,0.0
31340,-0.597,-0.009,0.795,0.481,2.748,1.702,0.0,0.0
31386,-0.589,-0.001,0.806,0.550,-5.374,0.916,0.0,0.0
31449,-0.551,-0.006,0.811,-0.069,-5.473,0.733,0.0,0.0
31496,-0.538,-0.018,0.799,-0.198,3.198,0.962,0.0,0.0
31555,-0.573,-0.012,0.785,-0.107,4.420,2.023,0.0,0.0
31602,-0.587,-0.002,0.790,0.168,-0.511,1.931,0.0,0.0
31662,-0.567,-0.004,0.800,0.198,-3.985,1.053,0.0,0.0
31709,-0.558,-0.009,0.815,0.076,-2.443,1.046,0.0,0.0
31768,-0.553,-0.008,0.809,0.122,1.183,1.275,0.0,0.0
31815,-0.577,-0.008,0.787,0.344,0.931,2.328,0.0,0.0
31875,-0.602,-0.005,0.825,0.595,-1.397,6.565,0.0,0.0
31922,-0.534,-0.059,0.815,16.176,18.916,60.748,0.0,0.0
31984,-0.904,0.059,0.604,43.855,153.618,229.809,0.0,0.0
32031,-2.000,0.830,0.574,-10.534,250.130,250.130,0.0,0.0
32088,-1.785,0.537,0.412,-112.504,89.824,250.130,133.0,0.0
32128,-0.901,0.153,0.378,-154.947,-97.847,250.130,82.0,0.0
32176,-0.425,0.032,0.462,-156.321,-134.641,208.015,78.0,117.0
32224,-0.104,-0.080,0.581,-151.000,-167.389,155.084,59.0,124.0
32272,0.205,-0.071,1.018,-135.511,-226.290,106.511,54.0,131.0
32322,0.694,-0.363,0.490,-75.519,-216.275,35.504,23.0,0.0
32375,0.710,0.187,0.308,-10.260,-35.137,-69.137,22.0,0.0
32427,0.311,0.569,0.370,-63.443,119.160,12.718,28.0,0.0
32477,0.056,0.318,1.131,-90.664,52.198,74.313,20.0,0.0
32528,0.767,-0.696,1.045,-44.389,-67.634,79.389,46.0,0.0
32580,0.913,-0.003,1.027,74.702,34.145,-65.710,48.0,0.0
32632,-0.122,0.915,0.923,66.282,198.565,-39.466,50.0,0.0
32679,-1.265,0.851,0.821,-14.351,182.641,78.008,50.0,123.0
32727,-0.909,0.452,0.819,-106.802,-47.305,134.901,53.0,123.0
32779,-0.218,-0.604,0.649,-119.542,-218.863,120.626,43.0,0.0
32833,1.364,-0.473,0.441,-54.344,-152.939,-27.008,41.0,0.0
32884,1.554,-0.120,0.584,53.153,-4.763,-25.389,40.0,0.0
32936,0.478,0.556,1.104,60.137,243.336,-51.076,43.0,0.0
32989,-0.815,0.934,1.002,-24.282,250.130,30.336,54.0,0.0
33041,-1.670,0.155,1.010,-63.115,116.962,97.298,61.0,0.0
33088,-1.019,-0.076,0.791,-88.534,-137.656,62.198,47.0,124.0
33182,0.540,-0.781,-0.072,-42.580,-250.137,-98.626,36.0,0.0
33233,2.000,0.526,0.708,52.298,-84.069,-74.947,36.0,0.0
33285,1.081,0.020,0.839,84.641,250.130,34.725,38.0,0.0
33340,-0.895,0.442,0.531,74.160,250.130,10.198,58.0,0.0
33393,-2.000,0.248,0.797,75.809,207.427,26.725,62.0,0.0
33445,-1.295,0.310,1.104,-101.053,-229.237,-10.374,61.0,0.0
33498,-0.335,0.220,0.033,-118.244,-250.137,-13.328,46.0,0.0
33549,0.408,-0.229,-0.021,-31.183,-250.137,-58.588,43.0,0.0
33601,1.364,0.094,0.500,-24.099,-138.168,7.053,36.0,0.0
33661,1.507,-0.446,0.770,54.000,212.176,18.328,0.0,0.0
33714,-0.348,0.294,1.184,56.267,250.130,-16.977,57.0,0.0
33770,-1.773,0.439,0.567,45.969,250.130,-7.985,61.0,0.0
33809,-1.565,0.569,1.019,-3.748,-76.855,6.878,64.0,0.0
33861,-0.910,0.261,0.655,-55.298,-247.809,18.092,60.0,0.0
33913,-0.266,-0.094,0.304,-91.466,-250.137,14.519,44.0,0.0
33965,0.882,-0.401,-0.171,-32.542,-250.137,-66.183,37.0,0.0
34016,2.000,-0.151,0.068,69.450,0.458,5.397,36.0,0.0
34067,0.631,-0.354,1.248,42.374,250.130,41.458,39.0,0.0
34120,-1.234,0.360,0.358,90.351,250.130,-1.863,61.0,0.0
34173,-2.000,0.440,1.132,113.061,136.878,7.916,67.0,0.0
34215,-1.045,0.979,0.680,-97.595,-171.122,-1.160,67.0,0.0
34269,-0.556,0.446,0.346,-153.000,-236.183,53.107,60.0,0.0
34321,-0.146,-0.187,0.376,-147.420,-226.542,66.191,58.0,0.0
34374,0.535,-0.509,0.271,-52.542,-182.748,55.542,64.0,0.0
34428,1.159,-0.332,1.190,109.076,121.893,14.702,89.0,0.0
34482,-0.409,-0.360,0.762,65.015,250.130,31.260,66.0,0.0
34535,-1.173,0.421,0.850,118.511,181.718,2.221,73.0,0.0
34588,-1.704,0.863,1.174,7.008,-14.427,-28.122,69.0,0.0
34628,-0.747,0.513,0.548,-101.458,-162.603,31.000,64.0,0.0
34683,-0.507,0.126,0.600,-135.664,-243.031,55.740,59.0,0.0
34737,-0.104,-0.552,0.503,-74.366,-250.137,17.336,57.0,0.0
34787,0.956,-0.708,0.037,93.366,-217.489,-100.130,16.0,0.0
34841,1.598,0.529,1.307,102.252,129.824,-24.573,82.0,0.0
34895,0.219,0.287,0.770,107.916,200.130,19.756,81.0,0.0
34949,-0.398,0.891,0.947,70.886,184.412,12.565,83.0,0.0
35003,-0.755,0.568,1.080,-52.458,103.107,51.115,84.0,0.0
35057,-0.679,-0.067,0.830,-59.527,-43.260,105.496,81.0,0.0
35106,-0.249,-0.512,0.647,44.695,-168.656,12.504,83.0,0.0
35159,0.312,0.194,0.329,97.901,-95.115,-72.786,16.0,0.0
35208,0.258,0.655,0.929,67.450,72.527,-1.176,16.0,0.0
35257,-0.469,1.146,1.441,37.015,123.565,51.832,18.0,0.0
35299,-0.842,0.923,0.735,29.740,63.832,59.214,68.0,11.0
35341,-0.766,0.682,0.821,-33.107,-19.160,20.420,67.0,9.0
35382,-0.471,0.285,0.631,-63.496,-159.695,-4.092,63.0,8.0
35423,0.022,0.069,0.578,-56.985,-250.137,-37.924,59.0,8.0
35473,0.532,-0.081,0.351,-20.710,-250.137,-112.412,25.0,0.0
35523,2.000,0.649,-0.034,39.084,-106.260,-20.511,16.0,0.0
35575,0.942,1.004,0.604,6.351,247.412,13.252,17.0,0.0
35624,-0.207,0.842,1.067,-0.221,250.130,54.130,16.0,0.0
35667,-0.903,0.679,1.405,-7.733,131.359,134.634,73.0,12.0
35751,-0.573,0.426,0.604,-9.527,-130.863,12.847,63.0,7.0
35802,-0.063,0.102,0.530,-49.611,-200.901,-40.214,28.0,0.0
35852,0.791,-0.081,0.270,11.252,-185.458,-158.176,18.0,0.0
35902,1.407,0.953,0.814,11.817,84.351,-36.229,17.0,0.0
35954,0.313,0.919,1.166,-10.397,246.557,21.336,73.0,0.0
35999,-0.881,0.795,0.995,-24.466,183.649,98.947,63.0,9.0
36040,-1.424,0.237,0.869,-19.947,-0.221,33.115,64.0,7.0
36081,-0.597,0.331,0.675,-51.771,-172.641,-32.290,61.0,7.0
36131,-0.055,0.021,0.502,-41.985,-250.137,-68.779,26.0,0.0
36182,0.998,-0.007,0.262,8.878,-250.137,-81.382,17.0,0.0
36232,1.588,0.369,0.216,20.176,-42.397,-29.542,17.0,0.0
36281,0.940,0.801,0.833,10.481,250.130,-26.748,16.0,0.0
36331,-0.404,0.995,1.453,-17.832,250.130,37.527,17.0,0.0
36381,-1.367,0.359,1.019,-37.168,109.168,14.885,23.0,0.0
36436,-0.671,0.375,0.673,6.443,-114.664,-45.313,61.0,0.0
36489,0.223,0.407,0.390,-14.733,-141.710,-62.611,58.0,0.0
36539,0.687,0.295,0.376,-42.382,-100.771,-42.756,23.0,0.0
36589,0.915,0.371,0.796,-54.840,-0.542,-45.656,20.0,0.0
36639,0.721,0.468,1.530,-49.244,169.420,-4.344,16.0,0.0
36681,-0.713,0.247,1.001,41.023,189.061,21.481,61.0,12.0
36722,-1.131,0.700,1.175,40.878,82.038,9.168,62.0,11.0
36764,-0.678,0.399,0.587,12.214,-50.458,-22.145,62.0,10.0
36805,-0.101,0.290,0.319,-8.084,-110.863,-32.176,61.0,11.0
36860,0.400,0.280,0.482,-89.069,-66.901,-56.954,57.0,0.0
36898,0.666,-0.011,1.138,-105.183,30.282,-86.908,47.0,0.0
36948,0.224,-0.730,1.134,-24.290,114.511,-80.321,46.0,172.0
37001,-0.829,0.204,1.361,66.115,82.527,-36.260,47.0,0.0
37052,-0.979,0.377,1.028,37.672,-10.305,-55.405,48.0,0.0
37104,-0.214,0.312,0.588,2.176,-100.687,-12.679,47.0,0.0
37142,0.330,0.464,0.615,-68.244,-117.886,38.427,48.0,0.0
37193,0.445,0.010,0.709,-130.748,-42.985,33.130,43.0,0.0
37245,0.397,-1.110,1.138,36.847,134.130,20.351,45.0,0.0
37300,-0.700,0.195,1.244,109.412,116.191,52.000,51.0,0.0
37352,-0.576,0.432,0.585,102.595,47.198,17.725,50.0,0.0
37403,-0.458,0.889,0.878,2.305,10.748,38.420,57.0,178.0
37455,-0.363,0.409,0.849,-158.977,-42.687,70.252,60.0,0.0
37509,-0.232,-0.307,0.923,-128.244,-84.924,80.191,61.0,0.0
37551,0.113,-0.228,1.052,88.183,-58.840,51.405,64.0,17.0
37602,0.193,0.583,0.809,93.458,15.916,83.924,64.0,173.0
37654,-0.499,0.470,1.065,29.450,98.176,75.649,65.0,0.0
37707,-1.191,0.443,1.089,10.863,-16.595,40.473,63.0,0.0
37763,-0.243,0.348,0.422,-55.115,-173.061,-46.191,61.0,0.0
37815,0.562,0.143,0.322,-39.137,-193.824,-57.573,59.0,0.0
37868,1.865,0.203,1.328,0.420,-12.962,-57.962,58.0,0.0
37920,0.587,0.274,0.834,74.115,224.397,-7.786,59.0,0.0
37972,-1.067,0.853,1.029,31.763,226.649,9.893,62.0,0.0
38026,-1.444,0.563,0.617,34.092,-1.397,-2.733,63.0,0.0
38078,-0.309,0.583,0.687,-81.832,-184.931,10.672,60.0,0.0
38129,0.378,0.047,0.312,-141.985,-172.580,-26.344,57.0,178.0
38182,1.595,-0.233,1.239,-68.611,-47.237,4.847,58.0,0.0
38281,-1.106,0.495,1.171,81.313,236.198,23.779,60.0,0.0
38332,-1.300,0.424,1.014,37.718,-5.824,-18.550,60.0,178.0
38385,-0.467,0.540,0.604,-3.664,-107.282,-6.527,59.0,0.0
38437,-0.098,0.174,0.552,-64.588,-144.763,-4.588,57.0,0.0
38490,0.370,0.004,0.535,-95.466,-123.580,-14.985,55.0,0.0
38542,1.130,-0.580,1.553,-9.435,-22.992,-2.221,57.0,183.0
38593,0.330,-0.045,1.002,147.405,127.771,22.427,57.0,178.0
38644,-0.493,1.009,1.014,116.168,179.107,4.550,58.0,176.0
38699,-1.060,0.871,0.518,35.733,132.405,33.031,63.0,177.0
38751,-0.928,0.466,0.651,-74.588,-73.328,34.244,60.0,179.0
38803,-0.294,0.035,0.519,-152.649,-214.397,24.153,57.0,0.0
38855,0.637,-0.153,0.773,-98.748,-187.008,-16.473,58.0,0.0
38908,1.122,-0.151,0.845,157.779,80.656,-12.573,58.0,0.0
38960,-0.035,0.970,0.933,93.382,186.618,25.847,60.0,180.0
39012,-0.949,0.618,0.288,35.733,205.450,10.977,60.0,177.0
39064,-1.020,0.609,0.849,-63.176,-40.031,-33.183,62.0,0.0
39107,-0.267,0.112,0.470,-130.718,-165.985,-37.198,57.0,19.0
39162,0.260,0.124,0.787,-133.557,-180.931,-30.221,54.0,0.0
39216,1.467,-1.121,0.547,135.641,-13.641,-16.519,59.0,0.0
39267,0.376,0.829,0.617,163.855,170.466,34.527,58.0,176.0
39319,-0.681,0.838,1.113,35.687,202.687,44.885,62.0,0.0
39362,-1.283,0.616,0.978,-69.718,8.542,-19.168,63.0,15.0
39414,-0.845,0.293,0.480,-67.672,-138.534,-32.656,62.0,0.0
39454,-0.123,-0.064,0.386,-61.947,-191.672,2.947,57.0,0.0
39506,0.275,-0.260,0.744,-73.160,-143.824,-25.282,57.0,0.0
39559,1.469,-0.853,0.887,65.748,24.489,-69.427,58.0,0.0
39615,0.239,0.966,1.087,123.443,185.458,-29.382,57.0,0.0
39658,-0.824,0.738,0.757,26.908,193.427,-18.809,60.0,18.0
39709,-1.409,0.650,0.736,-17.038,65.260,3.084,62.0,174.0
39751,-0.767,0.444,0.553,-79.298,-143.908,17.695,61.0,19.0
39804,-0.128,-0.034,0.480,-104.473,-206.382,25.511,57.0,0.0
39856,0.669,-0.317,0.701,-64.275,-175.771,-4.992,57.0,179.0
39910,1.234,-0.278,0.754,93.817,77.198,-34.641,81.0,0.0
39963,0.000,0.681,1.123,99.595,194.015,-15.023,58.0,0.0
40017,-1.063,0.339,0.579,8.489,161.389,-29.824,59.0,177.0
40071,-1.082,0.635,0.742,-15.931,-34.504,10.641,62.0,0.0
40124,-0.575,0.230,0.758,-106.305,-185.107,20.969,56.0,0.0
40163,0.139,-0.112,0.436,-122.702,-232.824,-6.863,57.0,0.0
40223,1.198,-1.109,0.852,-10.229,-184.366,-44.664,0.0,0.0
40275,0.982,0.450,1.141,121.183,192.023,-12.580,58.0,178.0
40327,-0.726,0.646,0.039,98.145,250.130,21.779,57.0,178.0
40379,-1.590,0.906,1.163,25.382,79.931,59.916,57.0,179.0
40431,-0.496,0.213,0.644,-136.366,-158.817,17.618,57.0,0.0
40486,0.360,0.219,0.764,-136.863,-206.977,-38.977,56.0,179.0
40538,1.246,-0.574,0.665,99.985,22.420,-42.679,57.0,178.0
40591,0.148,0.462,0.840,121.855,131.206,20.687,57.0,0.0
40642,-0.522,0.687,0.865,39.870,144.840,-6.786,59.0,176.0
40685,-0.813,0.740,0.776,-41.298,54.260,10.687,59.0,13.0
40736,-0.817,0.358,0.840,-88.924,-61.038,10.176,58.0,177.0
40788,-0.293,0.003,0.990,-107.237,-203.076,-7.893,56.0,183.0
40883,0.728,0.353,1.171,115.939,72.580,-25.260,57.0,179.0
40935,-0.274,0.647,0.656,78.344,180.176,-11.298,54.0,180.0
40991,-1.113,0.787,0.570,44.779,129.466,50.618,59.0,0.0
41042,-0.745,0.373,0.819,-133.305,-107.420,40.618,56.0,182.0
41085,0.008,-0.103,0.742,-156.229,-228.275,-1.840,56.0,21.0
41138,1.491,-1.519,1.138,9.817,-132.015,-43.695,57.0,180.0
41189,0.596,0.424,1.167,120.641,141.069,-10.992,56.0,180.0
41241,-0.422,0.729,0.441,70.832,175.702,-0.137,57.0,178.0
41294,-1.127,0.587,0.814,10.031,95.916,5.298,58.0,0.0
41347,-0.458,0.378,0.793,-121.458,-111.313,11.511,56.0,0.0
41403,0.182,0.204,1.790,-137.130,-244.748,8.321,55.0,0.0
41456,1.127,0.096,0.651,173.435,-15.992,-80.603,55.0,0.0
41509,0.116,0.818,0.401,105.557,178.786,8.885,57.0,0.0
41551,-0.794,0.700,0.771,-21.901,218.870,31.992,57.0,11.0
41609,-0.622,0.072,0.580,-105.618,15.130,22.977,56.0,181.0
41650,-0.261,0.238,1.288,-140.893,-126.069,-32.374,55.0,13.0
41700,0.321,-1.082,1.258,-30.580,-143.511,-48.847,55.0,180.0
41752,0.228,0.875,1.118,149.863,11.802,18.137,56.0,0.0
41804,-0.448,0.751,0.594,72.618,64.466,15.542,57.0,0.0
41848,-0.406,0.255,0.492,-79.603,-13.023,11.313,53.0,12.0
41888,-0.002,-0.006,0.540,-113.916,-79.069,16.618,51.0,12.0
41929,0.430,0.102,0.897,-103.573,-103.618,24.786,52.0,12.0
41980,0.892,-1.140,1.995,13.985,-53.550,-20.008,54.0,183.0
42032,-0.045,0.729,0.768,133.534,91.191,39.824,55.0,180.0
42073,-0.457,0.289,0.643,81.618,143.855,-12.656,56.0,11.0
42114,-0.372,0.332,0.702,-51.099,52.832,-20.191,55.0,8.0
42153,-0.055,0.455,0.672,-114.695,-38.794,-25.206,54.0,9.0
42194,-0.868,0.748,2.000,-200.695,-143.710,-42.458,55.0,9.0
42238,0.309,-0.549,0.700,146.405,-53.939,-8.992,52.0,12.0
42279,0.008,0.872,0.386,152.260,-31.359,44.901,54.0,13.0
42320,0.002,0.387,0.794,32.450,42.092,3.351,55.0,10.0
42361,0.169,0.342,0.511,-66.886,40.847,15.840,54.0,9.0
42402,0.061,0.377,1.135,-120.321,14.313,33.916,50.0,10.0
42443,-0.387,-0.380,0.930,-158.702,-53.924,0.458,51.0,10.0
42484,-0.050,0.260,0.873,156.420,-4.908,11.481,51.0,13.0
42525,-0.166,0.197,0.526,112.267,18.519,18.985,55.0,11.0
42568,0.161,0.230,0.459,-23.802,32.824,-29.282,54.0,10.0
42609,0.108,0.188,0.341,-78.473,56.908,-19.519,51.0,9.0
42650,-1.085,1.148,2.000,-123.779,-37.092,0.939,56.0,10.0
42691,-0.024,-1.327,0.651,52.191,-6.832,-20.695,54.0,13.0
42742,-0.027,0.468,0.665,101.122,-36.458,38.939,52.0,184.0
42783,0.264,0.010,0.554,44.931,19.595,-17.534,51.0,10.0
42824,-0.001,0.704,1.743,-97.466,71.733,-1.710,53.0,9.0
42876,-0.528,-0.504,0.353,-100.779,22.046,-10.756,54.0,0.0
42917,-0.308,0.404,0.760,78.573,-1.969,27.679,53.0,11.0
42961,-0.098,-0.122,0.580,55.313,-18.473,-5.672,52.0,11.0
43002,0.033,0.635,1.328,-24.649,-11.588,-13.740,54.0,10.0
43043,0.070,0.395,0.884,-92.168,-23.931,10.779,57.0,10.0
43084,-0.158,-0.178,0.964,39.733,20.382,-2.748,57.0,12.0
43125,-0.347,0.164,1.224,13.756,-14.977,-8.405,53.0,10.0
43210,-0.035,0.407,0.931,12.527,11.740,-1.198,56.0,9.0
43251,-0.229,0.199,1.059,-39.443,6.351,-25.863,56.0,9.0
43292,-0.122,-0.009,0.851,-19.023,6.466,-23.504,54.0,8.0
43333,-0.196,0.050,1.035,27.840,8.229,-5.260,51.0,9.0
43377,-0.131,0.098,0.893,45.038,-12.344,-16.237,57.0,11.0
43418,-0.045,0.187,0.854,46.107,-19.817,-20.748,54.0,10.0
43459,-0.074,0.265,0.990,18.427,-29.679,-25.756,54.0,12.0
43511,-0.111,0.237,0.999,-0.977,-41.260,-32.260,56.0,0.0
43564,0.010,0.062,0.973,33.466,-8.359,-18.870,50.0,0.0
43602,-0.066,0.193,0.962,75.321,-18.191,10.130,58.0,0.0
43655,-0.060,0.327,0.922,77.573,-31.023,-1.313,57.0,0.0
43707,-0.016,0.496,0.855,62.328,-45.061,-33.954,58.0,0.0
43759,0.020,0.638,0.824,32.260,-51.511,-60.878,59.0,0.0
43814,0.089,0.735,0.647,10.290,-1.863,-63.962,60.0,0.0
43867,-0.139,0.625,0.930,-16.634,60.252,-35.527,61.0,0.0
43920,-0.279,0.570,0.844,-13.733,35.771,-11.504,58.0,0.0
43971,-0.466,0.620,0.863,7.221,-8.099,14.092,58.0,179.0
44021,-0.145,0.779,1.025,-33.817,-58.038,79.427,19.0,0.0
44073,0.459,0.170,1.244,-80.504,-62.412,153.260,58.0,0.0
44126,0.555,-0.380,0.605,-10.344,123.740,71.344,61.0,0.0
44179,-0.565,0.295,0.513,75.771,150.748,-18.008,61.0,0.0
44231,-0.877,0.673,0.887,37.046,98.969,-27.924,63.0,0.0
44288,-0.373,0.415,0.726,-127.794,-75.962,31.931,62.0,0.0
44340,-0.038,0.302,1.251,-139.794,-159.374,46.389,59.0,0.0
44392,0.555,-0.849,0.762,145.336,-13.015,-63.115,58.0,0.0
44445,0.057,0.801,0.932,136.229,0.198,-7.160,59.0,0.0
44484,-0.138,0.770,0.830,10.473,34.198,-51.954,59.0,0.0
44536,-0.219,0.517,0.543,-33.656,7.313,-39.145,59.0,0.0
44589,-0.111,0.376,0.397,-26.534,-24.076,-8.267,58.0,0.0
44641,-0.107,0.466,0.904,-17.542,-17.939,4.702,58.0,0.0
44694,0.032,0.509,1.417,-40.603,-12.504,11.405,58.0,0.0
44736,-0.105,0.467,1.089,16.046,-13.458,26.092,58.0,0.0
44788,-0.124,0.496,0.877,14.252,-9.489,29.885,58.0,0.0
44827,-0.135,0.468,0.910,-30.939,-1.214,43.305,57.0,0.0
44879,-0.204,0.425,1.343,-92.763,-55.275,48.084,55.0,0.0
44932,-0.129,-0.169,1.190,-61.718,-140.214,27.641,56.0,0.0
44992,0.547,0.161,0.905,60.061,-140.931,-12.985,0.0,0.0
45044,1.044,0.409,0.306,13.885,2.099,5.237,52.0,0.0
45096,0.425,0.187,0.195,-30.977,158.214,-0.084,51.0,0.0
45149,-0.218,0.192,0.955,-123.527,162.878,-25.183,51.0,0.0
45203,-1.066,-0.601,1.129,-74.840,-8.985,-61.847,39.0,0.0
45242,-0.125,-0.242,1.325,74.244,-204.466,7.588,40.0,0.0
45292,0.541,0.059,0.822,100.275,-217.939,-10.084,22.0,0.0
45352,1.162,0.927,0.671,74.282,-108.733,8.252,0.0,0.0
45405,0.741,0.428,0.374,-10.023,53.527,37.473,53.0,0.0
45456,0.193,0.438,0.946,-39.969,119.336,21.809,23.0,0.0
45516,-0.151,0.258,1.221,-58.656,25.145,10.229,0.0,0.0
45577,0.582,-0.262,0.828,22.740,32.634,7.511,0.0,0.0
45631,0.273,0.546,0.946,-4.534,44.710,19.252,79.0,0.0
45688,-0.058,0.201,1.095,-94.901,59.405,9.924,79.0,0.0
45784,0.156,0.022,1.228,-22.725,-43.458,8.550,57.0,0.0
45838,0.354,0.123,0.908,-1.038,-46.557,15.176,79.0,0.0
45890,0.424,0.540,0.731,-16.031,-22.534,54.634,60.0,0.0
45942,0.239,-0.097,1.008,-126.511,8.405,70.580,50.0,0.0
45993,0.093,-1.223,0.812,-13.282,-15.351,-6.588,23.0,0.0
46046,0.497,0.720,0.781,57.527,-36.939,-13.763,51.0,0.0
46098,0.601,0.001,0.739,-14.298,100.557,62.344,50.0,0.0
46139,-0.037,-0.699,1.156,-103.954,154.359,81.359,50.0,5.0
46183,-0.557,-1.184,1.107,-38.267,72.786,8.046,51.0,4.0
46224,-0.284,-0.170,1.248,34.176,-67.733,-42.328,51.0,4.0
46277,0.085,0.095,0.787,25.374,-122.779,-22.565,51.0,0.0
46329,0.446,0.312,0.798,-41.008,-88.359,34.534,50.0,0.0
46382,0.536,-0.334,0.473,-56.809,7.611,73.504,53.0,0.0
46433,0.346,-0.839,0.782,32.832,117.069,43.641,53.0,186.0
46485,-0.231,-0.543,0.919,1.863,175.695,6.855,53.0,182.0
46536,-0.748,-0.560,0.810,-10.053,115.267,5.168,54.0,182.0
46581,-0.681,-0.238,1.314,-2.550,-10.206,-45.374,54.0,5.0
46633,-0.246,-0.048,1.001,21.702,-89.397,-21.939,53.0,186.0
46674,0.283,0.077,0.957,22.160,-95.771,9.435,53.0,7.0
46727,0.222,-1.052,0.881,-20.160,0.427,21.763,54.0,186.0
46778,-0.121,-0.888,0.809,41.519,17.962,-23.206,52.0,189.0
46820,0.090,-0.003,0.718,100.504,-15.221,-34.336,51.0,6.0
46861,0.224,0.516,0.741,104.046,-11.160,-2.550,51.0,7.0
46903,0.167,0.524,1.086,24.237,48.038,15.595,52.0,5.0
46944,-0.195,-0.325,1.281,-52.817,66.588,18.916,53.0,6.0
46988,-0.488,-0.563,1.360,1.931,8.092,-8.664,54.0,4.0
47030,-0.259,-0.131,1.086,38.725,-47.649,1.740,53.0,7.0
47071,0.060,0.166,0.927,58.214,-94.763,-5.107,55.0,6.0
47124,0.339,0.399,0.643,43.710,-72.550,-5.718,58.0,0.0
47177,0.178,0.092,0.643,-1.733,14.031,15.977,82.0,191.0
47232,-0.271,-0.400,1.456,-77.626,97.939,-32.397,82.0,191.0
47282,-0.607,-0.155,1.288,-30.023,22.221,-23.481,52.0,159.0
47324,-0.275,0.141,1.316,23.160,-169.214,1.489,50.0,9.0
47378,0.461,0.232,0.615,25.771,-237.427,18.359,79.0,0.0
47435,1.233,0.310,0.351,-9.038,-28.664,100.809,80.0,0.0
47490,0.235,-0.672,1.050,-82.496,160.489,37.855,80.0,195.0
47542,-0.397,-0.522,1.168,-7.046,36.687,25.611,58.0,192.0
47594,0.183,0.275,0.892,35.466,-123.053,8.366,51.0,194.0
47648,1.320,0.814,0.911,-10.718,20.641,74.969,83.0,191.0
47700,-0.097,-0.340,0.843,-134.618,195.817,110.275,52.0,187.0
47752,-0.722,-0.658,1.115,-65.954,79.618,5.008,52.0,184.0
47809,-0.129,-0.612,0.717,-60.359,-13.725,-16.748,53.0,183.0
47860,0.105,-0.623,0.726,-56.450,32.878,-10.679,53.0,183.0
47913,-0.274,-0.649,0.642,-31.969,100.435,-18.244,57.0,180.0
47965,-0.504,-0.627,0.718,-20.328,54.557,0.763,55.0,179.0
48015,-0.527,-0.706,0.865,18.282,-30.412,8.977,54.0,180.0
48066,-0.280,-0.762,0.708,48.962,-92.519,10.260,55.0,182.0
48116,-0.052,-0.729,0.535,70.924,-82.313,-0.099,52.0,183.0
48167,0.144,-0.607,0.654,79.000,-32.038,-10.076,53.0,183.0
48208,0.111,-0.516,0.780,55.916,71.603,-15.992,58.0,10.0
48292,-0.677,-0.308,1.083,25.702,82.908,-70.779,52.0,6.0
48335,-0.553,-0.112,1.229,29.901,-32.038,-61.550,52.0,6.0
48376,-0.327,-0.175,1.126,46.198,-123.244,-41.786,52.0,7.0
48428,0.098,-0.161,0.833,59.305,-164.542,-56.634,51.0,194.0
48480,0.813,-0.050,0.388,108.809,-145.023,-24.740,58.0,0.0
48533,0.887,-0.034,0.100,183.893,16.344,6.160,79.0,0.0
48585,0.464,0.583,1.567,115.298,231.931,2.534,57.0,194.0
48626,-0.493,-0.337,0.825,134.023,193.321,1.656,57.0,4.0
48667,-0.792,0.341,1.269,202.817,53.191,-19.725,62.0,4.0
48719,-0.935,0.380,1.504,162.443,-100.855,-93.763,64.0,0.0
48775,-0.322,0.854,0.929,96.023,-250.137,-178.420,65.0,0.0
48827,0.439,1.206,0.181,116.672,-205.504,-226.435,57.0,198.0
48875,0.260,1.120,0.238,107.817,-85.084,-215.214,69.0,127.0
48924,0.100,0.837,0.268,26.099,68.313,-245.565,75.0,122.0
48975,-0.361,0.630,0.409,-30.191,128.611,-250.137,118.0,118.0
49036,-0.583,-0.025,0.592,-46.931,73.313,-250.137,0.0,0.0
49096,-1.459,-0.672,0.369,-10.954,74.824,-250.137,0.0,0.0
49157,-1.416,0.032,0.668,83.443,-145.061,-230.252,0.0,0.0
49213,-0.885,0.078,0.587,76.504,-208.351,-183.252,142.0,0.0
49273,-0.292,0.106,0.639,57.084,-67.198,-145.321,138.0,0.0
49328,-0.279,0.208,0.906,21.092,16.038,-7.260,135.0,163.0
49384,-0.331,-0.051,1.079,-3.573,-35.405,97.611,131.0,0.0
49438,-0.457,-0.208,0.852,19.786,-18.221,45.687,127.0,170.0
49495,-0.215,0.121,1.030,-6.122,-99.115,47.168,123.0,0.0
49549,-0.084,-0.092,1.059,-16.237,-126.229,42.756,119.0,173.0
49603,0.264,-0.069,0.869,5.427,-112.985,34.924,117.0,179.0
49659,0.251,0.100,0.932,9.809,-40.580,34.908,116.0,0.0
49718,0.037,-0.059,0.921,17.611,2.947,41.489,115.0,0.0
49773,-0.122,0.066,1.010,10.695,0.031,21.496,115.0,0.0
49828,-0.073,0.080,0.985,2.099,-16.924,21.870,115.0,0.0
49884,-0.081,0.175,0.954,13.740,-25.313,24.679,114.0,0.0
49940,-0.009,0.158,0.851,-11.053,11.023,46.023,114.0,0.0
49995,0.019,0.212,0.775,-25.901,64.863,109.588,113.0,0.0
50051,-0.476,-0.056,1.384,-42.023,102.046,139.076,112.0,0.0
50106,-0.400,-0.265,0.932,9.031,74.183,114.275,111.0,0.0
50161,-0.449,0.079,0.996,-13.206,50.802,154.893,109.0,0.0
50215,-0.608,0.005,1.186,-33.977,-10.771,201.183,108.0,138.0
50267,-0.439,-0.290,0.842,-15.504,-106.527,250.130,82.0,143.0
50320,-0.076,-0.866,0.653,-11.916,-120.168,250.130,74.0,0.0
50372,0.657,-0.431,0.363,13.099,2.382,250.130,56.0,0.0
50424,0.451,0.161,0.754,-38.603,165.969,250.130,51.0,0.0
50477,-0.030,0.400,1.187,-154.886,163.282,250.130,50.0,0.0
50529,-0.333,0.052,1.100,-200.893,85.855,205.084,61.0,0.0
50582,-0.431,-0.401,1.424,-168.847,18.076,62.779,63.0,0.0
50623,-0.101,-0.506,0.949,-99.435,-63.374,15.069,95.0,0.0
50675,0.051,-0.446,0.784,-76.817,-25.351,11.023,96.0,119.0
50725,-0.119,-0.515,0.857,-76.878,-27.641,37.740,95.0,118.0
50776,-0.128,-0.641,0.913,-57.366,-41.107,24.763,90.0,120.0
50826,-0.006,-0.684,0.862,-32.183,-51.557,0.962,89.0,122.0
50875,0.083,-0.612,0.802,3.947,-8.863,-0.382,89.0,121.0
50968,-0.157,-0.589,0.818,-0.824,-19.183,-3.802,89.0,120.0
51017,0.025,-0.696,0.774,12.763,-5.450,-5.611,90.0,117.0
51067,0.026,-0.701,0.868,38.618,15.366,-17.725,91.0,118.0
51121,0.017,-0.620,0.856,69.443,24.588,-39.397,96.0,117.0
51174,0.152,-0.392,0.775,68.725,56.321,-50.534,98.0,176.0
51225,-0.050,-0.314,0.809,47.634,86.557,-59.313,63.0,173.0
51276,-0.208,-0.308,0.743,50.542,68.527,-57.725,64.0,171.0
51328,-0.384,-0.227,0.806,53.611,83.122,-72.489,57.0,167.0
51380,-0.623,-0.193,0.987,25.695,70.893,-78.000,59.0,0.0
51422,-0.824,-0.222,0.789,11.168,21.198,-24.702,64.0,17.0
51473,-0.940,-0.089,0.713,-18.069,-2.641,39.481,64.0,172.0
51524,-0.966,-0.232,0.733,-38.229,-48.611,72.878,59.0,166.0
51578,-0.498,-0.263,0.799,-54.794,-63.229,75.267,62.0,169.0
51630,-0.281,-0.487,0.703,-47.336,-55.344,97.489,60.0,173.0
51681,-0.229,-0.520,0.614,-43.817,-18.038,95.954,61.0,178.0
51734,-0.308,-0.527,0.579,-51.176,14.878,85.420,90.0,180.0
51788,-0.480,-0.634,0.680,-64.145,-10.702,47.290,91.0,185.0
51842,-0.338,-0.820,1.017,-63.656,-60.656,1.580,82.0,188.0
51895,0.013,-0.994,1.075,0.160,-115.618,-53.031,83.0,191.0
51948,0.194,-1.126,0.681,58.214,-79.443,-85.817,76.0,191.0
52002,0.236,-0.928,0.519,120.832,-19.840,-81.656,79.0,137.0
52056,0.119,-0.673,0.607,150.382,27.420,-75.061,79.0,190.0
52109,-0.035,-0.281,0.686,213.718,48.252,-72.771,78.0,194.0
52161,-0.422,0.005,0.898,250.130,-14.962,-93.252,60.0,193.0
52214,-0.472,0.397,0.588,250.130,-119.473,-144.397,68.0,0.0
52269,-0.459,0.981,0.662,241.176,-231.725,-196.802,71.0,0.0
52322,-0.300,1.524,0.350,101.947,-250.137,-211.542,74.0,188.0
52373,0.133,1.440,0.388,35.053,-162.695,-169.481,44.0,0.0
52426,0.083,0.895,0.246,10.962,-50.672,-75.679,71.0,183.0
52480,-0.172,0.589,0.328,34.603,68.366,-35.931,38.0,181.0
52530,-0.368,0.791,0.497,35.748,101.534,-25.061,38.0,178.0
52583,-0.441,1.073,0.677,6.092,67.160,-8.313,74.0,182.0
52636,-0.391,0.995,0.660,-31.496,5.687,3.656,73.0,0.0
52684,-0.250,0.753,0.567,-30.679,-23.153,19.557,73.0,110.0
52739,-0.145,0.684,0.556,-14.344,-29.969,39.053,71.0,0.0
52792,-0.069,0.807,0.605,-3.435,-16.359,64.550,70.0,0.0
52845,-0.016,0.815,0.643,-18.733,-3.435,84.198,67.0,0.0
52898,0.030,0.755,0.636,-26.740,9.176,91.985,65.0,0.0
52954,0.055,0.821,0.638,-23.427,18.664,94.702,64.0,189.0
53004,0.083,0.880,0.692,-28.931,18.595,107.382,23.0,191.0
53055,0.167,0.774,0.667,-44.565,20.435,130.870,30.0,196.0
53106,0.281,0.567,0.636,-46.740,35.664,137.008,23.0,0.0
53159,0.417,0.644,0.818,-89.344,81.794,130.298,64.0,0.0
53212,0.602,0.233,0.707,-178.473,80.244,62.191,44.0,0.0
53264,0.344,-0.099,0.690,-166.053,112.031,-93.443,60.0,0.0
53317,0.163,0.014,1.020,-92.702,19.489,-88.298,60.0,0.0
53373,0.213,-0.008,1.503,-4.634,-37.595,-47.076,60.0,0.0
53426,0.309,0.052,0.762,-0.328,-50.710,-28.412,45.0,0.0
53478,0.418,0.068,0.804,-21.771,12.893,-9.771,46.0,0.0
53530,0.184,-0.050,1.036,-27.718,68.183,7.924,43.0,0.0
53625,0.067,-0.039,0.991,-10.893,11.718,-10.229,58.0,0.0
53679,0.062,-0.082,0.951,-12.817,18.748,-23.573,57.0,0.0
53732,0.145,-0.170,0.979,-0.679,-1.359,-19.176,58.0,0.0
53784,0.400,-0.148,0.988,19.985,19.763,-43.573,44.0,0.0
53836,0.522,-0.162,1.113,65.099,6.084,-53.359,47.0,0.0
53891,0.469,0.160,1.040,102.435,-50.901,-73.649,61.0,177.0
53943,0.446,0.354,0.954,122.084,-31.443,-81.115,65.0,172.0
53993,0.427,0.532,0.635,124.183,36.275,-101.443,21.0,194.0
54044,0.133,0.669,0.604,88.809,167.366,-78.802,37.0,190.0
54094,-0.465,0.469,0.665,60.290,163.389,-70.863,82.0,117.0
54144,-0.797,0.331,0.811,46.160,39.420,-97.252,72.0,112.0
54193,-0.677,0.358,0.780,-2.511,-75.832,-155.427,92.0,109.0
54244,-0.375,0.087,0.596,-36.847,-75.511,-150.511,121.0,108.0
54299,-0.273,0.024,0.805,-24.244,-27.130,-107.939,123.0,172.0
54360,-0.261,0.025,0.918,-1.099,20.031,-58.000,126.0,0.0
54404,-0.365,0.195,0.841,40.351,45.649,-32.374,129.0,0.0
54460,-0.541,0.370,0.874,45.099,83.237,-23.122,131.0,0.0
54504,-0.821,0.377,0.889,31.565,37.641,-38.176,134.0,0.0
54566,-0.736,0.482,0.771,23.336,-28.580,-56.588,137.0,0.0
54609,-0.502,0.146,0.620,26.771,-15.908,-47.069,139.0,0.0
54666,-0.611,0.276,0.695,40.069,43.756,-6.710,140.0,0.0
54709,-0.685,0.341,0.598,64.939,117.634,55.443,142.0,0.0
54766,-0.963,0.502,0.630,68.374,168.321,86.481,143.0,0.0
54814,-1.036,0.633,0.421,62.992,114.977,110.328,195.0,0.0
54875,-0.961,0.782,0.271,46.435,94.023,109.237,191.0,0.0
54915,-0.772,0.667,0.038,11.084,-2.298,111.939,100.0,0.0
54964,-0.402,0.643,-0.078,-14.954,14.130,80.641,97.0,98.0
55012,-0.450,0.746,-0.033,-19.626,79.015,79.191,95.0,99.0
55063,-0.428,0.994,0.184,-19.779,46.641,95.931,92.0,169.0
55116,-0.284,0.934,0.124,-29.924,17.275,109.649,89.0,175.0
55164,-0.250,0.852,0.228,-38.160,30.740,93.099,86.0,106.0
55221,-0.253,0.694,0.255,-45.168,34.237,91.649,84.0,0.0
55274,-0.239,0.722,0.293,-70.084,66.847,114.115,82.0,0.0
55327,-0.312,0.758,0.659,-98.092,-2.275,112.840,80.0,0.0
55380,-0.146,0.661,0.645,-87.672,-75.855,91.366,78.0,0.0
55434,0.120,0.729,0.554,-70.687,-98.458,62.252,75.0,0.0
55485,0.325,0.801,0.541,-75.886,-85.443,56.450,29.0,0.0
55536,0.323,0.642,0.484,-78.794,-87.595,54.031,57.0,0.0
55586,0.469,0.624,0.535,-77.954,-48.504,44.313,25.0,0.0
55638,0.631,0.690,0.730,-66.115,-17.160,39.237,29.0,0.0
55690,0.749,0.613,0.844,-70.527,31.672,51.344,17.0,0.0
55740,0.604,0.401,0.840,-50.191,45.969,30.786,17.0,0.0
55792,0.401,0.382,0.855,-18.756,32.069,-5.916,71.0,0.0
55842,0.428,0.482,0.809,-3.244,18.115,-39.252,16.0,0.0
55896,0.411,0.534,0.719,-7.740,38.137,-54.473,71.0,0.0
55946,0.287,0.536,0.795,-28.252,68.924,-61.153,30.0,0.0
55998,0.098,0.411,0.912,-48.542,79.702,-73.351,58.0,0.0
56051,-0.057,0.305,0.954,-55.420,86.618,-64.412,72.0,0.0
56102,-0.218,0.268,0.935,-6.382,50.191,-22.802,39.0,0.0
56159,-0.269,0.366,1.037,29.916,12.901,9.214,74.0,0.0
56253,0.043,0.573,0.925,16.023,-42.626,-10.168,46.0,0.0
56306,0.339,0.615,0.731,2.489,-1.947,-21.046,71.0,0.0
56358,0.113,0.390,0.980,-32.550,75.053,-28.924,62.0,0.0
56412,0.033,0.348,0.865,-18.794,41.023,-57.023,72.0,0.0
56463,-0.125,0.276,1.069,2.496,-1.840,-108.168,53.0,190.0
56514,-0.094,0.279,0.744,22.092,-9.557,-144.420,57.0,189.0
56563,-0.281,0.426,0.858,19.687,0.908,-148.794,79.0,117.0
56611,-0.276,0.393,0.876,19.427,45.153,-123.893,81.0,115.0
56664,-0.564,0.237,0.803,28.779,39.450,-75.817,83.0,113.0
56712,-0.571,0.189,0.776,26.672,30.718,-64.260,85.0,111.0
56761,-0.611,0.240,0.694,21.840,18.107,-53.137,87.0,111.0
56810,-0.544,0.081,0.617,11.351,-32.771,-19.908,88.0,111.0
56859,-0.459,0.308,0.776,-6.359,-4.183,-49.656,88.0,110.0
56907,-0.500,0.417,0.722,-13.664,5.664,-25.672,88.0,110.0
56956,-0.641,0.336,0.999,-23.771,-8.527,-12.916,88.0,110.0
57006,-0.553,0.127,0.823,-16.878,-42.954,-13.481,88.0,112.0
57055,-0.396,0.267,0.900,-5.420,-59.038,-17.237,88.0,112.0
57108,-0.300,0.158,0.906,5.557,-51.031,-17.466,117.0,113.0
57159,-0.089,0.264,0.756,9.855,-19.115,-5.695,116.0,114.0
57209,-0.287,0.300,0.878,-0.221,30.466,-6.786,116.0,113.0
57261,-0.505,0.211,0.974,-4.076,14.588,-9.649,116.0,113.0
57312,-0.517,0.107,0.927,0.366,-33.603,-5.901,116.0,114.0
57359,-0.409,0.162,0.860,18.672,-20.901,-7.275,51.0,113.0
57406,-0.499,0.259,1.294,8.534,-28.740,24.397,50.0,115.0
57452,-0.483,0.275,0.972,31.626,-79.366,70.221,48.0,116.0
57502,-0.374,0.121,0.943,57.015,-81.160,92.954,45.0,119.0
57549,-0.017,0.302,0.742,71.000,-17.397,84.305,41.0,123.0
57596,0.001,0.373,0.656,60.473,42.191,108.145,38.0,124.0
57647,-0.049,0.500,0.696,11.588,71.214,122.901,38.0,193.0
57694,-0.115,0.544,0.774,-33.733,49.878,133.107,36.0,116.0
57746,-0.149,0.494,0.814,-37.580,16.305,123.267,57.0,0.0
57794,-0.097,0.500,0.863,-38.366,-23.328,96.496,55.0,120.0
57846,0.010,0.397,0.903,-48.573,-48.580,83.282,53.0,0.0
57897,0.218,0.261,0.834,-47.809,-52.557,64.053,50.0,0.0
57954,0.443,0.250,0.729,-41.031,-17.397,56.863,59.0,0.0
58006,0.299,0.276,0.831,-45.718,35.397,54.954,50.0,0.0
58058,0.115,0.209,0.895,-48.481,50.863,43.305,60.0,0.0
58110,-0.014,0.121,1.063,-63.847,38.702,24.519,60.0,0.0
58163,0.143,0.090,1.040,-81.748,45.496,15.916,58.0,195.0
58216,0.040,-0.006,1.248,-49.519,48.618,32.786,57.0,0.0
58268,-0.159,-0.008,1.254,-8.061,43.076,3.458,62.0,194.0
58320,-0.188,0.040,1.008,4.618,9.092,17.779,61.0,193.0
58373,-0.141,-0.045,0.901,11.435,-34.649,2.542,62.0,196.0
58428,0.127,0.010,0.941,16.519,-63.534,-20.038,57.0,195.0
58481,0.262,-0.018,1.005,28.840,-18.580,-34.313,62.0,197.0
58533,0.204,0.050,1.052,43.863,23.595,-47.000,60.0,0.0
58587,0.148,0.011,1.190,40.580,13.328,-75.908,60.0,0.0
58640,0.193,0.044,1.094,66.817,-33.473,-100.756,63.0,0.0
58690,0.305,0.307,1.003,48.191,-51.702,-122.046,29.0,0.0
58741,0.196,0.250,0.935,45.580,-43.527,-149.031,30.0,195.0
58830,-0.187,0.361,0.880,78.924,-76.107,-160.664,21.0,119.0
58880,-0.102,0.684,0.923,23.702,-83.550,-139.458,69.0,116.0
58934,-0.014,0.404,0.796,-51.023,-9.878,-115.183,119.0,112.0
58985,-0.037,0.128,0.837,-41.466,28.748,-93.412,122.0,109.0
59036,-0.234,0.136,0.995,-28.076,64.710,-71.145,124.0,105.0
59086,-0.390,0.006,0.957,-9.427,48.344,-73.260,127.0,101.0
59138,-0.384,0.060,0.942,16.275,31.298,-82.679,129.0,101.0
59195,-0.353,0.131,0.893,20.817,30.863,-73.351,131.0,0.0
59238,-0.350,0.199,0.823,12.695,23.305,-58.824,133.0,0.0
59295,-0.364,0.294,0.684,25.305,69.229,-21.244,134.0,0.0
59368,-0.833,0.263,0.971,13.893,81.069,2.733,0.0,0.0
59428,-0.536,0.364,0.867,16.267,-32.573,-21.794,137.0,0.0
59488,-0.335,0.314,0.677,9.420,-19.748,-19.382,135.0,0.0
59547,-0.311,0.260,0.573,19.244,75.443,29.015,135.0,0.0
59593,-0.581,0.219,0.767,22.863,85.679,50.794,136.0,0.0
59653,-0.589,0.483,0.791,26.328,68.084,47.389,136.0,0.0
59699,-0.685,0.745,0.782,-1.710,52.435,32.695,137.0,0.0
59758,-0.752,0.546,0.723,-7.603,31.824,10.863,138.0,0.0
59804,-0.646,0.309,0.561,11.053,7.321,2.069,138.0,0.0
59864,-0.621,0.311,0.552,17.550,3.840,5.115,139.0,0.0
59908,-0.652,0.421,0.587,11.802,-2.939,0.084,140.0,0.0
59967,-0.615,0.493,0.589,5.893,-1.687,-6.771,141.0,0.0
60017,-0.591,0.469,0.564,7.985,22.260,-10.511,0.0,0.0
60084,-0.622,0.361,0.569,18.008,34.382,-7.130,0.0,0.0
60133,-0.663,0.406,0.605,23.702,22.679,-22.382,0.0,0.0
60199,-0.630,0.438,0.515,23.321,10.115,-30.855,0.0,0.0
60250,-0.586,0.429,0.366,23.313,47.260,-38.618,0.0,0.0
60316,-0.739,0.395,0.383,24.443,79.130,-38.122,0.0,0.0
60366,-0.980,0.339,0.395,27.008,77.664,-55.664,0.0,0.0
60420,-1.024,0.332,0.268,29.626,34.519,-57.710,162.0,7.0
60469,-0.992,0.331,0.187,18.298,6.084,-46.656,162.0,4.0
60519,-0.967,0.287,0.155,3.511,-5.023,-51.992,162.0,8.0
60580,-0.939,0.226,0.216,0.168,-23.511,-38.473,162.0,0.0
60627,-0.952,0.187,0.279,-5.511,-33.176,-20.779,163.0,0.0
60689,-0.879,0.208,0.312,-7.565,-16.466,-14.351,162.0,0.0
60737,-0.903,0.147,0.333,1.229,-1.160,-1.763,162.0,0.0
60797,-0.888,0.153,0.317,1.191,7.130,-2.908,162.0,0.0
60846,-0.885,0.127,0.305,1.695,2.916,-12.168,162.0,0.0
60910,-0.904,0.103,0.304,3.397,-6.176,-23.588,163.0,0.0
60957,-0.945,0.125,0.260,-0.649,-7.160,-29.008,163.0,0.0
61007,-1.030,0.075,0.319,-8.748,2.321,8.099,163.0,4.0
61058,-1.150,0.030,0.281,-6.290,21.267,79.191,163.0,4.0
61108,-1.058,0.243,0.129,-5.771,33.267,122.588,162.0,5.0
61174,-1.151,0.531,0.005,-36.550,56.832,137.649,160.0,0.0
61223,-1.112,0.413,0.197,-86.382,25.962,116.748,199.0,0.0
61286,-0.897,0.458,0.061,-121.656,26.191,135.817,196.0,0.0
61334,-0.877,0.349,0.253,-129.427,22.687,120.756,192.0,0.0
61393,-0.735,0.397,0.314,-104.954,-25.656,108.649,94.0,0.0
61435,-0.528,0.514,0.426,-72.748,-60.496,77.595,90.0,0.0
61492,-0.376,0.627,0.432,-64.122,-48.229,51.130,87.0,0.0
