Timestamp(ms),AccelX(g),AccelY(g),AccelZ(g),GyroX(deg/s),GyroY(deg/s),GyroZ(deg/s),DistanceLeft(cm),DistanceRight(cm)
50956,-0.021,-0.944,0.322,-0.244,-2.656,-0.076,0,28
51009,-0.029,-0.942,0.326,-0.244,1.542,1.198,0,28
51062,-0.05,-0.951,0.336,0.962,-2.794,1.069,0,28
51116,-0.015,-0.928,0.315,0.725,-0.649,0.153,0,29
51169,-0.043,-0.94,0.329,0.702,3.206,0.969,0,28
51222,-0.037,-0.948,0.327,0.145,-1.328,0.084,0,29
51275,-0.014,-0.968,0.307,-4.214,3.573,-0.595,0,28
51330,0.041,-0.903,0.282,-9.359,26.359,1.656,0,30
51385,0.003,-0.871,0.338,-16.534,41.092,6.176,0,28
51439,-0.09,-0.926,0.397,-20.924,30.359,4.802,0,30
51492,-0.11,-0.913,0.347,-21.672,11.275,1.107,0,28
51546,-0.107,-0.883,0.309,-21.603,-2.244,-2.557,0,30
51599,-0.124,-0.797,0.255,-18.947,-6.817,6,0,28
51652,-0.17,-1.092,0.218,-14.55,-14.122,6.221,0,24
51705,-0.17,-1.175,0.142,-10.244,-0.45,-11.237,0,24
51760,-0.152,-0.966,0.169,-9.481,15.817,-4.344,0,30
51813,-0.196,-0.918,0.255,-17.504,9.985,0.13,0,24
51868,-0.214,-0.968,0.218,-4.71,-17.122,-3.267,0,24
51921,-0.107,-0.94,0.112,8.183,-18.038,-12.489,0,24
51976,-0.085,-0.979,0.102,12.336,10.649,-9.374,0,30
52030,-0.112,-1.039,0.16,18.519,19.84,-8.26,0,48
52083,-0.081,-1.146,0.142,19.122,21.168,-14.45,0,27
52139,-0.082,-0.948,0.196,15.076,24.924,-2.473,0,50
52192,-0.042,-1.153,0.152,24.947,14.847,2.74,0,29
52246,0.081,-0.991,0.107,33.962,29.458,-15.679,0,30
52300,0.115,-0.781,0.197,27.748,47.198,2.74,0,46
52357,0.011,-0.861,0.347,24.092,51.145,24.954,0,37
52411,-0.128,-0.852,0.49,19.359,30.618,27.298,0,40
52465,-0.126,-0.886,0.438,26.992,-3.435,18.786,0,43
52519,-0.091,-0.926,0.302,35.122,0.725,28.351,0,39
52575,-0.13,-0.877,0.31,25.267,27.626,36.618,0,44
52629,-0.173,-0.821,0.36,14.466,34.053,39.015,0,50
52684,-0.211,-0.713,0.408,5.321,16.534,36.16,0,53
52739,-0.228,-0.73,0.415,3.756,-9.489,35.695,0,40
52793,-0.222,-0.704,0.39,2.237,-0.29,32.137,0,50
52850,-0.249,-0.685,0.4,-1.26,11.351,25.931,0,45
52905,-0.299,-0.736,0.439,-7.771,9.58,16.939,0,45
52959,-0.319,-0.709,0.427,-10.679,-4.351,8,0,38
53013,-0.346,-0.729,0.41,-19.176,-13.122,6.405,0,37
53067,-0.402,-0.713,0.377,-23.305,-30.351,25.511,0,36
53123,-0.436,-0.99,0.286,-12.901,-39.076,48.71,0,43
53176,-0.616,-1.42,0.268,-13.985,16.221,26.214,0,32
53230,-0.712,-1.055,0.377,12.237,28.26,42.26,0,36
53284,-0.658,-0.939,0.363,5.565,20.672,55,0,38
53346,-0.709,-0.772,0.466,-6.626,5.405,46.137,0,115
53399,-0.737,-0.669,0.463,7.832,-33.977,57.489,0,20
53452,-0.791,-0.677,0.497,36.58,-32.55,83.176,0,20
53506,-0.855,-0.652,0.557,87.817,-23.786,116.435,0,22
53558,-0.82,-0.563,0.551,122.298,-4.947,156.046,172,26
53603,-0.91,-0.44,0.585,135.939,-9.878,182.672,57,30
53691,-0.961,-0.244,0.63,144.489,-60.221,178.672,39,41
53737,-0.82,-0.074,0.584,142.008,-86.42,150.733,41,43
53785,-0.793,0.089,0.613,126.084,-99.557,115.847,37,38
53829,-0.752,0.308,0.674,117.298,-117.893,92.748,33,31
53873,-0.693,0.364,0.631,116.679,-150.893,80.656,31,27
53917,-0.359,0.549,0.397,114.328,-162.382,55.26,32,30
53961,-0.026,0.874,0.321,86.382,-135.71,-4.763,30,22
54004,0.063,0.873,0.391,59.779,-70.076,-41.115,30,21
54047,-0.637,0.438,0.547,61.359,9.748,-0.244,29,21
54091,-0.724,0.608,0.691,79.214,23.321,22.229,30,21
54134,-0.374,0.844,0.725,68.466,-39.229,28.13,30,22
54181,0.155,1.132,0.491,25.42,-116.588,-26.916,30,24
54225,0.2,1.016,0.395,-15.863,-71.687,-43.481,30,23
54268,-0.307,0.495,0.495,-22.221,15.13,-2.206,31,23
54312,-0.36,0.625,0.61,1.71,42.611,12.275,33,24
54356,-0.331,0.7,0.61,17.924,-25.588,9.542,32,24
54401,0.022,0.833,0.383,14.855,-66.924,-7.756,37,24
54445,0.131,0.787,0.3,-2.771,-24.023,-7.855,33,24
54489,-0.012,0.64,0.321,-19.26,41.511,-5.153,36,25
54533,-0.178,0.726,0.366,-47.443,74.824,-4.588,33,25
54580,-0.3,0.724,0.565,-85.588,58.458,-3,34,27
54624,-0.279,0.536,0.468,-94.939,28.893,-5.824,33,25
54668,-0.235,0.491,0.42,-115.527,22.847,-11.947,34,28
54712,-0.218,0.304,0.386,-140.069,14.489,-12.565,34,27
54757,-0.211,0.195,0.441,-165.542,25.84,-20.427,34,27
54801,-0.278,0.056,0.491,-188.244,31.328,-35,36,30
54846,-0.384,-0.062,0.875,-208.206,21.901,-51.656,44,29
54891,-0.417,-0.201,0.915,-201.969,4.405,-61.71,37,29
54938,-0.338,-0.28,1.131,-200.794,42.427,-64.817,44,30
54992,-0.395,-0.479,0.947,-176.817,68.924,-74.626,0,30
55047,-0.405,-0.512,0.95,-167.763,67.183,-80.046,0,29
55101,-0.248,-0.499,0.624,-156.824,61.382,-98.13,0,30
55154,-0.533,-0.649,0.548,-154.534,55.038,-65.611,0,23
55208,-0.847,-1.216,0.61,-141.58,20.206,-53.863,0,19
55262,-0.85,-1.634,0.591,-103.221,-34.763,-94.206,0,19
55305,-0.426,-1.394,0.241,-36.786,-0.725,-82.74,16,18
55359,-0.14,-1.136,0.111,-14.679,112.084,-54.634,0,30
55416,-0.362,-1.099,0.132,-28.733,240.611,-45.321,0,32
55471,-0.583,-0.898,0.384,-20.573,217.794,-27.588,0,38
55526,-0.607,-0.942,0.382,-2.969,99,-21.634,0,51
55582,-0.42,-0.872,0.296,6.359,5.458,-38.443,0,59
55636,-0.271,-0.846,0.138,10.305,-31.206,-33.267,0,45
55692,-0.209,-0.9,0.079,7.481,-17.748,-24.45,0,46
55746,-0.257,-0.948,0.12,4.802,7.824,-22.122,0,41
55802,-0.256,-0.937,0.101,12.695,7.954,-19.046,0,57
55858,-0.229,-0.899,0.09,17.008,15.595,-5.908,0,53
55915,-0.242,-0.811,0.192,20.473,14.221,14.466,0,42
55970,-0.24,-0.798,0.217,23.656,12.779,23.244,0,40
56025,-0.349,-0.777,0.403,19.718,13.87,20.885,0,38
56080,-0.515,-1.127,0.392,32.122,-28.511,33.076,0,53
56178,-0.73,-1.258,0.227,10.847,-41.634,76.595,0,43
56232,-0.996,-0.879,0.202,-0.786,-85.42,142.916,0,36
56287,-1.065,-0.864,-0.015,-21.977,-115.214,191.366,0,30
56342,-1.154,-0.828,0.007,-51.313,-123.13,214.931,0,36
56397,-1.241,-0.906,0.064,-73.26,-154.824,250.13,0,48
56453,-1.283,-1.009,0.052,-57.84,-178.275,250.13,0,85
56514,-0.914,-0.773,0.099,-22.779,-192.183,250.13,0,154
56568,-0.747,-0.548,0.275,-11.519,-140.939,250.13,30,0
56622,-0.669,-0.409,0.34,-8.397,-115.313,241.603,26,0
56676,-0.63,-0.225,0.421,1.023,-81.382,202.198,21,0
56729,-0.467,-0.022,0.533,4.695,-73.855,203.023,18,0
56782,-0.392,0.171,0.524,18.221,-33.359,183.595,15,0
56836,-0.425,0.578,0.838,22.023,37.817,134.74,12,0
56892,-0.529,0.743,1.128,12.183,54.901,135.992,10,0
56949,-0.423,0.658,1.048,-5.565,11.687,126.74,8,0
57001,-0.212,0.458,0.846,-1.466,12.031,125.153,7,0
57058,-0.138,0.545,0.836,2.863,15.183,119.672,6,0
57111,-0.043,0.47,0.846,-2.313,1.74,115.328,6,0
57163,0.091,0.326,0.808,-2.008,-8.275,92.84,6,0
57217,0.143,0.161,0.989,-2.466,-13.511,60.931,6,0
57273,0.339,0.068,1.058,10.58,-32.87,15.603,6,0
57325,0.431,0.289,0.93,13.656,-6.786,-27.443,6,0
57381,0.26,0.317,0.906,7.099,24.298,-60.603,6,0
57435,0.066,0.412,0.897,11.611,23.855,-84.015,6,0
57487,-0.144,0.483,0.973,13.908,11.71,-77.008,9,0
57554,-0.261,0.423,0.949,29.809,-9.595,-64.855,9,0
57607,-0.286,0.543,0.945,33.855,-41.748,-61.214,9,0
57659,-0.16,0.517,0.808,28.198,-75.58,-79.321,9,0
57711,-0.014,0.615,0.631,25.389,-22.099,-91.802,9,0
57767,-0.351,0.569,0.85,0.412,-4.321,-84.275,11,0
57820,-0.388,0.355,0.804,-7.076,-79.733,-105.656,11,0
57875,-0.156,0.459,0.648,1.29,-61.092,-128.038,13,0
57931,-0.177,0.46,0.664,-6.282,-4.405,-124.45,14,0
57984,-0.317,0.457,0.696,-11.45,1.664,-130.832,16,0
58040,-0.392,0.355,0.658,-10.489,1.275,-144.931,17,0
58093,-0.469,0.432,0.74,-10.107,17.977,-160.809,20,0
58149,-0.629,0.319,0.818,-1.206,27.137,-154.573,21,0
58203,-0.761,0.23,0.625,26.519,30.313,-153.55,25,0
58257,-0.84,0.256,0.624,23.534,25.992,-135.84,30,0
58310,-0.825,0.264,0.623,20.771,0.74,-130.824,28,0
58359,-0.75,0.203,0.567,26.397,4.733,-109.542,29,71
58404,-0.776,0.114,0.606,24.443,36.527,-97.443,31,64
58449,-0.84,0.044,0.638,21.198,30.191,-105.26,30,56
58496,-0.734,0.058,0.648,8.42,12.481,-117.29,41,50
58541,-0.661,0.049,0.701,-17.382,10.397,-126.229,36,50
58587,-0.803,-0.198,0.59,-48.267,24.748,-137.237,39,53
58632,-0.997,-0.526,0.588,-59.542,63.885,-138.092,40,44
58677,-1.01,-0.637,0.623,-34.885,85.687,-130.374,44,34
58730,-0.881,-0.522,0.783,-26.351,78.206,-119.489,0,30
58786,-0.826,-0.7,0.687,-18.145,31.863,-116.886,0,26
58883,-0.456,-0.729,0.455,-22.847,29.137,-132.473,0,22
58936,-0.433,-0.803,0.479,-37.511,52.046,-109.756,0,21
58989,-0.436,-0.817,0.508,-37.053,55.237,-83.115,0,19
59042,-0.438,-0.842,0.48,-36.389,41.061,-58.412,0,20
59096,-0.379,-0.79,0.427,-35.435,16.122,-39.939,0,19
59149,-0.313,-0.702,0.372,-37.794,-2.809,-30.786,0,31
59203,-0.282,-0.718,0.322,-41.122,-12.893,-28.023,0,33
59259,-0.241,-0.61,0.292,-26.389,-31.298,-15.588,0,30
59314,-0.169,-0.676,0.204,-7.069,-29.031,11.832,0,30
59367,-0.267,-1.032,0.127,5.382,-32.374,33.985,0,28
59420,-0.27,-1.776,-0.032,3.244,1.374,8.58,0,22
59473,-0.243,-1.393,0.011,24.214,52.641,-5.084,0,24
59527,-0.27,-0.999,0.183,-1.145,69.687,28.557,0,27
59581,-0.434,-1.089,0.33,-22.061,51.29,5.847,0,42
59635,-0.412,-0.886,0.384,-8.321,-33.847,-18.603,0,25
59688,-0.253,-0.789,0.196,4.924,-58.748,-17.107,0,29
59745,-0.169,-0.786,0.119,9.595,-33.893,-10.763,0,30
59799,-0.19,-0.897,0.1,15.603,-4.885,-10.321,0,26
59852,-0.183,-0.865,0.097,24.519,12.901,-12.962,0,28
59907,-0.152,-0.725,0.126,23.137,33.939,-5.534,0,30
59961,-0.202,-0.792,0.139,17.427,40.603,-4.26,0,42
60014,-0.237,-0.855,0.169,12.046,35.206,-16.733,0,30
60068,-0.237,-0.951,0.137,12.366,25.55,-29.725,0,38
60123,-0.184,-1.071,0.187,13.847,25.557,-31.42,0,33
60177,-0.137,-1.262,0.141,7.405,49.603,-26.924,0,39
60232,-0.229,-1.178,0.305,-14.55,65.916,-14.878,179,36
60285,-0.371,-1.119,0.498,-14.519,14.809,-16.45,177,39
60339,-0.231,-0.926,0.367,0.405,-44.695,-0.458,175,33
60394,-0.103,-0.981,0.244,8.779,-39.115,8.466,0,49
60446,-0.07,-0.921,0.201,5.176,7.634,10.275,172,37
60498,-0.147,-0.862,0.279,6.061,15.153,26.328,169,40
60553,-0.155,-0.845,0.308,3.305,2.763,31.13,0,42
60607,-0.171,-0.848,0.326,2.168,-17.008,24.664,172,53
60662,-0.141,-0.859,0.231,-1.588,-21.313,17.198,0,52
60719,-0.13,-0.801,0.253,-3.534,-13.916,8.153,0,38
60774,-0.154,-0.773,0.268,-7.183,-11.298,4.023,0,42
60828,-0.17,-0.79,0.255,-7.344,-14.565,-1.489,0,36
60882,-0.156,-0.764,0.226,-6.382,-9.802,-3.267,0,43
60937,-0.195,-0.709,0.261,-9.679,-5.16,0.344,0,35
60991,-0.225,-0.599,0.283,-12.267,-14.115,5.496,0,32
61045,-0.397,-0.856,0.273,-17.282,-30.458,17.45,0,39
61099,-0.557,-1.536,0.22,-13.198,-17.809,30.687,0,27
61154,-0.526,-1.247,0.212,24.779,6.145,58.427,0,36
61210,-0.714,-1.325,0.331,14.649,3.443,92.092,0,35
61263,-0.636,-1.167,0.296,31.84,-28.351,111.893,0,17
61317,-0.666,-0.989,0.326,63.168,-29.74,145.702,0,18
61371,-0.687,-0.88,0.294,77.931,-5.618,190.168,0,21
61424,-0.833,-0.827,0.405,102.076,-25.534,228.252,0,26
61470,-0.576,-0.589,0.311,122.565,-24.504,218.489,44,36
61515,-0.447,-0.319,0.315,124.779,-11.206,187.008,38,37
61603,-0.422,0.185,0.425,84.275,-1.947,78.198,34,37
61648,-0.882,0.208,0.48,62.779,11.092,58.282,38,37
61697,-1.058,0.271,0.433,70.817,4.229,82.435,35,51
61742,-0.679,0.547,0.453,58.313,-20.763,77.534,32,46
61787,-0.428,0.666,0.389,36.557,-46.519,46.939,31,46
61832,-0.347,0.702,0.179,6.031,-23.107,-20.046,33,44
61877,-1.257,0.373,0.177,-37.336,80.695,-5.038,39,36
61922,-1.598,0.427,0.495,-21.435,72.374,47.031,34,44
61968,-1.077,0.557,0.672,-9.504,-2.282,81.588,33,58
62014,-0.577,0.573,0.455,-4.389,-51.328,50.481,30,51
62059,-0.229,0.712,0.33,-31.023,-34.679,7.069,37,50
62108,-0.476,0.621,0.437,-64.947,13.389,-15.817,33,54
62154,-1.034,0.22,0.341,-57.061,47.794,46.588,32,57
62200,-0.782,0.555,0.444,-46.069,44.992,81.672,33,74
62247,-0.525,0.568,0.395,-55.924,9.58,85.565,32,65
62294,-0.33,0.538,0.391,-74.16,-10.748,63.573,31,62
62339,-0.368,0.456,0.347,-79.481,-2.985,34.008,30,57
62385,-0.691,0.445,0.329,-76.389,29.924,51.901,31,53
62430,-0.914,0.483,0.264,-72.42,67.038,73.763,30,50
62478,-1.097,0.578,0.411,-81.924,93.58,54.298,31,47
62524,-1.335,0.72,0.561,-85.557,79.473,34.985,32,61
62570,-1.263,0.82,0.666,-87.191,48.939,42.229,30,47
62616,-1.074,0.813,0.664,-106.733,27.84,56.679,28,60
62661,-0.954,0.559,0.715,-111.366,-14.611,60.443,26,62
62706,-0.757,0.461,0.719,-92.214,-56.977,57.985,27,45
62751,-0.573,0.394,0.601,-68.939,-64.336,63.473,24,45
62796,-0.481,0.467,0.602,-64.725,-39.061,66.122,23,49
62841,-0.586,0.417,0.716,-58.71,-28.092,67.115,21,44
62888,-0.638,0.423,0.79,-39.038,-40.015,71.802,20,44
62934,-0.604,0.478,0.84,-25.29,-50.198,71.214,21,48
62979,-0.503,0.586,0.785,-19.969,-41.282,73.763,21,48
63024,-0.542,0.469,0.907,-28.084,-32.153,83.901,19,56
63074,-0.43,0.31,0.976,-12.55,-63.649,83.924,104,58
63124,-0.054,0.368,0.937,4.779,-85.076,79.481,93,56
63169,0.15,0.178,0.947,-5.221,-74.489,53.244,17,60
63218,0.31,0.051,0.984,5.977,-80.893,17.267,90,57
63267,0.4,0.178,0.913,18.603,-82.626,-5.824,89,56
63321,0.405,0.345,0.895,19.191,-69.847,-47.725,102,66
63371,0.365,0.517,0.917,6.351,-46.031,-85.183,101,61
63423,0.271,0.456,0.954,-0.908,-30.519,-113.282,138,48
63476,0.188,0.445,0.9,-0.221,1.015,-122.649,184,45
63531,-0.086,0.366,0.917,10.069,27.374,-103.275,189,42
63586,-0.244,0.532,0.817,25.626,10.878,-75.679,0,39
63640,-0.26,0.649,0.608,17.908,11.947,-50.481,0,36
63695,-0.365,0.682,0.583,2.344,24.626,-17.198,0,35
63750,-0.368,0.618,0.634,-7.359,12.45,14.412,0,34
63807,-0.224,0.573,0.592,-19.321,17.458,43.153,0,36
63862,-0.164,0.521,0.698,-33.565,21.634,63.496,0,37
63917,-0.102,0.411,0.792,-43.878,1.084,78.458,0,39
63972,0.032,0.246,0.829,-36.58,-19.183,79.718,0,43
64069,0.204,0.205,0.868,-32.427,-16.351,85.137,182,44
64121,0.24,0.329,0.976,-35.771,-23.511,66.954,145,46
64181,0.276,0.273,0.959,-45.954,-45.931,51.901,169,44
64232,0.324,0.271,0.911,-56.076,-14.092,32.435,150,47
64283,0.19,0.303,1.128,-69.137,6.008,32.748,140,45
64336,0.232,0.115,1.124,-63.321,15.55,16.275,138,45
64388,0.136,0.086,1.125,-58.206,40.229,16.008,145,43
64441,0.022,0.073,1.163,-55.008,31.847,21.863,184,45
64494,0.064,0.002,1.115,-55.527,12.031,18.145,177,46
64545,0.088,-0.017,1.107,-49.779,19.84,13.618,144,47
64596,0.015,-0.073,1.201,-50.443,13.878,9.649,158,43
64649,0.026,-0.169,1.185,-46.328,2.573,0.29,152,43
64701,0.035,-0.125,1.177,-47.031,14.031,8.244,157,54
64755,0.02,-0.182,1.17,-39.687,3.733,5.679,154,46
64807,0.057,-0.199,1.109,-30.794,5.176,0.84,156,47
64861,-0.014,-0.226,1.104,-29.046,10.656,-2.504,178,48
64906,0.014,-0.278,1.051,-26.153,1.122,-11.076,29,49
64960,0.066,-0.252,1.031,-25.321,7.382,-18.244,191,51
65004,0.022,-0.282,1.028,-22.656,11.878,-26.664,25,47
65049,-0.006,-0.303,1.034,-21.74,9.901,-30.603,26,54
65094,0.018,-0.312,0.966,-23.603,4.221,-36.832,23,46
65147,0.074,-0.364,0.867,-27,21.168,-43.374,201,39
65205,0.057,-0.437,0.727,-36.237,52.244,-52.344,0,37
65248,0.019,-0.497,0.583,-56.397,89.733,-49.382,16,36
65294,-0.01,-0.675,0.574,-72.405,103.481,-46.885,60,36
65338,0.044,-0.759,0.417,-87.496,143.015,-63.542,16,35
65383,-0.302,-0.307,0.529,-112.412,190.511,-74.42,60,33
65429,-0.812,-0.857,0.965,-119.427,187.305,-72.145,60,30
65475,-0.422,-1.098,1.108,-44.832,109.313,-44.496,60,30
65520,-0.201,-0.784,0.969,-36.252,57.145,-29.168,60,29
65566,-0.109,-0.855,0.725,-38.794,51.794,-21.137,60,28
65614,-0.186,-0.959,0.354,-20.244,112.206,-17.122,62,27
65660,-0.627,-0.917,0.529,-18.626,118.603,-21.183,63,26
65707,-0.565,-0.823,0.49,-30.374,30.84,-41.626,63,26
65753,-0.529,-1.011,0.44,-31.26,30.374,1.107,64,26
65798,-0.321,-0.57,0.482,-15.916,45.748,4.069,65,27
65845,-0.263,-1.022,0.497,-15.672,17.534,-13.313,65,34
65891,-0.383,-1.166,0.401,5.595,25.267,8.847,66,33
65937,-0.272,-0.498,0.353,1.038,17.053,-7.992,67,33
65986,-0.552,-1.112,0.333,-4.046,-8.046,1.374,67,33
66033,-0.513,-0.633,0.324,20.534,44.29,28.534,69,31
66079,-0.605,-0.868,0.57,12.931,-15.802,12.519,70,33
66126,-0.425,-0.969,0.448,36.74,-12.733,39.725,68,33
66178,-0.393,-0.788,0.486,61.13,3.389,45.244,68,128
66224,-0.304,-0.828,0.219,54.076,6.313,37.16,69,25
66270,-0.405,-0.682,0.247,29.939,23.397,29.29,72,24
66321,-0.379,-0.362,0.214,12.511,13.664,-0.427,71,104
66367,-0.499,-0.796,0.311,-12.603,12.099,-11.153,71,31
66424,-0.519,-0.729,0.472,-15.282,12.634,-24.687,72,152
66487,-0.663,-0.679,0.638,-36.115,-6.351,-25.145,0,175
66582,-0.313,-0.547,0.42,13.366,-0.618,2.71,71,127
66634,-0.545,-1.099,0.255,2.74,-6.061,10.115,70,128
66680,-0.343,-0.695,0.332,8.74,-16.626,0.901,70,29
66727,-0.404,-0.947,0.373,-2.855,13.695,15.779,71,30
66774,-0.493,-0.733,0.508,18.45,0.931,17.954,70,33
66825,-0.425,-0.746,0.431,25.046,2.244,21.298,71,105
66878,-0.568,-0.83,0.5,35.794,33.756,36.809,0,26
66935,-0.625,-0.586,0.573,32.489,-9.542,28.84,0,24
66989,-0.936,-0.686,0.59,43.008,24.481,68.71,0,23
67043,-0.377,-0.427,0.405,50.695,-43.847,48.824,0,24
67096,-0.236,-0.7,0.059,2.374,11.832,12.55,0,24
67141,-0.973,-0.432,0.652,10.809,44.16,26.053,48,25
67186,-0.659,-0.37,0.559,-2.084,-30.511,9.122,49,24
67231,-0.841,-0.563,0.714,9.702,18.481,31.71,47,25
67276,-1.094,-0.637,0.873,45.382,-5.252,55.649,47,27
67320,-0.32,-0.314,0.414,53.183,-43.237,31.046,48,24
67368,-0.217,-0.496,0.154,10.489,13.992,-19.603,46,25
67414,-0.83,-0.596,0.402,-7.855,41.336,-18.153,48,25
67459,-0.993,-0.345,0.667,-12,9.008,-9.573,48,23
67504,-0.968,-0.459,0.747,10.298,-4.275,12.214,46,23
67549,-0.875,-0.382,0.765,33.252,-0.847,33.962,47,24
67594,-0.648,-0.297,0.528,34.366,-13.603,27.687,46,23
67638,-0.796,-0.288,0.468,20.924,15.496,32.901,44,23
67683,-0.922,-0.418,0.674,24.038,-16.969,47.496,45,24
67728,-0.527,-0.202,0.546,26.672,-21.26,33.71,45,25
67776,-0.572,-0.313,0.549,15.687,-3.053,12.008,44,25
67821,-1.005,-0.515,0.647,26.473,35.206,35.489,45,28
67866,-0.682,-0.009,0.668,32.664,-39.641,18.74,44,26
67911,-0.654,-0.339,0.43,20.252,4.649,18.962,41,27
67955,-0.956,-0.224,0.795,31.87,8.695,32.489,40,27
68000,-0.524,-0.014,0.481,16.443,-33.779,-0.221,40,27
68045,-0.901,-0.28,0.595,13.504,37.511,21.794,40,27
68089,-0.738,-0.023,0.682,20.656,-29.359,7.962,39,27
68137,-0.455,-0.096,0.376,-1.756,9.573,-9.176,39,28
68183,-0.893,-0.133,0.661,-13.725,41.527,-13.489,38,27
68228,-0.781,-0.055,0.602,-19.008,-2.771,-30.794,37,28
68272,-1.021,-0.218,0.736,-5.931,28.603,-10.45,36,26
68317,-1.002,0.001,0.868,8.58,-11.496,10.786,37,29
68361,-0.616,-0.193,0.533,22.008,-14.298,13.29,38,27
68406,-0.899,-0.114,0.625,24.901,15.275,28.534,38,27
68451,-0.721,-0.006,0.589,21.267,-26.771,21.779,38,27
68496,-0.646,-0.189,0.476,10.733,5.031,10.702,39,27
68543,-0.825,-0.164,0.578,-5.55,6.641,4.13,38,28
68588,-0.675,-0.03,0.54,-12.153,1.313,-17.16,39,27
68633,-1.072,-0.204,0.781,-13.626,23.733,-5.397,40,27
68678,-0.858,0.037,0.696,-3.542,-18.878,-6.71,39,27
68722,-0.809,-0.123,0.607,6.053,-7.618,10.244,41,27
68767,-0.843,-0.148,0.654,25.733,-2.137,23.809,42,27
68812,-0.807,-0.045,0.663,28.366,-12.565,32.176,43,28
68858,-0.782,-0.125,0.597,38.298,-0.008,35.412,42,30
68946,-0.726,-0.047,0.566,51.954,16.336,48.931,42,31
68995,-0.727,0.208,0.765,53.038,-8.366,27.252,37,30
69040,-0.368,0.38,0.376,2.87,-31.489,-24.573,37,31
69085,-0.618,0.24,0.469,-44.672,-14.969,-81.481,37,29
69130,-0.984,-0.085,0.592,-45.725,3.198,-66.55,40,29
69175,-0.912,-0.024,0.818,-39.733,-17.71,-60.076,46,28
69220,-0.79,0.068,0.83,-51.802,-71.771,-74.649,43,29
69274,-0.706,-0.14,0.737,-76.389,-121.443,-74.534,0,27
69328,-0.396,-0.495,0.336,-33.679,-18.985,-54.55,0,28
69383,-0.738,-0.059,0.84,-74.26,34.061,-43.328,0,27
69440,-0.712,-0.842,0.711,-37.893,-84.237,-46.695,0,26
69487,-0.329,-0.093,0.687,-30.168,7.496,-36.542,76,27
69534,-0.756,-0.521,1.025,-68.901,-46.756,-42.031,76,25
69588,-0.315,-0.707,0.537,-10.695,-55.252,-49.023,0,27
69636,-0.527,-0.366,0.679,-64.748,26.924,-16.679,73,23
69683,-0.744,-0.818,0.91,-64.481,-101.221,-28.153,72,25
69729,-0.04,-0.687,0.446,-15.58,-51.183,-31.924,71,23
69776,-0.367,-0.445,0.69,-67.053,35.29,2.969,72,22
69825,-0.461,-1.014,0.846,-17.069,-97.641,-35.015,71,23
69872,0.029,-0.535,0.34,18.725,26.595,-26.977,71,23
69918,-0.555,-0.582,0.895,-56.74,61.221,14.229,72,21
69965,-0.438,-0.968,0.825,2.756,-113.702,-44.656,71,22
70011,0.128,-0.427,0.308,0.26,15.71,-17.313,70,22
70057,-0.576,-0.914,0.895,-45.435,15.008,3.198,70,21
70111,0.144,-0.904,0.322,16.45,-47.275,-42.718,71,22
70156,-0.224,-0.472,0.546,-30.672,89.137,6.641,71,23
70202,-0.723,-1.104,0.983,-32.626,-74.939,-15.107,71,20
70251,0.434,-0.844,0.156,17.443,-22.656,-33.321,71,22
70296,-0.344,-0.47,0.644,-32.748,119.275,17.878,72,20
70342,-0.697,-1.182,0.977,-20.496,-87.611,-18.542,72,20
70387,0.38,-0.815,0.086,27.687,-33.489,-26.817,64,21
70433,-0.285,-0.445,0.625,-28.588,114.595,22.519,65,20
70478,-0.641,-1.172,0.986,-20.427,-65.832,-9.985,65,19
70523,0.321,-0.807,0.155,29.153,-25.985,-27.458,65,20
70569,-0.262,-0.527,0.573,-25.374,100.802,23.069,65,20
70618,-0.5,-1.146,0.746,-6.198,-65.008,-17.16,65,19
70663,0.167,-0.725,0.229,17.985,-7.809,-8.695,65,20
70709,-0.323,-0.709,0.726,-29.26,47.45,12.733,67,19
70754,-0.286,-1.042,0.65,-0.412,-41.282,-16.382,66,20
70799,0.031,-0.744,0.277,18.794,21.13,-7.481,65,20
70845,-0.395,-0.684,0.656,-23.977,17.687,8.275,72,20
70890,-0.051,-1.067,0.55,5.053,-54.832,-12.809,64,19
70936,0.19,-0.675,0.173,18.58,91.969,-3.565,66,20
70981,-0.737,-0.771,0.886,-26.687,46.824,22.412,72,20
71030,-0.131,-1.003,0.494,13.344,-120.924,-29.87,71,19
71075,0.282,-0.598,0.044,0.641,69.641,-3.145,67,19
71121,-0.731,-0.937,0.938,-37.405,35.313,16.771,65,23
71166,-0.047,-0.935,0.543,12.893,-113.565,-37.725,63,20
71212,0.203,-0.659,0.167,-0.359,56.679,1.656,63,20
71258,-0.51,-0.917,0.807,-30.351,22.847,5.45,63,23
71346,0.152,-0.703,0.201,-11.389,46.053,-9.985,63,20
71392,-0.505,-0.969,0.688,-36.985,5.267,0.26,63,19
71437,0.003,-0.993,0.353,-9.504,-74.847,-25.435,62,20
71485,0.168,-0.73,0.161,-10.275,94.863,0.916,62,21
71530,-0.617,-1.027,0.8,-34.237,23.84,4.496,63,21
71576,0.068,-1.032,0.394,14.786,-83.061,-31.534,62,21
71621,0.172,-0.736,0.158,3.924,87.672,7.275,62,23
71666,-0.584,-0.988,0.752,-17.145,28.748,4.588,62,21
71712,-0.027,-0.923,0.341,11.664,-73.374,-25.107,61,22
71757,0.245,-0.805,0.065,11.901,66.519,-5.748,63,26
71803,-0.482,-0.853,0.707,-21.046,59.916,5.427,68,28
71849,-0.162,-1.045,0.539,7.611,-88.023,-30.084,68,23
71899,0.414,-0.859,0.005,20.328,56.16,-19.786,67,30
71945,-0.435,-0.796,0.711,-18,107.893,25.084,68,30
71991,-0.23,-0.981,0.738,13.779,-92.969,-26.679,67,30
72037,0.556,-0.87,0.038,22.924,-7.473,-34.252,66,29
72084,-0.178,-0.756,0.559,-16.84,132.458,19.061,67,31
72130,-0.479,-1.076,0.869,-1.649,-58.641,-17.84,67,31
72176,0.365,-0.765,0.152,18.656,-79.466,-33.771,66,29
72222,0.207,-0.639,0.194,-10.954,109.198,3.092,67,30
72271,-0.486,-0.868,0.835,-23.504,26.42,6.023,68,31
72318,0.019,-0.905,0.454,12.511,-81.893,0.695,68,29
72365,0.207,-0.599,0.303,-20.557,53.878,22.511,68,28
72411,-0.49,-1.219,0.802,-32.412,-30.366,0.107,69,28
72457,0.178,-0.993,0.141,17.206,-81.435,-15.206,68,29
72503,0.052,-0.812,0.183,-8.26,71.832,30.618,70,29
72550,-0.441,-1.029,0.646,-22.733,-26.679,7.519,70,26
72596,0.161,-0.961,0.172,7.504,-77.954,-10.084,69,25
72642,0.119,-0.812,0.211,-6.214,60.511,24.603,70,25
72691,-0.423,-1.083,0.681,-18.519,-26.389,14.328,71,24
72736,0.18,-0.994,0.246,20.931,-85.832,-12.962,53,18
72781,0.203,-0.739,0.091,4.13,81.366,22.405,54,17
72826,-0.578,-1.083,0.688,-18.328,28.618,24.015,55,21
72871,-0.113,-0.977,0.422,16.573,-117.595,-12.954,72,16
72918,0.458,-0.759,-0.071,23.725,38.565,6.649,60,16
72963,-0.491,-0.964,0.608,-11.107,101.504,47.092,72,16
73009,-0.397,-0.937,0.657,18.244,-96.763,-2.557,68,17
73055,0.291,-0.848,0.022,27.481,-52.321,-1.176,69,16
73103,-0.227,-0.867,0.425,-8.282,73.015,39.061,61,15
73149,-0.384,-1.068,0.69,9.534,-56.473,6.611,75,15
73194,0.165,-0.822,0.182,27.237,-30.336,0.939,58,16
73239,-0.315,-0.855,0.497,-1.771,49.786,37.87,57,16
73285,-0.387,-1.024,0.582,13.298,-68.115,-0.893,75,16
73330,0.223,-0.813,0.091,25.542,-13.901,-3.321,57,17
73376,-0.272,-0.717,0.501,0.695,89.198,28.962,73,16
73422,-0.464,-0.969,0.784,9.427,-57.931,-4.107,74,17
73468,0.247,-0.867,0.13,42.855,-40.588,-11.29,75,18
73518,-0.211,-0.735,0.329,22.786,143.275,30.092,75,18
73564,-0.801,-1.014,0.935,8.71,-5.145,7.817,78,16
73610,-0.03,-0.947,0.373,49.496,-102.511,-21.573,77,16
73700,-0.742,-0.768,0.964,-1.893,40.786,13.908,79,17
73746,-0.154,-0.774,0.476,39.557,-121.023,-29.046,79,16
73801,0.114,-0.468,0.097,29.26,121.008,10.412,77,16
73847,-0.815,-0.714,0.834,-5.74,55.176,10.427,80,16
73893,-0.185,-0.689,0.421,20.435,-92.435,-27.481,79,16
73943,0.06,-0.619,0.142,14.221,86.878,-6.137,78,17
73988,-0.816,-0.865,0.941,-23.824,57.168,6.702,78,14
74034,-0.312,-0.938,0.806,-1.87,-97.336,-27.427,77,16
74080,0.17,-1.011,0.502,27.137,16.74,-8.244,76,15
74125,-0.527,-0.742,0.991,-18.015,71.527,16.74,76,16
74171,-0.54,-1.167,1.086,-1.061,-104.985,-9.504,75,16
74217,0.338,-0.753,0.398,61.382,10.137,6.084,74,17
74262,-0.626,-0.544,1.018,23.74,134.107,48.359,74,18
74308,-0.82,-0.919,1.239,24.031,-115.74,14.679,73,20
74357,0.295,-0.767,0.421,85.45,-75.985,13.664,71,22
74403,-0.294,-0.519,0.598,72.282,140.008,68.641,73,22
74449,-1.03,-0.744,1.322,47.634,-30.305,52.443,73,23
74496,-0.076,-0.851,0.653,96.87,-122.542,24.443,71,24
74542,-0.03,-0.284,0.544,67.71,86.695,58.412,71,24
74587,-0.899,-0.698,1.372,29.771,-15.405,59.366,71,24
74633,-0.004,-0.668,0.719,96.351,-117.901,7.733,69,25
74679,-0.044,-0.06,0.517,67.58,88.13,49.389,69,25
74725,-0.971,-0.524,1.39,28.519,-15.534,52.107,69,25
74774,0.027,-0.437,0.772,102.809,-101.916,11.252,68,26
74820,-0.154,0.135,0.557,71.008,125.359,55.985,68,26
74866,-1.19,-0.262,1.539,9.137,-12.565,64.374,69,27
74911,-0.086,-0.344,0.842,90.16,-156.733,9.893,67,28
74958,0.156,0.359,0.43,61.977,107.137,54.832,67,29
75012,-1.153,-0.142,1.57,-3.855,8.397,65.527,0,30
75058,0.132,-0.158,0.794,89.718,-147.802,3.656,66,32
75106,0.102,0.555,0.451,49.969,123.061,54.985,93,32
75159,-1.077,-0.098,1.554,-6.885,-19.977,51.084,0,34
75216,0.418,0.098,0.495,83.763,-99.588,-3.298,0,35
75271,-0.54,0.603,0.79,-11.176,159.954,76.092,0,36
75325,-0.442,-0.17,1.307,34.977,-170.092,8.74,0,37
75379,0.762,0.65,-0.007,61.107,97.84,27.252,0,38
75433,-1.212,0.318,1.581,-43.519,42.679,59.641,0,40
75489,0.388,0.211,0.747,70.176,-138.198,-9,0,41
75543,-0.265,0.804,0.503,9.481,213.977,77.756,0,43
75598,-0.779,-0.044,1.5,-3.84,-148.511,25.321,0,43
75653,0.892,0.642,0.05,49,24.649,25.405,0,44
75711,-1.147,0.377,1.668,-44.168,61.962,75.046,0,47
75765,0.438,0.361,0.637,48.198,-140.298,1.885,0,47
75821,-0.277,0.865,0.59,-24.305,183.687,81.366,0,50
75876,-0.545,0.057,1.323,-6.099,-148.069,23.122,0,50
75931,0.84,0.608,0.138,30.87,59.382,29.008,0,51
75986,-1.07,0.407,1.597,-46.969,65.42,63.794,0,57
76042,0.407,0.352,0.687,37.672,-149.893,-3.107,0,54
76097,-0.102,0.895,0.659,-19.634,189.221,62.908,0,58
76152,-0.531,0.1,1.357,-5.557,-133.397,13.267,0,58
76255,-0.823,0.531,1.439,-39.603,109.359,57.588,0,66
76311,0.341,0.301,0.751,18.542,-166.687,-11.916,0,64
76367,0.212,0.753,0.472,-13.947,163.374,34.817,0,66
76423,-0.644,0.186,1.304,-38.573,-82.527,9.519,185,73
76474,0.777,0.569,0.245,0.183,0.046,-3.58,95,76
76529,-0.613,0.615,0.995,-77.366,139.824,45.763,184,79
76579,0.086,0.047,1.23,-17.282,-174.122,-20.679,92,71
76630,0.649,0.509,0.379,-7.641,102.618,13.107,86,75
76686,-0.941,0.261,1.59,-67.832,11.084,36.389,184,88
76739,0.946,0.244,0.469,-5.26,-162.122,-21,80,74
76790,0.065,0.367,0.664,-45.802,185.687,23.374,79,112
76840,-0.434,-0.156,1.49,-47.237,-91.153,-10.267,80,85
76891,0.935,0.171,0.347,-9.137,1.992,-14.679,85,74
76941,-0.512,0.212,1.206,-58.885,121.832,19.359,78,88
76992,0.127,-0.067,1.18,-42.573,-126.084,-23.16,61,127
77041,0.485,0.097,0.57,-30.031,130.244,-15.672,57,78
77090,-0.85,0.018,1.51,-88.344,22.588,-0.031,57,88
77144,0.727,-0.204,0.713,-52.252,-90.824,-39.397,57,112
77195,-0.029,-0.086,0.756,-36.351,218.008,-32.092,58,114
77246,-1.119,-0.179,1.581,-92.649,-31.718,-16.145,57,123
77296,0.732,-0.258,0.624,-49.237,-71.198,-46.969,52,115
77347,-0.507,-0.175,0.945,-57.099,214.115,-13.084,57,124
77399,-0.883,-0.367,1.415,-74.42,-43.519,-25.779,57,125
77450,0.513,-0.294,0.633,-41.794,-9.832,-37.786,49,124
77505,-0.394,-0.25,0.976,-52.023,181.305,-21.069,50,0
77561,-0.606,-0.495,1.235,-65.977,-76.687,-39.702,61,0
77612,0.321,-0.505,0.348,-28.649,135.237,-20.74,62,36
77658,-0.987,-0.296,1.106,-57.847,172.13,-13.718,64,37
77705,-0.81,-0.714,1.07,-65.886,-53.176,-30.687,65,38
77752,0.048,-0.719,0.609,-9.977,4.809,-19.55,66,32
77798,-0.436,-0.205,0.798,-43.924,116.611,-14.015,67,31
77844,-0.847,-0.715,1.017,-52.527,-23.58,-17.817,68,30
77891,0.073,-0.828,0.405,-6.351,11.641,-27.901,68,29
77937,-0.466,-0.6,0.553,6.534,144.87,11.183,70,28
77987,-0.78,-0.646,0.862,-41.748,-1.412,-19.206,71,30
78034,-0.289,-0.803,0.523,-7.206,-80.145,-41.954,72,26
78081,-0.068,-0.511,0.16,17.053,125.099,-25.542,72,24
78127,-1.089,-0.548,0.903,-39.008,113.611,-0.649,73,24
78174,-0.591,-0.807,0.694,-5.74,-101.504,-50.893,73,24
78220,0.297,-0.633,-0.085,22.893,88.962,-43.427,73,21
78267,-0.845,-0.598,0.637,-19.496,202.359,9.16,75,19
78313,-0.996,-0.914,1.039,-12.008,-81.382,-45.336,74,17
78359,-0.152,-1.103,0.225,49.046,-56.718,-22.916,75,18
78408,-0.443,-0.123,0.432,9.679,146.13,8.771,75,17
78454,-0.975,-0.771,0.923,-33.344,-52.458,-46.702,76,16
78501,-0.315,-1.159,0.176,8.649,-89.328,-19.298,74,18
78547,-0.281,-0.688,0.287,-3.13,68.359,3.069,74,18
78594,-0.661,-0.707,0.74,-61.771,5.908,-12.115,74,18
78640,-0.602,-1.179,0.655,-52.672,-163.237,-26.366,72,20
78687,0.292,-0.95,-0.028,16.74,-43.282,-43.115,66,21
78776,-0.695,-0.885,0.443,-24.214,14.038,-48.626,66,20
78825,-0.006,-1.158,-0.083,35.565,42.29,-62.542,67,21
78871,-0.231,-0.713,0.176,50.26,211.924,-3.42,67,19
78919,-0.668,-0.83,0.744,21.763,122.023,-17.611,111,19
78968,-0.252,-0.893,0.533,28.008,4.595,-55.305,111,20
79022,-0.103,-0.691,0.353,0.412,62.786,-33.328,0,20
79076,-0.752,-1.031,0.897,-46.458,-41.282,-8.779,0,20
79130,0.158,-0.92,0.119,36.756,-99.137,-50.13,0,22
79183,-0.207,-0.514,0.394,-43.656,53.779,10.58,0,21
79238,-0.277,-1.094,0.489,4.901,-91.779,-36.733,0,22
79304,0.084,-0.633,0.243,-15.908,68.969,-3.618,0,22
79361,-0.58,-1.147,0.768,-18.557,-30.29,-1.008,0,21
79417,0.156,-0.788,0.162,21.008,-61.725,-19.435,0,21
79473,-0.429,-0.903,0.571,-19.29,-50.748,17.901,0,22
79531,0.11,-0.869,0.206,10.687,-89.985,-4.855,0,22
79587,-0.102,-0.652,0.443,-18.183,70.672,31.992,0,22
79643,-0.412,-1.06,0.648,-4.252,-73.344,18.206,0,23
79699,0.298,-0.835,-0.106,23.58,15.412,8.687,0,21
79756,-0.744,-1.188,0.748,-34.275,14.672,51.519,0,19
79816,-0.029,-1.146,0.258,33.588,-150.107,-4.237,0,20
79873,-0.159,-0.595,0.377,-20.763,82.977,47.145,0,20
79935,-0.586,-1.181,0.561,18.893,-167.053,6.855,0,21
79991,0.292,-0.688,-0.076,19.924,-23.107,16.328,0,22
80048,-0.663,-1.131,0.697,-8.977,-55.718,31.473,0,24
80104,0.223,-0.86,0.037,29.748,-72.176,-4.802,0,25
80160,-0.516,-0.883,0.679,-12.328,-5.573,29.198,0,29
80217,0.098,-0.983,0.233,22.542,-86.344,-14.962,0,29
80273,-0.269,-0.551,0.482,-13.29,83.183,24.176,0,30
80332,-0.492,-1.082,0.648,-9.221,-133.489,-11.328,0,33
80390,0.268,-0.73,0.087,6.786,26.153,9.42,0,36
80446,-0.817,-1.055,0.931,-23.008,-51.069,24.244,0,38
80503,0.258,-0.846,0.238,8.924,-143.153,-17.282,0,44
80561,-0.26,-0.709,0.588,-13.916,81.603,34.267,0,46
80618,-0.477,-1.047,0.74,-0.595,-171.832,-4.191,0,51
80676,0.425,-0.762,-0.001,15.26,-40.298,10.763,0,58
80735,-0.668,-0.883,0.811,-8.931,-75.13,40.901,0,63
80793,0.425,-0.86,0.013,19.634,-146.16,8.008,0,68
80857,-0.308,-0.72,0.596,-8.87,90.214,57.366,0,85
80913,-0.304,-1.023,0.595,6.443,-168.374,17.351,0,43
80970,0.409,-0.843,0.078,20.275,18.954,38.817,0,42
81028,-0.688,-0.927,0.986,-10.489,-79.389,48.374,0,41
81085,0.489,-0.863,0.025,14.519,-119.328,26.351,0,38
81134,-0.294,-0.713,0.696,5.107,42.74,48.275,71,37
81183,-0.411,-0.974,0.687,-6.29,-157.382,33.267,62,37
81231,0.579,-0.908,0.035,12.405,-52.351,33.046,60,36
81284,-0.243,-0.709,0.773,0.611,33.756,30.992,60,36
81332,-0.149,-0.922,0.642,-10.275,-85.687,18.221,61,35
81381,0.235,-0.923,0.389,8.656,-11.107,25.351,60,34
81429,-0.128,-0.525,0.667,-13.305,-0.26,18.763,61,34
81478,-0.01,-0.862,0.486,-24.84,-71.183,11.435,64,32