Timestamp(ms),AccelX(g),AccelY(g),AccelZ(g),GyroX(deg/s),GyroY(deg/s),GyroZ(deg/s),DistanceLeft(cm),DistanceRight(cm)
47247,0.018,-0.944,0.258,3.153,-9.389,0.71,131,29
47294,0.017,-0.937,0.267,3.344,2.71,1.458,98,30
47341,-0.032,-0.958,0.3,3.519,-4.122,-0.305,96,29
47389,0.03,-0.961,0.254,2.878,-4.87,-2.985,96,29
47436,0.096,-0.946,0.198,-1.603,15.573,-4.84,95,30
47483,0.183,-0.959,0.105,-11.695,67.618,-11.275,96,31
47534,0.08,-1.066,0.162,-16.046,122.527,-11.443,125,43
47585,-0.211,-0.924,0.451,-2.511,65.374,-2.954,109,42
47634,-0.121,-1.006,0.399,-2.511,-27.13,-1.313,109,43
47683,0.065,-1.046,0.234,-10.443,-41.336,-11.427,108,42
47732,0.1,-0.904,0.199,-13.466,1.206,-10.618,109,42
47782,0.053,-0.876,0.234,-19.069,31.397,-6.405,129,42
47833,-0.032,-0.946,0.304,-20.443,39.153,-16.55,129,45
47883,-0.055,-0.974,0.319,-25.405,40.137,-29.382,129,45
47933,-0.14,-0.941,0.383,-19.817,33.817,-27.527,129,43
47983,-0.167,-0.927,0.411,-7.802,4.168,-16.511,129,42
48036,-0.083,-0.926,0.329,6.626,-27.092,0.168,127,50
48087,0.056,-0.97,0.26,3.626,-20.763,-0.573,125,42
48137,0.103,-0.995,0.227,-0.931,-5.359,-7.389,124,52
48187,0.1,-0.894,0.226,-2.168,4.084,3.916,123,47
48237,0.088,-0.934,0.15,-3.458,6.183,6.611,120,57
48287,0.06,-0.85,0.26,-13.542,11.527,11.168,119,57
48337,-0.462,-1.229,0.552,6.939,-43.763,50.969,117,50
48387,-0.33,-1.299,0.469,41.939,-99.206,78.397,104,58
48442,-0.538,-1.41,0.579,84.305,-124.947,110.16,88,171
48491,-0.36,-1.531,0.501,163.321,-127.145,124.947,84,21
48538,-0.293,-1.423,0.523,196.74,-80.282,119.58,81,20
48583,-0.219,-1.256,0.644,207.954,-60.031,110.588,80,16
48629,-0.132,-1.09,0.797,219.481,-83.504,89.901,79,13
48675,0.116,-0.893,0.696,235.336,-101.489,40.397,80,14
48721,0.187,-0.499,0.647,219.458,-71.183,2.137,82,17
48768,0.056,-0.16,0.601,184.809,-36.718,-18.649,85,16
48814,-0.067,0.022,0.512,132.473,-12.809,-42.405,86,16
48863,0.125,0.096,0.245,77.74,43.786,-78.901,88,13
48909,-0.107,-0.1,0.409,32.076,117.908,-106.351,91,11
48955,-0.489,-0.335,0.648,0.573,107.183,-100.924,94,9
49002,-0.571,-0.174,0.905,-21.779,28.038,-71.901,96,9
49048,-0.421,-0.207,0.928,-26.672,-11.275,-58.985,97,9
49095,-0.116,0.008,0.884,-5.374,18.908,-52.183,102,9
49145,-0.197,0.135,0.919,2.672,81.756,-64.817,103,65
49196,-0.406,0.059,0.927,-21.374,74.733,-64.954,105,63
49251,-0.53,-0.14,0.804,-29.618,47.618,-30.206,0,65
49307,-0.645,-0.179,0.909,-17.153,-11.672,-14.855,162,63
49358,-0.636,-0.168,1.048,8.992,-22.321,-11.466,108,63
49409,-0.589,-0.151,0.955,19.26,-26.916,11.153,106,64
49459,-0.456,-0.106,0.851,10.824,-49.611,12.802,106,63
49509,-0.318,-0.087,0.894,21.298,-62.489,10.313,106,61
49558,-0.301,-0.058,0.832,19.344,21.176,16.374,105,60
49609,-0.529,-0.03,0.99,25.038,23.046,9.198,104,65
49658,-0.506,-0.025,0.99,28.313,-2.916,0.924,104,63
49755,-0.475,0.042,1.07,9.985,9.756,0.802,105,62
49805,-0.437,0.034,0.983,1.748,-8.603,-1.458,105,62
49854,-0.459,0.017,0.925,0.237,2.992,-4.832,105,61
49904,-0.493,0.022,0.956,0.847,4.137,-15.16,104,61
49954,-0.424,0.072,1.056,-9.985,-6.084,-20.679,103,62
50004,-0.396,0.064,1.027,-30.893,-8.924,-16.557,104,59
50054,-0.423,-0.028,0.896,-34.802,-12.679,-15.74,104,62
50104,-0.547,-0.142,0.969,-31.076,-14.542,-31.198,104,60
50162,-0.356,-0.057,0.984,-34.267,-5.397,-45.748,104,0
50227,-0.389,-0.167,0.901,-31.649,11.45,-41.061,162,0
50285,-0.333,-0.2,0.903,-29.046,36.885,-38.664,105,0
50349,-0.53,-0.212,1.068,-35.931,33.71,-41.443,0,0
50412,-0.669,-0.222,1.071,-39.779,2.519,-28.58,0,0
50473,-0.924,-0.33,0.9,13.038,-27.015,23.061,159,0
50535,-0.86,0.028,1.108,55.939,7.023,83.221,156,0
50587,-0.63,0.191,0.986,44.046,-13.626,103.321,154,62
50643,-0.501,-0.024,0.89,34.435,2.626,104.527,0,62
50694,-0.415,0.025,0.86,31.855,-10.351,82.977,98,62
50746,-0.307,-0.042,0.791,14.176,-4.069,51.557,141,16
50795,-0.358,-0.156,0.929,17.481,-32.336,32.466,139,16
50843,-0.216,-0.001,0.838,13.74,-29.626,25.328,103,13
50890,-0.182,0.049,0.875,10.412,-8.672,4.626,102,10
50937,-0.151,0.025,0.803,1.489,22.191,-14.496,103,10
50987,-0.319,-0.032,0.908,-7.275,27.053,-16.313,135,11
51035,-0.32,-0.06,0.873,-7.137,2.565,-22.786,135,10
51088,-0.298,-0.079,0.804,-6.992,3.282,-15.244,136,71
51140,-0.282,-0.108,0.803,-5.511,21.603,-11.962,136,71
51192,-0.367,-0.147,0.915,-12.198,23.824,-16.099,126,9
51244,-0.37,-0.049,0.899,-12.122,-4.344,-13.802,126,70
51293,-0.574,-0.255,1.244,18.878,-21.802,10.824,125,6
51344,-0.387,0.062,0.945,21.374,-12.527,2.206,124,71
51396,-0.369,-0.039,0.749,6.122,58.099,14.519,125,70
51447,-0.761,0.035,1.111,18.519,-14.321,-0.214,125,67
51500,-0.407,0.09,0.966,12.733,-24.664,-9.137,125,65
51551,-0.491,0.107,0.989,3.038,11.863,-11.985,124,67
51606,-0.476,0.084,0.949,-0.771,-3.87,-12.84,124,66
51657,-0.336,0.107,0.898,-3.893,-9.519,-5.374,124,66
51708,-0.494,0.073,0.993,-4.282,11.718,1.626,124,65
51761,-0.491,0.084,0.981,-15.13,4.344,-1.519,124,65
51812,-0.434,0.058,0.948,-23.473,8.359,-3.786,124,65
51864,-0.488,-0.005,0.915,-25.145,8.893,-5.573,124,65
51915,-0.49,-0.033,0.857,-16.061,1,-4.374,125,60
51966,-0.455,-0.004,0.856,-5.206,7.954,-3.137,125,58
52018,-0.514,-0.014,0.945,-0.794,-3.229,-2.13,125,63
52072,-0.477,-0.003,0.895,-3.183,0.031,-2.58,125,62
52124,-0.529,-0.037,0.928,-1.824,1.55,-5.916,124,62
52175,-0.518,-0.035,0.965,-1.58,-6.473,-12.191,125,65
52227,-0.446,-0.038,0.904,-3.16,1.305,-10.55,124,62
52279,-0.504,-0.043,0.933,-1.817,-10.519,-11.137,124,61
52330,-0.512,-0.073,0.896,-0.511,-7.473,-11.672,124,61
52424,-0.389,-0.063,0.877,13.374,-2.061,-6.481,123,61
52475,-0.402,-0.01,1.026,9.344,-1.565,-3.16,123,61
52528,-0.412,-0.01,0.972,0.725,1.183,4.137,123,62
52582,-0.484,-0.061,0.932,-1.947,2.557,3.618,123,60
52633,-0.497,-0.047,0.907,-4.565,7.824,-5.481,123,59
52684,-0.55,-0.05,0.974,-11.313,5.725,-19.305,123,62
52736,-0.554,-0.055,1.015,-23.26,15.099,-36.344,123,61
52788,-0.512,-0.073,0.946,-30.038,14.26,-46.313,123,61
52839,-0.488,-0.17,0.878,-28.351,15.756,-48.137,123,57
52890,-0.566,-0.172,1.006,-25.344,25.153,-45.817,124,57
52950,-0.621,-0.151,0.91,-11.153,23.954,-46.687,124,0
53012,-0.895,-0.283,1.005,2.061,-11.725,-27.046,123,0
53071,-0.65,-0.18,0.89,14.053,-59.565,16.885,121,0
53123,-0.758,-0.028,1.076,16.832,-3.649,66.412,119,57
53179,-0.57,0.033,0.985,28.076,-18.679,74.328,0,57
53229,-0.556,-0.031,1.028,39.878,-41.137,72.641,113,59
53280,-0.293,0.054,0.844,22.916,-12.298,71.053,111,60
53331,-0.357,-0.076,0.875,20.366,-3.664,53.305,108,64
53380,-0.326,-0.076,0.8,24.893,-19.763,34.046,107,17
53430,-0.226,0.033,0.742,3.679,-0.748,21.038,105,64
53484,-0.282,-0.104,0.827,-12.962,-0.359,7.282,106,66
53531,-0.185,-0.068,0.801,-14.183,-12.015,-14.42,102,10
53579,-0.166,-0.003,0.865,-23.26,15.282,-19.008,118,10
53628,-0.279,-0.128,0.955,-15.527,12.214,-17.786,119,10
53677,-0.417,-0.042,1.023,-3.099,12.962,-9.16,120,9
53735,-0.437,-0.025,1.03,4.87,-23.573,-7.641,121,71
53786,-0.358,-0.004,0.943,-3.176,1.252,-2.908,122,68
53837,-0.37,-0.198,0.928,2.893,7.809,-10.115,121,70
53889,-0.226,-0.387,0.973,29.275,-8.878,-13.664,122,73
53942,-0.182,-0.179,0.581,27.405,60.313,12.359,122,68
53993,-0.63,-0.153,1.069,31.649,-28.183,35.267,122,67
54043,-0.341,0.371,0.887,25.542,0.061,10.084,102,67
54092,-0.691,0.101,1.078,10.916,0.107,0.725,102,64
54142,-0.349,0.145,0.92,5.603,-12.924,-8.832,102,64
54192,-0.426,0.13,0.989,-4.115,14.534,-1.847,102,61
54241,-0.45,0.145,1.016,-10.603,-1.893,-2.45,103,58
54291,-0.418,0.123,0.969,-19.198,3.557,0.031,102,59
54344,-0.504,0.072,0.91,-21.588,6.183,-3.924,122,61
54394,-0.427,0.031,0.886,-19.458,3.397,-11.198,122,60
54446,-0.451,0.026,0.981,-18.542,-2.244,-8.595,122,60
54496,-0.389,0.032,0.908,-17.702,-1.336,-4.244,122,58
54547,-0.385,0.01,0.891,-14.733,3.313,-1.107,122,58
54597,-0.45,-0.008,0.938,-6.947,5.473,0.069,122,58
54647,-0.444,0.007,0.943,-3.229,4.893,-0.954,122,57
54699,-0.455,-0.017,0.93,-2.893,6.832,-1.656,122,57
54749,-0.441,-0.01,0.924,-1.412,-1.924,-1.275,123,57
54802,-0.491,-0.027,0.928,-0.305,0.878,-1.26,122,62
54852,-0.43,-0.017,0.923,1.748,-0.168,-2.26,110,57
54902,-0.479,-0.004,0.927,4.412,2.023,-1.511,122,56
54953,-0.473,-0.035,0.925,6.626,-1.076,-3.641,122,56
55047,-0.455,-0.045,0.896,2.115,8.962,-9.237,122,57
55097,-0.486,-0.021,0.993,5.382,-3.74,-13.382,122,57
55148,-0.404,-0.026,0.918,2.695,1.641,-13.145,123,56
55198,-0.456,0.037,1.054,-8.313,5.794,-10.466,122,56
55249,-0.45,0,0.916,-17.313,8.008,-8.725,122,60
55303,-0.554,-0.086,0.955,-19.099,3.275,-18.58,122,57
55353,-0.597,-0.087,1.028,-29.985,0.779,-36.412,123,57
55414,-0.545,-0.105,0.964,-35.626,-0.115,-50.214,156,0
55475,-0.56,-0.247,1.05,-40.107,18.779,-54.305,153,0
55536,-0.581,-0.166,0.98,-29.634,-58.008,-50.954,152,0
55597,-0.567,-0.249,0.958,3.779,-68.183,-1.824,149,0
55657,-0.592,0.139,1.065,33.908,8.649,46.313,147,0
55708,-0.644,0.068,1.178,36.023,-9.832,72.473,145,54
55769,-0.422,-0.015,1.04,45.229,-26.992,83.824,142,0
55821,-0.319,0.03,1.028,48.74,-23.756,77.321,100,57
55868,-0.367,-0.058,1.064,50.328,-44.328,63.466,96,10
55914,-0.187,-0.014,0.916,41.443,-29.336,50.916,97,11
55961,-0.189,0.008,0.948,23.405,-23.969,40.718,102,11
56007,-0.128,-0.052,0.912,7.214,-20.099,22.817,94,10
56054,-0.109,-0.107,0.852,6.084,-20.282,20.435,94,10
56100,-0.08,-0.076,0.887,4.366,-13.321,15.145,94,11
56146,-0.08,-0.041,0.935,-0.885,-18.649,7.802,93,11
56194,-0.06,0.052,0.934,-2.328,-24.153,7.435,93,11
56243,-0.035,0.076,0.939,-3.466,-14.313,0.916,94,10
56289,-0.133,0.101,1.035,0.718,2.481,2.733,93,10
56335,-0.126,0.184,0.994,1.046,0.496,5.687,93,10
56381,-0.189,0.193,1.023,0.153,-0.992,2.969,94,9
56428,-0.079,0.259,0.958,-3.076,-0.084,-11.084,94,9
56474,-0.121,0.133,0.976,-7.115,2.649,-20.817,94,9
56520,-0.154,0.009,0.965,-2.458,6.458,-8.573,95,8
56566,-0.114,-0.147,1.016,8.221,-10.924,-7.26,95,7
56613,0.035,0.05,0.874,12.664,-26.649,-14.305,95,7
56663,-0.023,-0.028,0.884,-0.84,-1.733,1.206,96,6
56709,-0.217,-0.137,1.411,28.611,-65.58,1.206,96,7
56755,-0.054,-0.007,0.905,24.176,-29.29,16.733,95,8
56801,0.019,0.261,1.164,18.313,-31.779,4.542,95,7
56848,0.134,0.274,1.017,1.573,4.962,4.214,95,6
56894,-0.148,0.141,1.056,-1.939,25.58,-2.466,95,7
56940,-0.012,0.27,1.008,-0.954,17.672,-7.824,95,6
56986,-0.012,0.208,1.11,-7.687,11.435,-3.557,95,6
57032,-0.056,0.208,1.093,-13.298,21.885,1.58,95,7
57082,-0.086,0.198,1.041,-15.87,30.427,0.023,95,6
57128,-0.079,0.176,1.027,-18.267,27.55,1.634,95,7
57175,-0.184,0.131,1.095,-19.038,11.611,2.191,96,7
57222,-0.117,0.16,0.973,-18.282,8.191,3.397,96,6
57268,-0.157,0.112,1.03,-14.076,3.107,1.58,96,6
57314,-0.109,0.086,0.956,-8.916,16.618,-0.618,96,6
57361,-0.181,0.117,1.047,-4.802,13.718,-1.198,96,5
57407,-0.157,0.114,1.028,-3.885,15.275,-1.786,95,5
57453,-0.193,0.103,1.051,-2.542,8.282,-1.069,98,5
57545,-0.206,0.079,1.006,-0.733,13.267,-3.687,97,5
57592,-0.248,0.1,1.037,-0.344,21.496,-8.321,96,5
57638,-0.195,0.117,1.037,-0.298,11.771,-7.282,97,6
57686,-0.256,0.093,1.039,-2.023,7.107,-2.885,96,6
57732,-0.21,0.101,1.016,-2.252,-0.443,-3.29,97,6
57779,-0.226,0.091,1.008,-3.641,-4.046,-3.168,97,6
57825,-0.275,0.068,1.042,-1.298,-2.756,-4.107,97,7
57872,-0.23,0.084,1.008,0.198,-3.634,-6.969,97,7
57918,-0.238,0.103,1.089,-2.053,1.244,-9.122,97,7
57967,-0.239,0.075,1.065,-6.275,-3.069,-10.313,98,7
58014,-0.236,0.058,1.074,-10.756,-3.45,-11.344,98,8
58061,-0.207,0.083,1.09,-19.588,-4.542,-14.519,98,7
58107,-0.271,0.03,1.093,-29.718,-4.031,-18.366,97,7
58155,-0.241,0.016,1.077,-37.13,1.824,-24.366,96,9
58204,-0.316,-0.052,1.081,-42.664,14.29,-32.824,97,58
58251,-0.302,-0.016,1.172,-40.29,18.473,-47.588,101,9
58309,-0.371,-0.047,1.102,-32.099,2.298,-48.374,107,0
58368,-0.177,-0.031,0.906,-22.954,-3.672,-48.336,101,0
58421,-0.591,0.018,1.144,-2.511,23.664,0.809,102,58
58479,-0.491,0.179,1.297,46.824,-34.733,28.969,107,0
58529,-0.206,0.215,0.993,51.405,8.931,55.038,97,54
58578,-0.345,0.148,1.065,45.321,49.244,73.252,96,55
58626,-0.442,0.036,1.066,45.389,37.061,74.763,97,11
58672,-0.296,0.107,0.992,42.672,21.397,66.29,98,9
58719,-0.245,0.058,0.894,28.916,34.74,58.443,99,9
58766,-0.307,0.009,0.972,17.489,37.611,43.992,99,10
58813,-0.269,0.089,0.903,7.771,26.626,32.046,99,9
58862,-0.3,0.002,0.87,0.313,23.206,25.756,97,9
58909,-0.25,0.067,0.843,-0.099,28.489,13.305,97,9
58956,-0.347,0.117,0.901,-6.069,22.435,-1.603,99,9
59003,-0.364,0.039,0.895,-6.977,0.649,-9.519,98,8
59051,-0.338,0.127,0.882,-9.458,14,-12.137,98,9
59097,-0.425,0.07,0.894,-11.916,12.389,-18.092,99,8
59144,-0.371,0.108,0.858,-11.038,26.031,-18.595,101,9
59192,-0.557,0.082,0.987,-7.076,8.198,-16.427,101,10
59239,-0.479,0.102,0.871,-9.168,-37.427,-30.504,100,9
59289,-0.301,0.086,0.832,-13.206,-35.046,-40.962,101,9
59336,-0.257,0.076,0.826,-13.191,-26.115,-47.954,100,7
59383,-0.183,-0.036,0.82,-12.031,-5.298,-36.947,103,9
59435,-0.261,-0.218,0.852,5.099,-3.168,-19.069,102,70
59485,-0.504,-0.304,1.231,36.16,-11.809,0.573,104,69
59536,-0.327,0.061,0.874,51.298,-37.137,3.42,101,71
59583,-0.487,0.088,0.993,31.779,-3.863,22.573,100,5
59630,-0.211,0.153,0.882,30.519,-29.053,3.855,100,6
59677,-0.341,0.21,1.03,19.733,27.802,12.328,99,6
59726,-0.491,0.221,1.158,13.359,-8.542,7.87,99,6
59773,-0.215,0.238,0.918,1.389,-4.023,1.634,99,6
59821,-0.384,0.227,1.025,-6.435,17.824,5.901,100,5
59868,-0.406,0.199,0.983,-10.26,11.557,3.015,100,4
59915,-0.351,0.199,0.907,-10.351,5.733,-2.115,100,4
60005,-0.336,0.204,1.01,-23.405,6.725,-3.046,101,6
60052,-0.419,0.166,0.986,-27.229,6.771,-1.519,100,6
60105,-0.399,0.103,0.958,-21.565,-3.397,-5.595,104,6
60152,-0.347,0.106,0.958,-18.466,-8.87,-4.45,101,6
60200,-0.333,0.071,0.923,-16.267,0.252,-1.191,100,5
60248,-0.385,0.062,0.927,-8.649,6.008,-3.74,104,5
60297,-0.424,0.068,0.981,-4.977,11.947,-7.618,104,60
60346,-0.379,0.071,0.981,-5.573,5.511,-10.153,99,59
60393,-0.395,0.071,0.972,-7.992,14.084,-9.282,106,6
60439,-0.409,0.052,0.983,-7.748,2.115,-8.733,100,6
60485,-0.367,0.049,0.953,-7.366,2.893,-5.794,105,6
60532,-0.458,0.025,0.944,-5.183,3.405,-4.015,105,6
60578,-0.383,0.026,0.927,-0.74,-4.053,-8.046,104,7
60631,-0.408,0.023,0.969,-1.046,3.206,-9.267,104,62
60681,-0.358,0.03,0.974,-5.519,-3.679,-10.573,103,57
60727,-0.415,0.011,0.944,-6.679,6.313,-9.473,100,9
60774,-0.425,-0.018,0.996,-1.939,-6.26,-8.412,106,7
60823,-0.344,0.04,0.974,-5.893,4.58,-8.863,106,57
60873,-0.453,-0.016,0.998,-10.947,6.443,-8.046,108,59
60926,-0.419,-0.021,0.969,-11.641,-2.954,-15.443,169,59
60973,-0.391,-0.004,1.028,-16.756,9.076,-15.595,47,58
61026,-0.383,-0.058,0.981,-20.695,9.061,-18.153,168,57
61084,-0.498,-0.082,0.934,-20.809,32.374,-23.702,0,57
61137,-0.565,-0.081,1.058,-21.954,28.733,-30.656,172,57
61192,-0.636,-0.192,0.907,-20.634,37.282,-31.908,172,59
61247,-0.893,-0.176,1.054,-23.779,14.305,-19.076,51,0
61293,-0.792,-0.199,1.098,23.336,-82.595,7.557,47,59
61348,-0.697,-0.15,1.101,44.16,-95.069,39.237,0,61
61403,-0.435,0.117,1.084,52.305,-142.267,69.641,44,0
61450,-0.248,0.271,1.104,46.748,-182.206,89.534,98,16
61500,0.218,0.323,0.748,28.298,-170.176,74.817,95,13
61546,0.427,0.127,0.524,-15.458,-65.305,42.366,92,12
61593,0.192,-0.273,0.785,-52.977,-67.107,5.58,96,11
61640,0.297,-0.347,0.689,-71.031,-132.321,-31.427,95,12
61686,0.333,-0.424,0.736,-85.847,-117.206,-20.885,98,11
61737,0.373,-0.465,0.776,-69.092,-104.183,-7.229,100,71
61788,0.579,-0.224,0.771,-48.023,-78.771,-3.298,100,71
61846,0.642,-0.185,0.692,-54.061,-24.626,-7.183,100,0
61902,0.489,-0.406,0.793,-44.603,-29.611,-10.58,102,173
61962,0.437,-0.296,0.872,-9.115,20.351,0.916,102,171
62013,0.626,-0.397,0.918,-5.427,-9.962,3.718,103,72
62063,0.58,-0.185,0.709,-5.916,46.115,3.878,104,70
62113,0.354,-0.373,1.035,0.504,18.046,2.206,102,71
62164,0.656,-0.308,0.734,3.947,-6.191,-4.321,103,69
62215,0.437,-0.287,0.993,-3.099,26.435,-0.298,103,71
62262,0.547,-0.278,0.865,-4.374,-5.45,-4.061,103,9
62313,0.542,-0.299,0.887,-9.427,15.313,-1.87,103,78
62363,0.472,-0.358,0.893,-11.74,-0.252,-4.725,105,77
62428,0.514,-0.278,0.92,-18.649,5.107,-2.168,151,0
62488,0.482,-0.359,0.83,-22.26,1.092,-8.908,153,0
62593,0.463,-0.354,0.917,-28.763,16.74,-19.664,152,0
62653,0.431,-0.369,0.957,-34.641,16.542,-20.977,147,0
62714,0.48,-0.394,0.785,-34.511,18.183,-23.748,146,0
62775,0.471,-0.364,0.921,-33.053,9.794,-23.046,149,0
62836,0.568,-0.396,0.825,-36.244,7.756,-9.511,157,0
62897,0.402,-0.418,0.907,-32.718,39.313,-4.298,149,0
62958,0.609,-0.531,0.717,-2.115,25.595,15.198,146,0
63021,0.406,-0.348,0.669,17.206,103.252,19.053,138,0
63081,-0.176,-0.131,0.783,-18.641,137.473,68.748,143,0
63141,-0.043,-0.392,0.869,-41.153,5.947,68.519,140,0
63201,0.378,-0.662,0.521,-58.656,72,49.718,109,0
63259,-0.01,-0.808,0.684,-54.046,69.557,42.015,105,0
63318,0.04,-0.829,0.748,-60.802,87.344,14.229,112,0
63378,-0.025,-0.756,0.622,-50.145,93.366,1.374,137,0
63436,-0.286,-0.649,0.63,-45.092,103.038,-5.878,109,0
63489,-0.319,-0.897,0.517,-32.672,103.771,-19.405,96,44
63547,-0.406,-1.042,0.49,-10.405,93.328,-20.435,94,0
63604,-0.383,-0.853,0.435,3.458,129.313,-25.557,94,0
63662,-0.547,-0.834,0.474,7.122,107.649,-24.061,94,0
63720,-0.55,-0.666,0.375,18.626,96.641,-42.954,94,0
63777,-0.457,-0.787,0.045,20.374,151.275,-44.115,94,0
63835,-0.511,-0.739,0.278,2.855,145.901,-93.435,87,0
63893,-0.751,-2,0.336,27.779,163.328,-62.084,87,0
63950,-0.684,0.175,1.024,44.771,97.229,-27.153,92,0
64011,-0.166,-1.342,0.333,-18.519,25.588,-46.84,91,0
64069,-0.326,-0.328,0.67,-2.824,104.527,-18.015,91,0
64126,-0.36,-1.038,0.192,-48.496,-75.115,-55.855,89,0
64184,-0.046,-1.028,0.015,-21.885,97.458,-9.351,89,0
64242,-0.653,-1.366,0.635,-25.954,-14.267,-23.496,90,0
64300,-0.3,-0.871,0.259,18.496,46.489,21.275,89,0
64357,-0.731,-0.883,0.599,37.55,-24.237,51.794,89,0
64414,-0.419,-0.948,0.305,64.519,21.298,98.298,89,0
64473,-1.01,-1.346,0.731,92.473,27.397,125.008,90,0
64531,-1.033,-1.098,0.569,140.603,8.198,200.298,50,0
64580,-0.176,-0.413,0.112,132.534,-53.214,165.977,44,105
64630,0.131,-0.672,-0.093,64.58,-9.168,90.901,46,107
64680,-0.701,-0.369,0.42,22.244,40.763,35,48,108
64730,-0.67,-0.201,0.391,2.321,-13.031,6.893,46,107
64780,-1.01,-0.174,0.695,-7.55,29.977,8.809,44,107
64829,-1.084,-0.141,0.71,-5.389,-29.275,26.298,45,108
64879,-0.864,-0.192,0.534,16.809,-8.359,50.962,50,109
64928,-0.872,-0.306,0.732,24.656,-23.13,51.504,46,99
64982,-0.978,-0.616,0.414,30.359,0.573,46.519,46,99
65031,-0.542,-0.058,0.517,22.908,-40.885,37.947,44,101
65079,0.264,-0.511,0.06,-42.985,-25.672,-63.344,37,101
65129,-0.433,-0.369,0.108,-76.641,96.382,-123.107,43,111
65179,-1.767,-0.199,0.834,-77.252,33.977,-96.901,44,108
65229,-0.934,-0.055,0.786,-48.282,-6.679,-39.962,44,108
65278,-1.227,-0.391,0.971,4.817,23.466,29.046,37,108
65328,-1.229,-0.255,0.741,46.092,-32.786,89.427,37,110
65423,-0.288,-0.79,0.315,2.198,-2.336,19.71,34,100
65471,-0.499,-0.21,0.37,-17.985,16.374,-47.466,16,112
65521,-0.836,-0.116,0.588,-28.809,35.939,-49.336,35,111
65570,-1.136,-0.532,0.559,-22.687,14.534,-32.58,37,111
65620,-0.855,0.002,0.535,-17.878,-7.168,5.74,36,112
65671,-0.996,-0.543,0.691,-10.397,-3.985,29.214,34,135
65720,-0.568,-0.238,0.495,3.45,-13.672,30.221,33,110
65770,-0.204,-0.695,0.189,-14.046,-19.145,-50.046,32,111
65824,-1.118,-0.358,0.379,-29.878,65.962,-34.855,33,0
65878,-1.001,-0.251,0.739,-2.74,-28.771,-6.656,33,132
65929,-1.201,-0.306,0.764,14.214,6.183,62.42,32,133
65977,-0.748,-0.054,0.627,36.58,-46.695,78.519,31,98
66026,-0.586,-0.627,0.25,8.542,-22.069,30.405,31,98
66074,-1.005,-0.335,0.625,24.382,11.092,49.725,31,98
66122,-0.979,-0.288,0.784,35.191,-34.656,47.122,31,99
66171,-1.105,-0.305,0.89,75.802,-18.16,95.664,30,99
66220,-1.074,-0.043,0.733,118.366,-43.969,138.794,29,102
66273,-1.123,-0.12,0.72,165.145,-20.649,187.863,30,106
66321,-0.276,0.213,0.483,154.275,-123.886,150.252,26,111
66368,0.314,0.253,-0.552,81.198,-16.496,66.412,26,74
66415,-0.874,0.719,0.365,23.344,87.916,46.947,26,74
66462,-0.655,0.645,0.947,-13.511,-53.649,13.183,28,74
66509,-0.141,0.556,0.476,-15.84,4.015,-26.802,27,75
66556,-0.878,0.622,0.683,-18.427,39.183,-47.863,26,73
66610,-0.789,0.738,0.626,-26.901,-14.107,-31.977,30,74
66656,-0.819,0.339,0.734,7.374,3.924,8.947,28,74
66705,-0.662,0.506,0.594,27.29,-18.237,30.107,28,75
66753,-0.638,0.587,0.572,38.664,-10.359,54.817,28,115
66802,-0.769,0.468,0.991,49.519,-18.893,73.008,28,117
66851,-0.364,0.455,0.492,81.924,-43.573,68.588,26,119
66899,-0.566,0.762,0.433,62.725,-14.336,54.351,26,121
66949,-0.137,0.759,-0.012,26.901,-0.939,40.275,16,122
66997,-0.58,0.745,0.706,-6.084,6.641,17.74,16,122
67046,-0.37,0.87,0.54,16.779,-25.229,4.344,29,123
67095,-0.369,0.991,0.397,9.137,6.038,8.954,27,124
67146,-0.513,0.678,0.454,0.221,2.878,11.275,26,123
67195,-0.299,0.833,0.537,8.16,-19.847,-0.878,27,125
67246,-0.667,0.77,0.809,20.977,12.557,20.16,16,141
67298,-0.698,0.479,0.948,89.687,-44.809,51.695,16,0
67351,0.596,1.182,-1.067,30.985,-91.008,-52.802,24,0
67405,-0.451,1.172,0.014,-151.886,126.847,-119.191,25,0
67453,-1.384,0.844,1.71,-78.908,-27.244,-66.092,25,121
67503,-0.38,0.628,0.695,-0.626,-34.099,-21.168,25,122
67552,-0.562,0.498,0.069,14.321,5.885,16.061,27,123
67604,-0.222,0.302,0.454,-14.992,-0.519,22.527,25,123
67653,-0.514,0.612,0.635,22.58,9.763,19.443,30,123
67702,-0.924,0.651,1.076,40.45,10.275,67.901,28,123
67756,-0.269,0.474,0.544,89.458,-43.229,59.962,25,0
67810,-0.412,0.879,0.347,83.122,-11.87,48.588,26,0
67863,-0.104,1.017,-0.116,41.481,-9.099,22.443,27,0
67960,-0.433,1.123,0.53,8.198,-6.359,1.55,25,0
68014,-0.38,1.094,0.235,15.076,-8.061,20.527,25,0
68067,-0.261,0.691,0.268,0.618,4.557,19.649,26,0
68124,-0.369,0.901,0.498,30.466,-4.16,19.13,27,0
68177,-0.186,0.982,0.191,23.366,-9.84,26.153,25,0
68231,-0.105,0.983,0.06,10.908,14.786,11.015,25,0
68284,-0.304,1.119,0.569,-4.817,-11.061,-9.878,26,0
68338,-0.153,1.174,0.076,-19.679,7.443,-26.481,26,0
68391,-0.336,1.181,0.387,-47.641,-10.053,-31.649,26,0
68446,-0.471,0.604,0.675,-13.824,2.115,5.542,25,0
68502,-0.495,0.582,0.43,47.885,-40.977,17.397,16,0
68555,-0.012,0.965,-0.211,13.71,25.374,32.145,26,0
68613,-0.436,0.86,0.748,21.115,-15.237,25.366,26,0
68666,-0.04,1.123,0.157,18.183,2.954,13.26,28,0
68720,-0.292,1.092,0.322,-10.153,-0.573,5.198,25,0
68773,-0.15,1.082,0.306,-6.168,16.809,-4.473,30,0
68828,-0.425,0.627,0.515,-0.183,-27.244,2.847,25,0
68881,-0.117,0.863,0.086,8.634,18.145,-6.947,26,0
68934,-0.47,1.076,0.36,16.901,-18.031,23.832,25,0
68988,-0.031,0.748,0.199,27.122,3.275,25.939,25,0
69042,-0.02,1.017,0.102,-9.359,-7.664,-16.664,26,0
69099,-0.308,1.456,0.532,-22.435,29.115,-18.878,27,0
69153,-0.535,1.017,0.782,3.901,-54.092,8.595,29,0
69209,-0.163,0.617,0.218,59.076,-30.229,29.366,58,0
69264,0.262,0.946,-0.593,27.481,-34.237,2.496,58,0
69318,-0.1,1.303,0.37,-60.336,10.198,-73.847,27,0
69371,-0.104,1.35,-0.043,-117.076,1.718,-124.29,30,0
69426,-0.123,0.376,-0.386,-234.718,37.794,-162.466,31,0
69476,-0.101,-0.204,-0.101,-250.137,53.672,-205.634,27,124
69525,-0.01,-0.356,0.688,-250.137,-32.618,-250.137,29,116
69578,-0.269,-0.424,0.554,-250.137,141.191,-230.359,35,122
69627,-2,-0.958,1.667,-149.328,8.321,-194.328,39,116
69686,-1.034,-0.201,0.932,-121.191,-231.305,-173.832,90,0
69743,-0.296,-1.496,0.174,-114.992,-231.389,-74.901,86,0
69800,0.065,-0.118,0.679,-52.443,75.237,-52.565,84,0
69858,-0.923,-1.432,1.03,-72.099,-81.16,-25.573,83,0
69914,0.279,-0.177,0.55,-11.344,-3.252,-40.038,81,0
69971,-0.786,-1.215,0.931,-55.092,-19.29,-11.634,82,0
70032,0.316,-0.505,0.209,-13.748,5.427,-33.863,81,0
70088,-0.522,-1.124,0.878,-48.481,-39.748,-11.229,81,0
70146,0.363,-0.674,0.084,-17.763,47.992,-41.229,81,0
70203,-0.991,-1.146,1.208,-73.893,-72.13,2.504,81,0
70260,1.08,-0.91,-0.619,-1.237,-26.084,-67.534,80,0
70318,-1.23,-0.971,1.306,-77.603,102.763,40.214,82,0
70371,0.899,-1.082,-0.322,16.336,-224.176,-78.336,16,0
70428,-0.526,-0.338,0.334,-51.901,250.13,46.565,83,0
70484,-0.689,-1.171,0.82,2.321,-250.137,-57.359,83,0
70545,0.573,-0.311,-0.538,-16.641,250.13,12.878,83,0
70602,-1.495,-1.639,1.344,-13.313,-168.595,-24.71,84,0
70661,1.496,-0.358,-1.167,12.901,91,-4.336,88,0
70761,0.606,-1.049,-0.133,34.45,-199.855,-53.412,90,0
70818,-0.677,-0.604,0.622,-35.58,229.702,49.252,89,0
70877,-0.087,-1.273,0.413,22.573,-237.427,-40.702,89,0
70934,0.234,-0.53,-0.111,-6.351,250.13,21.55,90,0
70991,-1.119,-1.43,1.042,-8.695,-239.565,-20.305,90,0
71053,1.582,-0.591,-1.15,22.947,215.908,-7.55,90,0
71110,-2,-1.49,1.916,-28.664,-16.504,25.313,90,0
71168,1.732,-0.598,-1.134,36.13,-165.969,-43.374,90,0
71226,-1.151,-0.855,1.245,-35.962,199.443,56.84,90,0
71283,0.511,-0.899,-0.132,35.748,-250.137,-60.206,89,0
71342,-0.437,-0.672,0.45,-26.466,250.13,39.847,89,0
71399,-0.565,-1.247,0.72,17.58,-250.137,-39.779,89,0
71456,0.668,-0.584,-0.407,-6.55,238.618,18.855,89,0
71515,-1.164,-1.402,1.236,-7.305,-138.359,-7.992,90,0
71575,1.304,-0.618,-0.789,4.947,103.382,-7.214,89,0
71632,-1.331,-1.207,1.416,-29.603,20.038,23.954,89,0
71691,1.093,-0.776,-0.523,28.809,-112.664,-27.382,90,0
71748,-0.847,-0.844,0.97,-27.206,166.336,36.275,90,0
71806,0.28,-0.975,0.102,18.527,-208.405,-35.947,89,0
71864,-0.135,-0.665,0.195,-17.267,247.237,32.878,89,0
71921,-0.506,-1.186,0.745,3.191,-191.634,-21.664,89,0
71980,0.862,-0.665,-0.483,1.763,180.511,8.115,89,0
72037,-1.373,-1.274,1.423,-26.74,-88.863,6.924,90,0
72098,1.551,-0.722,-0.972,17.908,-1.16,-22.198,90,0
72156,-1.31,-1.007,1.294,-31.412,174.176,40.344,90,0
72214,0.455,-0.949,-0.09,31.893,-231.695,-44.817,90,0
72271,-0.274,-0.741,0.335,-10.565,250.13,36.58,90,0
72330,-0.49,-1.142,0.574,13.916,-223.58,-28.374,90,0
72387,0.652,-0.652,-0.396,3.863,191.771,21.137,86,0
72445,-1.236,-1.251,1.305,-14.336,-90.802,5.611,90,0
72503,1.223,-0.684,-0.614,26.985,-19.29,-8.733,85,0
72563,-1.056,-0.931,1.205,-14.405,108.954,27.985,91,0
72622,0.358,-0.994,-0.021,30.489,-181.16,-19.053,84,0
72679,-0.354,-0.865,0.435,22.137,173.015,60.832,90,0
72736,-0.742,-1.121,0.8,30.565,-237.908,16.55,84,0
72795,0.733,-0.875,-0.103,50.916,47.305,36.634,83,0
72852,-0.706,-0.851,1.097,38.756,-54.153,29.809,82,0
72909,0.637,-0.96,0.113,60.053,-11.031,18.924,81,0
72967,-0.53,-0.449,0.928,46.206,36.466,22.313,84,0
73024,0.136,-1.057,0.444,29.573,-108.649,9.298,83,0
73084,-0.4,-0.459,0.783,52.145,103.214,12.26,82,0
73142,-0.353,-0.769,0.728,-8.282,-128.458,15.344,82,0
73199,0.328,-0.779,0.332,49.489,114.191,-1.176,82,0
73256,-0.925,-0.587,1.276,-1.45,-57.42,18.466,84,0
73317,0.617,-0.86,0.32,37.046,-6.489,15.061,16,0
73373,-0.57,-0.345,1.093,31.336,49.962,14.282,83,0
73430,0.01,-0.898,0.696,11.176,-125.901,20.145,83,0
73483,0.022,-0.332,0.652,42.29,112.718,-6.023,16,0
73539,-0.737,-0.607,1.144,-13.931,-87.359,27.382,82,0
73600,0.595,-0.591,0.347,38.626,37.557,0.099,83,0
73699,0.068,-0.751,0.688,-7.069,-149.672,14.046,84,0
73756,0.08,-0.472,0.494,33.962,220.237,-23.29,82,0
73812,-1.199,-0.49,1.374,-42.046,-118.099,25.298,83,0
73866,1.423,-0.583,-0.239,-2.214,-10.634,-19.221,16,0
73923,-1.13,-0.357,1.368,-9.527,181.305,7.031,85,0
73975,0.017,-0.712,0.65,-35.878,-188.198,-10.885,16,0
74033,0.259,-0.547,0.35,-1.115,228.71,-19.053,82,0
74089,-1.338,-0.662,1.417,-51.427,-78.939,-7.061,84,0
74149,1.093,-0.669,-0.164,-14.053,-5.847,-32.611,81,0
74206,-1.098,-0.49,1.328,-36.046,164.618,3.374,83,0
74259,-0.114,-0.832,0.607,-47.985,-193.389,-40.076,16,0
74312,0.232,-0.729,0.374,-17.878,157.557,-15.939,16,0
74370,-0.987,-0.662,1.209,-51.237,10.695,-13.969,87,0
74426,0.463,-0.914,0.13,-16.878,-83.198,-43.641,82,0
74483,-0.582,-0.633,0.779,-38.893,177.557,1.443,85,0
74540,-0.402,-1.028,0.767,-38.313,-155.344,-39.145,83,0
74597,0.55,-0.65,-0.083,-3.397,159.786,-18.053,83,0
74657,-1.242,-0.941,1.385,-62.58,-10.802,3.794,85,0
74714,0.699,-0.955,-0.133,13.855,-156.969,-56.374,82,0
74771,-0.543,-0.698,0.644,-45.191,219.099,34.115,84,0
74828,-0.315,-1.059,0.615,3.74,-180.473,-51.802,84,0
74885,0.463,-0.502,-0.167,-17.267,201.298,5.71,85,0
74942,-1.074,-1.252,1.183,-26.382,-89.221,-22.443,90,0
74999,0.803,-0.647,-0.326,10.351,4.267,-13.962,85,0
75057,-0.935,-1.001,1.01,-46.718,58.13,27.198,91,0
75117,0.525,-0.968,-0.253,16.397,-75.275,-33.969,85,0
75174,-0.729,-0.834,0.443,-47.992,248.328,58.58,91,0
75232,-0.28,-1.115,0.558,6.382,-197.282,-36.267,90,0
75289,0.715,-0.6,-0.392,-10.252,198.145,10.534,90,0
75346,-1.279,-1.262,1.256,-27.565,-23.634,-12.679,92,0
75404,0.542,-0.823,-0.383,25.29,-72.153,-18.71,91,0
75461,-0.498,-0.74,0.542,-44.466,180.053,19.74,94,0
75526,-0.422,-1.255,0.411,12.397,-222.595,-28.443,0,0
75589,0.305,-0.611,-0.283,-9.985,232.908,33.168,0,0
75656,-0.875,-1.154,0.924,-12.618,-122.16,-16.832,0,0
75719,0.857,-0.637,-0.547,8.702,106.695,0.336,0,0
75776,-1.201,-1.115,1.236,-25.237,32.626,-2.214,0,69
75839,0.276,-1.133,-0.274,26.687,-130.649,-27.649,0,0
75895,-0.511,-0.821,0.512,-30.252,171.504,26.527,0,67
75960,-0.317,-1.146,0.32,24.107,-152.061,-19.412,0,0
76015,0.001,-0.716,-0.044,-12.267,178.702,22.107,0,68
76071,-0.957,-1.166,0.869,0.038,-137.931,-10.947,0,71
76136,0.708,-0.74,-0.456,22.168,-29.351,-18.969,0,0
76195,-1.211,-1.237,1.23,-22.374,-0.962,11.176,0,70
76259,0.46,-0.949,-0.282,35.313,-171.26,-39.45,0,0
76322,-0.444,-0.888,0.393,-19.26,193.641,34.008,0,0
76387,-0.23,-1.061,0.315,29.229,-166.107,-27.351,0,0
76450,-0.079,-0.721,0.19,-11.412,123.427,27.023,0,0
76514,-0.333,-1.104,0.451,20.405,-174.015,-20.977,0,0
76578,0.293,-0.621,-0.026,-0.122,150.183,19.954,0,0
76685,0.697,-0.72,-0.312,30.305,-25.489,-11.244,0,0
76742,-0.903,-1.01,1.013,-16.214,55.702,27.511,94,0
76804,0.391,-0.937,-0.093,31.336,-131.183,-21.145,92,0
76861,-0.391,-0.73,0.537,-12.435,128.069,33.038,93,0
76918,-0.252,-1.052,0.431,20.687,-196.351,-17.473,92,0
76977,0.513,-0.591,-0.163,13.069,165.908,17.053,92,0
77034,-1.123,-1.187,1.154,-11.069,-77.267,5.023,93,0
77091,0.877,-0.701,-0.388,30.626,-46.779,-13.916,91,0
77150,-0.871,-0.879,0.981,-10.962,127.672,37.489,93,0
77207,-0.033,-0.994,0.274,25.137,-187.382,-17.771,91,0
77277,-0.355,-0.775,0.556,-7.786,141.42,35.275,91,0
77337,-0.185,-1.014,0.483,14.71,-177.214,-15.603,90,0
77398,0.129,-0.746,0.227,6.802,127.336,19.427,90,0
77457,-0.639,-1.045,0.88,3.511,-105.695,-1.901,89,0
77517,0.614,-0.69,-0.127,17.313,58.939,-1.282,85,0
77577,-0.988,-0.928,1.143,-12.42,-5.603,20,90,0
77637,0.678,-0.834,-0.123,27.947,-85.061,-17.71,84,0
77697,-0.711,-0.796,0.958,-11.115,115.588,29.092,86,0
77757,0.055,-0.885,0.33,9.565,-187.908,-22.779,84,0
77820,-0.152,-0.7,0.448,0.71,185.496,17.328,85,0
77880,-0.634,-0.976,0.852,-2.405,-155.718,-9.275,86,0
77940,0.641,-0.69,-0.127,7.878,93.702,4.924,84,0
78001,-1.033,-0.947,1.266,-8.557,-46.649,13.092,86,0
78060,0.829,-0.759,-0.222,12.29,-22.191,-10.191,83,0
78120,-0.774,-0.801,1.071,-9.008,83.107,24.985,84,0
78180,0.271,-0.895,0.193,11.557,-146.252,-18.153,83,0
78240,-0.164,-0.703,0.448,-5.137,183.893,16.29,84,0
78300,-0.552,-0.959,0.808,-13.374,-144.611,-16.595,84,0
78364,0.496,-0.789,-0.049,-11.145,105.489,-5.733,83,0
78424,-0.762,-0.943,1.045,-21.122,17.542,-2.038,85,0
78484,0.332,-0.871,0.181,-5.198,-73.382,-26.649,84,0
78544,-0.231,-0.822,0.45,-20.298,153.344,4.939,86,0
78605,-0.402,-0.893,0.773,-26.672,-50,-13.481,89,0
78664,0.543,-0.906,-0.231,-2.366,76.26,-39.718,87,0
78726,-0.809,-0.929,0.868,-29.237,155.252,14.221,93,0
78786,0.122,-0.966,0.168,17.168,-89.573,-51.664,93,0
78846,-0.201,-0.679,0.249,-28.137,193.504,16.664,96,0
78910,-0.174,-1.003,0.453,5.45,-94.962,-48.031,0,73
78969,0.369,-0.736,-0.225,-4.863,209.214,-7.824,0,68
79028,-0.883,-1.124,0.974,-19.458,13.252,-21.229,0,61
79086,0.457,-0.871,-0.234,26.237,12.626,-24.061,0,60
79144,-0.7,-0.802,0.573,-16.382,214.954,37.328,0,56
79204,-0.352,-1.145,0.477,26.115,-185.053,-50.321,0,58
79262,0.59,-0.712,-0.521,14.924,200.435,10.427,0,54
79321,-1.23,-1.083,1.273,-21.992,46.84,-5.924,0,52
79382,0.534,-0.977,-0.531,42.214,-76.954,-40.008,0,51
79431,-0.582,-0.905,0.328,-29.794,250.13,17.931,48,48
79481,-0.968,-1.173,0.933,4.802,-160.748,-35.45,48,48
79531,0.802,-0.845,-0.685,43.344,-22.756,-38.198,51,48
79580,-0.487,-0.914,0.188,-24.214,250.13,16.901,50,45