Timestamp(ms),AccelX(g),AccelY(g),AccelZ(g),GyroX(deg/s),GyroY(deg/s),GyroZ(deg/s),DistanceLeft(cm),DistanceRight(cm)
40245,-0.105,-0.926,0.402,-6.099,5.649,8.947,0,25
40302,-0.134,-0.938,0.378,-9.489,1.252,8.763,0,25
40354,-0.155,-0.928,0.396,-11.809,-4.733,7.359,0,23
40408,-0.142,-0.904,0.352,-12.214,-7.374,5.84,0,23
40465,-0.125,-0.945,0.317,-18.847,12.122,-0.427,0,22
40517,-0.176,-0.903,0.351,-19.008,10.336,-4.672,0,22
40574,-0.129,-0.911,0.313,-22.71,11.855,-7.756,0,22
40631,-0.133,-0.919,0.315,-19.916,14.885,-8.214,0,22
40687,-0.14,-0.953,0.298,-18.031,26.595,-10.954,0,22
40740,-0.155,-0.999,0.302,-12.542,29.908,-18.168,0,23
40794,-0.103,-1.009,0.27,-10.26,40.26,-17.634,0,23
40847,-0.151,-1.061,0.309,-8.878,46.366,-17.489,0,23
40900,-0.095,-1.034,0.297,-1.351,40.183,-15.084,0,24
40953,-0.029,-1.039,0.207,2.519,65.176,-11.878,0,26
41007,-0.062,-0.896,0.224,11.618,99.443,-6.542,0,30
41060,-0.135,-0.927,0.278,25.191,81.779,10.908,0,27
41117,-0.128,-1.011,0.222,34.412,59.397,11.237,0,38
41171,-0.074,-0.908,0.246,38.015,40.206,16.565,0,36
41226,-0.002,-0.892,0.221,33.298,33.214,30.13,0,45
41280,-0.075,-0.927,0.294,17.641,33.55,19.901,0,39
41333,-0.099,-0.821,0.341,2.489,14.038,8.542,0,40
41388,-0.116,-0.804,0.382,-5.336,1.824,3.786,0,38
41442,-0.217,-0.747,0.454,-8.87,3.069,-0.046,0,42
41496,-0.284,-0.728,0.49,0.519,-10.924,12.282,0,43
41550,-0.386,-0.766,0.55,9.427,-15.649,31.443,0,36
41607,-0.354,-0.674,0.526,17.977,-27.389,47.847,0,32
41661,-0.273,-0.614,0.432,23.885,-22.145,61.733,0,32
41713,-0.284,-0.615,0.406,18.084,-15.397,56.336,0,18
41771,-0.248,-0.618,0.317,3.527,-16.786,46.664,0,16
41824,-0.231,-0.781,0.221,-3.351,-18.603,44.053,0,30
41877,-0.408,-1.603,0.079,-14.237,11.42,15.824,0,17
41934,-0.667,-1.319,0.187,0.718,43.115,3.824,0,30
41988,-0.492,-0.872,0.273,5.366,42.267,48.137,0,38
42043,-0.697,-0.75,0.48,-40.527,53.656,23.084,0,43
42100,-0.851,-0.78,0.503,-23.053,-2.328,23.275,0,43
42155,-0.703,-0.642,0.39,-8.26,-23.763,28.214,0,38
42207,-0.669,-0.67,0.34,-8.809,-6.802,36.977,0,16
42263,-0.668,-0.683,0.323,7.038,-16.611,56.924,0,16
42316,-0.567,-0.619,0.282,30.687,-22.092,65.634,0,17
42373,-0.576,-0.616,0.203,39.305,-8.687,70.42,0,18
42426,-0.691,-0.644,0.24,46.13,12.702,72.496,0,19
42483,-0.708,-0.518,0.327,52.626,13.275,67.695,0,20
42528,-0.784,-0.372,0.344,50.031,16.305,61.71,58,22
42575,-0.919,-0.216,0.395,43.985,13.443,64.031,51,24
42620,-0.914,-0.135,0.386,39.176,-0.359,65.939,48,29
42667,-0.946,-0.078,0.337,34.145,-9.718,66.359,44,50
42714,-0.91,0.043,0.372,27.504,-15.641,70.672,43,65
42759,-0.94,-0.047,0.279,18.649,-12.099,64.824,43,41
42805,-1.037,-0.024,0.321,-10.313,18.718,42.473,42,55
42851,-1.234,-0.059,0.451,-49.924,26.885,40.863,43,61
42941,-1.28,0.014,0.621,-114.26,-26.649,58.962,42,68
42988,-1.067,-0.029,0.575,-100.58,-84.954,81.382,41,74
43038,-0.909,0.034,0.449,-74.542,-93.901,98.374,40,72
43088,-0.902,0.176,0.458,-69.992,-41.71,121.618,35,141
43140,-1.228,0.243,0.662,-71.832,-24.939,164.878,30,147
43191,-1.18,0.146,0.528,-58.557,-39.931,181.214,27,154
43244,-1.078,0.098,0.527,-47.496,-51.061,182.748,22,0
43297,-0.863,0.028,0.615,-34.473,-55.313,178.321,20,0
43351,-0.535,0.049,0.63,-24.229,-49.061,151.58,19,0
43404,-0.376,0.054,0.627,-19.519,-23.008,131.344,16,0
43460,-0.451,0.11,0.611,-8.267,19.84,128.573,18,0
43516,-0.066,0.381,0.813,-0.13,28.206,68.168,16,0
43570,-0.142,0.501,0.761,-15.069,23.771,28.901,19,0
43626,-0.566,0.475,0.708,6,55.809,39.939,11,0
43678,-0.198,0.67,0.91,13.023,38.634,54.237,11,0
43731,-0.135,0.46,0.673,17.603,-15.489,12.298,15,0
43788,-0.411,0.664,0.535,10.939,39.405,19.924,11,0
43841,-0.26,0.829,0.822,8.336,30.198,23.718,12,0
43894,-0.183,0.659,0.697,9.603,-49.908,-25.084,15,0
43947,-0.561,0.578,0.58,-12.122,-27.954,9.695,13,0
44003,-0.122,0.67,0.886,-4.122,-58.573,14.366,11,0
44055,0.112,0.76,0.744,9.313,-109.282,-28.145,10,0
44111,0.075,0.899,0.511,-11.076,-6.733,-17.977,10,0
44165,-0.258,0.753,0.812,-24.42,54.183,20.145,11,0
44221,-0.159,0.575,0.896,-8.443,-53.115,4.389,11,0
44274,0.144,0.578,0.718,-1.473,-105.336,-21.634,16,0
44327,0.177,0.537,0.668,-2.229,-44.863,-12.931,17,0
44381,0.079,0.815,0.85,17.267,52.26,-23.847,15,0
44434,-0.516,1.004,1.222,-4.794,78.046,-33.168,16,0
44490,-0.783,0.454,1.079,-12.878,-4.13,-28.244,16,0
44544,-0.342,0.49,0.762,13.817,-81.244,-37.74,17,0
44597,-0.106,0.487,0.65,6.511,-86.725,-47.099,17,0
44653,-0.025,0.3,0.545,12.519,-59.824,-66.634,73,0
44706,-0.126,0.61,0.804,2.206,-18.053,-80.053,17,0
44761,-0.303,0.525,1.021,5.771,-17.588,-75.855,22,0
44814,-0.364,0.261,0.999,30.374,-33.641,-86.092,16,0
44867,-0.283,0.252,0.745,50.885,-27.733,-111.252,24,0
44923,-0.3,0.444,0.584,33.885,22,-138.573,16,0
44977,-0.558,0.509,0.61,21.191,40.802,-143.626,19,0
45031,-0.715,0.448,0.621,13.908,38.336,-147.069,31,0
45085,-0.706,0.369,0.671,5.237,8.26,-147.176,35,0
45134,-0.706,0.434,0.648,9.954,-8.763,-134.198,37,99
45181,-0.65,0.335,0.53,5.618,16.55,-125.084,30,77
45228,-0.649,0.222,0.552,-12.473,31.061,-135.588,31,66
45274,-0.627,0.035,0.478,-4.405,34.351,-132.87,37,57
45321,-0.549,-0.042,0.361,5.695,49.008,-140.038,43,57
45370,-0.691,-0.167,0.298,1.672,55.382,-151.672,45,54
45425,-0.75,-0.254,0.289,-14.092,79.282,-149.977,200,45
45479,-0.944,-0.447,0.441,-18.519,86.214,-158.565,0,38
45535,-0.778,-0.431,0.378,-12.29,54.344,-177.595,0,34
45633,-0.866,-0.79,0.25,-57.267,25.115,-148.656,0,53
45688,-0.938,-1.38,0.216,-66.336,5.008,-157.542,0,45
45744,-0.617,-1.562,0.03,-21.649,17.58,-157.145,0,50
45799,-0.429,-1.191,0.222,-27.855,86.878,-117.977,0,50
45855,-0.538,-1.01,0.342,-53.595,99.542,-77.802,0,69
45915,-0.609,-0.867,0.402,-23.092,16.443,-36.351,0,76
45971,-0.338,-0.966,0.095,-7.954,-41.443,-13.244,0,50
46026,-0.142,-0.947,-0.122,9.565,-5.71,1.656,0,60
46083,-0.131,-0.906,-0.115,3.824,61.115,19.267,0,58
46139,-0.295,-0.925,0.04,-7.687,84.55,15.992,0,69
46195,-0.401,-0.821,0.172,-8.771,37.084,14.29,0,67
46252,-0.386,-0.711,0.16,-12.779,-17.511,28.863,0,76
46309,-0.416,-0.864,0.064,-17.702,-22.481,38.092,0,77
46364,-0.53,-0.927,0.181,-7.16,-29.947,42.908,0,57
46424,-0.53,-0.971,0.187,47.534,-76.756,46.84,0,58
46480,-0.354,-0.844,0.125,39.71,-88.664,40.458,0,61
46535,-0.395,-0.808,0.099,43.076,-75.489,34.336,0,59
46592,-0.576,-1.031,0.275,40.893,-49.511,69.145,0,57
46647,-0.729,-1.26,0.269,27.42,0.046,69.985,0,44
46702,-0.794,-1.118,0.413,49.176,-2.015,90.374,0,52
46758,-0.782,-0.858,0.406,53.763,-10.962,125.275,0,57
46813,-1.055,-0.801,0.436,43.336,-10.847,167.084,0,30
46862,-1.248,-0.574,0.542,53.153,-26.176,198.664,58,32
46908,-1.196,-0.427,0.517,53.412,-42.672,215.718,49,39
46954,-1.104,-0.268,0.496,39.878,-49.061,219.534,46,49
47008,-1.06,-0.136,0.564,33.252,-63.26,205.053,51,68
47054,-0.951,0.006,0.564,40.802,-80.092,184.115,43,50
47099,-0.789,0.104,0.583,41.191,-78.473,169.534,38,50
47144,-0.687,0.048,0.619,46,-78.397,148.786,35,56
47190,-0.559,0.159,0.618,53.496,-82.809,124.527,32,57
47235,-0.404,0.294,0.566,51.695,-84.794,97.229,30,53
47283,-0.289,0.407,0.514,50.443,-81.603,68.763,30,55
47328,-0.16,0.497,0.317,41.275,-49.527,45.252,30,55
47373,-0.276,0.531,0.384,27.237,-3.763,42.496,30,55
47428,-0.449,0.369,0.608,15.427,-38.565,45.718,0,58
47483,-0.184,0.325,0.667,25.191,-125.878,47.901,0,61
47538,0.096,0.356,0.582,25.962,-148.511,29.924,0,51
47588,0.542,0.767,0.408,40.527,-80.389,4,113,56
47637,0.432,1.216,0.539,12.954,8.099,23.725,108,53
47687,0.191,0.925,0.89,-5.45,0.809,-15.687,107,53
47739,0.246,0.827,0.921,15.374,-56.321,-46.878,108,52
47788,0.188,0.752,0.736,22.015,-66.618,-71.359,111,38
47837,0.084,0.746,0.604,21.42,-49.336,-80.511,115,36
47890,-0.108,0.726,0.595,15.511,-40.893,-70.931,0,32
47944,-0.249,0.716,0.54,14.969,-57.29,-69.099,0,29
47997,-0.255,0.801,0.512,17.664,-71.718,-48.397,0,26
48051,-0.292,0.777,0.621,13.076,-74.824,-47.16,0,25
48104,-0.277,0.735,0.685,17.924,-102.588,-53.649,0,23
48157,-0.182,0.771,0.517,22.038,-116.702,-63.267,0,23
48214,-0.229,0.696,0.395,12.046,-99.924,-72.756,0,24
48310,-0.31,0.743,0.428,9.893,-104.542,-79.015,0,25
48363,-0.34,0.807,0.588,8.214,-113.504,-75.832,0,28
48417,-0.21,1.302,0.495,25.992,-116.802,-54.595,0,30
48471,-0.139,1.438,0.605,13.481,-70.046,-40.802,0,33
48525,-0.226,1.189,0.807,13.206,-51.916,-41.244,0,36
48579,-0.15,0.843,0.386,28.13,-31.183,-70.153,0,38
48633,-0.293,1.068,0.232,29.771,27.908,-50.191,0,47
48689,-0.632,1.013,0.225,27.496,-53.107,-3.115,0,46
48746,-0.315,1.135,-0.116,19.366,-52.45,21.947,0,50
48801,-0.257,1.152,-0.018,-13.206,42.779,51.153,0,51
48856,-0.382,1.09,0.268,-29.145,60.702,65.573,0,46
48910,-0.285,0.976,0.4,-22.779,15.618,71.489,0,44
48964,-0.09,0.934,0.29,-14.878,14.466,71.573,0,43
49018,-0.016,0.909,0.265,-18.458,62.504,76.069,0,42
49073,-0.084,0.855,0.353,-26.206,97.435,77.679,0,40
49127,-0.067,0.78,0.448,-45.275,86.099,67.176,0,40
49181,0.028,0.683,0.466,-60.786,71.282,64.023,0,41
49239,0.022,0.507,0.499,-80.771,35.573,71.122,0,40
49293,0.31,0.327,0.411,-77.015,20.038,84.992,0,41
49347,0.396,0.204,0.326,-87.695,52.237,92.809,0,41
49401,0.301,0.137,0.463,-97.206,92.198,71.817,0,40
49456,0.148,0.285,0.792,-112.084,111.863,32.962,0,38
49510,-0.1,0.118,1.03,-134.29,109.427,10.756,0,38
49555,-0.289,-0.005,1.002,-137.756,105.626,-0.29,30,36
49608,-0.383,0.041,1.104,-141.519,87.298,-17.046,0,34
49656,-0.414,-0.121,0.991,-129.947,71.061,-34.962,35,34
49701,-0.484,-0.2,0.964,-125.458,96.008,-44.275,38,33
49755,-0.638,-0.156,1.347,-134.771,86.061,-51.611,0,34
49809,-0.606,-0.579,1.223,-114.679,58.496,-66.534,0,37
49863,-0.239,-0.433,0.837,-94.718,56.916,-80.504,0,35
49917,-0.291,-0.498,0.944,-96.519,81.267,-74.534,0,36
49972,-0.34,-0.697,0.807,-96.42,75.389,-74.74,0,38
50026,-0.358,-0.842,0.693,-100.489,68.908,-89.237,0,32
50080,-0.372,-0.536,0.717,-103.534,48.458,-73.153,0,28
50137,-0.352,-0.58,0.651,-76.908,-23.42,-8.992,0,27
50190,-0.549,-1.339,0.532,-57.267,12.733,-48.573,0,22
50244,-0.719,-1.832,0.393,-61.26,49.069,-69.496,0,36
50298,-0.736,-1.323,0.477,-31.374,86.015,-12.794,0,31
50353,-0.718,-1.072,0.627,-50.26,-20.718,-1.885,0,32
50406,-0.412,-0.892,0.341,-53.809,-104.168,7.115,0,19
50459,-0.172,-0.76,0.135,-29.565,-113.771,7.015,0,19
50512,-0.079,-0.749,0.146,-41.786,-78.229,13.71,0,19
50566,-0.21,-1.02,0.184,-64.366,-66.053,39.817,0,18
50621,-0.366,-1.117,0.045,-4.16,-81.191,24.87,185,18
50664,-0.248,-0.757,0.096,8.664,-61.87,1.122,16,18
50707,-0.294,-0.769,0.1,0.534,-27.855,6.863,17,19
50749,-0.41,-0.938,0.208,10.191,-10.061,3.672,16,18
50802,-0.406,-0.883,0.151,33.855,0.45,-4.046,0,19
50855,-0.406,-0.815,0.154,32.542,12.885,5.824,0,19
50909,-0.373,-0.719,0.261,50.954,29.634,10.26,0,19
51005,-0.512,-0.721,0.228,126.809,111.55,28.985,0,19
51059,-0.595,-0.511,0.384,146.595,199.481,81.634,0,20
51116,-0.87,-0.351,0.612,141.13,204.466,138.015,0,25
51171,-1.134,-0.344,0.664,114.42,154.656,177.29,0,51
51218,-1.248,-0.23,0.65,70.405,88.145,192.679,57,56
51265,-1.421,-0.239,0.487,30.405,30.145,177.794,50,58
51314,-1.464,-0.049,0.495,-14.275,-6.58,159.496,51,99
51374,-1.548,0.046,0.357,-39.046,-51.519,158.771,0,122
51420,-1.117,0.042,0.319,-34.275,-103.313,186.214,37,60
51469,-0.473,0.029,0.252,-3.466,-121.511,158.42,34,97
51518,-0.151,0.198,0.388,11.504,-114.427,67.863,30,79
51568,-0.213,0.755,0.401,-14.931,-70.282,15.702,83,66
51613,-1.065,0.191,0.462,-25.817,36.466,80.084,28,57
51660,-0.884,0.622,0.558,-5.573,58.924,96.573,31,78
51712,-0.544,0.707,0.622,-6.649,12.344,84.26,92,83
51760,-0.227,0.801,0.428,-25.809,-32.519,34.206,30,111
51809,-0.464,0.696,0.334,-56.267,8.847,29.16,26,106
51859,-0.66,0.735,0.285,-60.473,70.191,58.794,77,103
51908,-0.703,0.621,0.489,-70.809,102.763,78.87,29,99
51958,-0.738,0.475,0.58,-80.008,64.076,65.061,26,97
52006,-0.722,0.504,0.549,-88.672,22.733,55.473,25,96
52054,-0.685,0.461,0.6,-101.886,5.084,53.26,26,95
52102,-0.695,0.354,0.588,-92.214,-3.969,66.756,22,94
52149,-0.676,0.306,0.595,-78.87,-17.489,76.427,20,95
52199,-0.587,0.267,0.65,-67.244,-33.389,83.588,72,95
52246,-0.396,0.162,0.573,-56.16,-24.847,84.725,17,95
52293,-0.34,0.173,0.619,-33.237,35.496,76.603,14,96
52341,-0.581,0.532,1.153,-37.168,34.649,62.237,14,98
52391,-0.457,0.607,1.262,-27.908,-28.55,46.519,12,99
52439,-0.201,0.565,1.093,-20.847,-32.832,20.466,10,99
52486,-0.046,0.482,0.927,-20.221,-12.916,15.366,9,100
52533,-0.096,0.275,0.916,-13.557,-6.481,1.55,8,99
52579,-0.051,0.207,0.975,6.298,-23.55,-15.321,10,98
52626,-0.006,0.381,0.917,19.931,-19.122,-32.664,11,96
52673,-0.103,0.365,0.996,21.527,2.321,-52.328,16,94
52720,-0.21,0.298,0.998,40.992,3.908,-66.061,12,91
52770,-0.263,0.518,0.766,62.42,28.229,-65.802,13,88
52816,-0.477,0.596,0.687,53.198,51.656,-56.878,16,85
52864,-0.668,0.644,0.81,54.725,16.466,-44.649,16,83
52910,-0.527,0.745,0.586,50.618,-25.573,-38.847,19,81
52957,-0.487,0.904,0.407,12.244,-6.855,-7.908,17,80
53003,-0.554,0.813,0.47,-34.519,3.344,19.603,16,80
53049,-0.512,0.652,0.64,-48.924,-28.672,27.267,17,79
53096,-0.383,0.569,0.737,-53.885,-60.13,36.656,14,81
53142,-0.123,0.483,0.745,-55.672,-45.397,36.221,12,80
53191,-0.028,0.429,0.824,-57.779,7.42,34.802,11,80
53237,-0.143,0.384,0.885,-65.939,31.947,23.71,10,80
53283,-0.264,0.281,0.992,-66.389,13.786,9.954,10,80
53329,-0.24,0.256,0.962,-59.748,-13.229,4.481,11,80
53376,-0.186,0.275,1.016,-50.84,-22.687,4.336,11,79
53465,-0.069,0.083,1.171,11.275,-29.794,9.305,11,75
53511,0.065,0.243,1.118,41.084,23.321,10.015,10,74
53563,-0.141,0.372,1.109,41.168,75.412,1.412,13,70
53608,-0.392,0.298,1.097,27.656,68.244,-21.931,15,67
53655,-0.5,0.208,0.969,27.191,14.26,-43.038,17,64
53700,-0.39,0.189,0.679,34.221,-47.252,-60.13,18,59
53744,-0.184,0.311,0.462,11.649,-34.13,-76,17,57
53788,-0.375,0.325,0.614,-26.687,-12.496,-77.595,20,54
53833,-0.408,0.321,0.72,-56.389,-23.084,-104.214,20,50
53877,-0.43,0.316,0.902,-77.824,-22.458,-99.847,26,48
53922,-0.484,0.176,0.94,-79.771,-13.847,-89.16,30,45
53977,-0.563,0.028,1.103,-62.687,-18.992,-72,0,43
54031,-0.463,0.069,1.085,-54.84,-51.443,-59.221,0,41
54087,-0.377,-0.076,1.01,-53.237,-52.832,-36.008,0,38
54135,-0.332,-0.088,1.062,-51.26,-64.16,-20.649,93,36
54181,-0.239,-0.143,1.011,-53.13,-77.489,-11.527,63,37
54227,-0.144,-0.184,0.983,-53.908,-58.45,-3.336,72,33
54280,-0.128,-0.187,1.039,-54.977,-46.519,15.076,167,31
54326,-0.072,-0.221,1.095,-61.695,-44.588,34.115,76,30
54372,-0.102,-0.393,1.069,-55.115,-52.473,36.466,67,30
54415,-0.107,-0.366,1.005,-53.817,-46.725,46.267,17,29
54460,-0.063,-0.404,0.93,-58.344,-31.893,58.038,17,28
54503,-0.028,-0.438,0.872,-61.313,-10.794,68.122,16,27
54555,-0.12,-0.479,0.92,-60.656,-0.344,74.519,168,29
54598,-0.123,-0.552,0.893,-58.191,-17.527,74.504,11,28
54640,-0.075,-0.612,0.894,-50.55,-11.023,66.618,9,28
54683,-0.127,-0.646,0.935,-41.237,-1.855,60.137,12,29
54726,-0.206,-0.652,0.991,-33.45,-4.405,59.481,8,29
54768,-0.204,-0.698,0.977,-17.443,-16.008,50.244,10,30
54811,-0.139,-0.639,0.892,-7.405,-3.771,40.458,9,29
54856,-0.212,-0.634,0.873,-3.878,13.305,32.779,7,28
54899,-0.268,-0.635,0.887,-2.366,3.443,27.168,6,29
54941,-0.193,-0.617,0.794,-0.947,-0.443,19.885,6,29
54984,-0.181,-0.581,0.724,-4.374,9.588,10.221,5,28
55026,-0.24,-0.573,0.744,-10.504,11.924,-1.29,5,30
55069,-0.245,-0.577,0.741,-15.183,-1.267,-11.206,6,28
55112,-0.202,-0.596,0.677,-22.008,8.939,-19.87,6,29
55155,-0.215,-0.693,0.684,-27.779,20,-31.16,17,29
55198,-0.224,-0.728,0.676,-33.099,25.779,-47.71,6,30
55243,-0.103,-0.743,0.518,-49.038,49.595,-73.511,6,29
55286,-0.255,-0.881,0.572,-57.046,77.168,-81.382,7,27
55328,-0.255,-0.903,0.588,-58.74,81.847,-84.588,8,23
55382,-0.391,-1.012,0.634,-46.282,88.176,-69,0,21
55425,-0.194,-0.878,0.513,-25.931,99.214,-57.344,10,22
55468,-0.17,-0.814,0.455,-7.802,152.557,-48.053,10,21
55521,-0.152,-0.675,0.385,2.725,191.733,-49.786,0,23
55575,-0.271,-0.394,0.122,1.443,250.13,-38.664,0,29
55635,-0.85,-0.822,0.468,0.634,250.13,42.641,0,99
55694,-1.177,-0.989,0.981,-19.206,59.351,52.389,0,101
55752,-0.341,-0.447,0.393,-4.794,-98.481,-10.595,0,107
55845,-0.645,-0.477,0.724,3.824,-15.87,93.71,58,105
55904,-0.057,0.054,0.43,-51.053,-171.847,-36.435,0,104
55955,-0.638,-1.223,-0.178,-10.962,33.74,64.206,58,123
56013,-0.066,-0.357,0.028,-13.237,-63.389,-24.023,0,101
56066,-0.729,-2,-0.304,-53.015,32.908,-14.107,50,147
56115,-0.697,-0.953,0.562,48.939,-26.481,-20.664,50,107
56170,-0.41,-0.37,0.456,12.237,-73.313,-22.977,44,148
56222,-0.289,-0.457,0.041,-14.443,-18.969,-19.702,44,162
56276,-0.414,-0.522,0.105,-61.099,20.74,0.328,76,151
56331,-0.738,-1.718,0.061,-15.863,6.176,3.397,0,30
56391,-0.487,-1.055,0.346,9.183,12.954,13.733,0,148
56453,-0.263,-0.787,0.057,44.84,-8.802,-15.687,0,149
56513,-0.479,-0.602,0.02,29.893,72.802,-6.107,0,147
56565,-0.603,-0.664,0.172,-12.519,-11.992,-26.26,44,145
56616,-0.619,-0.734,0.59,-24.29,15.435,5.748,43,148
56672,-0.64,-0.992,0.809,29.885,-27.802,21.664,44,145
56721,-0.318,-0.641,0.129,25.924,-37.809,8.985,45,102
56769,-0.753,-0.753,0.115,3.725,10.473,41.771,46,78
56817,-1.057,-0.996,0.611,16.527,-14.679,89.779,45,80
56866,-0.301,-0.94,0.467,53.725,-77.84,85,44,104
56920,-0.07,-0.741,0.172,58.382,-0.656,58,0,21
56965,-0.945,-0.75,0.294,41.282,21.282,58.725,48,22
57010,-0.478,-0.403,0.263,29.855,-48.359,35.473,43,25
57057,0.078,-0.526,-0.075,-25.153,-15.504,-17.931,43,22
57102,-0.212,-0.678,0.099,-53.069,67.282,-52.718,41,23
57150,-1.057,-0.749,0.66,-73.427,42.618,-51.748,43,87
57198,-1.166,-0.75,0.903,-37.313,4.84,-8.847,44,86
57247,-0.961,-0.544,0.967,34.305,-16.977,32.573,41,103
57296,-1.033,-0.858,0.645,67.527,-10.557,72.504,41,101
57346,-0.843,-0.586,0.388,87.71,-23.763,102.557,41,105
57391,-0.946,-0.606,0.347,73.061,1.115,133.962,39,25
57436,-0.772,-0.607,0.355,65.794,-21.87,141.351,43,29
57484,-0.252,-0.332,0.317,66.702,-37.298,101.824,39,29
57529,-0.408,-0.122,0.25,42.29,31.939,72.71,39,32
57574,-0.575,-0.174,0.282,13.023,14.725,19.183,43,32
57619,-0.849,-0.2,0.525,-7.412,7,7.74,43,32
57664,-0.704,0.111,0.572,-17.26,7.931,3.046,37,32
57709,-1.128,-0.023,0.752,-7.008,30.969,12.855,38,32
57754,-1.468,0.237,0.837,12.45,10.267,69.687,36,35
57799,-1.107,-0.012,0.738,32.473,-57.122,107.626,36,36
57844,-0.547,-0.11,0.445,46.672,-28.901,111.359,35,39
57897,-0.618,-0.022,0.351,42.603,-8.489,88.168,34,120
57948,-0.451,0.169,0.258,12.756,-0.115,49.817,33,128
57997,-0.853,0.131,0.624,-4.137,32.855,13.634,32,121
58047,-0.862,0.367,0.791,10.611,3.992,-6.374,33,123
58097,-1.042,0.559,0.713,14.45,-18.634,-7.427,32,124
58147,-0.644,0.394,0.5,29.198,-24.458,20.611,32,123
58196,-0.855,0.304,0.432,20.145,-3.641,30.618,32,125
58248,-0.811,0.251,0.54,26.183,-34.817,56.221,32,148
58303,-0.584,0.299,0.503,24.733,5.092,55.359,32,0
58394,-0.559,0.386,0.45,-5.053,18.13,-28.641,30,147
58444,-0.915,0.697,0.647,-26.336,18.763,-71.771,30,129
58494,-1.173,0.688,0.767,-28.229,28.504,-46.687,31,124
58545,-0.699,0.488,0.502,-13.038,-31.733,-39.771,31,124
58595,-0.745,0.223,0.394,-33.206,24.237,-9.504,30,123
58645,-0.716,0.127,0.47,-21.29,-12.893,-15.313,30,123
58694,-0.679,0.323,0.552,-16.359,31.214,-13,30,122
58744,-1.22,0.186,0.643,-1.855,21.733,7.985,30,122
58798,-0.917,0.397,0.585,7.527,-34.969,38.382,30,122
58847,-0.845,0.129,0.601,11.832,-5.221,44.519,30,124
58897,-0.795,0.265,0.568,28.664,-16.313,44.916,29,127
58947,-0.568,0.326,0.5,16.71,-8.649,23.809,29,127
58997,-0.625,0.339,0.37,3.29,3.252,-2.702,29,128
59047,-1.097,0.301,0.651,1.298,9.069,13.656,29,127
59102,-0.801,0.525,0.613,19.191,-24.229,35.511,29,0
59156,-0.67,0.362,0.479,28.229,-8.504,47.427,30,0
59210,-0.627,0.319,0.522,19.382,-10.45,33.092,30,0
59268,-0.544,0.449,0.429,5.824,3.695,-6.153,29,0
59322,-0.86,0.552,0.629,-10.176,5.939,-24.061,31,0
59377,-0.781,0.685,0.62,-2.092,2.099,-6.878,37,0
59431,-0.903,0.483,0.716,16.496,-13.748,26.008,30,0
59486,-0.542,0.559,0.484,31.45,-8.389,43.366,28,0
59540,-0.355,0.359,0.256,15.45,-9.115,4.588,29,0
59594,-0.5,0.455,0.424,-25.053,31.435,-59.053,29,0
59651,-1.121,0.682,0.766,-26.221,41.282,-68.794,30,127
59701,-1.13,0.656,0.894,-0.107,-17.282,-33.947,32,127
59753,-0.75,0.538,0.318,19.466,4.847,6.939,30,128
59802,-0.798,0.586,0.234,2.076,-5.229,32.282,30,131
59856,-0.571,0.396,0.347,-24.878,6.176,41.565,29,0
59910,-0.797,0.229,0.695,0.916,-0.038,37.145,29,0
59963,-0.888,0.403,0.482,14.26,-5.634,46.344,30,0
60017,-0.579,0.514,0.508,6.511,2.817,37.885,30,0
60070,-0.527,0.431,0.529,8.962,-6.153,-12.42,29,0
60125,-0.713,0.538,0.459,-2.183,18.359,-42.031,30,0
60174,-0.411,0.583,0.625,-10.702,-12.603,-84.519,29,131
60227,-0.527,0.347,-0.052,-44.71,5.412,-115.534,30,130
60276,-1.222,0.375,0.606,-41.863,41.672,-71.733,31,126
60321,-0.619,0.312,0.614,-42.115,-41.031,-100.565,31,44
60365,-0.786,0.058,0.297,-42.718,23.756,-72.916,31,40
60410,-0.979,0.082,0.445,-45.26,58.29,-45.305,32,39
60454,-0.742,0.128,0.802,-62.656,-43.931,-86.87,32,38
60499,-0.434,-0.076,0.427,-74.374,-85.756,-137.695,34,36
60545,-0.759,-0.29,0.435,-95.366,25.458,-134.588,39,34
60590,-1.312,-0.732,0.422,-45.366,28.473,-81.092,44,32
60638,-0.849,-0.169,0.678,-48.015,-4.359,-90.924,50,30
60691,-1.065,-0.391,0.792,-111.137,-116.916,-95.992,0,28
60736,-0.547,-0.598,0.321,17.779,19.641,-68.313,46,27
60781,-0.768,-0.011,0.686,-52.435,65.176,-35.786,48,27
60827,-1.116,-0.881,0.807,-55.84,-106.886,-73.695,71,26
60873,-0.328,-0.606,0.142,8.046,-81.962,-53.649,68,25
60962,-0.871,-1.023,0.676,-46.45,-65.458,-55.718,68,28
61008,-0.168,-0.624,0.259,-0.649,-30.099,-48.855,68,23
61058,-0.63,-0.84,0.649,-77.008,0.962,-21.626,67,25
61104,-0.375,-0.951,0.431,-10.962,-41.099,-45.985,67,24
61149,-0.315,-0.463,0.421,-16.29,39.168,-26.489,67,23
61195,-0.824,-1.081,0.883,-52.954,-67.237,-31.626,67,22
61241,0.246,-0.821,0.063,25.206,-47.183,-43.794,67,24
61287,-0.284,-0.352,0.321,-30.336,141.191,5.84,68,22
61332,-1.14,-1.238,1.038,-30.214,-118.061,-41.74,68,21
61378,0.437,-0.918,-0.137,38.42,-101.679,-57.168,62,23
61423,-0.175,-0.351,0.26,-39.229,197.527,25.672,63,21
61472,-0.984,-1.241,1.041,-8.137,-102.298,-36.954,68,21
61517,0.459,-0.789,-0.242,36,-49.641,-29.16,62,21
61563,-0.433,-0.716,0.58,-46.511,113.901,25.611,68,21
61609,-0.593,-1.109,0.728,-1.595,-128.405,-38.069,68,22
61655,0.479,-0.746,-0.326,32.756,22.565,-15.153,63,21
61701,-0.817,-0.761,0.847,-54.718,93.374,29.763,68,20
61747,-0.448,-1.168,0.594,-0.366,-168.832,-21.107,68,20
61792,0.639,-0.39,-0.396,18.794,51.649,-1.466,62,21
61841,-1.039,-1.009,1.092,-65.718,50.305,20.656,69,20
61886,-0.211,-1.403,0.204,28.382,-194.061,-38.069,63,20
61932,0.644,-0.192,-0.572,18.779,150.45,11.962,62,20
61978,-1.173,-1.204,1.173,-42.115,74.802,13.443,68,20
62023,-0.081,-1.044,0.265,34.931,-158.656,-37.26,61,19
62068,0.376,-0.474,-0.181,-1.527,119.008,10.641,62,20
62114,-1.013,-1.147,1.033,-32.481,30.824,14.87,64,20
62159,-0.014,-1.012,0.292,37.954,-130.634,-22.878,62,20
62205,0.249,-0.458,0.005,-2.443,119.023,14.802,63,19
62254,-0.999,-1.113,1.058,-31.405,-41.198,2.924,63,20
62300,0.227,-1.082,0.103,37.992,-122.427,-21.511,61,21
62345,0.085,-0.351,0.063,-17.588,176.863,31.702,62,21
62391,-1.294,-1.143,1.248,-35.847,-95.84,-18.008,63,19
62436,0.383,-1.148,-0.082,42.58,-201.649,-48.847,59,21
62481,0.342,-0.31,-0.106,-12.344,190.702,29.611,61,20
62527,-1.231,-1.281,1.311,-23.618,-27.176,-7.252,61,21
62572,0.369,-1.02,-0.039,45.13,-169.771,-59.328,59,22
62621,0.09,-0.523,0.083,-26.206,201.092,31.145,60,21
62666,-1.118,-1.306,1.242,-8.191,-61.939,-7.443,61,21
62712,0.663,-0.859,-0.284,47.786,-100.603,-47.786,60,22
62758,-0.201,-0.471,0.236,-42.855,216.099,32.374,61,21
62803,-1.363,-1.339,1.338,-26.298,-195.481,-13.656,61,22
62850,1.043,-1.006,-0.494,58.374,-170.084,-45.885,59,23
62895,-0.083,-0.426,0.052,-29.015,250.13,58.527,64,21
62941,-1.604,-1.323,1.59,-8.099,-176.374,-19.916,61,21
62987,1.185,-0.853,-0.712,55.733,-189.977,-64.473,59,23
63035,-0.219,-0.506,0.076,-36.137,250.13,67.023,60,22
63081,-1.219,-1.326,1.411,6.664,-119.038,-15.298,66,23
63127,0.845,-0.746,-0.279,32.55,-108.252,-31.298,59,23
63173,-0.264,-0.785,0.517,-14.779,170.718,37.534,60,22
63218,-0.67,-1.132,0.936,17.947,-79.962,-11.679,61,23
63307,-0.601,-0.826,0.776,-14.198,67.183,23.366,60,25
63352,-0.206,-1.059,0.575,11.893,-152.168,-16.427,50,24
63398,0.802,-0.651,-0.236,25.969,85.351,-7.611,50,24
63447,-1.108,-1.036,1.184,-8.053,80.977,31.527,58,23
63492,-0.09,-0.934,0.465,27.008,-178.58,-24.847,47,24
63537,0.736,-0.602,-0.224,22.74,109.229,1,46,24
63582,-1.112,-0.885,1.231,-11.809,83.176,28.573,51,24
63628,-0.218,-0.998,0.529,23.069,-218.191,-30.84,51,26
63673,0.94,-0.596,-0.44,29.137,110.916,-3.748,47,29
63718,-1.199,-0.854,1.273,-13.29,141.427,37.26,50,25
63764,-0.368,-0.951,0.636,23.061,-229.847,-27.023,49,30
63809,1.009,-0.589,-0.357,29.237,89.42,1.863,50,29
63858,-1.172,-0.883,1.319,-4.595,120.679,32.565,50,28
63903,-0.275,-0.979,0.662,27.084,-206.046,-21.008,50,30
63949,0.855,-0.691,-0.066,34.427,83.153,2.74,51,30
63994,-0.926,-0.75,1.323,14.55,118.794,24.305,51,30
64040,-0.383,-0.97,0.851,39.954,-151.328,-12.916,47,31
64087,0.563,-0.603,0.242,49.107,45.534,6.817,51,34
64132,-0.542,-0.645,1.162,37.901,86.641,21.74,51,34
64178,-0.298,-0.841,0.985,54.466,-107.504,-0.557,51,34
64224,0.563,-0.482,0.166,70.588,46.183,-12.405,58,34
64274,-0.944,-0.558,1.315,12.092,57.901,28.137,58,34
64320,-0.054,-0.699,0.861,47.008,-188.962,-12.763,57,34
64366,0.76,-0.272,0.134,57.794,130.893,13.168,57,34
64413,-1.142,-0.464,1.558,18.977,87.107,46.061,59,34
64468,0.235,-0.526,0.728,58.237,-163.969,6.145,57,34
64514,0.228,-0.279,0.588,65.71,132.458,37.244,60,33
64560,-1.206,-0.425,1.609,17.649,5.405,44.893,61,33
64606,-0.026,-0.641,0.821,55.489,-191.634,4.13,60,33
64655,0.208,-0.203,0.557,58.55,108.229,35.237,61,32
64700,-1.065,-0.459,1.519,25.008,-12.038,37.779,63,33
64746,0.177,-0.439,0.726,62.046,-137.405,2.916,61,34
64792,0.184,-0.116,0.535,67.84,120.573,26.45,64,34
64838,-1.08,-0.293,1.457,16.702,-3.855,34.008,65,34
64892,0.111,-0.322,0.828,54.473,-144.466,6.802,0,35
64947,-0.026,0.041,0.769,42.519,133.924,28.031,0,34
65000,-0.963,-0.323,1.568,6.069,-97.42,13.947,0,36
65047,0.77,-0.015,0.446,72.687,-32.443,-5.008,67,36
65104,-0.668,0.11,1.205,23.802,133.053,34.092,0,37
65159,-0.24,-0.207,1.215,40.053,-160.145,-2.13,0,38
65205,0.395,0.175,0.584,62.237,103.924,14.771,70,39
65259,-0.975,0.051,1.478,15.969,31.443,32.947,0,39
65313,0.232,-0.017,0.739,57.557,-128.924,0.29,0,41
65369,-0.025,0.412,0.722,37.878,127.969,38.45,0,43
65423,-0.611,-0.046,1.434,22.634,-105.023,32.931,0,43
65477,0.738,0.303,0.321,80.992,48.832,20.87,0,47
65532,-0.995,0.537,1.42,-9.084,81.122,61.427,0,47
65590,0.44,0.134,0.791,48.679,-164.115,11.351,0,49
65645,0.122,0.612,0.577,38.13,185.786,52.389,0,51
65700,-0.742,0.131,1.443,3.473,-83.069,30.87,0,51
65799,-0.437,0.723,1.022,0.885,116.29,61.031,0,54
65854,0.007,0.21,1.033,24.962,-144.489,25.015,0,57
65909,0.28,0.72,0.532,25.13,115.595,43.809,0,57
65966,-0.642,0.197,1.488,-19.046,-107.557,39.053,0,71
66021,1.077,0.56,0.255,42.786,8.313,12.137,0,63
66077,-0.901,0.548,1.506,-23.069,67.053,53.359,0,77
66137,0.891,0.427,0.507,25.695,-113.756,2.939,0,78
66192,-0.246,0.879,0.917,12.511,169.359,42.122,165,79
66252,-0.173,0.276,1.087,-14.916,-200.87,7.71,171,172
66312,0.728,0.545,0.332,30.107,186.824,22.252,159,172
66372,-0.885,0.329,1.54,-28.87,-123.916,18.687,167,173
66426,1.384,0.615,-0.01,26.405,60.817,10.328,63,174
66486,-0.885,0.654,1.55,-14.977,79.763,34.679,157,174
66546,0.935,0.481,0.463,9.885,-132.305,-3.878,159,175
66606,-0.253,0.84,1.039,10.412,163.29,37.168,148,175
66668,0.37,0.389,0.792,-4.092,-167.305,-1.84,146,176
66726,0.232,0.586,0.714,30.397,171.901,23.168,145,163
66786,-0.556,0.328,1.305,-31.733,-192.84,16.527,147,177
66840,1.337,0.454,0.145,10.145,51.031,9.656,58,179
66894,-0.442,0.587,1.353,-7.046,41.183,13.626,61,178
66949,0.9,0.428,0.572,1.183,-63.725,-10.374,59,178
67007,0.044,0.64,1.051,20.168,103.137,-0.763,147,163
67062,0.264,0.398,0.903,-21.878,-103.328,-14.366,61,178
67121,0.641,0.413,0.558,22.26,118.473,-17.656,155,162
67183,-0.43,0.576,1.141,-40.42,-105.985,-12.137,147,176
67237,1.32,0.447,0.202,-2.748,12.977,-33.092,58,175
67297,-0.382,0.615,1.262,-8.183,91.855,-18.328,150,173
67351,0.616,0.359,0.559,-49.656,-149.847,-38.802,59,173
67409,0.409,0.333,0.73,-4.84,146.458,-32.595,0,101
67466,-0.371,0.545,0.978,-65.092,-67.832,-34.565,178,80
67515,0.974,0.207,0.45,-38.748,-24.092,-46.794,76,65
67571,-0.195,0.636,1.005,-25.412,145.679,-35.74,0,73
67622,-0.031,0.08,1.092,-79.046,-152.435,-38.031,75,61
67679,0.724,0.12,0.549,-18.664,97.206,-30.183,0,58
67734,-0.788,0.538,1.368,-67.847,22.13,-20.878,0,57
67782,0.704,-0.03,0.775,-50.672,-96.718,-35.183,67,55
67829,0.055,0.159,0.844,-12.679,188.969,-31.679,60,52
67876,-0.812,0.281,1.37,-72.466,-16.229,-29.626,66,51
67924,0.494,-0.155,0.923,-55.962,-82.443,-38.702,65,49
67972,0.161,-0.095,0.728,-9.763,186.168,-40.397,64,47
68026,-0.834,0.142,1.186,-63.695,52.947,-42.611,0,44
68076,0.317,-0.229,0.888,-45.71,-18.863,-56.573,62,44
68131,-0.275,0.152,0.83,-33.061,165.191,-48.565,0,42
68186,-0.801,-0.15,1.462,-92.618,-62.366,-35.26,0,40
68233,0.534,-0.23,0.362,-32.588,58.145,-46.115,60,37
68280,-0.914,-0.049,1.092,-65.061,203.618,-11.718,66,36
68326,-1.017,-0.567,1.52,-99.542,-159.313,-42.649,60,36
68372,0.818,-0.32,0.336,-25.053,-39.58,-40.382,61,35
68419,-0.625,-0.26,0.919,-43.321,217.58,-16.878,62,33
68468,-1.187,-0.647,1.375,-76.84,-117.061,-37.099,63,32
68558,-0.365,-0.481,0.761,-39.458,168.115,-9.275,63,31
68604,-1.09,-0.505,1.398,-76.351,-49.847,-17.374,64,29
68651,0.246,-0.674,0.591,-30.733,-126.679,-35.779,64,29
68698,-0.036,-0.54,0.487,-19.366,154.878,-19.214,65,29
68744,-1.038,-0.621,1.192,-57.565,48.58,-21.733,66,28
68790,-0.094,-0.82,0.686,-34.26,-111.595,-51.328,66,27
68836,0.22,-0.752,0.17,-14.412,160.191,-27.053,67,26
68883,-0.995,-0.55,1.142,-58.328,94.061,-16.458,69,25
68941,0.134,-0.763,0.427,-31.878,-102.802,-56.847,67,25
68989,-0.06,-0.814,0.165,-12.817,191.191,-17.008,70,24
69038,-1.214,-0.809,1.18,-50.794,5.695,-22.71,71,22
69087,0.181,-0.813,0.312,-18.565,-133.099,-40.092,71,24
69135,0.171,-0.829,-0.1,7.962,225.29,-7.534,72,19
69183,-1.25,-0.878,1.23,-55.351,103.87,-3.061,73,16
69231,-0.079,-0.91,0.492,-8.878,-140.756,-55.954,73,16
69280,0.54,-0.552,-0.49,2.534,250.13,-9.649,75,16
69331,-1.56,-0.911,1.15,-27.519,145.015,-5.786,80,16
69381,-0.427,-0.838,0.312,2.305,-168.198,-55.328,79,17
69430,0.517,-0.705,-0.385,17.038,109.321,-17.42,80,37
69494,-1.126,-0.841,0.857,-44.962,181,20.985,0,160
69558,-0.107,-1.024,0.109,33.672,-118.435,-41.305,0,160
69621,-0.612,-0.647,0.142,-13.099,249.908,37.924,0,147
69685,-0.69,-0.989,0.379,14.198,-107.733,-44.214,0,144
69746,0.111,-0.726,-0.461,15.42,220.389,-8.84,188,136
69807,-1.374,-1.254,1.276,-22.252,-105.664,-42.046,162,137
69873,0.709,-0.634,-0.419,22.092,-41.45,-53.87,0,139
69933,-0.949,-1.158,0.784,-43.763,121.389,2.183,158,138
69994,-0.107,-0.984,0.057,20.947,-113.42,-20.534,158,141
70054,-0.171,-0.835,0.24,-37.26,87.802,-10.42,155,141
70115,-0.209,-1.028,0.332,17.115,-106.473,-19.794,154,143
70175,0.383,-0.638,-0.24,-5.84,175.023,10.29,152,144
70236,-0.849,-1.1,0.887,-6.473,-130.718,-22.87,151,146
70296,0.795,-0.719,-0.698,22.718,81.664,-15.908,150,146
70360,-1.652,-1.099,1.445,-38.893,104.557,30.763,149,145
70420,0.223,-1.053,-0.257,41.962,-240.26,-29.496,148,151
70480,0.16,-0.58,-0.308,-29.244,250.13,49.168,146,148
70541,-1.08,-0.948,0.99,5.153,-191.992,-26.916,145,151
70596,0.844,-0.677,-0.822,11.359,16.992,-12.153,144,54
70657,-1.237,-1.202,1,-47.153,168.504,33.13,142,153
70717,-0.245,-1.158,0.044,20.489,-250.137,-27.992,140,157
70777,0.808,-0.67,-0.641,-7.443,205.069,19.16,139,157
70841,-1.598,-1.3,1.272,-9.214,-111.802,-26.473,137,159
70902,0.916,-0.669,-0.783,26.336,-114.802,-27.496,137,165
70961,-0.686,-0.767,0.433,-31.382,250.13,47.397,134,132
71016,-0.689,-0.799,0.412,12.023,-241.679,-23.725,133,63
71076,0.753,-0.46,-0.666,1.221,40.763,4.71,132,165
71143,-1.414,-0.864,1.202,-29.214,73.176,16.107,129,166
71203,0.218,-1.426,-0.599,16,-217.557,-21.099,128,182
71258,0.315,-1.156,-0.457,-16.954,250.13,62.718,126,74
71312,-1.613,-1.285,1.47,-5.298,-49.336,-17.779,125,72