Timestamp(ms),AccelX(g),AccelY(g),AccelZ(g),GyroX(deg/s),GyroY(deg/s),GyroZ(deg/s),DistanceLeft(cm),DistanceRight(cm)
33437,-0.322,-0.294,0.898,-0.748,-1.504,-0.260,0.0,56.0
33488,-0.296,-0.303,0.887,-0.733,-2.718,0.038,0.0,57.0
33531,-0.286,-0.296,0.887,-0.008,-0.115,-0.527,39.0,57.0
33584,-0.312,-0.302,0.896,0.160,0.603,-0.786,0.0,56.0
33635,-0.301,-0.304,0.890,-0.313,-0.061,-0.305,0.0,57.0
33687,-0.312,-0.301,0.897,0.527,0.221,-0.328,0.0,57.0
33739,-0.297,-0.300,0.888,0.359,1.634,0.092,0.0,57.0
33790,-0.311,-0.303,0.903,0.863,2.779,0.046,0.0,56.0
33846,-0.309,-0.302,0.895,0.931,1.374,0.275,0.0,56.0
33897,-0.315,-0.302,0.888,1.015,1.534,0.260,0.0,57.0
33949,-0.316,-0.298,0.891,0.733,2.305,0.626,0.0,56.0
34001,-0.318,-0.294,0.895,0.771,1.733,0.252,0.0,56.0
34053,-0.316,-0.299,0.884,1.382,1.870,0.122,0.0,57.0
34105,-0.328,-0.301,0.886,1.595,2.321,0.023,0.0,56.0
34157,-0.325,-0.293,0.885,1.069,1.435,-0.435,0.0,58.0
34208,-0.328,-0.294,0.884,0.618,0.176,-0.313,0.0,56.0
34260,-0.325,-0.288,0.898,0.832,1.511,-0.130,0.0,56.0
34316,-0.342,-0.288,0.893,0.557,-0.466,-0.634,0.0,57.0
34367,-0.328,-0.298,0.894,-0.099,-2.046,-1.198,0.0,57.0
34419,-0.186,-0.210,0.824,5.122,3.244,-6.252,0.0,57.0
34471,-0.452,-0.144,1.120,-17.611,0.771,-44.435,0.0,56.0
34524,-0.239,-0.733,0.541,-23.855,82.076,-28.939,0.0,56.0
34579,-0.521,-0.157,0.988,34.260,13.893,28.397,0.0,58.0
34631,-0.403,-0.279,0.791,9.176,-58.511,-19.519,0.0,55.0
34683,-0.318,-0.185,0.969,-3.779,-5.122,-2.748,0.0,56.0
34736,-0.288,-0.387,0.814,1.290,-11.405,-2.427,0.0,55.0
34791,-0.340,-0.335,0.864,1.023,-7.252,7.282,0.0,56.0
34842,-0.320,-0.241,0.911,0.573,-4.053,6.985,0.0,55.0
34898,-0.308,-0.286,0.902,-3.733,-7.382,1.099,0.0,55.0
34950,-0.290,-0.354,0.877,-4.397,-4.214,1.008,0.0,56.0
35002,-0.265,-0.324,0.855,0.878,0.947,1.931,0.0,55.0
35054,-0.337,-0.324,0.903,0.374,7.542,4.061,0.0,56.0
35106,-0.338,-0.305,0.873,1.962,3.130,1.450,0.0,55.0
35158,-0.343,-0.337,0.888,1.412,2.069,0.267,0.0,55.0
35210,-0.287,-0.281,0.864,3.160,5.496,3.160,0.0,55.0
35265,-0.360,-0.310,0.896,2.847,4.275,-1.458,0.0,55.0
35317,-0.484,-0.290,0.885,-5.901,-5.115,8.534,0.0,56.0
35369,-0.427,-0.268,0.943,-22.832,-59.221,18.763,0.0,55.0
35422,0.134,-0.317,0.911,-14.519,-19.832,-22.802,0.0,56.0
35474,-0.268,-0.347,0.817,4.313,66.473,-53.588,0.0,56.0
35526,-0.814,-0.327,1.042,-24.977,-33.718,0.069,0.0,55.0
35578,0.105,-0.545,0.732,-19.275,-104.878,25.595,0.0,55.0
35631,-0.083,-0.351,0.761,21.252,78.420,-38.092,0.0,55.0
35683,-0.852,-0.234,1.225,-19.771,-51.359,18.748,0.0,55.0
35738,0.343,-0.620,0.499,0.786,-50.947,-1.000,0.0,55.0
35789,-0.427,-0.143,1.001,2.275,48.412,-3.809,0.0,55.0
35843,-0.119,-0.479,0.959,-11.924,-70.099,28.038,0.0,57.0
35895,0.126,-0.386,0.724,23.107,80.504,-24.702,0.0,55.0
35947,-0.769,-0.235,1.199,-8.458,6.252,8.092,0.0,56.0
35999,-0.086,-0.444,0.808,-14.466,-72.679,15.969,0.0,56.0
36093,-0.302,-0.369,0.940,5.756,17.267,-6.947,0.0,56.0
36146,-0.217,-0.363,0.894,4.290,5.519,-3.924,0.0,56.0
36198,-0.192,-0.376,0.909,3.130,2.840,-4.473,0.0,56.0
36253,-0.185,-0.370,0.887,3.206,10.740,-0.023,0.0,56.0
36305,-0.218,-0.369,0.899,0.893,12.267,2.702,0.0,55.0
36358,-0.252,-0.380,0.895,0.328,9.832,1.412,0.0,55.0
36410,-0.268,-0.361,0.896,1.061,8.405,-0.786,0.0,55.0
36462,-0.276,-0.365,0.885,1.954,5.053,-2.137,0.0,55.0
36514,-0.280,-0.360,0.895,0.924,-1.878,-1.855,0.0,55.0
36567,-0.251,-0.352,0.894,-0.908,-4.947,-0.450,0.0,56.0
36620,-0.230,-0.369,0.877,-1.412,-3.542,0.229,0.0,55.0
36672,-0.246,-0.376,0.888,-0.450,-0.450,0.473,0.0,55.0
36727,-0.253,-0.372,0.895,0.099,-3.473,-0.740,0.0,56.0
36780,-0.234,-0.371,0.898,0.542,-2.481,-1.153,0.0,55.0
36832,-0.229,-0.362,0.894,1.069,-0.275,-1.221,0.0,56.0
36884,-0.243,-0.361,0.893,0.641,3.168,-0.511,0.0,55.0
36936,-0.262,-0.359,0.889,0.756,1.099,-0.275,0.0,55.0
36988,-0.259,-0.360,0.893,0.237,-1.985,-0.954,0.0,55.0
37041,-0.229,-0.368,0.886,0.366,-5.618,-2.115,0.0,55.0
37093,-0.241,-0.377,0.893,0.305,-3.672,-2.244,0.0,55.0
37145,-0.241,-0.365,0.895,-0.435,-2.603,-0.214,0.0,55.0
37198,-0.250,-0.365,0.887,-0.702,-4.527,0.198,0.0,56.0
37254,-0.233,-0.372,0.891,0.611,-3.649,0.466,0.0,56.0
37306,-0.245,-0.371,0.897,-0.221,-5.061,0.031,0.0,56.0
37358,-0.221,-0.363,0.904,-0.145,-10.672,-1.191,0.0,56.0
37411,-0.206,-0.343,0.909,-0.275,-8.053,-0.794,0.0,56.0
37464,-0.208,-0.334,0.906,-1.198,-4.863,0.641,0.0,56.0
37516,-0.240,-0.333,0.911,-3.046,-1.962,3.588,0.0,57.0
37568,-0.259,-0.356,0.908,-4.626,-9.863,5.359,0.0,57.0
37621,-0.223,-0.370,0.896,-5.137,-13.160,7.084,0.0,57.0
37673,-0.188,-0.380,0.885,-4.458,-12.901,8.595,0.0,59.0
37730,-0.176,-0.382,0.892,-4.122,-8.985,9.794,0.0,59.0
37782,-0.180,-0.377,0.882,-3.519,-5.412,11.031,0.0,59.0
37835,-0.187,-0.386,0.915,-4.130,-8.924,10.527,0.0,60.0
37888,-0.132,-0.408,0.917,-3.519,-13.435,8.176,0.0,61.0
37941,-0.099,-0.410,0.892,-2.427,-5.412,6.626,0.0,60.0
37994,-0.139,-0.440,0.917,-2.412,-9.580,1.412,0.0,61.0
38046,-0.078,-0.471,0.955,-11.168,-39.893,-15.863,0.0,60.0
38099,0.091,-0.491,0.878,-19.947,-46.908,-27.649,0.0,60.0
38152,0.146,-0.541,0.927,-29.847,9.611,-37.664,0.0,59.0
38208,0.333,-0.501,0.903,-37.962,63.962,-64.260,0.0,56.0
38260,0.251,-0.336,0.967,-63.176,169.252,-101.382,0.0,54.0
38317,-0.061,-0.850,1.378,-44.885,123.168,-136.886,0.0,49.0
38369,-0.461,-1.370,0.945,58.038,-19.893,-250.137,0.0,45.0
38424,0.116,-0.641,0.571,84.779,-28.519,-204.740,0.0,107.0
38479,0.168,-0.429,0.363,54.786,41.542,-97.557,0.0,103.0
38535,-0.068,-0.416,0.462,51.420,61.473,-88.618,0.0,100.0
38596,-0.104,-0.318,0.391,52.565,66.420,-117.870,0.0,0.0
38645,-0.168,-0.179,0.493,29.725,69.298,-106.939,187.0,0.0
38700,-0.293,-0.150,0.519,15.679,73.160,-100.534,82.0,0.0
38797,-0.428,-0.020,0.562,-34.023,-5.015,-25.084,78.0,0.0
38851,-0.399,-0.093,0.477,-71.603,-46.298,9.351,75.0,0.0
38904,-0.370,-0.133,0.362,-127.420,-72.924,25.985,71.0,0.0
38952,-0.339,-0.413,0.656,-198.557,-113.214,50.435,67.0,106.0
39000,0.070,-1.243,-0.105,-139.840,-96.939,55.687,63.0,98.0
39044,0.551,-0.890,0.319,-77.298,19.916,80.221,60.0,38.0
39088,-0.497,-1.867,1.326,-250.137,-101.160,93.053,59.0,44.0
39138,0.073,-2.000,-0.213,-160.122,-207.046,115.023,106.0,50.0
39183,0.358,-1.568,0.188,8.427,-154.023,81.664,57.0,57.0
39229,0.351,-1.108,0.025,-23.756,-83.542,103.023,57.0,95.0
39277,0.187,-1.249,0.029,-28.519,-14.221,109.519,53.0,115.0
39320,0.056,-1.203,0.104,43.374,5.221,74.748,54.0,33.0
39367,0.084,-1.148,0.282,110.443,-8.198,78.489,136.0,33.0
39410,0.112,-1.096,0.199,149.015,-12.863,95.496,52.0,33.0
39453,-0.065,-1.204,0.325,171.603,-9.687,72.718,52.0,32.0
39500,-0.356,-1.195,0.288,198.855,-27.298,-2.557,53.0,31.0
39543,-0.390,-0.515,0.428,161.519,15.176,-131.809,58.0,31.0
39590,-0.332,-1.138,0.513,72.053,132.954,-176.099,92.0,69.0
39638,-0.734,-0.916,0.664,57.641,183.099,-124.305,94.0,65.0
39687,-0.425,-0.465,0.877,60.916,73.710,-65.977,128.0,63.0
39736,-0.364,-1.053,0.662,78.008,-37.237,-69.328,129.0,62.0
39785,-0.283,-1.022,0.503,76.313,-26.802,-205.359,131.0,59.0
39828,-0.123,-0.829,0.801,4.221,21.015,-250.137,29.0,60.0
39871,-0.102,-0.741,1.126,-32.504,6.878,-250.137,26.0,57.0
39918,-0.126,-0.938,1.367,-32.573,-84.672,-249.038,27.0,70.0
39968,0.257,-0.999,1.056,32.573,-110.695,-250.137,33.0,66.0
40019,0.434,-0.952,0.737,41.565,-40.718,-250.137,38.0,0.0
40071,0.272,-0.604,0.792,25.802,18.206,-225.557,43.0,0.0
40122,0.247,-0.755,0.475,44.573,45.267,-197.580,44.0,0.0
40160,0.407,0.145,0.182,92.084,109.962,-119.191,50.0,0.0
40211,0.419,0.695,0.545,56.954,170.244,-18.565,51.0,0.0
40249,0.205,0.038,0.828,2.718,100.038,37.382,48.0,0.0
40299,0.137,-0.372,0.760,54.947,49.473,-6.275,51.0,180.0
40353,0.333,0.202,0.791,92.947,12.069,-26.344,50.0,0.0
40391,0.309,0.443,0.812,39.145,10.794,-43.847,56.0,0.0
40442,0.338,0.360,0.806,10.405,27.840,-59.664,60.0,190.0
40489,0.195,0.290,0.931,1.237,60.595,-86.817,57.0,114.0
40538,0.152,0.421,0.750,15.847,104.924,-91.275,68.0,115.0
40588,-0.093,0.435,0.747,4.389,143.328,-64.679,115.0,108.0
40636,-0.312,0.392,0.863,0.565,114.359,-40.534,109.0,94.0
40685,-0.417,0.431,0.732,10.191,80.275,-15.740,120.0,88.0
40737,-0.488,0.460,0.719,-20.527,19.267,11.481,113.0,88.0
40787,-0.513,0.271,0.727,-65.344,-52.962,25.504,134.0,86.0
40836,-0.322,0.126,0.715,-78.611,-61.573,42.840,112.0,87.0
40885,-0.344,0.127,1.018,-89.809,-56.626,72.359,120.0,87.0
40932,-0.619,-0.223,2.000,-98.290,-203.832,91.053,78.0,93.0
40978,0.799,-0.613,0.844,72.878,-178.679,-26.427,44.0,109.0
41023,0.823,0.360,0.419,22.351,16.664,-5.656,39.0,95.0
41068,0.118,0.018,0.624,-21.573,149.954,0.595,39.0,93.0
41117,-0.161,0.056,1.115,-4.412,74.000,15.771,107.0,91.0
41211,0.314,-0.014,1.138,12.267,-90.473,-32.885,107.0,95.0
41261,0.357,0.037,1.040,8.718,-21.099,-45.382,107.0,97.0
41309,0.091,0.044,1.080,15.588,-6.763,-37.374,98.0,93.0
41359,0.060,0.352,1.100,34.038,-19.649,-17.779,107.0,116.0
41409,0.286,0.266,0.606,44.489,17.038,31.687,105.0,116.0
41459,-0.118,0.351,1.044,31.137,36.366,23.924,105.0,111.0
41509,0.065,0.131,0.828,27.214,-11.420,14.656,109.0,114.0
41560,0.534,0.213,0.745,13.130,-30.771,85.603,109.0,126.0
41615,0.602,0.080,0.741,8.168,2.504,42.260,104.0,0.0
41669,0.576,0.129,0.863,-22.267,-2.145,-41.656,122.0,116.0
41720,0.227,0.179,0.959,-27.076,12.466,-100.168,103.0,138.0
41769,-0.049,0.224,1.198,-42.122,-65.237,-65.145,103.0,94.0
41819,0.260,0.162,0.982,-2.328,-102.748,-3.275,105.0,108.0
41870,0.451,0.212,0.979,3.450,-51.534,11.160,106.0,135.0
41917,0.409,0.203,0.855,23.939,7.595,30.252,30.0,134.0
41968,0.521,0.201,0.552,16.389,21.473,50.977,107.0,132.0
42018,0.385,0.274,0.752,-31.656,50.908,33.275,108.0,115.0
42068,0.092,-0.122,1.168,-50.443,-6.412,-21.672,109.0,112.0
42122,0.324,-0.040,1.385,-11.473,-82.534,-30.107,109.0,112.0
42173,0.525,-0.033,1.016,36.267,7.649,-33.985,113.0,107.0
42223,0.231,0.292,0.669,66.153,151.122,15.389,110.0,116.0
42273,0.023,0.280,0.786,35.321,162.366,92.504,109.0,112.0
42321,-0.281,0.110,1.128,13.244,50.893,50.275,72.0,109.0
42371,0.304,0.128,1.162,-11.053,-117.191,54.702,72.0,132.0
42420,0.977,0.003,0.945,29.840,-125.389,-11.847,85.0,126.0
42470,1.254,0.173,0.477,46.046,12.954,-45.351,85.0,136.0
42524,0.434,0.178,0.368,18.298,180.733,-89.756,115.0,109.0
42571,-0.420,0.313,0.630,14.252,166.779,-78.901,79.0,83.0
42617,-0.660,0.529,1.047,-29.611,36.832,-64.817,82.0,80.0
42664,-0.500,0.309,1.212,-46.298,-71.198,-35.565,85.0,79.0
42712,-0.217,0.121,1.233,-11.511,-73.748,-8.626,85.0,78.0
42759,0.014,0.168,1.212,14.771,-45.374,25.702,85.0,77.0
42806,0.123,0.239,0.983,36.046,-23.405,28.122,86.0,78.0
42851,0.285,0.333,0.651,30.954,9.176,13.290,85.0,59.0
42898,0.159,0.419,0.669,-2.771,38.763,-12.160,85.0,77.0
42947,0.073,0.258,0.935,-27.046,-9.542,-16.977,85.0,57.0
42993,0.022,0.118,1.274,-17.985,-50.893,-50.023,87.0,77.0
43039,0.334,0.099,1.237,14.496,-56.977,-43.038,90.0,55.0
43086,0.452,0.222,0.956,60.099,14.206,-32.099,118.0,51.0
43132,0.170,0.340,0.585,63.618,117.939,-38.046,91.0,49.0
43179,-0.316,0.561,0.559,41.786,158.855,-42.122,93.0,47.0
43224,-0.548,0.619,0.616,4.450,93.145,-21.969,94.0,47.0
43271,-0.470,0.585,0.655,-41.137,-10.954,-0.122,94.0,58.0
43317,-0.277,0.471,0.840,-75.855,-77.405,10.008,94.0,68.0
43367,-0.124,0.233,1.028,-77.137,-116.420,11.084,96.0,68.0
43414,0.027,0.168,1.133,-55.229,-111.511,-3.725,95.0,69.0
43462,0.193,0.115,1.139,-36.260,-76.832,-8.870,121.0,50.0
43509,0.157,0.123,1.182,0.901,-32.771,-18.832,123.0,48.0
43557,0.317,0.226,0.927,25.840,7.145,-14.534,124.0,47.0
43598,0.057,0.211,0.902,3.275,83.489,-22.160,20.0,47.0
43688,-0.269,0.218,0.986,-11.130,-1.511,-4.771,115.0,46.0
43736,-0.059,0.155,0.960,-24.321,-58.947,18.344,113.0,47.0
43784,0.217,0.087,0.998,-19.137,-54.771,23.908,133.0,49.0
43830,0.382,-0.007,1.111,4.481,-10.626,18.817,131.0,49.0
43879,0.205,0.005,1.209,36.557,52.405,-4.176,158.0,50.0
43928,-0.159,0.270,1.203,55.687,55.702,-6.939,121.0,69.0
43977,-0.101,0.467,0.844,61.366,25.366,18.191,131.0,69.0
44024,0.148,0.384,0.440,32.267,33.634,28.840,94.0,70.0
44071,0.005,0.396,0.632,-11.542,40.679,-2.817,93.0,69.0
44119,-0.025,0.289,0.821,-44.679,-25.588,2.053,93.0,70.0
44165,-0.010,0.162,1.081,-58.435,-85.679,-12.496,95.0,55.0
44215,0.222,0.137,1.151,-41.023,-99.290,-21.092,95.0,71.0
44258,0.393,0.056,1.115,-4.870,-28.840,-19.244,19.0,71.0
44301,0.231,0.098,1.108,24.443,53.870,-16.863,19.0,70.0
44349,-0.073,0.241,1.171,42.115,76.443,-0.710,122.0,54.0
44398,-0.162,0.317,1.010,49.832,41.595,14.931,126.0,69.0
44445,-0.030,0.418,0.714,37.618,19.183,21.313,96.0,69.0
44492,0.021,0.455,0.617,8.145,21.221,12.603,95.0,68.0
44539,-0.065,0.344,0.701,-22.321,6.893,-12.115,95.0,69.0
44587,-0.055,0.327,0.860,-44.863,-36.412,-10.725,95.0,69.0
44638,0.072,0.252,0.960,-50.924,-59.863,1.626,123.0,49.0
44687,0.139,0.097,1.139,-43.519,-33.718,-0.588,142.0,48.0
44735,0.103,-0.002,1.340,-11.221,-16.099,-6.656,132.0,49.0
44783,0.153,0.063,1.167,35.069,-2.863,-10.817,125.0,48.0
44831,0.138,0.262,0.938,45.000,43.435,0.389,133.0,47.0
44879,-0.023,0.302,0.859,31.710,55.962,5.916,145.0,48.0
44928,-0.097,0.370,0.819,13.198,23.305,8.634,122.0,49.0
44976,-0.041,0.354,0.735,-12.603,-9.885,5.237,123.0,47.0
45023,-0.016,0.325,0.842,-35.977,-35.962,0.000,123.0,49.0
45074,0.065,0.208,0.970,-40.725,-49.931,-1.000,124.0,48.0
45122,0.221,0.145,1.131,-27.870,-35.786,1.992,124.0,46.0
45164,0.241,-0.029,1.253,-1.710,22.794,-20.916,20.0,47.0
45211,0.078,0.049,1.295,32.015,41.550,-25.870,119.0,46.0
45259,0.037,0.155,1.075,57.031,41.481,-16.969,127.0,45.0
45306,0.001,0.305,0.792,58.931,57.244,-12.573,126.0,44.0
45355,-0.085,0.478,0.683,36.969,58.130,-3.641,127.0,43.0
45403,-0.153,0.470,0.609,3.847,38.626,4.710,138.0,43.0
45451,-0.249,0.438,0.738,-31.374,-4.015,-1.542,128.0,50.0
45502,-0.267,0.353,0.999,-51.618,-64.115,-13.840,127.0,42.0
45549,-0.062,0.212,1.038,-42.481,-77.977,-10.282,120.0,42.0
45597,0.040,0.100,1.193,-19.802,-34.206,-6.305,119.0,42.0
45644,0.025,0.092,1.200,11.725,3.519,8.420,119.0,42.0
45692,-0.034,0.148,1.110,31.023,17.168,15.366,136.0,44.0
45740,-0.052,0.265,0.998,36.176,10.832,24.069,119.0,43.0
45788,-0.091,0.119,1.086,30.878,-25.168,33.710,126.0,44.0
45835,0.126,0.225,0.896,45.733,-44.611,28.519,99.0,67.0
45885,0.236,0.382,0.806,46.878,-6.321,29.000,134.0,69.0
45934,0.114,0.447,0.819,37.916,16.198,18.725,96.0,48.0
45980,0.097,0.493,0.772,23.679,6.954,10.649,95.0,47.0
46026,0.091,0.458,0.759,11.229,-6.725,10.962,95.0,45.0
46116,0.125,0.407,0.827,-10.611,-29.519,2.267,95.0,46.0
46162,0.219,0.380,0.768,-9.046,-28.763,15.031,96.0,47.0
46217,0.202,0.383,0.879,-13.466,-9.725,12.160,95.0,101.0
46258,0.190,0.412,0.912,-13.244,-5.557,7.466,21.0,46.0
46299,0.244,0.323,0.852,-8.954,1.168,5.672,23.0,45.0
46346,0.211,0.411,0.879,-3.771,26.122,4.962,120.0,45.0
46395,0.163,0.271,0.881,-4.084,24.366,5.771,120.0,43.0
46440,0.146,0.384,0.965,11.733,53.855,4.206,98.0,44.0
46485,-0.014,0.346,1.102,12.626,50.321,9.244,98.0,43.0
46530,-0.072,0.286,1.075,39.992,25.847,16.244,98.0,41.0
46575,-0.179,0.385,1.072,49.748,-9.015,22.802,98.0,41.0
46620,-0.033,0.428,0.850,59.191,-24.328,37.962,98.0,40.0
46665,0.044,0.569,0.845,63.000,-10.458,41.458,98.0,39.0
46710,0.123,0.590,0.797,52.046,7.366,43.298,98.0,39.0
46754,0.188,0.564,0.752,57.802,24.580,51.939,97.0,39.0
46800,0.195,0.601,0.721,56.931,26.603,53.962,62.0,40.0
46843,0.205,0.606,0.736,58.672,25.450,41.969,59.0,41.0
46886,0.077,0.625,0.701,56.389,-8.595,28.489,58.0,42.0
46928,0.175,0.802,0.652,45.794,-35.603,10.260,59.0,34.0
46971,0.254,0.776,0.567,20.519,-33.916,9.908,60.0,31.0
47015,0.273,0.773,0.598,17.718,-26.160,-1.168,98.0,31.0
47063,0.332,0.749,0.588,10.519,-13.794,-4.282,141.0,30.0
47106,0.290,0.714,0.578,16.725,-0.878,-4.084,57.0,31.0
47148,0.255,0.664,0.656,15.634,-6.985,-13.664,57.0,31.0
47193,0.323,0.769,0.527,16.344,7.435,-20.885,57.0,31.0
47235,0.236,0.773,0.568,8.885,29.031,-22.901,57.0,34.0
47278,0.159,0.860,0.573,1.924,29.321,-26.458,59.0,36.0
47321,0.135,0.851,0.571,-7.618,22.649,-29.695,59.0,36.0
47364,0.136,0.833,0.518,-16.550,13.160,-35.687,59.0,41.0
47407,0.175,0.795,0.479,-28.954,19.626,-41.656,61.0,37.0
47450,0.122,0.741,0.512,-39.756,27.695,-49.305,59.0,36.0
47492,0.113,0.695,0.526,-48.389,33.473,-59.916,63.0,36.0
47538,0.003,0.616,0.616,-52.046,40.176,-72.626,106.0,32.0
47588,-0.041,0.551,0.697,-50.832,37.916,-81.611,141.0,31.0
47635,-0.215,0.605,0.788,-46.763,33.611,-89.489,143.0,29.0
47682,-0.461,0.719,1.045,-70.435,-0.527,-90.649,144.0,26.0
47729,-0.271,0.324,0.780,-48.053,-23.626,-90.679,147.0,25.0
47779,-0.344,0.407,0.901,-41.802,-12.092,-82.702,0.0,23.0
47834,-0.313,0.325,0.817,-47.489,-14.672,-74.015,0.0,23.0
47884,-0.390,0.282,0.877,-46.794,5.542,-60.710,0.0,21.0
47937,-0.426,0.250,0.879,-45.649,-4.695,-57.237,0.0,20.0
47990,-0.389,0.193,0.880,-50.069,-19.924,-57.664,0.0,20.0
48045,-0.406,0.153,0.942,-50.458,-33.344,-56.206,0.0,19.0
48084,-0.329,0.032,0.985,-46.214,-39.061,-57.840,16.0,19.0
48135,-0.227,-0.006,0.995,-42.099,-37.641,-60.115,0.0,24.0
48188,-0.210,-0.156,1.023,-33.542,-6.573,-73.244,0.0,17.0
48238,-0.072,-0.130,0.890,-4.130,98.649,-66.183,0.0,18.0
48291,-0.418,-0.103,0.914,18.229,138.069,-40.008,0.0,15.0
48342,-0.627,-0.117,0.846,21.641,122.435,-31.656,0.0,13.0
48392,-0.683,-0.078,0.725,26.855,110.496,-28.557,0.0,11.0
48487,-0.897,-0.035,0.668,17.458,34.870,-12.985,0.0,10.0
48537,-0.718,0.004,0.423,0.802,47.664,-0.885,0.0,8.0
48586,-0.793,-0.041,0.639,3.748,44.679,1.206,0.0,6.0
48635,-0.841,-0.035,0.602,0.481,20.237,-0.511,0.0,11.0
48686,-0.790,-0.053,0.580,0.443,15.763,-0.282,0.0,10.0
48735,-0.768,-0.043,0.549,-0.168,16.573,-1.595,0.0,6.0
48784,-0.816,-0.046,0.561,1.389,5.397,2.038,0.0,4.0
48833,-0.800,-0.051,0.559,-0.389,-4.183,-1.053,0.0,5.0
48883,-0.779,-0.048,0.559,0.084,-0.366,-0.580,0.0,5.0
48935,-0.801,-0.053,0.562,0.031,0.160,-0.137,0.0,5.0
48985,-0.795,-0.054,0.559,0.038,-1.076,-0.099,0.0,5.0
49034,-0.786,-0.052,0.556,-0.603,-1.656,0.481,0.0,5.0
49084,-0.786,-0.035,0.576,-0.282,3.450,-0.870,0.0,5.0
49133,-0.766,-0.065,0.594,4.321,3.168,-2.260,0.0,4.0
49182,-0.833,-0.169,0.520,17.992,12.130,-4.008,0.0,5.0
49231,-0.886,0.063,0.512,15.702,-8.588,-12.252,0.0,4.0
49282,-0.746,-0.089,0.527,10.435,-20.244,-12.695,0.0,5.0
49332,-0.767,-0.038,0.625,7.198,-16.061,-8.954,0.0,10.0
49381,-0.738,-0.045,0.568,3.626,0.664,-5.634,0.0,11.0
49434,-0.806,-0.063,0.579,3.015,3.031,-3.664,0.0,12.0
49484,-0.791,-0.053,0.567,2.153,3.221,-1.023,0.0,13.0
49533,-0.780,-0.052,0.578,-0.137,-1.550,-1.252,0.0,12.0
49584,-0.787,-0.023,0.585,0.947,-2.008,5.847,0.0,13.0
49633,-0.857,-0.076,0.555,2.046,3.573,-4.603,0.0,5.0
49683,-0.788,-0.048,0.584,-1.603,-3.611,-0.718,0.0,13.0
49732,-0.761,-0.051,0.588,1.137,1.176,3.550,0.0,5.0
49782,-0.802,-0.090,0.613,-0.107,-0.969,-0.817,0.0,5.0
49831,-0.862,-0.024,0.588,-0.053,2.748,2.015,0.0,5.0
49885,-0.722,-0.150,0.532,0.466,1.832,-0.252,0.0,5.0
49934,-0.849,0.011,0.601,2.420,-2.153,-5.107,0.0,5.0
49983,-0.830,-0.047,0.559,-0.412,-6.786,-2.252,0.0,5.0
50033,-0.804,0.004,0.584,-3.870,-12.588,2.458,0.0,7.0
50083,-0.765,-0.014,0.561,-14.527,-16.855,12.611,0.0,8.0
50132,-0.706,-0.048,0.544,-22.924,8.504,18.198,0.0,7.0
50183,-0.823,-0.198,0.515,-5.031,29.908,7.779,0.0,9.0
50232,-0.781,-0.043,0.523,-4.519,32.908,9.221,0.0,5.0
50282,-0.835,-0.042,0.513,-11.824,32.893,13.427,0.0,4.0
50334,-1.331,-0.135,1.227,-2.519,34.878,15.427,0.0,8.0
50384,-0.860,-0.021,0.529,-1.725,36.427,8.122,0.0,5.0
50434,-0.871,-0.017,0.471,1.802,24.962,4.260,0.0,4.0
50484,-0.916,-0.028,0.470,2.282,1.214,-2.809,0.0,4.0
50536,-0.880,-0.023,0.490,-0.214,-41.794,-10.160,0.0,5.0
50586,-0.918,-0.036,0.450,-3.275,-79.748,-19.611,0.0,5.0
50636,-0.740,-0.044,0.468,2.305,-31.275,-0.992,0.0,4.0
50685,-0.696,-0.058,0.532,0.137,13.740,3.901,0.0,4.0
50735,-0.968,-0.028,0.515,0.084,7.458,0.557,0.0,4.0
50787,-0.832,-0.050,0.489,1.038,29.092,4.641,0.0,4.0
50837,-0.835,-0.009,0.527,6.221,34.229,17.344,0.0,4.0
50886,-0.805,-0.038,0.465,6.588,29.305,12.252,0.0,3.0
50935,-0.756,-0.013,0.421,3.992,34.092,2.359,0.0,5.0
51028,-0.917,-0.015,0.475,-3.542,-71.710,-18.878,0.0,4.0
51079,-0.751,-0.028,0.433,-1.359,-49.443,-7.015,0.0,4.0
51128,-0.674,-0.032,0.536,-0.718,-10.099,3.847,0.0,10.0
51178,-0.684,-0.052,0.532,0.458,13.145,-3.031,0.0,4.0
51227,-0.852,-0.050,0.533,3.641,20.000,5.794,0.0,4.0
51276,-0.882,-0.031,0.506,-0.008,-2.405,1.511,0.0,4.0
51330,-0.778,-0.006,0.474,-1.710,11.511,1.244,0.0,4.0
51380,-0.880,-0.007,0.502,-3.084,19.718,13.908,0.0,5.0
51430,-0.890,-0.036,0.550,-6.038,-45.176,-10.229,0.0,5.0
51480,-0.749,-0.032,0.532,2.069,-35.603,-4.336,0.0,8.0
51530,-0.620,-0.078,0.517,2.969,5.328,1.603,0.0,9.0
51579,-0.677,-0.075,0.473,14.053,50.855,-12.901,0.0,4.0
51630,-0.841,0.008,0.585,5.603,2.695,-1.763,0.0,4.0
51679,-0.881,-0.036,0.564,-6.344,-34.687,-3.557,0.0,4.0
51729,-0.799,-0.050,0.543,-5.328,-52.084,2.450,0.0,6.0
51782,-0.764,-0.086,0.578,-10.405,-68.305,4.916,0.0,6.0
51832,-0.511,-0.067,0.625,0.420,-22.901,-3.107,0.0,8.0
51883,-0.494,-0.078,0.589,6.893,49.855,-5.992,0.0,9.0
51933,-0.862,-0.031,0.621,0.748,83.328,1.939,0.0,9.0
51982,-0.921,-0.063,0.521,1.740,9.053,6.664,0.0,4.0
52032,-0.832,-0.046,0.559,0.420,-20.489,-4.397,0.0,6.0
52082,-0.826,-0.015,0.598,-3.069,-23.977,2.412,0.0,8.0
52132,-0.801,-0.052,0.595,-5.267,-37.527,2.870,0.0,7.0
52183,-0.815,-0.047,0.612,-8.221,-62.740,3.687,0.0,6.0
52236,-0.437,-0.087,0.608,1.557,-16.580,-3.954,0.0,8.0
52286,-0.599,-0.010,0.665,5.901,60.405,-5.817,0.0,9.0
52336,-0.906,-0.068,0.600,0.672,41.588,3.053,0.0,6.0
52386,-1.041,-0.029,0.643,-1.221,-31.664,1.603,0.0,8.0
52436,-0.738,-0.034,0.636,-5.695,-70.916,0.519,0.0,8.0
52492,-0.379,-0.087,0.626,4.137,1.168,-6.099,0.0,8.0
52541,-0.633,-0.011,0.665,5.435,81.481,-2.611,0.0,9.0
52590,-0.952,-0.047,0.592,-1.901,54.382,5.176,0.0,9.0
52639,-1.005,-0.047,0.601,0.237,-7.550,0.595,0.0,9.0
52690,-0.827,-0.034,0.587,-4.031,-63.656,0.290,0.0,9.0
52740,-0.561,-0.053,0.603,-2.901,-38.328,-0.893,0.0,6.0
52789,-0.536,-0.077,0.609,2.168,16.580,-1.191,0.0,7.0
52838,-0.642,-0.057,0.575,7.534,71.481,-3.534,0.0,6.0
52887,-1.042,-0.020,0.619,1.733,53.084,1.908,0.0,4.0
52936,-1.109,-0.082,0.666,-5.374,-45.191,0.695,0.0,8.0
52985,-0.781,-0.048,0.593,-6.931,-81.160,1.550,0.0,8.0
53035,-0.409,-0.102,0.600,1.473,-26.534,-5.260,0.0,8.0
53084,-0.531,-0.057,0.593,7.328,59.595,-4.916,0.0,9.0
53133,-1.025,-0.029,0.655,-3.817,33.947,7.145,0.0,6.0
53185,-0.904,-0.061,0.595,-2.863,-43.679,1.130,0.0,9.0
53234,-0.642,-0.054,0.617,-2.153,-51.565,-3.252,0.0,7.0
53283,-0.429,-0.069,0.615,3.664,10.954,-5.282,0.0,7.0
53332,-0.697,-0.037,0.620,5.450,67.115,-1.817,0.0,8.0
53382,-0.988,-0.036,0.627,-3.183,29.855,4.237,0.0,8.0
53430,-0.915,-0.057,0.610,-2.595,-33.931,1.206,0.0,6.0
53480,-0.624,-0.062,0.603,-0.588,-36.489,-2.580,0.0,9.0
53572,-0.820,-0.020,0.612,0.023,51.672,1.237,0.0,9.0
53621,-0.957,-0.056,0.592,-2.542,12.145,4.084,0.0,9.0
53673,-0.873,-0.054,0.588,-0.908,-38.099,-1.053,0.0,6.0
53723,-0.630,-0.068,0.585,-0.321,-31.061,-1.794,0.0,9.0
53772,-0.921,-0.011,0.672,-5.389,-33.221,6.420,0.0,6.0
53821,-0.694,-0.093,0.615,-5.053,-64.893,1.405,0.0,9.0
53870,-0.432,-0.052,0.654,2.137,-10.962,-6.511,0.0,8.0
53919,-0.464,-0.068,0.640,6.649,66.260,-6.053,0.0,7.0
53968,-0.847,-0.054,0.611,1.145,80.916,3.687,0.0,6.0
54019,-1.035,-0.043,0.613,-0.183,28.206,2.496,0.0,9.0
54068,-0.973,-0.055,0.581,-5.061,-63.405,2.221,0.0,7.0
54120,-0.518,-0.075,0.593,-1.244,-53.420,-3.336,0.0,7.0
54169,-0.459,-0.061,0.623,5.473,27.275,-5.382,0.0,7.0
54218,-0.731,-0.024,0.640,2.450,70.183,1.466,0.0,7.0
54267,-0.982,-0.051,0.596,-0.748,37.084,2.893,0.0,5.0
54317,-0.936,-0.053,0.576,-0.221,-22.221,-0.809,0.0,9.0
54366,-0.744,-0.059,0.592,-2.008,-44.924,0.069,0.0,6.0
54416,-0.606,-0.067,0.586,-0.603,-17.244,-0.779,0.0,9.0
54465,-0.626,-0.052,0.596,1.840,27.260,-1.519,0.0,6.0
54514,-0.797,-0.050,0.568,1.992,48.282,-0.237,0.0,8.0
54566,-0.944,-0.004,0.552,-0.954,-3.351,3.076,0.0,6.0
54616,-0.818,-0.044,0.577,-2.000,-50.779,0.924,0.0,6.0
54665,-0.608,-0.054,0.598,-1.260,-32.588,-1.496,0.0,9.0
54715,-0.581,-0.063,0.602,1.282,20.786,-1.160,0.0,8.0
54764,-0.799,-0.054,0.596,1.115,41.122,0.550,0.0,8.0
54813,-0.918,-0.055,0.593,-0.397,5.130,0.374,0.0,9.0
54862,-0.813,-0.043,0.592,-0.626,-24.885,-0.351,0.0,8.0
54913,-0.691,-0.057,0.584,-0.824,-17.824,0.122,0.0,6.0
54962,-0.666,-0.074,0.567,2.412,11.771,-1.168,0.0,6.0
55014,-0.833,-0.036,0.601,-0.405,15.351,0.374,0.0,9.0
55064,-0.834,-0.050,0.592,0.076,-6.763,-0.641,0.0,9.0
55113,-0.773,-0.048,0.599,-1.153,-20.221,0.489,0.0,5.0
55162,-0.650,-0.070,0.579,0.115,-2.305,-1.015,0.0,6.0
55212,-0.710,-0.050,0.577,1.901,26.679,-1.397,0.0,8.0
55262,-0.840,-0.061,0.583,-0.229,20.802,0.573,0.0,9.0
55311,-0.937,-0.032,0.601,-0.038,-6.122,0.611,0.0,9.0
55360,-0.835,-0.051,0.594,-2.679,-48.649,0.947,0.0,6.0
55410,-0.606,-0.068,0.613,-0.885,-29.473,-1.290,0.0,9.0
55459,-0.577,-0.059,0.598,2.565,24.916,-2.214,0.0,8.0
55512,-0.812,-0.036,0.596,0.481,50.656,0.527,0.0,9.0
55562,-1.019,-0.057,0.686,0.519,11.275,1.282,0.0,5.0
55611,-0.840,-0.047,0.573,0.435,-18.023,-0.817,0.0,9.0
55661,-0.734,-0.045,0.573,-0.756,-8.382,-0.237,0.0,9.0
55710,-0.751,-0.052,0.575,0.244,3.687,0.153,0.0,9.0
55760,-0.793,-0.047,0.573,0.489,8.206,-0.496,0.0,9.0
55810,-0.827,-0.049,0.579,-0.031,-4.137,-0.183,0.0,9.0
55859,-0.893,-0.033,0.607,-1.321,-21.290,1.046,0.0,9.0
55909,-0.795,-0.052,0.593,-4.206,-50.046,2.527,0.0,8.0
55961,-0.565,-0.076,0.603,-0.344,-20.198,-1.573,0.0,7.0
56011,-0.618,-0.039,0.626,2.832,33.519,-2.626,0.0,8.0
56103,-0.818,-0.065,0.567,1.489,31.595,-0.679,0.0,9.0
56154,-0.899,-0.036,0.558,-0.237,-1.359,1.221,0.0,6.0
56203,-0.776,-0.053,0.562,-0.519,-23.557,0.321,0.0,9.0
56253,-0.688,-0.058,0.581,0.359,-5.115,-1.000,0.0,9.0
56302,-0.730,-0.049,0.567,0.046,21.672,-0.389,0.0,10.0
56352,-1.006,-0.103,0.534,1.740,12.221,3.863,0.0,5.0
56401,-0.945,-0.070,0.579,-1.626,-29.237,-0.725,0.0,9.0
56455,-0.743,-0.054,0.584,-2.252,-48.298,1.290,0.0,7.0
56505,-0.579,-0.070,0.601,0.023,-17.107,-1.053,0.0,9.0
56554,-0.628,-0.044,0.602,0.969,32.924,-1.679,0.0,6.0
56604,-0.840,-0.052,0.603,0.863,37.870,-0.015,0.0,9.0
56653,-0.938,-0.052,0.598,-0.450,0.634,0.656,0.0,10.0
56704,-0.792,-0.061,0.576,0.427,-27.252,-0.221,0.0,8.0
56753,-0.744,-0.026,0.621,1.908,-18.840,-1.763,0.0,6.0
56803,-0.685,-0.060,0.599,-1.122,-7.603,-0.282,0.0,7.0
56852,-0.715,-0.048,0.589,0.290,11.634,0.038,0.0,5.0
56905,-0.753,-0.053,0.590,1.046,22.679,-0.710,0.0,9.0
56955,-0.925,-0.042,0.593,-1.382,-0.725,1.695,0.0,9.0
57005,-0.792,-0.061,0.589,-1.046,-32.450,0.168,0.0,6.0
57055,-0.637,-0.059,0.603,0.053,-14.260,-1.542,0.0,9.0
57104,-0.643,-0.045,0.606,1.168,25.290,-1.580,0.0,5.0
57154,-0.840,-0.059,0.601,0.031,29.328,0.702,0.0,10.0
57204,-0.867,-0.049,0.588,0.160,2.565,-0.153,0.0,10.0
57253,-0.771,-0.050,0.569,-0.008,-12.450,-0.298,0.0,9.0
57304,-0.740,-0.044,0.574,-0.053,1.344,-0.573,0.0,9.0
57354,-0.811,-0.058,0.577,-0.328,-2.206,0.489,0.0,9.0
57407,-0.866,-0.041,0.598,-1.221,-15.344,1.107,0.0,8.0
57456,-0.757,-0.060,0.590,-1.725,-31.756,0.359,0.0,8.0
57506,-0.626,-0.063,0.594,1.466,-6.725,-2.252,0.0,9.0
57556,-0.777,-0.047,0.626,-2.000,3.237,2.504,0.0,8.0
57607,-0.731,-0.055,0.613,0.885,-0.496,-0.718,0.0,8.0
57656,-0.704,-0.050,0.610,1.298,9.389,-1.664,0.0,7.0
57706,-0.813,-0.053,0.611,-0.855,6.443,1.053,0.0,6.0
57755,-0.770,-0.053,0.618,0.427,-6.137,-0.282,0.0,6.0
57805,-0.695,-0.060,0.600,0.824,3.588,-1.282,0.0,6.0
57859,-0.820,-0.052,0.597,-0.656,7.885,1.084,0.0,6.0
57908,-0.786,-0.055,0.605,0.069,-7.634,-0.076,0.0,5.0
57958,-0.709,-0.051,0.597,0.489,-1.061,-0.824,0.0,6.0
58008,-0.856,-0.041,0.619,-1.702,-0.115,2.733,0.0,5.0
58058,-0.813,-0.062,0.600,-2.366,-32.160,2.122,0.0,9.0
58107,-0.614,-0.063,0.618,-0.153,-20.176,-1.878,0.0,7.0
58158,-0.578,-0.051,0.606,2.305,27.206,-3.107,0.0,9.0
58208,-0.819,-0.045,0.603,2.198,53.260,-0.603,0.0,9.0
58258,-0.934,-0.056,0.590,-0.069,13.832,1.053,0.0,10.0
58311,-0.898,-0.034,0.615,-2.473,-38.489,0.672,0.0,7.0
58361,-0.650,-0.067,0.584,-1.985,-36.740,0.069,0.0,9.0
58412,-0.566,-0.065,0.597,2.656,16.061,-2.374,0.0,8.0
58462,-0.793,-0.051,0.598,-0.076,39.656,0.939,0.0,9.0
58512,-0.902,-0.046,0.593,0.527,15.603,0.015,0.0,10.0
58561,-0.833,-0.051,0.572,-0.389,-20.206,-0.053,0.0,9.0
58654,-0.754,-0.053,0.597,-0.473,-0.931,1.038,0.0,7.0
58704,-0.760,-0.054,0.599,0.023,1.183,-0.214,0.0,7.0
58755,-0.749,-0.053,0.589,0.969,5.145,-0.931,0.0,8.0
58805,-0.851,-0.052,0.604,-1.473,-0.595,1.496,0.0,8.0
58852,-0.815,-0.048,0.591,-1.122,-23.504,1.511,0.0,5.0
58903,-0.694,-0.054,0.594,-0.565,-19.252,-0.542,0.0,9.0
58958,-0.610,-0.071,0.571,4.031,22.489,-3.656,0.0,6.0
59008,-0.837,-0.031,0.609,0.794,41.061,-0.252,0.0,10.0
59057,-0.933,-0.055,0.585,-0.611,-0.137,1.046,0.0,10.0
59106,-0.836,-0.048,0.583,-2.588,-35.511,0.855,0.0,7.0
59154,-0.625,-0.058,0.579,-0.122,-19.450,-0.878,0.0,7.0
59203,-0.679,-0.055,0.584,1.420,21.099,-1.313,0.0,6.0
59252,-0.867,-0.048,0.598,-0.466,15.298,1.359,0.0,9.0
59304,-0.837,-0.049,0.590,-0.099,-14.954,-0.191,0.0,7.0
59354,-0.684,-0.059,0.588,0.427,-8.313,-1.511,0.0,6.0
59403,-0.716,-0.057,0.583,1.260,19.740,-0.786,0.0,8.0
59452,-0.882,-0.057,0.600,-1.015,1.603,1.351,0.0,9.0
59501,-0.783,-0.056,0.592,0.137,-18.718,-0.771,0.0,7.0
59549,-0.672,-0.051,0.586,0.511,-4.908,-0.901,0.0,6.0
59598,-0.781,-0.040,0.602,-0.412,14.916,0.466,0.0,8.0
59648,-0.848,-0.051,0.596,-0.733,-7.382,0.527,0.0,7.0
59697,-0.721,-0.053,0.587,0.489,-11.885,-0.802,0.0,5.0
59749,-0.662,-0.061,0.581,1.840,18.237,-1.756,0.0,8.0
59798,-0.886,-0.047,0.585,-1.221,13.595,1.794,0.0,9.0
59847,-0.832,-0.052,0.582,-0.328,-17.328,-0.198,0.0,8.0
59896,-0.713,-0.049,0.588,0.069,-16.359,-0.901,0.0,6.0
59945,-0.728,-0.054,0.602,-1.611,-5.710,0.847,0.0,6.0
59995,-0.768,-0.054,0.601,0.061,2.664,-0.008,0.0,6.0
60044,-0.808,-0.069,0.595,-2.397,-16.649,1.137,0.0,8.0
60093,-0.659,-0.064,0.601,0.931,-5.916,-1.038,0.0,8.0
60142,-0.709,-0.039,0.621,1.153,22.313,-1.252,0.0,6.0
60194,-0.830,-0.061,0.595,0.450,18.855,0.008,0.0,8.0
60243,-0.832,-0.053,0.604,-0.137,-1.015,-0.351,0.0,9.0
60293,-0.761,-0.055,0.589,0.160,-5.237,-0.634,0.0,8.0
60342,-0.772,-0.053,0.589,-0.916,-7.328,0.534,0.0,7.0
60391,-0.737,-0.062,0.586,0.359,-2.076,-0.221,0.0,6.0
60440,-0.732,-0.054,0.583,0.832,8.527,-0.534,0.0,8.0
60490,-0.850,-0.058,0.592,-1.122,-4.458,1.420,0.0,8.0
60539,-0.758,-0.050,0.587,-0.435,-18.641,0.542,0.0,6.0
60589,-0.644,-0.060,0.584,1.069,2.450,-1.573,0.0,5.0
60638,-0.777,-0.034,0.609,0.885,27.649,-0.298,0.0,9.0
60685,-0.897,-0.058,0.597,-0.336,0.481,0.885,0.0,9.0
60734,-0.789,-0.046,0.587,-0.107,-18.611,-0.481,0.0,7.0
60783,-0.700,-0.054,0.596,-0.672,-13.618,-0.244,0.0,6.0
60832,-0.830,-0.034,0.637,-2.992,-8.550,2.580,0.0,7.0
60881,-0.770,-0.071,0.606,-2.809,-26.664,2.366,0.0,9.0
60931,-0.603,-0.066,0.618,0.992,-6.573,-1.344,0.0,9.0
60980,-0.625,-0.063,0.597,4.221,39.092,-3.481,0.0,7.0
61030,-0.865,-0.055,0.590,0.214,41.160,1.573,0.0,10.0
61079,-0.932,-0.051,0.581,-0.702,-1.015,0.702,0.0,10.0
61174,-0.694,-0.049,0.593,-0.908,-16.756,-0.260,0.0,6.0
61223,-0.735,-0.054,0.608,-0.687,-0.580,1.031,0.0,6.0
61273,-0.787,-0.051,0.612,-1.817,-4.718,1.015,0.0,6.0
61323,-0.694,-0.063,0.595,1.267,2.817,-0.939,0.0,6.0
61372,-0.753,-0.033,0.617,1.534,23.313,-1.466,0.0,7.0
61421,-0.878,-0.059,0.596,-0.420,0.695,1.435,0.0,8.0
61470,-0.768,-0.053,0.591,0.160,-15.267,-0.794,0.0,6.0
61520,-0.729,-0.052,0.590,-0.893,-8.366,0.137,0.0,7.0
61570,-0.751,-0.053,0.602,-0.290,-0.359,0.458,0.0,6.0
61622,-0.737,-0.057,0.596,0.458,1.107,-0.351,0.0,5.0
61671,-0.773,-0.047,0.597,0.496,8.565,-1.107,0.0,6.0
61720,-0.843,-0.049,0.620,-0.832,-12.023,1.015,0.0,5.0
61770,-0.762,-0.052,0.606,-1.336,-23.679,0.550,0.0,8.0
61819,-0.645,-0.058,0.597,0.046,-7.756,-0.389,0.0,9.0
61869,-0.663,-0.055,0.599,2.771,26.626,-2.198,0.0,7.0
61919,-0.870,-0.053,0.603,-0.595,21.924,1.137,0.0,7.0
61968,-0.863,-0.056,0.606,-1.137,-16.473,1.107,0.0,5.0
62017,-0.699,-0.054,0.596,-0.183,-22.168,-0.435,0.0,8.0
62070,-0.688,-0.048,0.610,-0.489,7.771,-0.038,0.0,8.0
62119,-0.812,-0.046,0.608,0.168,9.412,0.115,0.0,6.0
62169,-0.809,-0.047,0.617,-0.351,-7.840,0.160,0.0,6.0
62219,-0.714,-0.057,0.607,-0.389,-8.580,-0.344,0.0,8.0
62268,-0.719,-0.051,0.612,0.275,6.595,-0.328,0.0,7.0
62317,-0.765,-0.053,0.607,0.634,7.618,-0.664,0.0,6.0
62366,-0.804,-0.052,0.609,-0.344,-1.641,-0.092,0.0,6.0
62416,-0.746,-0.060,0.600,-0.153,-7.328,-0.153,0.0,6.0
62466,-0.731,-0.050,0.612,0.107,0.443,-0.069,0.0,7.0
62515,-0.759,-0.051,0.599,0.206,5.046,-0.267,0.0,6.0
62576,-0.792,-0.053,0.613,-0.328,-1.618,0.198,0.0,6.0
62628,-0.748,-0.048,0.603,-0.863,-4.733,0.656,0.0,6.0
62681,-0.778,-0.065,0.591,-4.351,4.893,5.641,0.0,8.0
62733,-0.889,-0.074,0.553,-1.511,39.137,14.321,0.0,10.0
62785,-0.915,0.068,0.496,-4.282,11.053,36.046,0.0,6.0
62837,-1.042,-0.045,0.581,-7.672,-21.519,42.664,0.0,10.0
62889,-0.870,0.080,0.609,-16.176,-28.000,28.679,0.0,14.0
62942,-0.835,0.118,0.687,-14.916,-24.924,7.588,0.0,12.0
62994,-0.861,0.057,0.751,-16.824,-7.061,7.244,0.0,14.0
63050,-0.854,0.016,0.753,-3.023,-44.496,28.649,0.0,19.0
63104,-0.716,0.022,0.660,0.740,-68.908,46.527,0.0,26.0
63157,-0.613,0.100,0.675,1.519,-52.176,52.687,0.0,23.0
63209,-0.657,0.093,0.706,5.191,-49.305,55.244,0.0,22.0
63262,-0.599,0.130,0.742,0.275,-58.595,52.519,0.0,29.0
63315,-0.506,0.133,0.712,4.817,-50.481,58.382,0.0,22.0
63369,-0.437,0.134,0.756,2.939,-45.092,62.214,0.0,23.0
63419,-0.378,0.203,0.845,8.122,-42.359,58.466,155.0,25.0
63470,-0.305,0.203,0.853,9.092,-52.153,45.145,150.0,26.0
63524,-0.230,0.271,0.857,7.351,-48.458,23.947,178.0,28.0
63569,-0.187,0.287,0.808,8.786,-23.313,13.565,44.0,29.0
63620,-0.222,0.305,0.824,4.649,-6.794,9.198,141.0,30.0
63671,-0.290,0.308,0.838,0.519,-7.702,9.954,157.0,31.0
