Timestamp(ms),AccelX(g),AccelY(g),AccelZ(g),GyroX(deg/s),GyroY(deg/s),GyroZ(deg/s),DistanceLeft(cm),DistanceRight(cm)
32196,-0.269,-0.580,0.753,-0.855,-3.427,0.008,0.0,72.0
32252,-0.264,-0.579,0.751,-0.336,-1.115,-0.282,0.0,70.0
32305,-0.280,-0.582,0.750,-0.214,-0.542,-0.221,0.0,70.0
32361,-0.290,-0.591,0.766,-0.206,-1.534,-0.214,0.0,70.0
32414,-0.272,-0.576,0.761,0.053,-3.458,-0.458,0.0,71.0
32471,-0.268,-0.580,0.747,0.260,-1.107,-0.534,0.0,72.0
32523,-0.286,-0.586,0.760,0.473,-1.870,-0.519,0.0,71.0
32579,-0.272,-0.581,0.752,0.809,-2.763,-0.145,0.0,71.0
32635,-0.271,-0.572,0.760,0.672,-4.397,-0.443,0.0,72.0
32688,-0.267,-0.583,0.756,1.107,-2.511,-0.313,0.0,72.0
32745,-0.268,-0.581,0.760,0.855,-2.634,-0.115,0.0,74.0
32797,-0.275,-0.578,0.763,0.794,-1.863,-0.534,0.0,75.0
32855,-0.276,-0.574,0.758,0.214,-2.817,-0.802,0.0,75.0
32907,-0.266,-0.574,0.767,0.321,-5.191,-0.397,0.0,76.0
32958,-0.251,-0.579,0.766,0.542,-4.290,-0.649,0.0,32.0
33014,-0.245,-0.588,0.758,0.832,-2.840,-0.763,0.0,77.0
33065,-0.255,-0.572,0.765,0.992,-2.870,-0.534,157.0,76.0
33119,-0.256,-0.571,0.755,0.573,-0.672,-1.298,156.0,77.0
33169,-0.258,-0.573,0.771,0.359,-1.336,-1.267,156.0,76.0
33220,-0.289,-0.568,0.770,-0.298,-1.466,-2.710,156.0,76.0
33271,-0.286,-0.582,0.776,-0.702,-8.397,-3.145,156.0,76.0
33321,-0.262,-0.593,0.766,-0.542,-14.023,-3.618,156.0,75.0
33373,-0.227,-0.573,0.792,-2.626,-11.573,-1.282,157.0,75.0
33423,-0.155,-0.529,0.773,7.099,0.885,-7.267,156.0,76.0
33474,-0.112,-0.698,0.619,4.267,10.328,-12.947,156.0,75.0
33527,0.170,-0.044,0.762,-0.130,126.076,-63.908,158.0,71.0
33581,-0.617,-0.425,1.096,-0.954,187.137,-74.389,0.0,69.0
33623,-0.355,-0.953,0.762,27.198,145.046,-130.924,20.0,68.0
33666,-0.050,-1.129,0.261,-0.931,133.168,-161.573,21.0,69.0
33709,-0.050,-0.725,0.190,-32.939,178.237,-120.244,38.0,68.0
33755,-0.321,-0.958,0.179,-35.092,173.725,-84.374,40.0,99.0
33800,-0.519,-0.682,0.426,-13.282,145.252,-47.977,38.0,95.0
33849,-0.713,-0.816,0.463,-4.939,10.870,-25.382,51.0,164.0
33898,-0.327,-0.725,0.345,-18.962,2.000,-43.328,53.0,137.0
33951,-0.402,-0.873,0.478,-9.527,-33.809,-43.656,70.0,161.0
34001,-0.313,-0.911,0.346,-11.519,-40.420,-43.977,57.0,157.0
34051,-0.221,-0.872,0.342,-10.641,-13.832,-24.252,53.0,155.0
34101,-0.251,-0.886,0.385,-15.893,0.328,-37.023,53.0,160.0
34150,-0.276,-0.934,0.396,-8.908,0.588,-40.687,54.0,152.0
34199,-0.216,-0.971,0.343,-8.092,-2.405,-36.115,54.0,150.0
34249,-0.120,-0.950,0.327,-2.450,-8.168,-40.176,72.0,146.0
34298,-0.114,-0.898,0.275,-6.374,23.595,-33.168,57.0,152.0
34352,0.007,-1.018,0.225,-7.000,27.557,-31.519,70.0,142.0
34401,-0.050,-1.060,0.261,0.015,32.634,-42.359,58.0,151.0
34450,-0.100,-0.925,0.337,-5.832,26.405,-41.924,57.0,154.0
34500,0.022,-0.973,0.304,-25.168,30.496,-46.008,57.0,146.0
34549,-0.102,-1.026,0.356,-2.695,61.702,-12.313,71.0,147.0
34599,-0.150,-0.975,0.326,-5.191,32.420,-21.763,58.0,146.0
34649,-0.094,-1.066,0.216,-2.534,9.305,-15.687,60.0,147.0
34698,0.044,-0.939,0.200,-9.710,12.611,-14.359,60.0,147.0
34790,-0.113,-1.046,0.332,5.817,-12.832,-15.466,62.0,147.0
34843,0.041,-0.987,0.175,6.557,-32.702,-1.099,71.0,147.0
34893,0.122,-0.978,0.184,-0.389,5.443,-4.244,71.0,145.0
34944,0.013,-1.020,0.265,-3.275,16.107,-6.191,71.0,145.0
34994,0.079,-0.961,0.249,1.206,6.290,-2.489,71.0,145.0
35044,-0.068,-0.994,0.381,2.466,1.313,-2.008,71.0,143.0
35093,0.021,-1.003,0.265,7.573,6.198,3.893,61.0,145.0
35142,0.069,-1.013,0.264,10.382,-18.802,5.198,61.0,146.0
35192,0.097,-0.958,0.230,3.412,7.351,0.603,71.0,145.0
35243,0.040,-1.013,0.240,5.534,19.832,1.366,72.0,153.0
35296,-0.011,-0.985,0.368,2.473,-3.420,3.779,60.0,144.0
35345,-0.068,-0.958,0.377,11.626,5.977,5.740,60.0,143.0
35393,-0.016,-1.068,0.272,22.344,-15.389,6.458,60.0,143.0
35443,0.031,-0.913,0.229,14.405,-19.962,9.160,60.0,148.0
35492,0.090,-0.942,0.230,2.374,-6.290,5.260,60.0,151.0
35543,-0.049,-0.936,0.380,2.481,20.466,7.153,61.0,149.0
35593,-0.077,-0.950,0.459,4.832,-4.252,6.901,60.0,149.0
35642,-0.160,-1.059,0.512,20.351,-9.153,9.733,60.0,146.0
35691,-0.011,-0.943,0.308,33.481,-16.382,17.115,60.0,145.0
35744,0.015,-0.842,0.252,12.786,-0.321,12.832,61.0,149.0
35793,-0.085,-0.944,0.372,14.061,2.985,18.351,60.0,147.0
35844,-0.081,-0.874,0.439,7.176,-39.290,6.382,62.0,149.0
35895,0.206,-0.892,0.247,7.931,-18.160,2.130,75.0,150.0
35944,-0.121,-0.890,0.513,15.321,10.328,8.916,61.0,150.0
35994,-0.141,-0.894,0.476,12.870,5.809,7.557,65.0,146.0
36044,-0.085,-0.936,0.445,13.672,-4.718,8.382,77.0,140.0
36094,-0.090,-0.891,0.393,16.870,12.107,18.229,61.0,151.0
36145,-0.016,-0.885,0.449,4.275,14.916,6.939,77.0,140.0
36198,-0.181,-0.819,0.480,11.145,27.015,15.115,61.0,152.0
36248,-0.257,-0.917,0.554,9.359,4.153,13.046,61.0,150.0
36298,-0.133,-0.871,0.439,11.550,4.374,13.031,63.0,152.0
36347,-0.141,-0.859,0.491,12.336,6.450,14.908,63.0,132.0
36397,-0.231,-0.862,0.493,19.237,-0.282,15.168,64.0,145.0
36447,-0.178,-0.811,0.450,9.443,5.740,12.908,64.0,143.0
36496,-0.270,-0.787,0.511,12.466,-8.954,18.389,66.0,142.0
36548,-0.206,-0.829,0.531,10.176,-20.924,12.122,81.0,151.0
36601,-0.218,-0.817,0.541,9.756,9.695,13.580,82.0,131.0
36651,-0.264,-0.813,0.610,11.618,-0.328,12.679,60.0,141.0
36700,-0.272,-0.794,0.580,16.977,-1.420,17.863,60.0,136.0
36751,-0.239,-0.780,0.519,12.954,18.870,16.962,84.0,152.0
36801,-0.318,-0.754,0.559,12.435,-0.893,18.115,84.0,128.0
36850,-0.278,-0.742,0.504,12.489,-7.145,7.916,58.0,136.0
36909,-0.369,-0.722,0.569,8.992,-1.542,12.916,0.0,151.0
36957,-0.293,-0.736,0.543,10.168,-3.580,13.977,59.0,128.0
37005,-0.321,-0.708,0.587,8.267,-2.008,12.641,57.0,129.0
37066,-0.361,-0.769,0.640,12.366,-14.679,12.786,0.0,155.0
37123,-0.295,-0.720,0.619,13.130,-21.313,3.870,173.0,131.0
37178,-0.280,-0.718,0.613,15.107,-13.893,1.756,171.0,140.0
37234,-0.315,-0.688,0.650,14.061,-14.550,3.557,170.0,138.0
37289,-0.249,-0.663,0.617,11.649,-7.008,6.954,170.0,132.0
37388,-0.309,-0.703,0.603,12.260,-16.496,6.305,169.0,132.0
37444,-0.265,-0.635,0.623,8.443,-18.725,9.519,0.0,120.0
37502,-0.307,-0.578,0.681,5.702,-18.511,10.481,0.0,148.0
37552,-0.266,-0.654,0.706,3.847,-29.015,9.634,75.0,122.0
37604,-0.256,-0.632,0.706,3.038,-30.527,2.198,76.0,123.0
37654,-0.231,-0.643,0.708,4.695,-25.779,5.893,77.0,124.0
37704,-0.238,-0.531,0.702,2.092,-29.595,-0.061,50.0,160.0
37754,-0.321,-0.606,0.771,3.076,-37.038,3.840,75.0,142.0
37806,-0.134,-0.647,0.667,3.885,-38.565,6.847,73.0,148.0
37859,-0.094,-0.609,0.680,-1.153,-22.420,4.076,147.0,125.0
37908,-0.237,-0.557,0.737,2.580,-12.267,12.122,71.0,127.0
37957,-0.239,-0.612,0.745,-5.176,-22.275,8.733,64.0,127.0
38011,-0.050,-0.647,0.674,-9.405,-46.534,7.015,145.0,128.0
38062,-0.098,-0.599,0.806,-14.366,-29.374,7.107,37.0,116.0
38109,-0.170,-0.599,0.901,-8.191,-33.305,15.252,59.0,97.0
38154,-0.078,-0.702,0.772,1.840,-54.031,17.107,38.0,89.0
38200,-0.017,-0.661,0.640,-1.176,-38.053,6.168,33.0,97.0
38245,-0.105,-0.594,0.710,-8.794,-26.229,13.366,32.0,97.0
38290,-0.049,-0.609,0.748,-13.344,-36.885,15.733,30.0,94.0
38335,0.026,-0.618,0.720,-15.130,-44.122,14.496,30.0,91.0
38380,0.017,-0.715,0.734,-15.718,-32.947,25.466,29.0,93.0
38433,0.088,-0.641,0.725,-18.802,-29.168,11.053,102.0,94.0
38481,0.105,-0.629,0.717,-17.664,-29.763,15.427,82.0,94.0
38530,0.083,-0.705,0.687,-18.412,-23.168,9.435,81.0,94.0
38578,0.149,-0.750,0.678,-22.992,-24.145,11.511,80.0,95.0
38633,0.070,-0.680,0.708,-18.344,-11.504,12.237,100.0,95.0
38681,-0.015,-0.784,0.742,-15.870,-27.618,2.687,97.0,96.0
38728,0.088,-0.685,0.663,-17.069,-31.221,18.908,78.0,98.0
38775,0.054,-0.810,0.698,-10.649,-31.656,13.802,77.0,96.0
38822,0.210,-0.774,0.521,-18.672,-16.191,9.740,76.0,96.0
38873,0.074,-0.760,0.681,-19.229,-4.550,20.878,76.0,98.0
38919,-0.040,-0.843,0.653,-13.550,-7.229,15.924,76.0,97.0
38966,0.108,-0.804,0.562,-15.763,-17.122,21.481,75.0,96.0
39013,-0.031,-0.864,0.619,-12.878,-0.458,18.427,75.0,96.0
39060,0.041,-0.827,0.588,-17.763,-19.458,14.863,75.0,97.0
39107,0.025,-0.772,0.595,-17.252,-20.695,21.351,75.0,98.0
39154,0.065,-0.789,0.556,-14.107,-34.824,41.840,74.0,99.0
39201,0.220,-0.714,0.492,-17.550,-29.267,52.550,75.0,96.0
39248,0.084,-0.773,0.455,-13.473,19.550,77.275,76.0,96.0
39298,-0.110,-0.875,0.481,5.359,2.748,108.344,76.0,95.0
39345,-0.282,-0.911,0.467,12.031,-32.992,144.389,77.0,95.0
39393,-0.343,-0.885,0.437,2.076,-43.794,100.939,77.0,98.0
39439,-0.232,-0.688,0.385,-16.725,-8.611,53.115,78.0,89.0
39486,-0.847,-0.806,0.915,-47.885,-17.359,3.130,77.0,90.0
39530,-0.719,-0.780,0.722,-37.550,-126.008,-62.885,76.0,51.0
39577,0.094,-0.626,0.421,-19.702,-119.420,15.244,75.0,88.0
39626,-0.115,-0.763,0.549,-34.588,-54.634,52.763,115.0,89.0
39678,-0.236,-0.943,0.521,-38.389,-48.931,43.344,114.0,89.0
39727,-0.186,-0.952,0.567,-22.603,-75.542,24.641,115.0,80.0
39781,0.022,-0.924,0.516,-10.473,-65.939,17.947,0.0,90.0
39877,0.001,-0.877,0.449,5.069,29.626,15.168,0.0,78.0
39926,-0.118,-0.814,0.456,5.557,67.313,18.145,114.0,90.0
39974,-0.243,-0.845,0.459,5.153,78.008,14.702,114.0,89.0
40024,-0.405,-0.889,0.514,14.534,59.947,8.992,115.0,80.0
40073,-0.398,-0.834,0.456,24.519,42.107,1.168,115.0,89.0
40121,-0.423,-0.808,0.449,23.443,37.626,-2.298,116.0,88.0
40171,-0.465,-0.736,0.474,15.069,21.359,-3.733,77.0,89.0
40220,-0.418,-0.743,0.486,1.656,3.275,-3.046,116.0,89.0
40269,-0.385,-0.809,0.513,0.588,-1.748,12.588,116.0,88.0
40318,-0.361,-0.796,0.516,10.298,-7.221,20.076,116.0,88.0
40367,-0.322,-0.771,0.471,12.405,-0.588,20.519,115.0,89.0
40416,-0.356,-0.747,0.486,5.008,6.237,13.947,116.0,89.0
40465,-0.402,-0.760,0.470,0.191,11.702,3.031,115.0,90.0
40514,-0.479,-0.765,0.524,1.588,-2.359,-3.947,116.0,89.0
40563,-0.609,-0.793,0.579,13.000,-7.351,1.885,115.0,90.0
40615,-0.575,-0.723,0.509,37.824,-7.420,50.321,115.0,90.0
40666,-0.550,-0.906,0.472,91.038,54.092,133.511,131.0,91.0
40720,-1.031,-0.759,0.467,107.695,82.290,166.443,0.0,94.0
40775,-1.041,-0.387,0.477,51.031,15.420,170.000,0.0,97.0
40830,-0.660,-0.129,0.372,26.191,-10.550,153.252,0.0,108.0
40883,-0.477,-0.325,0.528,-24.389,45.344,147.351,0.0,65.0
40939,-0.580,-0.488,0.869,-18.351,-37.466,100.489,0.0,67.0
40995,-0.600,-0.230,0.629,16.588,14.237,53.191,0.0,116.0
41052,-0.862,0.195,0.554,41.977,73.191,96.298,0.0,71.0
41108,-0.917,0.414,0.605,15.794,16.420,77.771,0.0,71.0
41164,-0.580,0.157,0.427,10.679,-42.099,44.359,0.0,120.0
41220,-0.571,0.351,0.380,7.710,15.122,36.649,0.0,120.0
41276,-0.900,0.272,0.571,-2.893,25.779,25.969,0.0,121.0
41332,-0.744,0.286,0.492,3.458,-29.305,18.321,0.0,122.0
41388,-0.696,0.393,0.434,3.412,5.702,15.420,0.0,122.0
41444,-0.865,0.319,0.552,-4.748,6.977,7.939,0.0,123.0
41500,-0.636,0.298,0.505,7.206,-16.443,5.855,0.0,123.0
41556,-0.719,0.332,0.488,5.305,8.756,-1.466,0.0,124.0
41615,-0.819,0.318,0.482,3.725,-2.328,-4.885,0.0,123.0
41671,-0.644,0.443,0.411,-0.328,-2.099,-7.198,0.0,124.0
41728,-0.770,0.244,0.496,-3.176,-4.122,-10.588,0.0,124.0
41784,-0.770,0.234,0.499,1.794,3.832,-14.710,0.0,123.0
41840,-0.744,0.408,0.496,9.160,-2.122,-12.733,0.0,125.0
41895,-0.843,0.260,0.506,8.779,-4.008,-10.191,188.0,125.0
41951,-0.679,0.323,0.467,13.885,2.740,-14.771,188.0,115.0
42006,-0.866,0.331,0.523,10.321,3.069,-9.687,190.0,120.0
42062,-0.735,0.318,0.489,15.435,8.427,-13.603,191.0,117.0
42121,-0.799,0.365,0.460,21.573,6.519,-13.557,191.0,121.0
42176,-0.834,0.259,0.433,18.305,5.092,-11.649,192.0,121.0
42232,-0.751,0.375,0.412,17.992,7.901,-6.527,193.0,117.0
42288,-0.878,0.297,0.434,15.947,8.786,-1.809,194.0,112.0
42343,-0.838,0.289,0.460,23.107,3.382,2.450,194.0,112.0
42398,-0.818,0.310,0.412,25.366,6.397,0.504,194.0,111.0
42452,-0.852,0.311,0.361,25.687,5.122,0.160,194.0,110.0
42508,-0.815,0.444,0.374,22.061,5.641,3.038,195.0,111.0
42610,-0.819,0.335,0.371,22.863,4.290,-12.000,0.0,111.0
42665,-0.841,0.442,0.311,28.267,8.557,-14.267,0.0,111.0
42722,-0.968,0.347,0.310,25.191,-3.779,-8.183,0.0,111.0
42777,-0.834,0.346,0.281,21.733,-17.611,-12.855,0.0,110.0
42832,-0.795,0.319,0.291,25.458,-14.137,-17.534,0.0,109.0
42889,-0.825,0.356,0.274,25.756,-12.763,-29.031,0.0,110.0
42943,-0.854,0.309,0.294,24.092,-12.420,-30.389,0.0,100.0
42999,-0.849,0.298,0.290,19.008,-24.252,-36.191,0.0,113.0
43054,-0.877,0.320,0.309,20.176,-7.977,-38.748,172.0,108.0
43111,-0.882,0.252,0.357,22.076,-12.718,-41.733,172.0,108.0
43165,-0.830,0.254,0.287,22.405,-9.977,-48.435,172.0,110.0
43219,-0.966,0.218,0.386,20.931,3.542,-39.214,172.0,112.0
43272,-0.904,0.227,0.344,18.397,-17.878,-43.435,173.0,79.0
43324,-0.866,0.206,0.345,20.924,-13.176,-41.954,173.0,78.0
43376,-0.911,0.105,0.372,19.771,-10.229,-41.954,174.0,77.0
43430,-0.930,0.139,0.396,22.328,-15.046,-38.214,0.0,75.0
43483,-0.842,0.061,0.376,24.282,-2.237,-42.328,173.0,75.0
43536,-0.892,-0.010,0.445,26.702,-4.664,-44.634,0.0,76.0
43591,-0.876,0.040,0.321,24.573,-16.015,-50.427,174.0,76.0
43649,-1.019,0.018,0.375,20.168,2.740,-43.382,174.0,156.0
43703,-0.903,-0.011,0.417,14.496,-20.847,-39.962,175.0,111.0
43759,-0.860,-0.065,0.434,16.198,-22.298,-37.489,0.0,107.0
43814,-0.861,-0.065,0.399,19.534,-18.084,-37.939,0.0,106.0
43870,-0.849,0.012,0.312,15.527,-8.153,-32.740,0.0,108.0
43926,-0.941,-0.092,0.448,-5.794,-20.046,-23.420,0.0,107.0
43980,-0.766,-0.137,0.520,-4.328,-23.198,-23.802,0.0,93.0
44039,-0.860,-0.219,0.579,1.847,-12.710,-23.092,0.0,93.0
44094,-0.772,-0.239,0.486,5.626,-22.099,-28.969,0.0,92.0
44148,-0.765,-0.181,0.492,2.878,-17.802,-26.069,0.0,92.0
44204,-0.770,-0.234,0.515,-3.122,-4.405,-29.580,0.0,92.0
44258,-0.790,-0.242,0.539,-2.595,-8.779,-23.565,0.0,92.0
44313,-0.684,-0.229,0.447,1.076,29.725,-16.771,0.0,93.0
44367,-0.890,-0.365,0.706,-5.313,-16.076,-17.282,0.0,92.0
44423,-0.670,-0.255,0.491,-4.588,-18.420,-24.992,0.0,93.0
44478,-0.762,-0.305,0.527,-1.847,-13.053,-18.931,0.0,93.0
44535,-0.741,-0.354,0.573,-8.489,-19.985,-22.145,0.0,93.0
44591,-0.683,-0.367,0.588,-1.000,-15.168,-22.115,0.0,93.0
44645,-0.722,-0.355,0.572,-2.550,-25.305,-18.740,0.0,83.0
44699,-0.668,-0.346,0.519,-10.977,-9.534,-16.832,0.0,83.0
44754,-0.676,-0.384,0.586,-17.641,-16.206,-14.794,0.0,94.0
44810,-0.664,-0.415,0.586,-19.748,-20.771,-9.611,0.0,95.0
44865,-0.555,-0.466,0.597,-15.290,-19.863,-7.908,0.0,96.0
44920,-0.587,-0.489,0.610,-14.344,-5.076,-10.450,0.0,95.0
44976,-0.664,-0.455,0.616,-10.534,-9.130,-4.901,0.0,96.0
45034,-0.598,-0.485,0.606,-7.115,-16.672,-5.191,0.0,97.0
45088,-0.665,-0.490,0.642,-6.412,-22.641,0.511,0.0,79.0
45143,-0.537,-0.472,0.541,-15.733,-31.466,3.534,0.0,80.0
45197,-0.498,-0.553,0.575,-12.244,-8.466,1.405,0.0,80.0
45251,-0.534,-0.546,0.571,-15.214,-9.557,-0.069,0.0,81.0
45305,-0.538,-0.540,0.611,-14.450,9.626,1.939,0.0,83.0
45403,-0.539,-0.513,0.606,-4.947,-7.496,5.802,0.0,82.0
45457,-0.586,-0.537,0.590,-5.763,-18.069,5.053,0.0,82.0
45517,-0.541,-0.532,0.603,-4.786,-3.710,13.504,0.0,84.0
45574,-0.559,-0.535,0.625,-4.901,-12.397,15.702,0.0,85.0
45627,-0.496,-0.522,0.599,-4.489,-6.679,15.840,0.0,85.0
45672,-0.500,-0.532,0.572,-7.023,5.046,7.947,31.0,104.0
45717,-0.615,-0.499,0.631,-8.046,10.305,11.328,31.0,105.0
45762,-0.659,-0.505,0.594,-8.878,-2.496,17.275,31.0,105.0
45807,-0.574,-0.474,0.623,-10.275,-2.107,19.672,31.0,107.0
45852,-0.575,-0.529,0.625,-11.336,0.374,23.496,31.0,115.0
45898,-0.599,-0.487,0.567,-8.649,-3.779,15.947,31.0,117.0
45943,-0.626,-0.458,0.560,-13.084,7.580,19.802,31.0,117.0
45992,-0.713,-0.422,0.595,-17.046,-1.366,25.351,32.0,113.0
46048,-0.679,-0.466,0.566,-19.298,-10.481,27.221,0.0,114.0
46093,-0.610,-0.504,0.552,-18.962,-5.992,31.267,32.0,114.0
46148,-0.623,-0.488,0.560,-18.893,-0.244,29.870,0.0,114.0
46203,-0.643,-0.464,0.523,-13.389,6.229,26.649,0.0,118.0
46260,-0.723,-0.442,0.550,-12.595,6.725,27.603,0.0,116.0
46315,-0.716,-0.453,0.548,-11.038,0.221,25.397,0.0,120.0
46370,-0.685,-0.465,0.525,-10.763,2.244,22.351,0.0,124.0
46428,-0.668,-0.403,0.515,-4.733,9.893,20.405,0.0,81.0
46481,-0.733,-0.395,0.497,-2.443,8.916,18.763,0.0,80.0
46534,-0.742,-0.358,0.486,-4.924,11.550,19.321,0.0,82.0
46594,-0.767,-0.370,0.495,-9.237,11.328,18.504,0.0,189.0
46654,-0.753,-0.360,0.482,-8.038,11.122,15.618,0.0,0.0
46709,-0.761,-0.338,0.459,-9.267,8.366,13.672,0.0,122.0
46766,-0.819,-0.351,0.440,-10.450,17.511,15.573,0.0,123.0
46824,-0.799,-0.339,0.422,-10.038,12.924,17.374,0.0,164.0
46881,-0.809,-0.345,0.411,-12.534,22.107,19.305,0.0,152.0
46942,-0.772,-0.320,0.381,-11.573,31.733,16.282,0.0,150.0
46999,-0.911,-0.339,0.374,-7.420,36.656,17.817,0.0,151.0
47055,-0.819,-0.297,0.286,-2.260,18.931,10.947,180.0,149.0
47112,-0.934,-0.295,0.271,-0.511,40.748,14.198,179.0,149.0
47169,-0.867,-0.244,0.238,-2.473,30.557,10.885,180.0,150.0
47225,-0.899,-0.256,0.217,-2.618,45.298,11.122,179.0,148.0
47282,-0.904,-0.239,0.166,-2.023,51.885,9.221,179.0,149.0
47330,-0.998,-0.292,0.175,8.115,35.298,4.458,37.0,151.0
47372,-0.884,-0.268,0.096,10.473,23.153,1.786,37.0,57.0
47418,-0.852,-0.235,0.010,9.160,43.305,1.588,38.0,56.0
47469,-0.984,-0.229,0.040,12.931,61.893,-1.397,180.0,54.0
47519,-1.128,-0.245,0.037,20.176,30.053,-3.702,179.0,54.0
47570,-0.909,-0.187,-0.107,15.863,10.802,-8.344,180.0,54.0
47622,-0.968,-0.201,-0.090,6.099,24.344,-5.076,180.0,53.0
47673,-0.956,-0.220,-0.083,-1.450,13.336,-5.389,180.0,52.0
47723,-0.972,-0.260,-0.043,-4.901,8.534,-5.725,180.0,53.0
47774,-0.949,-0.268,-0.082,-3.550,-0.160,-0.275,181.0,52.0
47825,-0.904,-0.267,-0.075,-2.618,7.855,-2.763,180.0,52.0
47874,-0.940,-0.278,-0.069,-0.298,14.229,-5.817,181.0,52.0
47925,-0.953,-0.278,-0.109,2.832,10.992,-3.076,181.0,52.0
47976,-0.937,-0.267,-0.091,2.985,7.298,-2.397,181.0,52.0
48070,-0.942,-0.267,-0.107,5.046,5.809,-2.344,181.0,52.0
48120,-0.923,-0.277,-0.107,6.763,6.412,-2.634,181.0,52.0
48172,-0.929,-0.281,-0.106,9.115,9.481,-5.351,182.0,51.0
48223,-0.912,-0.281,-0.112,10.855,13.740,-8.191,181.0,51.0
48274,-0.941,-0.303,-0.124,13.427,16.084,-7.718,182.0,52.0
48328,-0.978,-0.307,-0.125,17.382,6.817,-0.870,182.0,51.0
48377,-0.926,-0.278,-0.186,14.641,13.359,-3.802,182.0,15.0
48425,-0.957,-0.302,-0.155,12.664,4.366,-0.298,182.0,16.0
48475,-0.918,-0.303,-0.165,11.580,-1.412,-1.336,182.0,16.0
48524,-0.923,-0.307,-0.149,12.557,-0.679,-0.687,182.0,16.0
48573,-0.903,-0.302,-0.142,12.733,5.595,0.023,182.0,14.0
48621,-0.917,-0.310,-0.143,13.763,10.237,-0.611,182.0,15.0
48672,-0.926,-0.300,-0.157,14.992,10.321,-1.221,182.0,51.0
48723,-0.912,-0.307,-0.167,14.794,6.496,-0.496,182.0,51.0
48778,-0.930,-0.303,-0.166,14.061,6.214,-0.053,182.0,51.0
48829,-0.922,-0.300,-0.178,14.061,3.725,0.611,182.0,51.0
48880,-0.923,-0.306,-0.171,14.275,4.298,0.481,182.0,51.0
48931,-0.913,-0.307,-0.164,14.412,5.885,0.115,182.0,51.0
48983,-0.918,-0.316,-0.166,14.061,8.885,1.206,182.0,51.0
49034,-0.927,-0.352,-0.119,22.015,31.542,7.916,182.0,51.0
49085,-1.018,-0.417,0.013,78.771,44.809,27.061,182.0,51.0
49133,-1.020,-0.265,-0.236,121.908,84.069,69.779,181.0,14.0
49184,-1.179,-0.245,-0.428,106.427,77.779,114.740,180.0,52.0
49236,-0.780,-0.680,-1.160,98.947,97.359,48.282,178.0,19.0
49288,-0.813,0.341,-0.014,-7.580,53.069,38.779,177.0,56.0
49339,-0.948,-0.307,0.020,-12.794,-73.229,15.718,175.0,57.0
49390,-0.677,-0.171,-0.457,67.000,-92.313,8.023,174.0,59.0
49439,-0.648,0.091,-0.523,55.023,1.794,21.214,174.0,11.0
49487,-0.962,-0.073,-0.524,31.924,30.328,8.756,174.0,10.0
49536,-1.089,0.029,-0.148,2.786,-13.099,6.939,173.0,9.0
49584,-0.986,-0.012,-0.268,2.389,-49.412,-5.489,172.0,8.0
49635,-0.957,-0.042,-0.286,10.557,-37.542,10.679,172.0,8.0
49683,-0.907,-0.075,-0.205,19.832,1.954,21.176,172.0,8.0
49731,-0.963,-0.107,-0.172,13.534,1.908,19.695,171.0,12.0
49782,-1.025,-0.047,-0.183,6.466,-31.618,10.336,170.0,63.0
49833,-0.874,-0.013,-0.183,4.344,-37.931,9.718,170.0,64.0
49882,-0.890,0.014,-0.085,11.550,-17.038,-3.588,169.0,10.0
49933,-0.997,-0.089,-0.134,12.053,-16.519,0.664,169.0,64.0
49984,-0.945,-0.025,-0.149,10.977,-11.198,-2.450,169.0,64.0
50035,-1.041,-0.012,-0.030,1.305,-34.626,-0.969,169.0,64.0
50089,-0.899,-0.014,-0.129,1.084,-38.725,-7.901,169.0,65.0
50142,-0.918,0.024,-0.081,-2.779,-0.191,2.366,168.0,66.0
50193,-1.022,0.025,0.012,-0.603,-5.031,-1.809,168.0,65.0
50244,-1.047,-0.070,-0.020,-8.191,-36.183,-4.603,168.0,65.0
50295,-0.858,-0.003,-0.060,-10.992,-31.779,-7.725,168.0,65.0
50347,-0.929,-0.061,-0.020,-12.664,-6.687,-10.695,168.0,66.0
50399,-1.015,-0.067,0.076,-15.183,-14.237,-12.153,168.0,66.0
50456,-0.998,-0.080,0.051,-12.061,-25.519,-13.725,168.0,172.0
50515,-0.939,-0.163,0.043,-14.115,-33.931,-15.733,168.0,148.0
50572,-0.926,-0.230,0.120,-6.458,-19.687,-13.130,169.0,146.0
50673,-0.993,-0.178,0.105,1.366,-16.023,-17.618,169.0,173.0
50732,-1.037,-0.155,0.232,-3.237,-24.458,-10.038,169.0,0.0
50778,-0.897,-0.168,0.181,1.359,-30.015,-7.122,169.0,0.0
50837,-0.887,-0.188,0.207,3.771,-26.321,-7.649,169.0,0.0
50882,-0.930,-0.208,0.244,1.679,-16.420,-6.443,169.0,0.0
50936,-0.956,-0.219,0.327,-5.214,-25.412,-2.496,169.0,110.0
50991,-0.913,-0.253,0.340,-3.053,-37.878,-1.305,169.0,111.0
51053,-0.809,-0.215,0.315,1.641,-24.672,-1.420,169.0,0.0
51098,-0.877,-0.198,0.311,3.328,-14.298,2.908,169.0,0.0
51158,-0.830,-0.166,0.303,-5.496,-12.122,3.366,169.0,0.0
51203,-0.895,-0.207,0.410,-9.252,-16.573,4.672,169.0,0.0
51257,-0.866,-0.213,0.382,-1.611,-23.305,3.344,169.0,112.0
51316,-0.748,-0.187,0.276,3.672,24.511,10.466,169.0,0.0
51362,-0.973,-0.186,0.397,6.534,23.779,12.183,169.0,0.0
51420,-0.881,-0.119,0.332,1.076,3.977,5.664,169.0,179.0
51482,-0.910,-0.157,0.305,-1.206,3.832,1.534,169.0,0.0
51528,-0.879,-0.107,0.280,-5.435,14.664,2.260,169.0,0.0
51581,-0.942,-0.124,0.296,-3.328,13.588,4.527,169.0,104.0
51640,-0.908,-0.143,0.278,-6.885,11.939,5.824,170.0,182.0
51698,-0.903,-0.108,0.295,-4.328,19.427,5.695,169.0,180.0
51747,-0.942,-0.151,0.295,-4.176,9.443,-2.115,170.0,9.0
51795,-0.912,-0.146,0.206,-2.450,9.328,-1.115,170.0,9.0
51844,-0.905,-0.114,0.216,-4.595,16.221,0.053,170.0,10.0
51892,-0.944,-0.114,0.182,-3.740,20.771,-2.985,171.0,11.0
51944,-0.959,-0.135,0.177,-7.656,15.901,-2.527,171.0,10.0
51992,-0.951,-0.152,0.185,-7.733,14.267,-4.763,171.0,8.0
52041,-0.961,-0.169,0.196,-7.626,12.458,-3.206,172.0,12.0
52089,-0.939,-0.150,0.165,-3.031,11.061,-4.679,172.0,8.0
52147,-0.946,-0.172,0.135,-2.771,14.969,-4.573,172.0,169.0
52210,-0.958,-0.146,0.138,-3.160,11.344,-3.275,173.0,166.0
52265,-0.938,-0.190,0.099,-3.405,9.885,-3.656,173.0,141.0
52314,-0.964,-0.188,0.121,-3.298,12.015,-3.397,173.0,14.0
52369,-0.931,-0.189,0.103,-0.840,8.626,-6.061,174.0,142.0
52428,-0.973,-0.171,0.085,-3.252,15.099,-4.374,174.0,168.0
52476,-0.992,-0.184,0.070,-1.168,5.321,-6.863,175.0,14.0
52533,-0.960,-0.175,0.062,-1.626,3.519,-3.656,175.0,164.0
52581,-0.926,-0.211,0.058,-1.137,5.519,-4.656,175.0,8.0
52628,-0.957,-0.219,0.049,0.076,7.023,-6.115,175.0,5.0
52685,-0.940,-0.206,0.018,-1.130,4.160,-9.336,176.0,172.0
52733,-0.968,-0.205,0.045,-4.641,-3.595,-10.763,176.0,7.0
52781,-0.940,-0.222,0.041,-4.954,-3.611,-12.603,176.0,5.0
52829,-0.952,-0.226,0.052,-5.282,1.908,-8.992,176.0,7.0
52879,-0.922,-0.231,0.048,-2.763,4.954,-8.649,177.0,7.0
52927,-0.960,-0.250,0.043,-3.099,4.702,-8.710,177.0,5.0
52974,-0.945,-0.247,0.027,-6.168,2.168,-9.015,177.0,5.0
53022,-0.947,-0.262,0.028,-6.832,0.015,-10.481,177.0,4.0
53069,-0.917,-0.277,0.029,-5.244,-3.557,-10.893,177.0,5.0
53117,-0.924,-0.295,0.029,-2.382,0.466,-14.420,178.0,5.0
53176,-0.945,-0.301,0.035,-1.885,0.931,-11.771,178.0,0.0
53222,-0.925,-0.302,0.012,-3.229,1.565,-13.366,179.0,0.0
53312,-0.926,-0.335,0.011,-1.695,1.275,-15.313,179.0,4.0
53363,-0.922,-0.348,0.009,0.710,4.985,-13.038,180.0,5.0
53411,-0.920,-0.354,0.017,4.931,4.206,-11.573,180.0,5.0
53458,-0.924,-0.333,0.027,3.672,-3.321,-12.237,180.0,5.0
53507,-0.907,-0.363,-0.018,3.878,-7.481,-12.939,180.0,6.0
53566,-0.870,-0.414,0.052,-0.893,-14.344,-14.069,181.0,0.0
53612,-0.867,-0.387,0.054,-1.366,-13.305,-15.076,182.0,0.0
53660,-0.881,-0.434,0.047,0.496,-3.176,-16.817,181.0,6.0
53708,-0.897,-0.410,0.061,1.420,5.176,-16.504,182.0,6.0
53758,-0.884,-0.409,0.065,1.679,0.618,-12.611,183.0,7.0
53807,-0.876,-0.434,0.003,0.130,-1.962,-15.565,182.0,7.0
53866,-0.875,-0.454,0.010,1.000,5.443,-13.748,183.0,0.0
53912,-0.889,-0.458,0.031,-2.977,3.313,-10.435,183.0,0.0
53971,-0.865,-0.443,0.042,-2.176,1.267,-5.405,184.0,0.0
54018,-0.858,-0.451,0.020,-4.420,-2.626,-5.214,185.0,0.0
54077,-0.871,-0.484,0.034,-5.046,-2.237,-4.557,184.0,0.0
54122,-0.856,-0.467,0.027,-3.252,1.198,-2.580,184.0,0.0
54171,-0.860,-0.500,0.022,-2.748,4.221,-3.366,185.0,10.0
54222,-0.884,-0.465,0.013,-2.137,2.908,-3.298,185.0,8.0
54282,-0.886,-0.479,0.021,-3.412,-5.458,1.260,185.0,0.0
54328,-0.863,-0.466,0.031,-2.618,-15.489,3.542,185.0,0.0
54387,-0.844,-0.475,0.000,-2.687,-4.244,2.229,185.0,0.0
54432,-0.928,-0.398,0.182,-10.450,7.557,1.489,184.0,0.0
54486,-1.135,-0.593,0.294,-13.153,-37.557,2.397,184.0,94.0
54547,-1.064,-0.703,0.324,-11.588,-71.756,-66.878,0.0,0.0
54593,-1.066,-1.065,0.237,44.756,-65.267,-88.710,0.0,0.0
54647,-0.955,-0.898,0.317,90.000,-113.924,-143.298,0.0,88.0
54705,-0.683,-0.500,-0.007,59.359,-139.389,-173.267,0.0,94.0
54753,-0.434,-0.352,0.190,44.092,-153.489,-79.069,57.0,123.0
54798,-0.312,-0.687,0.366,43.359,-137.374,-38.679,55.0,66.0
54847,-0.139,-0.566,0.444,44.672,-41.183,-48.420,55.0,151.0
54897,-0.142,-0.772,0.535,48.924,-8.237,-14.397,56.0,153.0
54944,-0.385,-0.665,0.607,45.748,-41.450,-15.198,57.0,101.0
54995,-0.137,-0.626,0.587,28.191,-51.084,-28.458,162.0,86.0
55042,-0.021,-0.627,0.596,23.267,-25.672,-20.870,58.0,86.0
55088,-0.062,-0.559,0.720,15.611,1.405,-23.710,58.0,86.0
55137,-0.120,-0.601,0.714,17.298,-25.076,-23.015,58.0,85.0
55182,-0.040,-0.567,0.656,6.084,-11.634,-16.679,57.0,87.0
55228,-0.142,-0.634,0.735,2.550,-10.992,-17.237,57.0,87.0
55274,-0.101,-0.547,0.742,-2.466,-26.840,-6.092,57.0,88.0
55320,-0.028,-0.639,0.740,-4.374,-25.779,-4.634,57.0,88.0
55366,0.032,-0.668,0.811,-5.649,-26.046,-6.290,57.0,88.0
55412,0.061,-0.681,0.789,-1.298,-18.412,-2.389,57.0,87.0
55458,0.046,-0.676,0.829,2.275,-18.305,0.099,58.0,89.0
55507,0.058,-0.647,0.739,2.748,-13.878,-8.740,52.0,99.0
55554,0.029,-0.628,0.698,2.282,-20.786,-2.130,51.0,103.0
55600,0.080,-0.611,0.677,-3.099,-16.107,-5.038,51.0,102.0
55647,0.078,-0.620,0.720,-6.298,-8.603,0.305,52.0,105.0
55694,0.093,-0.664,0.768,-6.618,-2.130,-0.489,51.0,113.0
55741,0.026,-0.670,0.818,-3.702,-9.779,-1.969,57.0,114.0
55837,0.084,-0.645,0.679,-5.611,-27.115,3.824,156.0,106.0
55888,0.106,-0.667,0.667,-8.466,-19.405,9.969,156.0,80.0
55937,0.121,-0.684,0.711,-12.634,-20.977,6.061,51.0,125.0
55987,0.166,-0.709,0.702,-10.931,-19.023,9.321,51.0,118.0
56034,0.154,-0.729,0.726,-9.939,-17.702,7.893,50.0,117.0
56081,0.160,-0.710,0.702,-8.611,-8.466,10.031,50.0,118.0
56129,0.114,-0.733,0.706,-6.580,-13.573,8.840,50.0,118.0
56179,0.151,-0.733,0.630,-7.641,-17.290,9.000,107.0,119.0
56228,0.138,-0.700,0.654,-9.977,-10.740,10.031,107.0,81.0
56274,0.146,-0.733,0.648,-10.710,-13.786,11.107,72.0,82.0
56322,0.177,-0.736,0.636,-14.115,-9.153,10.824,69.0,81.0
56368,0.170,-0.789,0.697,-14.481,-8.145,5.305,69.0,79.0
56417,0.141,-0.742,0.681,-7.542,-7.656,7.206,69.0,75.0
56463,0.120,-0.771,0.631,-6.656,-11.008,10.321,68.0,76.0
56508,0.138,-0.759,0.601,-7.901,-2.641,12.947,48.0,76.0
56552,0.100,-0.776,0.634,-9.931,-10.542,13.191,44.0,76.0
56597,0.144,-0.777,0.607,-8.702,-15.145,11.779,44.0,76.0
56642,0.156,-0.786,0.622,-9.359,-15.382,10.000,45.0,76.0
56687,0.176,-0.798,0.584,-8.153,-12.137,6.992,64.0,76.0
56733,0.143,-0.808,0.589,-9.015,-6.641,7.344,67.0,76.0
56779,0.163,-0.783,0.552,-8.947,-4.191,6.885,64.0,76.0
56828,0.113,-0.816,0.565,-9.702,-0.649,9.756,68.0,76.0
56875,0.137,-0.792,0.551,-10.290,-5.527,12.076,63.0,77.0
56920,0.113,-0.821,0.567,-11.290,-3.840,9.962,43.0,77.0
56970,0.124,-0.826,0.571,-11.763,-6.779,7.511,142.0,77.0
57016,0.104,-0.833,0.582,-9.779,-7.336,8.237,66.0,76.0
57062,0.112,-0.866,0.572,-10.656,-3.084,7.611,63.0,78.0
57108,0.084,-0.856,0.587,-7.962,-1.672,10.519,63.0,77.0
57154,0.079,-0.855,0.557,-4.000,-8.405,14.504,63.0,77.0
57199,0.098,-0.839,0.512,-2.908,-11.267,12.206,62.0,77.0
57248,0.091,-0.859,0.489,-5.053,-8.603,11.076,61.0,78.0
57296,0.081,-0.843,0.456,-7.832,-8.305,9.779,95.0,78.0
57342,0.060,-0.842,0.463,-11.382,-8.511,11.466,63.0,78.0
57391,0.085,-0.858,0.467,-14.847,-5.313,13.145,94.0,79.0
57439,0.041,-0.862,0.537,-13.878,-1.282,9.489,95.0,79.0
57489,0.078,-0.862,0.481,-13.061,-5.656,9.634,140.0,78.0
57539,0.070,-0.872,0.461,-11.809,4.366,13.542,140.0,80.0
57590,0.010,-0.868,0.480,-12.481,7.122,15.420,139.0,79.0
57640,0.010,-0.882,0.439,-11.038,-4.382,14.489,139.0,81.0
57693,0.028,-0.907,0.430,-15.427,-5.603,10.328,93.0,80.0
57741,0.047,-0.870,0.444,-10.595,2.496,17.679,94.0,82.0
57791,-0.029,-0.959,0.428,-8.069,4.115,14.748,137.0,83.0
57841,-0.027,-0.863,0.421,-6.931,0.397,17.145,136.0,80.0
57892,-0.102,-0.951,0.436,-2.580,-21.344,10.809,135.0,80.0
57943,-0.051,-0.838,0.418,-0.702,-22.702,16.557,136.0,79.0
57994,-0.074,-0.974,0.425,3.992,-28.718,22.885,138.0,81.0
58045,-0.109,-0.906,0.490,5.145,-34.878,21.649,139.0,87.0
58096,-0.051,-0.984,0.441,7.855,-26.962,27.115,134.0,39.0
58144,-0.044,-0.900,0.374,4.710,-3.672,21.603,133.0,39.0
58192,-0.062,-0.934,0.458,7.214,-1.939,12.397,132.0,39.0
58280,-0.051,-0.998,0.482,13.466,15.092,17.542,90.0,39.0
58327,-0.179,-0.929,0.497,1.901,28.473,3.420,90.0,40.0
58375,-0.208,-0.917,0.419,4.237,10.473,0.939,133.0,40.0
58422,-0.181,-0.913,0.356,1.664,-4.374,4.550,132.0,40.0
58470,-0.180,-0.903,0.459,1.924,-13.305,2.511,132.0,42.0
58518,-0.121,-0.877,0.460,4.344,-17.649,4.267,132.0,41.0
58574,-0.082,-0.867,0.480,3.824,-13.473,5.260,132.0,43.0
58624,-0.102,-0.884,0.472,2.435,1.031,3.038,132.0,84.0
58673,-0.125,-0.874,0.457,4.344,3.794,3.908,132.0,82.0
58723,-0.183,-0.872,0.483,3.023,0.168,1.664,132.0,84.0
58770,-0.148,-0.854,0.460,1.969,-0.962,2.260,97.0,84.0
58817,-0.167,-0.875,0.484,3.130,-4.992,2.908,88.0,84.0
58864,-0.148,-0.858,0.489,1.885,-5.611,1.939,96.0,84.0
58913,-0.145,-0.854,0.501,1.534,-6.038,0.290,132.0,84.0
58963,-0.142,-0.860,0.470,1.427,-3.519,0.695,132.0,83.0
59013,-0.152,-0.854,0.491,0.122,-3.267,-0.901,87.0,84.0
59063,-0.137,-0.873,0.482,1.153,-4.435,-0.405,132.0,83.0
59112,-0.143,-0.844,0.497,0.389,-5.473,-1.458,131.0,84.0
59162,-0.113,-0.802,0.474,3.275,-7.275,-5.382,131.0,85.0
59209,-0.239,-0.768,0.614,-13.565,-8.924,-45.603,87.0,85.0
59258,-0.268,-0.925,0.439,-31.588,-8.496,-73.870,129.0,85.0
59303,-0.083,-1.016,0.400,-15.756,-49.282,-22.443,45.0,86.0
59351,0.244,-0.842,0.331,-18.634,-13.786,-25.206,86.0,86.0
59400,0.180,-0.899,0.381,1.702,51.992,-19.733,128.0,86.0
59450,-0.117,-1.017,0.516,-0.496,68.794,29.733,84.0,86.0
59497,-0.193,-1.005,0.499,11.328,4.015,16.015,82.0,86.0
59544,-0.111,-0.890,0.465,-0.504,-43.687,-16.664,82.0,87.0
59591,0.101,-0.924,0.438,-10.771,-26.229,-14.282,82.0,89.0
59638,0.046,-0.961,0.465,0.107,-8.389,-18.710,81.0,88.0
59685,0.055,-0.874,0.496,-1.924,3.496,-12.924,82.0,91.0
59729,0.042,-0.883,0.432,6.992,-18.389,-23.847,83.0,44.0
59774,0.174,-0.832,0.362,3.779,-12.145,-18.687,82.0,45.0
59819,0.150,-0.896,0.364,-0.962,8.962,-36.374,82.0,45.0
59869,0.045,-0.929,0.417,-13.198,19.771,-39.389,84.0,91.0
59917,-0.037,-0.927,0.491,0.794,-5.511,-30.443,86.0,91.0
59964,0.040,-0.904,0.426,-1.168,-18.145,-29.099,84.0,86.0
60010,0.142,-0.902,0.372,-1.214,-10.405,-20.718,84.0,85.0
60058,0.126,-0.886,0.436,0.206,-9.076,-15.267,84.0,87.0
60105,0.136,-0.901,0.422,-3.710,-32.244,-23.412,84.0,86.0
60152,0.240,-0.954,0.366,-4.779,-25.542,-22.656,84.0,86.0
60199,0.179,-0.868,0.411,-7.908,-11.908,-22.985,84.0,87.0
60247,0.184,-0.875,0.382,-2.885,0.992,-5.053,84.0,88.0
60297,0.236,-0.912,0.398,-0.015,17.344,5.802,84.0,89.0
60344,0.205,-0.895,0.464,3.221,-16.855,2.015,85.0,89.0
60391,0.327,-0.919,0.375,-6.229,-21.824,-14.924,85.0,90.0
60438,0.394,-0.873,0.369,1.298,-11.107,-2.153,84.0,90.0
60487,0.215,-0.954,0.420,1.947,10.443,-8.145,100.0,92.0
60534,0.261,-0.872,0.435,2.214,-6.069,-10.275,84.0,91.0
60581,0.225,-0.887,0.419,4.183,-10.679,-10.214,83.0,89.0
60630,0.312,-0.896,0.361,3.985,-9.687,-5.137,84.0,94.0
60720,0.330,-0.912,0.383,1.145,10.099,-7.412,84.0,89.0
60771,0.180,-0.845,0.461,5.641,-8.916,-1.237,83.0,108.0
60818,0.312,-0.914,0.347,5.695,-28.718,-7.031,82.0,90.0
60866,0.329,-0.863,0.357,1.153,-12.802,0.153,82.0,105.0
60911,0.275,-0.885,0.400,2.748,-18.168,-1.198,82.0,41.0
60955,0.306,-0.854,0.392,-0.267,-21.763,-0.076,82.0,42.0
61003,0.310,-0.856,0.379,3.084,-26.458,2.015,82.0,93.0
61050,0.358,-0.880,0.337,1.084,-19.725,4.870,81.0,91.0
61097,0.359,-0.863,0.362,-1.305,-4.863,2.053,81.0,92.0
61145,0.265,-0.907,0.417,0.221,-13.015,4.847,81.0,92.0
61204,0.402,-0.876,0.358,1.328,-20.069,4.916,80.0,93.0
61254,0.383,-0.879,0.350,1.855,-0.405,7.580,81.0,98.0
61306,0.304,-0.919,0.387,2.122,-7.000,6.092,81.0,126.0
61356,0.358,-0.854,0.354,2.939,-10.298,6.611,81.0,92.0
61406,0.313,-0.902,0.349,0.962,-7.588,8.099,82.0,85.0
61455,0.343,-0.879,0.327,-2.702,-7.550,2.412,80.0,86.0
61504,0.282,-0.916,0.392,-1.344,-5.786,6.076,79.0,89.0
61553,0.304,-0.916,0.362,0.145,-12.802,6.649,77.0,85.0
61599,0.302,-0.902,0.385,0.885,-16.718,7.939,16.0,84.0
61651,0.364,-0.917,0.339,3.679,-10.985,6.634,78.0,84.0
61700,0.327,-0.871,0.348,1.962,-7.847,6.359,78.0,74.0
61749,0.334,-0.910,0.340,3.145,-3.878,5.710,77.0,86.0
61798,0.307,-0.901,0.350,1.221,-7.458,2.954,76.0,72.0
61846,0.318,-0.873,0.339,1.153,-8.214,6.656,76.0,73.0
61894,0.318,-0.906,0.360,1.611,-3.901,3.267,76.0,73.0
61943,0.285,-0.912,0.371,2.863,-6.282,3.702,76.0,73.0
61991,0.311,-0.910,0.348,4.336,-7.832,3.626,75.0,73.0
62040,0.316,-0.915,0.350,3.733,-4.038,5.420,75.0,74.0
62092,0.300,-0.875,0.356,3.412,-4.229,4.939,75.0,73.0
62140,0.318,-0.930,0.347,3.130,-3.840,3.901,75.0,76.0
62189,0.279,-0.879,0.366,3.733,-3.198,4.107,75.0,76.0
62238,0.313,-0.912,0.347,4.962,-0.053,6.389,75.0,87.0
62287,0.309,-0.895,0.372,3.214,-1.954,3.183,75.0,88.0
62337,0.330,-0.898,0.359,4.366,6.130,5.282,74.0,87.0
62385,0.289,-0.911,0.388,3.366,0.450,0.336,74.0,75.0
62434,0.303,-0.872,0.360,2.427,6.076,0.969,74.0,73.0
62482,0.299,-0.921,0.375,2.786,4.221,-1.084,75.0,76.0
62530,0.281,-0.884,0.374,1.908,3.389,-0.145,75.0,73.0
62576,0.300,-0.906,0.365,2.038,8.099,-1.947,75.0,73.0
62625,0.277,-0.902,0.367,0.756,13.382,-0.527,75.0,76.0
62674,0.258,-0.903,0.390,1.511,9.588,-0.397,76.0,74.0
62724,0.292,-0.896,0.404,2.130,5.550,-3.870,77.0,88.0
62773,0.283,-0.898,0.424,5.298,10.122,2.244,78.0,88.0
62822,0.269,-0.921,0.449,9.221,2.809,0.893,95.0,47.0
62869,0.264,-0.846,0.472,13.053,3.382,9.542,79.0,47.0
62917,0.269,-0.933,0.468,22.489,-6.504,10.504,79.0,73.0
62966,0.247,-0.828,0.509,22.664,-9.458,14.298,79.0,72.0
63014,0.254,-0.885,0.479,34.603,-19.817,39.137,9.0,70.0
63059,0.250,-0.889,0.480,44.710,-22.466,69.893,17.0,69.0
63109,0.189,-0.954,0.483,47.786,-25.649,93.756,82.0,67.0
