Timestamp(ms),AccelX(g),AccelY(g),AccelZ(g),GyroX(deg/s),GyroY(deg/s),GyroZ(deg/s),DistanceLeft(cm),DistanceRight(cm)
276311,-0.208,-0.038,1.003,26.992,12.481,21.519,0.0,0.0
276404,-0.123,0.060,0.960,12.824,14.489,5.466,0.0,0.0
276498,-0.248,0.207,1.005,31.748,28.725,-6.000,0.0,0.0
276589,-0.183,0.187,0.930,35.168,18.573,-5.840,0.0,160.0
276677,-0.115,-0.355,0.897,136.626,50.794,-14.237,0.0,115.0
276765,-0.391,0.124,0.436,199.611,110.908,-80.641,0.0,95.0
276858,-0.837,0.364,0.185,250.130,126.038,-154.260,0.0,0.0
276954,-1.217,0.672,-0.083,205.305,54.092,-175.588,0.0,180.0
277046,-1.251,0.658,-0.235,82.237,16.000,-144.061,0.0,171.0
277138,-1.102,0.335,-0.066,23.786,13.687,-77.901,0.0,168.0
277230,-1.072,0.251,-0.032,101.611,-18.580,-20.542,0.0,167.0
277322,-1.109,0.312,-0.101,151.962,-34.511,22.618,0.0,167.0
277414,-0.813,0.472,0.014,95.252,-16.504,54.359,0.0,170.0
277507,-0.941,0.352,0.126,-34.168,-6.473,55.511,0.0,176.0
277600,-0.910,0.246,0.176,-23.023,-0.282,60.893,0.0,181.0
277692,-0.943,0.264,0.130,-24.794,7.786,46.611,0.0,186.0
277789,-0.760,0.266,0.156,-5.794,-0.160,25.412,0.0,191.0
277882,-0.746,0.476,0.072,1.534,9.053,-20.534,0.0,194.0
277976,-0.827,0.364,0.135,-39.542,16.863,-50.634,0.0,197.0
278067,-1.054,0.360,0.074,-14.237,16.267,-42.053,0.0,148.0
278159,-1.007,0.325,0.030,-27.275,18.672,-11.145,0.0,153.0
278252,-0.982,0.308,0.003,-60.489,21.641,33.687,0.0,0.0
278346,-1.108,0.159,-0.054,17.405,-14.267,45.802,0.0,0.0
278440,-0.789,0.407,-0.107,8.031,-2.763,48.992,0.0,0.0
278534,-0.917,0.238,-0.043,-13.916,-13.969,4.664,0.0,0.0
278631,-1.065,0.230,-0.049,73.282,-33.931,-0.366,0.0,0.0
278724,-1.006,0.391,-0.065,68.137,-25.252,-28.076,181.0,0.0
278818,-0.930,0.250,0.073,42.198,-18.939,-34.885,0.0,0.0
278910,-0.897,0.155,0.149,113.458,-41.794,-11.885,175.0,0.0
279004,-0.868,0.572,0.056,102.756,-29.244,-19.267,178.0,0.0
279097,-0.806,0.388,0.201,11.275,-17.656,-28.771,180.0,0.0
279191,-0.783,0.605,0.121,62.649,-3.252,-14.038,0.0,0.0
279283,-0.881,0.597,0.075,-43.481,31.519,-17.779,182.0,0.0
279378,-0.821,0.320,0.135,-42.351,14.412,18.015,166.0,0.0
279471,-0.922,0.626,-0.102,-26.313,18.702,21.542,160.0,0.0
279562,-1.340,0.600,-0.116,-139.954,6.580,-2.763,151.0,0.0
279652,-1.298,0.365,0.005,-68.870,-9.847,125.664,142.0,0.0
279746,-1.326,0.138,0.095,-20.031,-106.672,159.534,0.0,0.0
279839,0.356,1.675,-0.170,-65.763,105.786,15.260,184.0,0.0
279932,-0.649,0.142,0.146,218.084,19.885,67.756,180.0,0.0
280019,-0.784,0.036,0.443,-94.443,43.679,44.298,199.0,79.0
280107,-0.386,0.663,0.177,-152.779,70.634,11.679,194.0,77.0
280197,-0.937,0.582,0.163,-125.977,70.359,16.382,0.0,74.0
280284,-1.100,0.595,-0.024,-113.153,74.710,33.840,0.0,74.0
280371,-0.934,0.856,-0.234,-74.634,61.710,67.427,0.0,76.0
280456,-0.755,0.523,0.089,-26.519,55.038,55.099,0.0,50.0
280541,-0.694,0.468,0.337,-28.901,51.076,21.542,0.0,49.0
280627,-0.705,0.652,0.327,-38.641,50.656,7.573,0.0,48.0
280712,-0.750,0.796,0.211,-42.183,41.305,4.397,0.0,46.0
280797,-0.730,0.721,0.187,-44.588,42.053,20.244,0.0,47.0
280883,-0.663,0.680,0.174,-36.870,41.038,33.626,0.0,45.0
280964,-0.821,0.606,0.158,-30.748,32.053,56.275,170.0,46.0
281048,-0.712,0.292,0.202,15.641,22.748,63.183,183.0,43.0
281132,-0.578,0.668,0.069,-83.954,42.168,23.000,178.0,52.0
281220,-0.375,0.622,0.130,4.832,23.618,71.870,162.0,118.0
281302,-0.278,0.689,0.231,-9.137,-1.107,101.779,152.0,41.0
281384,-0.433,0.749,0.166,-28.336,-24.298,119.313,157.0,36.0
281470,-0.202,1.503,-0.000,-44.374,7.931,162.115,162.0,107.0
281564,-0.046,1.525,0.901,-162.916,-20.885,46.397,175.0,0.0
281660,2.000,0.523,1.281,117.427,-10.603,11.260,185.0,0.0
281759,0.121,0.746,0.266,-55.046,28.084,-56.168,163.0,0.0
281847,-0.068,-0.017,0.282,-217.695,54.779,-66.267,0.0,119.0
281933,0.322,0.335,-0.085,250.130,-31.756,21.336,156.0,118.0
282021,-0.574,-0.173,0.623,-121.710,29.725,28.992,0.0,117.0
282110,-0.703,0.990,0.738,63.496,14.939,-20.298,200.0,114.0
282199,-0.458,1.050,1.219,-15.565,-8.214,-38.008,0.0,113.0
282287,-0.375,1.171,0.622,-28.107,-56.145,12.489,0.0,112.0
282378,-0.074,0.680,0.512,-50.641,-56.618,27.481,0.0,113.0
282466,-0.121,0.748,0.607,-6.473,-56.511,25.374,0.0,114.0
282554,0.205,0.966,0.365,28.832,-47.038,55.634,0.0,116.0
282643,0.360,0.614,0.689,-7.099,-31.794,49.008,0.0,119.0
282731,0.414,0.390,0.783,-23.328,-36.031,17.504,0.0,121.0
282820,0.324,0.650,0.558,-47.756,-23.855,-7.397,0.0,121.0
282909,0.396,0.812,0.545,-78.328,-10.420,6.580,0.0,122.0
282995,0.236,0.432,0.906,-30.160,-16.740,-22.084,0.0,90.0
283075,0.196,0.460,0.809,0.779,-25.023,-4.115,60.0,90.0
283156,0.395,0.379,0.682,-20.275,-23.672,7.275,61.0,89.0
283235,0.486,0.291,0.795,-34.931,-21.618,-5.634,58.0,89.0
283322,0.379,0.552,0.653,-2.817,-27.687,20.458,0.0,89.0
283409,0.471,0.653,0.471,30.382,-15.962,28.939,0.0,89.0
283496,0.535,0.358,0.840,-15.588,-4.298,-3.168,0.0,89.0
283583,0.479,0.706,0.689,-19.405,-7.794,4.962,0.0,89.0
283661,0.422,0.646,0.673,8.427,-13.328,15.076,58.0,89.0
283748,0.482,0.602,0.677,8.817,-12.031,4.275,0.0,89.0
283837,0.502,0.560,0.741,-7.107,-16.557,7.237,0.0,122.0
283929,0.599,0.403,0.791,-11.534,-21.458,1.893,0.0,123.0
284010,0.534,0.481,0.656,16.351,-27.885,27.870,61.0,122.0
284098,0.671,0.333,0.632,-13.145,-21.023,20.870,0.0,123.0
284179,0.680,0.342,0.577,-2.504,-12.901,14.595,58.0,114.0
284259,0.596,0.350,0.593,-9.290,-11.374,15.313,57.0,112.0
284347,0.688,0.457,0.624,-3.779,0.481,4.237,0.0,112.0
284436,0.648,0.414,0.724,13.328,-12.107,14.832,0.0,114.0
284523,0.672,0.485,0.609,-8.641,-13.664,4.893,0.0,93.0
284610,0.779,0.398,0.529,-3.015,-13.573,7.603,0.0,94.0
284701,0.763,0.435,0.475,11.511,-6.031,11.931,0.0,114.0
284788,0.742,0.384,0.588,4.992,-5.985,5.183,0.0,94.0
284876,0.749,0.351,0.485,2.084,-7.611,18.168,0.0,110.0
284957,0.692,0.279,0.568,-14.969,0.534,0.664,52.0,115.0
285037,0.713,0.352,0.584,0.954,1.779,4.046,51.0,117.0
285117,0.663,0.333,0.589,-5.969,-0.237,3.931,51.0,117.0
285208,0.711,0.480,0.420,26.802,1.603,21.313,0.0,160.0
285297,0.718,0.344,0.572,18.977,0.626,-3.115,0.0,113.0
285385,0.840,0.365,0.651,4.733,0.695,-3.321,0.0,116.0
285477,0.759,0.397,0.681,-14.588,-4.962,0.008,0.0,117.0
285566,0.756,0.244,0.591,6.435,-11.473,-11.489,0.0,119.0
285655,0.881,0.178,0.589,26.282,-12.985,1.496,0.0,96.0
285742,0.874,0.213,0.614,3.832,-12.496,-0.069,0.0,95.0
285830,0.783,0.429,0.471,-3.740,-9.687,-8.130,0.0,93.0
285917,0.807,0.449,0.427,16.061,-3.954,-22.168,0.0,93.0
286005,0.778,0.328,0.546,-34.626,-1.725,3.565,0.0,92.0
286085,0.782,0.256,0.571,-0.107,-15.397,-17.206,59.0,91.0
286172,0.823,0.557,0.365,-7.015,-9.649,-12.969,0.0,89.0
286262,0.882,0.506,0.417,9.733,-5.626,5.809,0.0,89.0
286349,0.765,0.223,0.570,21.817,-13.267,-13.588,0.0,89.0
286437,0.659,0.351,0.436,0.061,-9.053,-13.382,0.0,89.0
286524,0.949,0.370,0.388,-20.458,-4.206,5.321,0.0,89.0
286611,0.836,0.318,0.428,34.977,-9.511,5.779,0.0,88.0
286699,1.158,0.514,0.327,27.031,-3.130,-3.374,0.0,88.0
286786,0.721,0.499,0.371,-16.504,0.939,20.947,0.0,89.0
286873,0.841,0.313,0.426,10.374,1.504,3.344,0.0,89.0
286960,0.804,0.308,0.444,-0.198,0.031,-6.588,0.0,88.0
287051,0.832,0.559,0.351,-1.908,-3.092,9.504,0.0,88.0
287138,1.006,0.298,0.420,26.191,-5.725,15.076,0.0,89.0
287218,0.778,0.215,0.415,22.405,-1.924,14.947,61.0,89.0
287306,0.686,0.162,0.293,105.237,-11.924,34.618,0.0,105.0
287395,0.726,0.031,0.539,-41.015,3.244,-16.000,0.0,105.0
287484,0.827,0.276,0.273,103.053,-19.702,18.725,0.0,128.0
287575,0.844,0.557,0.132,41.534,-9.191,-10.420,0.0,127.0
287665,0.880,0.185,0.274,88.580,-21.237,-21.794,0.0,130.0
287756,0.818,0.720,-0.068,76.053,-28.076,-28.137,0.0,150.0
287847,0.835,0.609,0.018,16.916,-13.954,-1.779,158.0,148.0
287938,0.797,0.528,0.026,28.031,-21.931,-18.298,0.0,144.0
288030,0.788,0.596,-0.065,-1.565,-8.588,-17.458,185.0,193.0
288118,0.708,0.690,-0.191,-14.260,-8.786,-40.573,154.0,141.0
288206,0.722,0.630,-0.117,-3.344,-8.328,-19.695,158.0,140.0
288294,0.715,0.778,-0.134,-10.832,-3.382,-28.412,154.0,139.0
288382,0.731,0.868,-0.140,-22.328,10.519,-7.076,154.0,137.0
288471,0.723,0.915,-0.068,-12.641,13.015,-10.824,158.0,136.0
288560,0.680,0.635,0.134,-10.969,17.061,-3.489,169.0,138.0
288652,0.663,0.749,0.053,21.603,8.321,11.893,176.0,137.0
288740,0.645,0.718,0.070,5.481,2.130,7.145,151.0,137.0
288827,0.730,0.882,0.078,-56.160,0.382,-0.573,151.0,138.0
288915,0.528,0.527,0.256,-30.939,1.588,-2.290,150.0,138.0
289002,0.709,0.807,0.111,-33.626,0.221,-23.267,152.0,138.0
289089,0.649,0.900,0.150,-71.565,14.557,-4.832,151.0,106.0
289177,0.555,0.410,0.296,-250.137,58.855,-72.092,0.0,94.0
289265,0.570,0.765,0.512,66.786,-2.649,1.977,0.0,106.0
289356,0.392,0.367,0.758,-82.099,21.160,-33.649,0.0,87.0
289443,0.616,0.795,0.568,-25.634,14.656,-4.595,0.0,82.0
289530,0.438,0.288,0.692,-214.160,59.221,-32.450,0.0,80.0
289627,0.359,0.323,0.890,61.748,17.473,-11.588,0.0,79.0
289713,0.252,0.287,0.972,-44.611,15.885,6.099,0.0,79.0
289800,0.338,0.526,0.887,-2.763,13.664,-4.588,0.0,79.0
289886,0.138,0.475,0.852,-90.725,24.786,-4.962,0.0,80.0
289973,0.427,-0.068,1.017,44.985,3.290,-13.076,0.0,80.0
290060,0.137,0.075,0.982,7.214,-2.107,8.153,0.0,79.0
290149,0.349,0.247,0.995,-36.229,7.046,6.641,0.0,80.0
290235,0.255,0.320,1.006,13.282,-6.481,0.382,0.0,80.0
290322,0.291,0.248,0.973,-1.588,-8.336,4.916,0.0,80.0
290408,0.339,0.180,0.940,9.344,-12.229,6.420,0.0,80.0
290495,0.335,0.278,0.888,10.237,-7.756,5.664,0.0,81.0
290581,0.400,0.338,0.922,24.908,-6.809,7.496,0.0,82.0
290668,0.381,0.250,0.963,30.947,-13.695,14.786,0.0,83.0
290755,0.315,0.105,0.959,-18.450,-7.824,11.710,0.0,85.0
290842,0.418,0.151,0.795,22.947,-14.496,20.412,0.0,87.0
290928,0.422,0.240,0.891,-4.435,2.626,12.023,0.0,76.0
291018,0.371,0.296,0.886,18.366,-7.580,6.153,0.0,87.0
291105,0.447,0.251,0.856,-6.305,-2.710,15.412,0.0,88.0
291192,0.475,0.340,0.796,63.504,-12.901,20.855,0.0,89.0
291279,0.394,0.092,0.913,-44.504,3.176,3.000,0.0,89.0
291366,0.591,0.381,0.767,16.832,2.519,4.931,0.0,90.0
291453,0.429,0.159,1.038,26.466,-8.466,3.038,0.0,90.0
291540,0.434,0.296,0.879,-8.687,-16.130,6.031,0.0,91.0
291628,0.498,0.269,0.722,-7.336,-15.061,13.359,0.0,92.0
291716,0.546,0.244,0.733,1.252,-3.427,8.008,0.0,92.0
291798,0.585,0.285,0.853,12.282,-3.008,5.351,70.0,93.0
291886,0.507,0.183,0.958,14.130,-14.344,4.664,0.0,95.0
291973,0.527,0.218,0.804,1.802,-21.321,-0.267,0.0,91.0
292052,0.588,0.306,0.603,-32.412,1.206,-9.466,72.0,91.0
292132,0.569,0.211,0.836,17.229,-0.924,-4.840,71.0,90.0
292212,0.632,0.302,0.895,-9.725,-3.542,-3.435,71.0,90.0
292292,0.464,0.177,0.808,32.137,-13.137,-2.786,71.0,90.0
292380,0.586,0.207,0.787,-15.962,-8.595,-3.221,0.0,89.0
292467,0.665,0.354,0.580,0.244,-9.397,-11.702,0.0,89.0
292550,0.751,0.461,0.495,24.359,27.824,4.603,69.0,88.0
292637,0.557,0.263,1.011,-8.153,16.893,16.534,0.0,89.0
292717,0.458,0.232,1.090,-13.985,-10.420,-1.527,72.0,89.0
292797,0.383,0.138,0.824,67.107,-46.046,-4.183,71.0,88.0
292884,0.626,0.534,0.436,-8.603,-12.397,0.405,0.0,90.0
292971,0.619,0.535,0.556,12.847,-6.237,-0.389,0.0,87.0
293059,0.643,0.383,0.739,27.191,-10.412,16.237,0.0,86.0
293146,0.518,0.336,0.697,-10.847,-5.504,-10.550,0.0,85.0
293233,0.565,0.269,0.725,0.420,-24.557,12.412,0.0,86.0
293322,0.606,0.311,0.563,-31.809,-18.305,3.466,0.0,81.0
293409,0.604,0.068,0.713,-12.511,-6.489,-30.130,0.0,82.0
293496,0.654,0.547,0.440,30.321,-23.534,0.595,0.0,83.0
293583,0.742,0.444,0.468,15.840,-0.641,11.985,0.0,82.0
293670,0.792,0.409,0.467,55.336,2.176,32.122,0.0,86.0
293758,0.808,0.506,0.398,13.122,14.145,26.977,0.0,91.0
293844,0.739,0.289,0.569,7.542,21.702,7.649,0.0,78.0
293932,0.748,0.418,0.529,20.695,18.817,17.534,0.0,78.0
294011,0.761,0.481,0.466,51.786,16.031,18.008,65.0,79.0
294100,0.648,0.366,0.421,64.061,12.130,31.840,0.0,80.0
294188,0.527,0.401,0.300,82.954,17.023,38.679,0.0,82.0
294277,0.433,0.350,0.303,52.137,25.656,29.397,0.0,114.0
294366,0.620,0.603,0.230,86.298,91.466,6.008,0.0,120.0
294460,0.464,0.382,0.496,1.969,117.397,-46.817,0.0,0.0
294550,0.300,0.529,0.778,-24.832,156.260,-69.053,0.0,124.0
294643,-0.043,0.488,1.148,19.298,110.748,-84.191,0.0,0.0
294737,-0.051,0.780,1.052,52.634,56.405,-74.863,0.0,0.0
294832,-0.102,0.662,0.781,-48.687,110.756,-76.664,0.0,0.0
294928,-0.157,0.428,0.985,-1.328,-4.802,-15.137,0.0,0.0
295022,-0.268,0.653,0.649,8.038,-3.542,-1.115,0.0,0.0
295105,-0.205,0.513,0.885,-23.733,5.840,0.069,0.0,16.0
295189,-0.198,0.595,0.780,7.947,-1.954,1.122,0.0,16.0
295272,-0.228,0.518,0.817,-6.565,1.603,-1.473,0.0,16.0
295355,-0.228,0.536,0.807,-2.573,0.595,-0.405,0.0,16.0
295439,-0.213,0.532,0.825,0.855,0.977,1.740,0.0,16.0
295522,-0.230,0.559,0.814,1.473,1.008,0.198,0.0,16.0
295605,-0.202,0.554,0.847,-7.382,7.901,-4.756,0.0,16.0
295702,-0.173,0.583,0.989,1.641,22.893,-10.076,0.0,0.0
295796,-0.385,0.636,0.887,38.588,-23.099,-22.771,0.0,0.0
295890,-0.161,0.275,0.924,46.809,-5.725,-40.679,0.0,0.0
295984,-0.373,0.583,0.602,-9.756,3.069,-15.710,0.0,0.0
296078,-0.339,0.650,0.571,9.809,7.832,-16.061,0.0,0.0
296172,-0.355,0.558,0.727,2.641,7.679,-2.206,0.0,0.0
296266,-0.420,0.792,0.829,15.885,-1.328,2.023,0.0,0.0
296359,-0.377,0.478,0.801,17.931,-7.305,-2.443,0.0,0.0
296454,-0.397,0.485,0.675,-11.695,0.977,-5.168,0.0,0.0
296541,-0.444,0.624,0.765,-5.763,3.305,-1.000,0.0,17.0
296624,-0.367,0.626,0.753,6.550,6.015,-7.771,0.0,17.0
296718,-0.388,0.491,0.773,24.412,-0.099,-3.084,0.0,0.0
296802,-0.406,0.433,0.786,-2.122,3.740,-3.786,0.0,16.0
296896,-0.368,0.545,0.761,-5.458,1.779,-3.947,0.0,0.0
296979,-0.331,0.521,0.781,-1.809,2.061,-5.298,0.0,17.0
297063,-0.315,0.522,0.765,-6.275,0.397,0.275,0.0,17.0
297146,-0.360,0.487,0.740,0.870,-1.595,4.534,0.0,16.0
297240,-0.392,0.561,0.738,5.565,-3.366,5.962,0.0,0.0
297334,-0.466,0.475,0.801,-10.863,0.557,1.137,0.0,0.0
297421,-0.423,0.442,0.818,-27.763,3.420,-4.069,0.0,16.0
297515,-0.359,0.570,0.729,-13.771,1.130,-0.382,0.0,0.0
297609,-0.301,0.763,0.652,20.962,-2.084,2.252,0.0,0.0
297693,-0.331,0.541,0.748,16.031,-2.260,3.023,0.0,16.0
297787,-0.326,0.496,0.732,17.534,-3.740,6.397,0.0,0.0
297881,-0.366,0.552,0.774,7.092,-5.435,10.366,0.0,0.0
297964,-0.394,0.518,0.811,4.176,-5.061,1.443,0.0,16.0
298058,-0.387,0.569,0.796,-11.359,-7.832,6.008,0.0,0.0
298152,-0.354,0.588,0.774,-0.405,-10.847,4.511,0.0,0.0
298250,-0.331,0.490,0.778,-12.855,-10.565,8.366,0.0,0.0
298344,-0.298,0.451,0.755,10.466,-8.878,9.282,0.0,0.0
298438,-0.312,0.483,0.747,-0.511,-6.473,4.443,0.0,0.0
298532,-0.241,0.532,0.767,0.099,-3.809,9.153,0.0,0.0
298627,-0.247,0.603,0.771,7.466,-0.908,3.649,0.0,0.0
298721,-0.267,0.586,0.810,-14.450,-1.626,8.260,0.0,0.0
298815,-0.291,0.637,0.774,-4.450,-1.244,0.321,0.0,0.0
298909,-0.202,0.737,0.770,-18.351,-4.962,-2.435,0.0,0.0
299003,-0.355,0.660,0.796,-5.389,-4.710,12.550,0.0,0.0
299101,-0.299,0.560,0.776,-15.229,-3.290,2.802,0.0,0.0
299195,-0.278,0.660,0.760,-12.969,-8.328,6.786,0.0,0.0
299289,-0.279,0.653,0.723,-10.885,-5.901,1.977,0.0,0.0
299383,-0.163,0.483,0.813,14.374,-14.649,12.550,0.0,0.0
299474,-0.256,0.272,0.929,-27.282,-2.435,3.328,0.0,137.0
299565,-0.105,0.541,0.799,16.038,-3.725,-1.275,0.0,136.0
299656,-0.181,0.420,0.918,43.160,-12.191,6.786,0.0,135.0
299746,-0.243,0.630,0.872,46.221,-1.786,17.260,0.0,135.0
299840,-0.188,0.686,0.741,9.084,-5.015,-1.725,0.0,0.0
299934,-0.174,0.614,0.797,0.397,-16.489,14.725,0.0,129.0
300022,-0.154,0.614,0.794,-35.931,-4.649,10.115,0.0,87.0
300110,-0.002,0.358,0.930,30.405,-14.687,-3.282,0.0,87.0
300197,-0.106,0.341,0.981,-24.580,-5.985,0.160,0.0,86.0
300285,-0.050,0.543,0.904,-9.275,-8.672,8.405,0.0,86.0
300374,-0.073,0.515,0.906,-4.252,-10.763,-0.160,0.0,87.0
300462,-0.104,0.574,0.825,-47.000,-6.099,1.344,0.0,89.0
300552,-0.004,0.499,0.828,-45.962,-5.244,13.870,0.0,128.0
300640,-0.026,-0.193,1.199,-28.962,-9.656,8.427,0.0,91.0
300731,0.022,0.631,0.773,-106.389,8.947,-7.359,0.0,91.0
300822,0.042,0.521,0.855,94.527,-14.687,20.924,0.0,130.0
300917,0.052,0.104,1.041,92.893,-9.092,20.183,0.0,129.0
301005,-0.063,0.108,1.096,-86.557,-2.473,-13.458,0.0,105.0
301093,0.089,0.808,0.730,-68.450,3.267,-9.176,0.0,107.0
301181,0.174,0.361,0.951,69.153,-10.450,18.137,0.0,105.0
301270,0.047,0.174,1.000,17.656,-13.435,14.603,0.0,106.0
301358,0.037,0.144,1.030,-34.282,-2.557,3.130,0.0,106.0
301446,0.195,0.940,0.608,-19.832,0.969,-0.473,0.0,105.0
301537,0.176,0.091,1.004,155.450,-19.672,23.649,0.0,107.0
301625,0.075,-0.240,1.201,-25.733,-5.389,7.420,0.0,107.0
301713,0.130,0.766,0.692,-133.015,13.763,-14.214,0.0,107.0
301802,0.304,0.978,0.609,87.466,-16.221,27.901,0.0,129.0
301890,0.053,-0.619,1.342,90.611,-12.618,17.336,0.0,109.0
301979,0.083,0.253,0.897,-174.046,16.267,-28.855,0.0,108.0
302068,0.372,1.228,0.577,28.305,-1.695,12.863,0.0,130.0
302156,0.281,0.068,1.025,149.977,-11.443,21.954,0.0,110.0
302245,-0.063,-0.420,1.273,-53.153,-2.870,-7.122,0.0,109.0
302337,0.215,0.537,0.754,-146.260,11.405,-24.550,0.0,108.0
302425,0.284,0.913,0.612,74.863,-11.420,17.046,0.0,109.0
302515,0.134,0.070,1.029,136.130,-23.214,30.779,0.0,135.0
302603,0.119,-0.127,1.093,-117.412,10.336,-19.870,0.0,109.0
302693,0.337,1.089,0.578,-39.260,5.031,5.366,0.0,139.0
302783,0.200,0.194,0.959,170.542,-25.489,30.244,0.0,140.0
302872,0.053,-0.436,1.271,-98.672,7.290,-21.779,0.0,109.0
302960,0.322,1.301,0.437,-112.115,6.611,-1.496,0.0,110.0
303051,0.248,0.508,0.857,145.725,-22.763,16.725,0.0,109.0
303140,0.098,-0.213,1.125,18.924,-15.802,8.420,0.0,108.0
303228,0.344,0.389,0.746,-37.305,-5.374,2.840,0.0,109.0
303316,0.240,0.204,0.835,24.748,-7.588,22.626,0.0,109.0
303407,0.253,0.232,0.815,35.672,-14.931,40.611,0.0,138.0
303497,0.218,0.312,0.648,21.252,6.145,34.786,0.0,140.0
303590,0.325,0.325,0.701,20.023,30.137,13.122,0.0,176.0
303681,0.446,0.427,0.742,13.504,44.847,-38.466,0.0,171.0
303773,0.224,0.591,0.863,22.412,71.153,-95.031,0.0,167.0
303869,-0.103,0.507,1.132,96.817,59.481,-93.947,0.0,0.0
303964,-0.085,0.896,0.875,21.473,13.870,-66.076,0.0,0.0
304057,-0.225,0.707,0.700,44.878,32.901,-58.519,0.0,0.0
304151,0.060,0.704,0.841,15.031,-10.557,4.649,0.0,0.0
304244,-0.046,0.850,0.686,71.725,0.908,-5.336,0.0,0.0
304337,-0.079,0.649,0.737,0.992,3.679,-23.092,0.0,0.0
304432,-0.136,0.655,0.560,15.992,9.901,-17.656,0.0,0.0
304519,-0.187,0.597,0.516,34.824,19.672,-40.489,0.0,99.0
304607,-0.260,0.752,0.392,3.718,35.504,-58.649,0.0,95.0
304693,-0.312,0.655,0.514,-31.740,60.405,-70.015,0.0,16.0
304780,-0.433,0.622,0.478,-17.870,76.779,-75.504,0.0,90.0
304868,-0.747,0.574,0.494,-15.122,54.084,-88.985,0.0,88.0
304955,-1.362,0.522,0.428,72.748,47.962,-42.863,0.0,89.0
305043,-1.625,0.562,0.228,-14.863,62.229,2.595,0.0,91.0
305130,-1.548,0.202,0.286,-116.824,42.466,0.710,0.0,93.0
305218,-1.047,-0.197,0.434,30.313,-14.206,-44.534,0.0,97.0
305306,-0.850,0.288,0.268,54.130,-5.359,-48.931,0.0,92.0
305398,-0.627,0.583,0.143,-93.748,-12.031,-17.542,0.0,177.0
305490,-0.757,0.231,0.427,-70.603,-23.756,64.641,0.0,108.0
305577,-0.593,0.410,0.319,-143.015,-28.908,99.260,0.0,79.0
305664,-0.530,0.150,0.646,-63.389,-61.351,112.695,0.0,76.0
305751,-0.758,0.482,0.682,-124.870,-50.328,100.786,0.0,75.0
305838,-0.521,0.378,0.659,-62.328,-69.824,81.076,0.0,74.0
305915,-0.311,0.366,0.668,-29.924,-65.840,42.641,43.0,83.0
305994,-0.212,0.293,0.704,-16.305,-51.931,23.672,43.0,82.0
306072,-0.190,0.291,0.800,15.565,-22.305,12.359,37.0,80.0
306159,-0.164,0.350,0.837,-37.183,-9.786,-5.336,0.0,79.0
306239,-0.190,0.290,0.920,-20.542,-6.947,-18.275,34.0,84.0
306317,-0.234,0.243,1.001,-0.863,-4.649,-33.771,34.0,73.0
306394,-0.318,0.292,0.971,9.229,3.916,-41.084,33.0,61.0
306469,-0.309,0.253,0.883,-13.954,0.176,-26.847,33.0,60.0
306546,-0.355,0.309,0.878,9.763,6.466,-29.740,34.0,57.0
306622,-0.289,0.220,0.887,1.832,-1.023,-18.412,36.0,57.0
306698,-0.206,0.201,0.853,7.748,-5.344,-10.450,18.0,57.0
306772,-0.240,0.233,0.904,8.450,-1.939,-1.107,18.0,50.0
306851,-0.299,0.243,0.915,14.832,-3.908,9.794,37.0,52.0
306932,-0.254,0.133,0.890,33.366,-5.565,15.878,36.0,128.0
307010,-0.328,0.164,0.810,84.153,13.618,-3.481,38.0,88.0
307097,-0.460,0.500,0.696,96.115,53.679,-36.374,0.0,72.0
307183,-0.558,0.589,0.621,87.046,80.412,-74.023,0.0,67.0
307269,-0.562,0.323,0.432,159.351,70.832,-90.443,0.0,58.0
307355,-0.809,0.444,0.007,250.130,41.084,-101.000,0.0,57.0
307442,-1.119,0.815,-0.316,224.382,-45.137,-112.519,0.0,74.0
307525,-1.068,0.573,-0.288,112.695,-44.649,-78.908,128.0,74.0
307611,-1.267,0.387,-0.284,53.687,-28.710,-71.634,126.0,72.0
307694,-0.811,0.204,-0.111,72.328,-27.916,6.405,125.0,77.0
307777,-0.896,0.199,-0.095,133.244,-47.168,29.015,124.0,79.0
307860,-0.683,0.301,-0.090,171.183,-42.290,37.649,123.0,81.0
307950,-0.701,0.423,-0.045,91.901,-16.634,-0.130,123.0,0.0
308039,-0.872,0.352,0.038,59.504,7.710,-23.748,121.0,0.0
308129,-1.111,0.309,-0.098,50.252,11.504,-12.115,120.0,0.0
308218,-1.007,0.265,-0.179,64.290,-8.328,14.618,119.0,0.0
308316,-1.156,0.112,-0.246,107.336,-41.870,37.687,0.0,0.0
308410,-0.956,0.204,-0.270,129.886,-38.252,72.336,0.0,0.0
308504,-0.953,0.170,-0.257,145.519,-68.924,59.794,0.0,0.0
308590,-0.881,0.177,-0.366,200.023,-97.779,48.557,61.0,0.0
308676,-1.011,0.225,-0.503,219.725,-138.886,30.466,50.0,0.0
308756,-1.043,0.269,-0.524,245.863,-159.573,6.603,36.0,105.0
308835,-0.820,0.458,-0.387,208.832,-127.206,-41.565,45.0,93.0
308915,-0.710,0.427,-0.230,125.939,-83.779,-90.924,56.0,83.0
308994,-0.898,0.260,-0.172,110.832,-49.718,-97.649,65.0,73.0
309076,-0.882,0.302,-0.150,129.122,-3.725,-62.115,74.0,64.0
309155,-0.936,0.359,-0.067,73.084,16.885,-43.634,80.0,58.0
309241,-0.935,0.293,0.082,79.023,32.099,-25.412,0.0,55.0
309327,-1.091,0.415,0.106,74.519,45.481,-7.649,0.0,54.0
309413,-1.212,0.156,0.093,15.794,6.008,30.565,0.0,54.0
309499,-0.953,0.332,-0.022,22.305,-0.008,87.687,0.0,57.0
309585,-0.925,0.198,-0.095,-22.817,-28.718,71.336,0.0,58.0
309671,-0.865,0.230,-0.157,20.695,-18.481,62.534,0.0,61.0
309758,-0.859,0.284,-0.204,6.000,-14.198,12.336,0.0,64.0
309848,-0.992,0.279,-0.171,18.962,3.168,-34.321,0.0,67.0
309935,-1.032,0.330,-0.117,2.099,11.305,-48.573,0.0,70.0
310022,-1.134,0.274,0.000,-0.893,-2.603,-40.511,0.0,73.0
310109,-0.752,0.285,0.165,29.603,7.328,-24.924,0.0,79.0
310197,-1.055,0.376,0.080,-69.908,17.603,-21.687,0.0,82.0
310285,-0.894,0.089,0.283,-63.565,-3.473,-8.382,0.0,84.0
310373,-1.061,0.500,0.382,105.794,24.969,19.115,0.0,90.0
310461,1.287,0.380,0.309,-250.137,158.496,-23.832,0.0,95.0
310552,-0.635,-0.696,0.216,56.901,-52.511,0.321,0.0,96.0
310641,-2.000,1.700,-1.853,-221.473,-46.962,171.366,0.0,107.0
310732,-2.000,0.382,-0.493,61.099,38.947,200.511,0.0,128.0
310813,-1.582,0.971,-0.236,23.679,17.763,99.817,36.0,141.0
310898,-1.220,0.979,0.055,3.901,-61.603,35.496,33.0,0.0
310983,-0.204,0.445,-0.062,6.282,-79.626,60.069,35.0,0.0
311068,-0.650,0.784,-0.339,85.023,-16.664,41.954,31.0,0.0
311145,-0.417,0.923,-0.751,28.069,90.099,23.061,30.0,62.0
311220,-0.564,0.211,0.317,89.672,48.618,-16.542,31.0,17.0
311308,0.010,1.522,-0.453,63.115,-22.771,15.824,39.0,0.0
311382,-0.894,0.706,-0.495,-18.511,53.611,-3.969,27.0,10.0
311455,-0.534,0.919,-0.845,-56.107,50.626,-0.229,27.0,15.0
311529,-0.682,0.940,-0.624,61.985,29.405,-7.260,23.0,16.0
311604,-0.340,0.347,-0.423,32.481,-13.740,-28.420,25.0,17.0
311677,-0.123,0.292,-0.341,-25.557,-22.206,5.687,24.0,17.0
311751,-0.169,0.586,-0.484,-8.061,-23.763,16.305,26.0,17.0
311842,-0.432,0.870,-0.652,16.458,-9.748,47.725,27.0,0.0
311915,-0.323,0.435,-0.439,20.511,32.832,37.580,23.0,17.0
312001,-0.407,1.068,-0.600,25.702,42.885,24.733,24.0,0.0
312088,-0.146,0.783,-0.511,24.351,30.824,28.824,0.0,89.0
312181,-0.100,0.658,-0.516,19.649,48.076,12.405,0.0,0.0
312265,-0.175,0.616,-0.547,6.924,24.458,7.779,25.0,0.0
312348,-0.424,0.998,-0.826,-56.595,8.160,-17.115,23.0,0.0
312431,-0.157,1.007,-0.758,44.405,-19.603,-28.679,20.0,0.0
312508,-0.009,0.832,-0.643,7.832,-17.840,-13.076,23.0,85.0
312586,-0.053,0.761,-0.542,-39.527,-6.344,-4.901,23.0,92.0
312662,-0.120,0.982,-0.535,-10.374,-0.710,-15.427,22.0,26.0
312745,-0.152,0.807,-0.414,-39.718,-12.130,11.481,27.0,0.0
312819,-0.222,1.027,-0.484,-39.794,-42.450,25.160,29.0,24.0
312893,-0.189,0.724,-0.361,-52.725,-51.458,36.305,30.0,30.0
312977,-0.161,0.834,-0.422,-40.130,-50.053,29.824,29.0,0.0
313055,-0.091,0.753,-0.442,-43.061,-62.931,14.954,26.0,101.0
313140,0.170,1.008,-0.395,-40.282,-35.160,37.664,142.0,103.0
313218,0.127,0.772,-0.136,1.595,-1.015,29.427,24.0,106.0
313303,0.000,0.967,-0.245,-0.550,29.466,30.115,147.0,106.0
313384,0.068,1.004,-0.340,3.527,36.626,32.160,25.0,106.0
313462,0.131,0.980,-0.388,-9.962,16.069,30.954,25.0,107.0
313541,0.107,1.001,-0.353,3.328,10.626,39.580,25.0,108.0
313625,0.118,1.027,-0.351,17.000,2.092,20.786,130.0,108.0
313703,0.219,0.875,-0.244,-19.130,-0.863,22.519,22.0,110.0
313782,0.286,0.975,-0.289,-20.046,-10.008,19.435,30.0,111.0
313861,0.379,0.924,-0.218,-18.565,-9.176,24.229,24.0,112.0
313939,0.315,0.860,-0.189,-28.374,-7.802,21.855,23.0,113.0
314021,0.376,0.890,-0.172,-20.099,-11.702,19.053,31.0,114.0
314100,0.355,0.918,-0.170,-13.267,-7.244,12.557,23.0,115.0
314179,0.365,0.895,-0.135,-7.817,-7.427,8.771,23.0,115.0
314258,0.436,0.820,-0.099,2.672,-12.115,12.840,22.0,116.0
314337,0.474,0.833,-0.144,-8.435,-17.313,5.282,22.0,116.0
314416,0.451,1.053,-0.274,-3.603,1.733,11.137,27.0,116.0
314494,0.339,0.823,-0.104,-2.947,-6.977,5.038,23.0,116.0
314578,0.432,0.949,-0.173,7.939,-13.901,3.733,121.0,116.0
314657,0.515,0.819,-0.156,7.443,-4.435,-1.695,23.0,116.0
314739,0.429,0.815,-0.154,-5.878,3.771,1.137,29.0,115.0
314818,0.421,0.897,-0.159,0.679,-4.023,3.092,25.0,115.0
314898,0.443,0.903,-0.179,14.847,-10.542,-1.557,31.0,115.0
314977,0.482,0.905,-0.201,-9.145,-9.267,-6.695,24.0,115.0
315056,0.409,0.829,-0.196,-5.328,-14.656,-15.427,30.0,114.0
315134,0.335,0.739,-0.150,12.275,-25.237,-33.092,31.0,114.0
315214,0.428,1.211,-0.414,-26.008,-2.992,-19.221,32.0,113.0
315293,0.271,0.798,-0.226,-5.336,-6.634,-15.420,32.0,113.0
315373,0.283,1.067,-0.298,3.992,-10.939,-11.588,34.0,113.0
315455,0.276,0.865,-0.202,-26.153,-11.160,-10.221,30.0,113.0
315534,0.289,0.882,-0.231,-3.290,-14.809,2.679,28.0,113.0
315614,0.153,1.024,-0.293,21.870,-17.351,-1.908,31.0,112.0
315693,0.202,0.934,-0.206,-13.336,-8.183,-10.244,28.0,111.0
315777,0.204,1.101,-0.267,14.191,2.863,-29.229,128.0,111.0
315856,0.289,1.007,-0.280,4.176,17.489,-25.290,31.0,111.0
315940,0.196,0.928,-0.304,23.275,19.656,-10.710,131.0,110.0
316020,0.128,0.883,-0.218,3.031,32.107,-17.046,31.0,111.0
316102,0.027,1.042,-0.270,4.557,38.649,-33.878,37.0,110.0
316182,-0.062,1.048,-0.328,9.664,16.145,-38.763,36.0,109.0
316261,-0.057,0.901,-0.314,10.336,6.122,-39.099,36.0,108.0
316341,0.039,0.918,-0.348,-16.137,9.176,-38.565,38.0,108.0
316420,0.008,0.988,-0.304,-1.542,2.389,-29.015,38.0,108.0
316499,0.001,1.094,-0.286,-21.435,2.534,-13.573,36.0,108.0
316578,-0.087,1.081,-0.304,6.137,-5.779,8.282,38.0,108.0
316658,-0.038,0.899,-0.241,0.321,-10.489,11.863,33.0,108.0
316737,-0.072,0.996,-0.262,-13.870,-7.718,11.092,37.0,108.0
316820,-0.052,0.897,-0.226,-27.588,-19.191,6.687,35.0,109.0
316899,-0.046,0.991,-0.287,18.191,-33.863,13.672,37.0,108.0
316979,0.020,0.996,-0.294,14.496,-28.786,19.183,37.0,108.0
317064,0.031,0.964,-0.261,19.664,-29.748,5.092,130.0,108.0
317143,0.005,1.060,-0.286,9.954,-26.450,-1.046,33.0,107.0
317221,-0.054,1.080,-0.259,-2.435,-26.954,-4.931,33.0,107.0
317305,0.022,0.989,-0.212,-10.176,-19.038,-3.336,133.0,81.0
317384,-0.047,0.898,-0.209,11.916,-16.847,-5.252,33.0,108.0
317467,-0.065,0.855,-0.221,-5.832,-18.160,-15.771,40.0,108.0
317552,-0.145,1.024,-0.354,29.290,-18.878,-19.924,131.0,107.0
317631,-0.179,0.860,-0.272,19.061,-8.725,-15.832,38.0,106.0
317711,-0.167,1.011,-0.277,21.000,-5.176,-29.763,37.0,105.0
317796,-0.185,1.138,-0.342,27.527,22.046,-21.672,133.0,105.0
317881,-0.163,0.901,-0.222,-21.847,42.725,-12.160,133.0,106.0
317966,-0.285,0.831,-0.243,-13.282,24.763,-13.702,133.0,106.0
318051,-0.277,1.077,-0.537,12.122,-5.893,23.511,135.0,105.0
318136,-0.189,0.875,-0.414,10.893,3.420,14.206,135.0,106.0
318224,-0.220,0.824,-0.412,-6.351,4.183,-1.954,138.0,105.0
318304,-0.193,0.790,-0.395,-4.985,-10.183,-3.298,38.0,105.0
318384,-0.172,0.897,-0.458,-0.160,-32.458,5.328,38.0,105.0
318462,-0.115,0.839,-0.407,6.786,-42.389,8.481,36.0,105.0
318542,-0.130,0.987,-0.468,8.664,-40.855,4.977,45.0,105.0
318627,-0.162,0.918,-0.441,3.038,-42.779,5.634,141.0,104.0
318712,-0.198,1.003,-0.454,5.718,-55.107,17.405,136.0,104.0
318792,-0.327,0.984,-0.473,1.023,-89.473,28.427,36.0,106.0
318875,-0.314,0.935,-0.387,21.290,-114.351,28.817,38.0,107.0
318955,-0.277,0.853,-0.300,0.046,-104.191,18.344,38.0,108.0
319035,-0.271,0.780,-0.198,-36.405,-92.534,-4.305,37.0,109.0
319120,-0.273,0.652,-0.152,72.573,-86.183,-11.046,128.0,108.0
319205,-0.265,1.135,-0.430,43.656,-38.939,-2.282,130.0,108.0
319285,-0.442,0.759,-0.216,6.863,-10.985,-19.092,37.0,107.0
319365,-0.630,0.918,-0.314,24.412,-50.359,1.939,38.0,107.0
319450,-0.507,0.908,-0.322,42.328,-57.519,-1.198,143.0,107.0
319539,-0.454,0.990,-0.407,32.099,-36.122,-7.076,140.0,108.0
319625,-0.526,0.740,-0.213,4.023,-57.366,10.588,143.0,108.0
319710,-0.373,1.036,-0.413,-1.305,-47.992,43.885,132.0,109.0
319795,-0.572,0.852,-0.245,10.000,-39.489,40.878,129.0,110.0
319880,-0.427,0.830,-0.212,1.382,-52.947,59.649,127.0,110.0
319965,-0.309,0.695,-0.163,38.664,-62.298,27.122,126.0,111.0
320050,-0.335,0.935,-0.304,3.443,-51.695,8.397,125.0,112.0
320136,-0.342,0.810,-0.188,26.176,-62.885,-7.435,125.0,112.0
320221,-0.262,0.829,-0.171,8.252,-49.725,-2.939,125.0,112.0
320309,-0.222,0.921,-0.198,-2.893,-35.176,-20.809,125.0,112.0
320394,-0.251,1.004,-0.321,48.122,-15.954,-13.023,128.0,111.0
320475,-0.198,0.778,-0.195,43.122,-10.153,6.718,45.0,110.0
320560,-0.502,1.226,-0.413,36.580,-11.794,34.557,129.0,109.0
320640,-0.432,0.767,-0.164,27.412,-51.481,29.328,38.0,109.0
320724,-0.415,1.102,-0.449,8.840,-70.603,32.466,128.0,110.0
320809,-0.257,0.988,-0.385,28.496,-88.588,19.458,127.0,110.0
320894,-0.192,0.946,-0.125,-5.695,-43.221,12.191,125.0,112.0
320984,-0.293,0.830,-0.106,-19.351,-22.252,-16.137,124.0,113.0
321069,-0.314,0.921,-0.279,-17.893,-8.824,6.130,124.0,114.0
321154,-0.143,0.819,-0.216,25.908,27.557,4.214,123.0,114.0
321239,-0.452,0.824,-0.181,11.053,52.214,-20.130,123.0,114.0
321324,-0.416,0.792,-0.150,-12.679,53.008,-14.557,123.0,114.0
321410,-0.487,1.055,-0.348,9.802,20.351,-6.511,125.0,114.0
321495,-0.336,0.818,-0.191,15.504,20.710,-2.313,125.0,113.0
321580,-0.410,0.956,-0.251,2.977,26.809,-14.244,126.0,113.0
321669,-0.298,0.876,-0.189,-18.649,37.000,8.634,126.0,114.0
321754,-0.489,1.124,-0.350,-13.565,38.000,18.504,125.0,113.0
321839,-0.181,1.167,-0.475,29.977,47.992,13.290,126.0,112.0
321925,-0.397,0.758,-0.238,3.260,36.710,14.008,125.0,112.0
322010,-0.129,0.619,-0.234,-18.916,-7.794,0.878,125.0,112.0
322095,-0.149,0.895,-0.459,11.466,-4.725,1.756,127.0,110.0
322180,-0.308,0.801,-0.385,4.137,-0.695,2.786,127.0,109.0
322271,-0.369,0.966,-0.411,-18.939,-13.992,1.000,128.0,109.0
322355,-0.345,1.010,-0.519,-0.412,-46.588,4.733,128.0,109.0
322442,-0.331,0.875,-0.379,-11.046,-51.473,5.924,128.0,109.0
322526,-0.274,0.974,-0.341,12.374,-63.221,12.840,127.0,111.0
322606,-0.268,1.112,-0.260,-19.496,-49.580,17.924,43.0,111.0
322685,-0.176,0.776,-0.169,-22.328,-7.244,-6.244,41.0,112.0
322764,-0.307,0.662,-0.098,-19.618,-10.275,-15.565,43.0,112.0
322849,-0.344,0.958,-0.231,-18.931,-16.542,-2.321,126.0,111.0
322928,-0.235,1.181,-0.255,-77.557,24.916,-11.641,37.0,110.0
323007,-0.258,0.394,0.135,-27.359,2.985,11.794,30.0,109.0
323088,-0.507,0.901,0.059,-76.557,7.504,-15.573,28.0,107.0
323167,-0.468,1.234,-0.127,-17.214,-6.405,-10.137,30.0,106.0
323246,-0.397,0.642,0.208,-81.137,-23.603,-28.412,30.0,105.0
323323,-0.410,0.920,0.167,-33.763,-26.275,18.122,31.0,104.0
323402,-0.361,1.091,0.191,-83.267,-30.878,-10.122,30.0,105.0
323494,-0.361,0.888,0.300,-70.252,-34.786,-2.916,178.0,0.0
323587,-0.412,0.975,0.403,-93.450,-18.718,-24.809,163.0,0.0
323671,-0.524,0.695,0.622,-75.802,-7.481,-40.389,39.0,0.0
323756,-0.507,0.782,0.660,-23.313,-25.771,-36.336,40.0,0.0
323843,-0.427,0.503,0.739,-9.649,-40.878,-26.832,37.0,0.0
323927,-0.379,0.602,0.710,-10.389,-35.069,-24.924,37.0,0.0
324021,-0.364,0.499,0.777,2.679,-21.466,-14.511,0.0,0.0
324114,-0.354,0.529,0.758,-3.824,-23.046,-22.374,0.0,0.0
324208,-0.305,0.511,0.781,1.336,-22.473,-22.397,0.0,0.0
324301,-0.341,0.543,0.729,8.939,-5.710,-22.832,0.0,0.0
324385,-0.379,0.533,0.778,27.679,1.473,-23.115,37.0,0.0
324477,-0.339,0.510,0.912,-9.061,-10.573,-38.305,165.0,0.0
324580,-0.450,0.419,0.942,-48.221,-34.328,-45.015,165.0,0.0
324674,-0.356,0.265,0.849,-60.824,-25.527,-28.832,163.0,0.0
324768,-0.383,0.180,0.842,-40.595,-7.649,-1.863,162.0,0.0
324862,-0.369,0.142,0.871,-28.885,-1.328,-7.084,161.0,0.0
324956,-0.365,0.095,0.899,-24.634,5.733,-10.198,159.0,0.0
325050,-0.447,0.042,0.894,-27.962,7.611,-12.977,157.0,0.0
325143,-0.399,-0.041,0.882,-17.084,-4.809,-15.931,157.0,0.0
325237,-0.402,-0.061,0.909,-3.038,-2.557,-16.901,156.0,0.0
325330,-0.361,-0.059,0.928,-13.084,-4.519,1.298,156.0,0.0
325427,-0.340,-0.105,0.911,-13.351,-4.145,3.389,156.0,0.0
325521,-0.308,-0.123,0.908,-8.198,-2.542,6.305,156.0,0.0
325614,-0.314,-0.146,0.937,9.321,-2.252,17.260,157.0,0.0
325708,-0.317,-0.117,0.938,2.435,-8.679,13.687,157.0,0.0
325801,-0.307,-0.135,0.940,-0.649,-5.053,15.229,159.0,0.0
325896,-0.364,-0.085,0.969,8.160,0.649,9.168,161.0,0.0
325990,-0.423,-0.072,0.892,28.389,5.863,10.412,163.0,0.0
326085,-0.435,-0.065,0.828,77.336,43.321,6.359,0.0,0.0
326179,-0.494,0.480,0.602,121.695,49.176,-22.748,169.0,0.0
326275,-0.605,0.333,0.738,165.038,46.748,-31.802,173.0,156.0
326370,-0.645,0.518,0.713,60.786,36.649,-55.817,177.0,0.0
326465,-0.578,0.487,0.518,190.832,27.183,-12.649,183.0,0.0
326561,-0.551,0.822,0.187,213.450,10.137,-1.489,0.0,0.0
326658,-0.673,1.405,-0.029,-96.656,-33.595,-1.626,0.0,0.0
326754,-0.504,0.394,0.466,53.115,-27.985,-3.672,0.0,0.0
326850,-0.768,1.048,0.120,72.076,-38.496,-3.321,0.0,0.0
326938,-0.628,0.870,0.136,67.550,-46.359,31.504,58.0,0.0
327035,-0.451,0.687,0.162,3.695,-25.206,-0.176,167.0,0.0
327123,-0.576,0.990,0.030,36.267,-10.473,53.290,51.0,0.0
327218,-0.300,0.653,0.165,-49.069,6.534,-0.794,165.0,0.0
327306,-0.500,0.958,0.116,10.656,21.344,44.695,58.0,0.0
327394,-0.532,0.950,0.412,6.611,38.344,-11.191,57.0,0.0
327476,-0.156,0.866,0.082,-40.962,27.527,130.397,40.0,108.0
327564,-0.458,0.705,0.231,54.573,47.901,52.908,50.0,0.0
327651,-0.312,1.354,-0.057,-6.840,65.496,42.817,37.0,0.0
327738,0.012,0.648,-0.094,-17.725,36.947,37.489,35.0,0.0
327822,-0.132,0.878,-0.016,4.252,22.611,23.832,38.0,106.0
327905,0.134,0.541,0.002,-20.252,27.641,-0.832,40.0,114.0
327992,0.089,0.877,-0.117,-11.252,19.496,19.733,33.0,0.0
328073,-0.112,1.031,-0.068,6.229,21.496,0.893,31.0,107.0
328160,-0.196,0.986,-0.042,26.359,9.069,-5.366,32.0,0.0
328241,-0.051,0.740,0.122,-4.542,24.519,-16.183,32.0,108.0
328323,-0.078,0.990,-0.086,-2.267,14.771,-8.206,31.0,110.0
328410,-0.013,0.870,-0.043,-11.427,-7.305,13.015,30.0,0.0
