Timestamp(ms),AccelX(g),AccelY(g),AccelZ(g),GyroX(deg/s),GyroY(deg/s),GyroZ(deg/s),DistanceLeft(cm),DistanceRight(cm)
35634,-0.052,-0.841,0.504,-113.878,94.87,-61.153,132,162
35684,-0.156,-0.932,0.498,-118.053,139.374,-45.695,16,161
35739,-0.401,-1.089,0.55,-104.489,127.565,-31.725,133,135
35794,-0.551,-1.091,0.667,-75.252,57.901,-22.069,133,131
35851,-0.389,-1.069,0.509,-55.435,-38.702,-38.466,133,133
35905,0.028,-0.925,0.163,-50.336,-7.695,-36.969,99,151
35960,0.034,-0.948,0.013,-45.557,104.824,-14.634,133,127
36020,-0.326,-1.081,0.22,-31.969,141.336,2.137,135,159
36078,-0.243,-1.09,0.2,-23.374,64.16,-16.275,143,159
36136,-0.058,-0.908,0.081,-38.618,85.29,-7.221,159,159
36191,-0.153,-1.026,0.105,-41.076,108.87,4.565,159,95
36250,-0.231,-1.125,0.129,-20.534,86.985,-7.153,160,162
36305,-0.243,-1.056,0.142,-1.336,47.412,-16.076,186,80
36360,-0.221,-0.957,0.142,8.206,6.885,-8.55,161,82
36414,-0.19,-0.913,0.097,15.45,-15.962,-3.702,171,84
36472,-0.144,-0.948,0.018,22.809,-11.985,-8.015,167,86
36528,-0.125,-0.921,-0.007,27.221,6.099,-4.244,178,88
36582,-0.183,-0.931,0.053,22.382,12.053,-1.267,159,94
36642,-0.223,-1.003,0.07,24.359,1.962,-5.924,174,169
36700,-0.154,-1.039,0.057,34.725,-4.305,-7.931,135,162
36760,-0.117,-1.077,0.068,36.13,16.061,3.198,164,0
36822,-0.125,-1.115,0.144,35.473,28.107,14.229,159,0
36882,-0.212,-0.989,0.258,27.878,9.267,18.885,155,0
36942,-0.12,-0.948,0.169,28.427,-12.45,15.115,148,0
37005,-0.092,-0.805,0.219,15.344,-3.023,20.939,145,192
37064,-0.082,-0.813,0.312,5.214,-20.053,38.985,140,0
37118,-0.027,-0.915,0.329,4.878,-46.504,38.718,88,150
37175,0.019,-0.864,0.303,3.023,-52.664,25.672,84,196
37231,0.047,-0.883,0.291,0.351,-35.504,12.847,83,197
37287,0.066,-0.824,0.282,-15.969,0.687,-5.962,82,199
37344,-0.022,-0.721,0.376,-38.099,27.84,-18.756,82,0
37403,-0.072,-0.833,0.397,-33.603,14.885,-26.099,130,0
37463,0.021,-1.062,0.232,-8.603,33.466,-38.397,122,200
37524,0.013,-1.175,0.086,-10.038,110.672,-41.351,122,0
37581,-0.15,-1.247,0.036,-20.817,160.504,-37.977,87,0
37638,-0.292,-1.02,0.177,-23.511,137.198,-22.58,85,0
37694,-0.309,-0.753,0.268,-15.366,46.565,6.221,83,0
37751,-0.114,-1.008,-0.014,11.908,2.42,16.344,81,0
37808,-0.008,-1.144,-0.191,31.031,52.29,2.626,79,0
37862,-0.042,-0.814,-0.026,24.656,111.969,19.58,78,171
37916,-0.303,-0.974,0.278,22.084,90.962,24.702,76,170
37976,-0.258,-0.99,0.283,46.427,11.191,-6.023,75,0
38032,-0.066,-1.003,0.072,66.702,21.26,-22.458,74,0
38086,-0.059,-0.979,0.064,73.26,92.046,-21.084,73,174
38142,-0.145,-1.098,0.096,79.168,126.412,-25.718,72,0
38193,-0.21,-1.055,0.151,83.366,137.069,-30.809,72,102
38243,-0.298,-1.046,0.235,75.389,114.672,-36.55,71,87
38292,-0.238,-0.896,0.226,58.031,90.481,-43.55,70,85
38341,-0.197,-0.808,0.275,33.237,87.916,-42.855,70,84
38389,-0.219,-0.885,0.363,18.008,75.916,-51.992,72,75
38484,-0.197,-0.793,0.512,1.069,44.954,-44.55,80,63
38533,-0.209,-0.844,0.581,-4.924,38.458,-47.954,81,61
38588,-0.179,-0.833,0.641,1.069,34.779,-47.374,0,54
38642,-0.102,-0.724,0.628,3.466,47.565,-31.107,0,50
38697,-0.184,-0.719,0.696,6.954,44.718,-20.336,0,46
38752,-0.155,-0.708,0.611,5.145,33.924,-18.542,0,43
38806,-0.093,-0.746,0.542,-2.71,40.634,-15,0,42
38860,-0.116,-0.836,0.596,-9.786,38.611,-15.656,0,40
38915,-0.031,-0.822,0.541,-18.786,44.153,-15.733,0,37
38972,-0.101,-0.864,0.612,-23.221,42.16,-13.275,0,36
39026,-0.077,-0.887,0.567,-21.374,20.58,-11.412,0,36
39080,-0.096,-0.939,0.518,-22.977,25.672,-7.702,0,35
39134,-0.105,-0.933,0.499,-18.023,17.229,-2.107,0,34
39188,-0.076,-0.911,0.434,-12.229,14.466,2.672,0,34
39242,-0.093,-0.873,0.417,-7.29,17.626,9.878,0,33
39296,-0.076,-0.955,0.348,-0.237,3.802,2.985,0,34
39350,-0.112,-0.979,0.285,-1.718,18.908,0.641,0,34
39404,-0.189,-0.959,0.304,4.573,5.206,5.412,0,33
39460,-0.144,-0.976,0.255,3.153,-5.496,-1.023,0,32
39515,-0.188,-0.899,0.314,8.076,-12.26,-1.443,0,33
39569,-0.139,-0.85,0.283,5.565,-3.412,-0.565,0,32
39623,-0.2,-0.864,0.364,2.58,-3.336,-7.221,0,34
39676,-0.129,-0.914,0.313,4.763,-1.45,-13.641,0,37
39732,-0.106,-0.961,0.315,12.557,14.947,-11.458,0,51
39787,-0.157,-0.937,0.407,16.527,17.084,-5.733,0,50
39831,-0.174,-0.943,0.43,17.786,-10.481,-3.687,16,37
39875,-0.103,-1.002,0.426,12.328,-11.069,-7.481,16,42
39921,-0.08,-1.01,0.46,10.435,1.626,-14.87,16,36
39975,-0.103,-1.02,0.478,-0.061,15.969,-19.55,0,37
40018,-0.178,-0.844,0.554,-3.656,3.802,-7.191,11,32
40074,-0.148,-0.832,0.482,1.969,-19.435,-6.282,0,47
40117,-0.07,-0.698,0.403,11.954,-11.817,5.511,10,36
40171,-0.131,-0.787,0.421,13.237,-15.351,6.344,0,36
40215,-0.208,-0.922,0.476,11.511,-25.221,15.038,11,37
40259,-0.25,-0.889,0.5,13.038,-46.962,25.756,9,51
40303,-0.183,-0.817,0.439,11.725,-54.748,35.985,16,42
40350,-0.121,-0.841,0.434,10.45,-50.191,35.244,16,48
40396,-0.102,-0.768,0.46,8.305,-36.061,32.992,44,47
40442,-0.151,-0.769,0.544,7.443,-41.542,35,44,52
40489,-0.154,-0.795,0.552,5.374,-61.435,36.786,44,65
40535,-0.164,-0.852,0.544,0.206,-70.931,37.282,44,31
40579,-0.138,-0.844,0.483,-2.786,-62.893,36.954,51,18
40623,-0.222,-0.918,0.451,-3.382,-51,42.069,43,15
40668,-0.208,-0.831,0.375,-4.435,-41.115,47.573,45,16
40717,-0.344,-0.937,0.46,-15.664,-43.504,45.824,45,58
40773,-0.315,-0.962,0.405,-25.046,-61.092,37.031,0,67
40829,-0.298,-0.846,0.398,-23.015,-62.725,48.305,0,72
40887,-0.319,-0.955,0.395,-25.885,-78.626,29.733,0,87
40945,-0.242,-0.856,0.336,-24.084,-62.069,28.244,0,89
41003,-0.272,-0.822,0.393,-16.87,-58.511,25.328,0,89
41094,-0.276,-0.838,0.414,-13.87,-50.183,10.863,16,108
41141,-0.273,-0.909,0.433,-7.863,-46.885,1.863,16,95
41189,-0.229,-0.965,0.421,-4.954,-28.595,-4.351,18,109
41249,-0.254,-0.987,0.468,-5.542,-11.634,-8.985,0,82
41297,-0.2,-0.923,0.451,-6.298,-7.802,-13.817,17,103
41345,-0.123,-0.954,0.36,-13.947,17.794,-20.634,17,105
41393,-0.088,-0.842,0.33,-20.015,52.542,-19.817,17,107
41452,-0.145,-0.927,0.302,-21.672,70.626,-26.084,0,120
41509,-0.172,-0.85,0.352,-23.191,64.427,-38.214,0,82
41568,-0.073,-0.824,0.316,-17.519,53.069,-25.153,0,109
41627,-0.081,-1.009,0.372,-22.458,42.832,-17.954,0,110
41687,-0.114,-0.954,0.417,-13.519,6.87,-11,0,126
41749,-0.051,-0.847,0.338,-4.74,-22.718,-4.145,0,116
41801,-0.039,-0.844,0.32,-5.023,-18.863,-2.107,58,129
41852,-0.123,-0.904,0.372,-4.824,-14.542,-0.573,59,130
41905,-0.086,-0.881,0.349,-6.031,-23.496,6.29,58,133
41956,-0.099,-0.88,0.39,-4.359,-25.389,14,55,118
42007,-0.021,-0.876,0.333,1.534,-22.321,14.878,57,120
42057,-0.009,-1.066,0.308,6.649,-7.74,13.473,51,120
42108,-0.003,-1.127,0.266,15.031,3.55,14.145,52,122
42169,0.042,-1.146,0.155,17.412,46.122,10.786,0,92
42227,-0.128,-0.82,0.305,15.656,56.458,17.779,200,101
42286,-0.146,-1.062,0.302,15.061,9.336,3.069,197,88
42343,-0.013,-1.148,0.13,18.58,8.901,-25,196,102
42400,-0.014,-0.879,0.142,21.534,40.565,-18.145,195,90
42459,-0.102,-0.934,0.233,20.443,50.611,-14.687,110,89
42511,-0.1,-0.954,0.195,25.115,47.916,-24.496,105,91
42562,-0.056,-0.985,0.141,22.023,77.321,-34.748,105,91
42617,-0.147,-1.027,0.21,25.351,113.176,-40.672,106,151
42681,-0.244,-1.028,0.298,32.534,101.893,-44.504,0,161
42735,-0.2,-1.06,0.318,36.496,77.634,-53.252,104,151
42789,-0.139,-1.016,0.297,33.382,82.962,-58.542,69,161
42843,-0.073,-1.002,0.296,21.183,106.122,-66.565,67,163
42894,-0.096,-0.831,0.404,21.847,126.069,-61.588,58,145
42947,-0.175,-0.808,0.546,25.336,81.733,-53.45,59,165
43000,-0.005,-0.786,0.443,21.321,48.366,-56.534,60,164
43055,0.047,-0.812,0.416,17.771,69.282,-56.954,61,179
43112,-0.061,-0.749,0.555,14.901,76.855,-45.947,64,197
43167,-0.005,-0.733,0.559,21.313,50.847,-41.756,68,197
43224,0.028,-0.713,0.514,19.198,70.901,-36.321,71,196
43280,-0.053,-0.786,0.583,9.374,76.985,-30.954,81,198
43336,-0.032,-0.758,0.577,1.519,62.298,-29.244,92,0
43396,-0.002,-0.739,0.571,-5.595,70.092,-22.588,132,0
43455,-0.056,-0.78,0.636,-9.466,59.649,-19.321,134,0
43508,-0.014,-0.799,0.623,-9.557,50.366,-17.031,53,166
43560,-0.051,-0.982,0.62,-12.267,55.504,-20.893,54,163
43616,-0.074,-0.92,0.591,-3.359,54.13,-17.534,53,160
43667,-0.086,-0.842,0.527,2.321,52.649,-15.053,52,135
43723,-0.152,-0.853,0.511,2.305,51.718,-13.145,157,132
43780,-0.202,-0.874,0.502,2.908,31.229,-15.557,136,130
43878,-0.164,-0.885,0.419,-1.595,39.687,-21.176,140,127
43933,-0.158,-0.823,0.426,3.962,48,-20.573,140,125
43982,-0.173,-0.842,0.437,2.931,49.748,-21.13,16,124
44038,-0.18,-0.861,0.459,-1.885,48.214,-22.252,143,123
44093,-0.168,-0.866,0.492,-0.557,34.16,-24.023,144,121
44151,-0.108,-0.832,0.449,-0.992,40.244,-21.076,145,120
44207,-0.127,-0.882,0.528,2.076,32.519,-25.908,149,119
44264,-0.068,-0.935,0.453,4.786,34.679,-29.672,186,97
44321,-0.161,-0.978,0.519,-3.366,46.756,-30.092,190,117
44376,-0.177,-1.085,0.472,-15.366,28.748,-38.458,126,116
44433,-0.189,-0.898,0.495,-19.626,28.015,-20.351,161,116
44491,-0.16,-0.942,0.473,-14.771,5.71,-15.412,0,116
44550,0.013,-0.862,0.357,-0.626,24.389,-7.595,0,117
44611,0.001,-0.888,0.358,12.641,49.305,-13.45,0,116
44669,-0.018,-0.886,0.381,9.29,57.595,-19.74,0,117
44718,-0.012,-0.81,0.365,7.641,46.641,-17.45,16,117
44774,-0.002,-0.805,0.352,1.588,36.26,-20.275,156,116
44822,-0.001,-0.809,0.356,-11.13,37.611,-21.382,16,116
44880,-0.018,-0.838,0.395,-16.374,30.168,-20.969,0,115
44936,0.012,-0.925,0.382,-22.374,25.802,-22.145,147,115
44987,0.015,-0.968,0.356,-24.092,37.656,-18.206,70,114
45037,-0.034,-0.956,0.403,-22.649,38.427,-14.008,68,113
45091,-0.033,-1.056,0.399,-24.389,38.176,-9.802,67,113
45138,-0.043,-0.967,0.428,-20.023,30.771,-3.969,6,113
45186,-0.086,-0.961,0.473,-15.481,17.969,2.817,6,112
45233,-0.045,-0.962,0.406,0.084,-9,4.931,5,111
45280,0.009,-1,0.302,16.847,2.29,7.611,4,110
45326,-0.004,-1.082,0.262,27.702,13.733,-3.473,5,109
45379,0.011,-1.039,0.21,34.763,28.107,-9.489,111,108
45432,-0.046,-0.943,0.265,39.55,36.008,3.817,110,106
45488,-0.076,-0.93,0.308,38.443,5.015,-0.328,109,105
45541,-0.015,-0.941,0.271,33.71,0.153,-11.305,105,105
45593,-0.043,-0.976,0.31,35.328,19.725,-9.779,103,104
45645,-0.09,-0.944,0.354,34.221,19.626,-15.695,99,103
45700,-0.034,-0.951,0.33,27.107,30.374,-24.954,141,102
45751,-0.028,-0.949,0.35,17.87,50.542,-33.84,80,103
45807,-0.075,-1.013,0.44,1.733,44.206,-42.412,70,0
45862,0.004,-0.943,0.449,0.153,49.611,-41.489,62,0
45919,0.087,-0.821,0.378,10.481,59.832,-40.023,16,0
45978,0.045,-0.832,0.417,7.252,73.344,-38.847,63,0
46033,0.06,-0.876,0.44,-3.656,63.351,-46.382,67,0
46089,0.013,-0.782,0.533,-9.534,49.84,-36.489,61,0
46142,0.006,-0.816,0.594,-7.702,12.366,-30.702,16,0
46195,0.13,-0.81,0.505,-6.771,23.267,-31.679,9,0
46251,0.076,-0.868,0.574,-5.321,42.595,-31.336,85,184
46308,0.078,-0.861,0.583,-0.679,32.786,-24.573,85,0
46360,0.062,-0.797,0.62,-0.45,21.916,-11.321,9,0
46413,0.129,-0.745,0.557,-2.603,7.053,-8.458,10,0
46469,0.143,-0.76,0.541,-4.313,19.298,-7.771,10,0
46522,0.076,-0.817,0.56,-4.344,17.321,-5.038,9,0
46617,0.139,-0.821,0.53,-4.374,9.687,0.931,9,0
46669,0.102,-0.812,0.554,-1.87,10.176,3.176,9,0
46723,0.124,-0.785,0.547,-1.962,12.374,3.733,9,0
46779,0.06,-0.772,0.587,-2.382,13.878,7.611,92,195
46832,0.072,-0.767,0.571,-0.595,6.878,14.817,9,0
46884,-0.021,-0.818,0.68,2.954,-3.809,23.87,7,0
46938,-0.048,-0.903,0.697,4.313,-12.336,27.908,6,0
46993,-0.07,-0.791,0.649,7.534,-7.031,34.626,6,200
47046,-0.147,-0.818,0.605,9.298,-16.87,39.733,6,199
47102,-0.14,-0.878,0.541,0.519,-25.71,30.656,80,199
47155,-0.16,-0.927,0.48,-2.198,-26.344,20.282,7,199
47208,-0.124,-0.847,0.416,-7.282,-7.305,12.45,10,199
47261,-0.189,-0.844,0.452,-3.687,-4.008,14.061,18,199
47311,-0.153,-0.809,0.469,-3.611,1.718,11.687,9,160
47363,-0.198,-0.838,0.518,-5.55,-0.695,9.649,8,158
47413,-0.205,-0.853,0.532,-7.321,-10.092,3.244,8,160
47466,-0.168,-0.93,0.536,-5.099,-14.649,-6.824,9,164
47519,-0.095,-0.986,0.485,2.733,6.344,-13.366,9,200
47569,-0.115,-0.948,0.498,6.733,36.084,-17.191,17,160
47624,-0.17,-0.885,0.548,-0.672,39.84,-20.16,77,160
47675,-0.179,-0.9,0.559,2.87,23.771,-10.695,9,160
47725,-0.066,-0.897,0.442,2.069,17.13,-18.145,10,164
47780,-0.06,-0.863,0.423,7.611,43.267,-17.794,79,175
47832,-0.089,-0.856,0.457,8.656,34.511,-22.321,8,164
47885,-0.057,-0.889,0.464,1.672,28.672,-23.931,9,0
47938,-0.038,-0.91,0.455,4.145,20.023,-23.489,9,161
47990,-0.009,-0.819,0.415,8.718,27.321,-19.092,7,0
48044,-0.032,-0.776,0.433,6.466,34.359,-19.137,10,200
48095,-0.037,-0.754,0.433,2.649,35.145,-19.374,9,161
48145,-0.044,-0.802,0.434,-2.534,41.015,-18.74,9,160
48197,-0.058,-0.902,0.422,1.42,43.099,-19.832,8,198
48250,-0.026,-0.968,0.329,-0.664,71.496,-18.786,10,197
48304,-0.151,-0.934,0.372,-6.214,92.099,-16.275,17,197
48357,-0.101,-0.838,0.23,-14.977,97.763,-13.908,17,196
48413,-0.158,-0.864,0.147,-30.084,147.618,-11.656,16,0
48470,-0.545,-1.202,0.385,-19.672,98.565,-25.366,56,0
48525,-0.29,-1.064,0.209,1.588,25.595,-44.664,57,0
48581,-0.18,-0.915,0.167,0.779,59.916,-17.389,58,0
48636,-0.201,-0.985,0.169,1.336,73.344,-14.267,50,0
48692,-0.24,-0.996,0.171,7.366,73.748,-21.74,43,0
48746,-0.201,-1.02,0.135,14.389,79.313,-31.969,41,0
48801,-0.219,-1.09,0.173,25.771,88.031,-48.71,42,0
48856,-0.179,-1.055,0.194,27.008,106.229,-60.809,43,0
48915,-0.213,-0.977,0.392,31.183,79.42,-56.061,46,0
48970,-0.089,-0.885,0.402,38.221,42.87,-50.168,47,0
49026,-0.026,-0.857,0.393,30.847,58.092,-37.504,50,0
49078,-0.121,-0.926,0.54,40.176,33.191,-40.107,52,157
49129,0.035,-0.816,0.463,49.687,37.939,-37.16,55,118
49180,-0.02,-0.781,0.532,52.649,61.153,-27.092,9,159
49228,-0.042,-0.753,0.544,50.634,56.031,-27.817,9,116
49323,0.001,-0.719,0.573,31.191,40.244,-23.511,64,110
49372,-0.002,-0.747,0.634,20.527,36.763,-19.351,17,78
49424,0.039,-0.697,0.608,14.901,36.313,-13.595,16,72
49479,0.009,-0.698,0.673,9.557,33.702,-10.122,0,67
49523,0.064,-0.706,0.671,5.427,20.359,-6.298,17,65
49567,0.079,-0.714,0.688,1.672,28.046,-4.221,10,63
49611,0.053,-0.738,0.72,3.092,20.237,-5.786,9,60
49655,0.051,-0.798,0.7,1.763,19.794,-6.198,9,59
49699,-0.012,-0.86,0.751,1.947,23.496,-6.206,9,58
49754,-0.087,-0.838,0.752,13.443,11.664,0.366,0,64
49801,-0.09,-0.779,0.641,18.71,13.053,1.771,9,57
49845,-0.163,-0.823,0.637,12.939,18.267,-3.504,7,59
49888,-0.177,-0.8,0.617,9.756,18.244,-4.679,7,54
49932,-0.147,-0.729,0.58,12.733,22.824,-3.282,8,51
49975,-0.195,-0.746,0.593,10.794,22.672,-8.542,7,51
50018,-0.163,-0.742,0.573,2.13,25.313,-16.405,10,51
50062,-0.146,-0.703,0.559,-3.702,32.771,-18.191,7,47
50105,-0.13,-0.691,0.533,-8.191,37.137,-22.504,8,50
50159,-0.074,-0.677,0.456,-22.366,53.656,-30.504,0,43
50215,-0.205,-0.81,0.518,-41.29,78.282,-39.305,0,43
50259,-0.196,-0.856,0.494,-43.053,49.481,-48.458,16,37
50313,-0.097,-0.858,0.402,-50.351,85.809,-43.84,0,37
50367,-0.291,-0.918,0.567,-43,79.168,-38.901,0,36
50421,-0.232,-0.932,0.523,-35.504,65.031,-39.763,0,44
50464,-0.29,-0.99,0.558,-25.29,36.504,-38.84,16,39
50519,-0.179,-0.966,0.46,-28.198,33.137,-38.794,0,37
50572,-0.116,-0.991,0.389,-36.802,64.076,-36.374,0,30
50627,-0.155,-1.065,0.392,-46.412,78.626,-44.885,0,51
50684,-0.342,-1.012,0.596,-40.015,31.595,-42.947,0,51
50739,-0.277,-0.876,0.528,2.069,-86.985,-24.328,0,44
50792,0.042,-0.733,0.292,20.771,-60.824,2.107,0,29
50846,-0.112,-0.854,0.418,23.786,-6.878,14.382,0,35
50899,-0.201,-0.915,0.453,35.282,-24.824,20.221,0,38
50954,-0.197,-0.908,0.405,40.473,-59.679,29.718,0,40
51009,-0.138,-0.906,0.354,35.092,-81.886,36.481,0,65
51064,-0.059,-0.862,0.323,27.076,-72.031,43.183,0,53
51109,-0.071,-0.837,0.369,19.481,-70.939,45.168,47,33
51156,-0.141,-0.91,0.424,19.244,-90.397,45.603,16,51
51209,-0.084,-0.916,0.376,18.519,-100.809,45.641,0,16
51256,-0.055,-0.892,0.374,14.328,-83.649,49.382,44,65
51311,-0.126,-1.032,0.427,7.863,-75.779,47.771,0,66
51360,-0.086,-0.968,0.395,-3.237,-63.931,42.565,47,109
51410,-0.11,-0.858,0.39,-7.634,-40.031,50.183,51,113
51467,-0.217,-0.818,0.438,-12.076,-37.198,43.328,0,90
51524,-0.288,-0.839,0.412,-14.092,-64.191,33.687,0,85
51581,-0.253,-0.966,0.346,-23.145,-65.336,14.611,0,92
51642,-0.209,-0.887,0.337,-20.382,-38.107,14.344,0,108
51698,-0.236,-0.85,0.41,-12.038,-34.855,21.779,175,94
51745,-0.223,-0.813,0.418,-9.359,-43.809,22.489,16,105
51791,-0.213,-0.857,0.4,-10.237,-45.771,16.168,17,76
51890,-0.199,-0.925,0.42,-3.137,-22.13,8.023,174,75
51936,-0.214,-0.989,0.477,1.122,-19.794,2.252,17,82
51990,-0.168,-0.969,0.454,5.443,-16.557,-1.298,173,76
52045,-0.173,-0.943,0.483,4.947,-5.16,-0.802,173,76
52103,-0.14,-0.948,0.491,6.756,-16.45,-5.496,173,77
52149,-0.094,-0.843,0.478,7.153,2.817,-3.115,17,76
52203,-0.15,-0.848,0.513,0.992,3.061,-10.656,172,76
52249,-0.135,-0.813,0.501,-0.359,-5.817,-11.015,17,77
52303,-0.101,-0.835,0.49,5.992,-14.611,-7.504,170,78
52359,-0.015,-0.851,0.438,12.099,-1.267,-2.206,169,80
52414,-0.062,-0.908,0.485,8.359,10.305,3.893,168,82
52465,-0.067,-0.887,0.526,3.214,-12.374,8.053,58,132
52511,-0.007,-0.763,0.488,-1.305,-26.84,10.794,16,87
52561,0.026,-0.721,0.467,-7.397,-25.817,9.084,17,99
52611,0.037,-0.716,0.457,-14.267,-14.618,7.061,52,99
52661,-0.049,-0.773,0.54,-16.786,-15.817,10.519,52,123
52710,-0.074,-0.811,0.544,-16.893,-34.817,16.313,51,88
52758,-0.043,-0.877,0.511,-14.198,-31.023,21.29,51,89
52807,-0.09,-1.03,0.514,-9.954,-19.985,20.412,49,95
52855,-0.127,-0.984,0.47,-3.687,-11.145,23.855,50,94
52902,-0.183,-0.891,0.467,-8.298,-4.122,27.069,12,93
52948,-0.291,-0.874,0.499,-20.519,-17.176,17.359,16,91
53004,-0.32,-0.827,0.476,-22.496,-50.84,12.863,166,21
53055,-0.268,-0.833,0.416,-19.649,-55.954,5.313,165,22
53106,-0.29,-0.863,0.425,-15.733,-45.702,7.397,164,24
53157,-0.282,-0.991,0.425,-5.672,-43.71,5.099,163,29
53213,-0.152,-1.012,0.3,10.878,-23.763,2.702,161,97
53269,-0.126,-0.948,0.216,19.29,21.771,4.046,158,100
53324,-0.064,-0.646,0.126,29.733,57.427,12.832,156,101
53377,0.003,-0.88,-0.02,51.481,96.198,34.336,154,57
53436,-0.14,-1.641,-0.074,46.466,132.389,-50.863,153,104
53487,-0.367,-2,0.158,11.237,103.198,-124.366,152,35
53538,-0.446,-1.975,0.174,-76.718,98.122,-250.137,153,34
53591,-0.564,-1.035,0.492,-153.595,104.672,-250.137,91,105
53644,-0.564,-1.338,0.646,-114.137,16.939,-250.137,56,161
53700,-0.365,-1.32,0.546,-80.107,22.328,-250.137,59,0
53752,-0.221,-0.917,0.563,-124.962,29.618,-250.137,69,127
53805,-0.165,-1.255,0.546,-156.45,2.191,-250.137,72,122
53859,-0.059,-0.604,0.556,-117.382,-101.733,-225.328,66,120
53910,0.233,0.503,0.117,-8.435,-14.389,-161.321,61,121
53961,0.849,0.496,-0.908,143.962,144.527,-31.13,59,125
54012,0.856,0.289,-0.568,147.137,239.038,-4.42,54,129
54065,0.745,0.047,0.146,60.954,123.26,-123.954,51,133
54116,0.699,0.235,0.574,32.924,53.244,-141.427,49,139
54168,0.679,0.012,0.707,88.794,41.649,-167.58,48,163
54221,1.114,0.987,0.449,123.863,94.947,-90.015,49,163
54274,0.315,0.975,-0.113,125.466,135.748,-112.42,49,136
54322,-0.174,1.686,-0.282,105.886,191.221,-139.779,51,33
54367,-0.341,1.35,-0.072,88.099,81.893,-79.519,30,30
54410,-0.067,1.233,-0.49,75.588,45.87,-116.908,30,21
54497,-0.25,1.36,0.122,-42.153,78.824,-117.405,27,17
54540,-0.384,2,0.328,-85.038,20.115,-119.969,30,14
54585,-0.917,1.554,0.713,-117.557,-35.076,-94.55,54,15
54630,-0.571,0.638,0.614,-97.031,-106.145,-24,55,15
54675,-0.067,0.749,0.695,-80.58,-116.122,36.733,58,16
54723,0.309,0.733,0.663,-68.817,-114.45,37.969,55,17
54768,0.591,0.584,0.493,-49.992,-76.664,4.427,57,19
54818,0.595,0.542,0.465,-48.947,-9.985,-34.702,142,18
54868,0.313,0.668,0.69,-81.13,24.176,-61.244,144,17
54919,0.123,0.638,0.762,-114.794,-8.382,-85.87,147,16
54969,-0.115,0.48,0.876,-130.519,-33.878,-91.618,151,14
55012,-0.176,0.406,0.912,-126.473,-39.557,-55.237,16,13
55055,-0.113,0.405,1.124,-113.855,-18.115,-49.458,16,12
55097,-0.025,0.309,1.169,-87.389,-3.382,-40.42,16,11
55153,-0.006,0.174,1.032,-76.366,34.542,-22.664,0,10
55206,-0.17,0.073,1.03,-81.824,55.702,-10.71,0,9
55248,-0.322,0.033,1.156,-83.595,15.183,-11.58,16,9
55291,-0.307,0.002,1.275,-64.313,-34.656,-15.275,16,10
55333,-0.197,-0.093,1.362,-18.588,-47.176,-0.519,11,10
55375,-0.006,0.026,1.106,7.634,-43.015,14.466,10,10
55417,0.11,0.1,0.876,1.618,-17.267,16.092,10,10
55459,0.003,0.045,1.026,-8.405,-1.977,7.26,10,11
55501,0.008,0.008,1.072,-7.954,-20.282,-6.366,10,11
55547,-0.001,-0.014,1.061,-5.244,0.42,-4.374,17,11
55601,-0.065,-0.024,1.11,-0.824,-5.397,-1.412,0,11
55654,-0.011,0.016,1.063,2.008,-12.992,0.122,0,10
55696,0.028,0.031,1.07,7.26,-15.634,-0.313,11,11
55749,0.048,0.055,1.028,4.519,-9.45,1.893,0,11
55791,0.075,0.01,1.107,15.916,-4.763,0.634,17,11
55839,0.086,0.071,0.972,13.031,18.771,-1.725,9,11
55880,-0.01,0.079,0.998,6.206,23.687,-0.863,10,11
55921,-0.064,0.093,1.014,-2.008,17.885,-2.26,11,10
55965,-0.112,0.08,1.048,-6.763,8.573,-3.137,17,10
56007,-0.114,0.039,1.1,-4.107,-6.427,-2.229,17,10
56048,-0.063,0.036,1.089,-0.008,-13.611,1.267,12,10
56089,-0.018,0.048,1.039,1.542,-15.748,1.427,11,11
56130,0.01,0.059,1.045,1.489,-12.069,1.061,10,11
56172,0.024,0.063,1.03,-0.046,-3.931,0.084,10,11
56213,0.009,0.059,1.034,-1.198,1.16,-0.58,11,11
56254,-0.022,0.053,1.069,-0.519,3.298,-0.275,10,11
56295,-0.042,0.057,1.067,-0.412,0.786,0.603,9,11
56339,-0.046,0.055,1.06,-0.908,-2.87,0.26,11,11
56380,-0.023,0.055,1.055,-0.351,-4.58,0.351,11,11
56422,-0.016,0.052,1.048,-0.336,-4.412,0.557,11,11
56463,-0.012,0.056,1.045,-0.756,-2.87,0.069,11,11
56504,-0.019,0.047,1.059,-0.374,-2.443,-0.038,11,11
56546,-0.026,0.054,1.052,-0.366,-2.664,0.45,16,11
56587,-0.023,0.053,1.058,-0.786,-2.786,-0.153,16,11
56629,-0.02,0.059,1.056,-0.084,-3.489,-0.008,16,11
56671,-0.02,0.052,1.049,-0.344,-3.74,0.55,16,11
56758,-0.014,0.055,1.052,-0.779,-3.527,0.427,17,11
56800,-0.025,0.05,1.042,-0.756,-4.489,0.504,17,11
56842,-0.009,0.055,1.053,-1.015,-4.962,1.023,17,11
56883,-0.004,0.056,1.055,-0.16,-3.695,0.557,18,11
56925,-0.008,0.043,1.052,0.069,-2.962,0.679,17,11
56967,-0.006,0.056,1.07,2.26,-4.626,1.786,17,11
57008,-0.013,0.059,1.097,5.794,-3.618,6.672,17,10
57060,-0.017,0.063,1.076,11.046,-3.504,11.588,0,10
57116,-0.042,0.063,1.104,15.565,8.947,12.42,0,11
57168,-0.079,0.101,1.15,21.855,0.275,20.626,0,12
57207,-0.081,0.139,1.188,29.649,-9.122,20.809,16,11
57249,-0.027,0.158,1.133,37.496,-11.214,20.557,16,12
57302,-0.014,0.22,1.083,38,-0.382,20.45,0,12
57355,-0.052,0.221,1.155,34.458,-10.45,18.809,0,13
57407,0.046,0.242,1.091,42.969,-26.985,12.489,0,13
57452,0.086,0.258,1.01,46.015,-14.504,11.26,58,14
57496,0.069,0.279,0.98,48.153,-3.29,11.786,54,15
57540,0.064,0.311,0.965,50.771,2.626,10.443,54,15
57584,0.049,0.374,0.933,49.817,6.221,12.924,51,16
57631,0.041,0.403,0.894,46.29,6.466,13.947,49,15
57674,0.033,0.437,0.866,42.855,8.916,14.908,49,17
57719,0.034,0.425,0.836,36.511,12.092,14.519,53,16
57762,0.033,0.417,0.829,32.366,10.679,13.557,46,16
57806,0.03,0.453,0.822,24.618,12.397,8.58,44,16
57850,-0.004,0.448,0.872,18.053,9.718,7.908,42,16
57893,-0.038,0.47,0.916,17.634,8.42,12.069,43,17
57937,-0.051,0.416,0.916,34.13,3.023,24,42,17
57981,-0.012,0.455,0.825,49.389,20.489,40.511,50,17
58028,0.017,0.469,0.692,64.603,59.542,55.962,37,18
58072,-0.06,0.704,0.732,58.496,86.855,76.053,37,18
58115,-0.113,0.725,0.7,46.634,95.496,91.496,39,19
58159,-0.104,0.721,0.649,34,94.382,108.489,29,21
58202,-0.084,0.774,0.733,6.038,93.198,116.313,33,25
58248,-0.164,1.236,1.047,-36.718,46.344,131.412,31,61
58301,-0.017,0.792,0.853,-61.42,-6.985,131.557,28,0
58351,0.199,0.432,0.737,-35.893,-33.336,115.74,28,131
58400,0.352,0.553,0.726,-23.542,-23.412,100.763,25,131
58463,0.715,0.513,1.22,-11.046,-65.763,66.458,0,132
58513,0.674,0.368,0.764,6.603,-13.229,-18.099,36,132
58572,0.434,0.636,0.662,-2.473,15.748,-35.122,0,132
58622,0.173,0.676,0.753,-22.71,42.29,-7.695,37,131
58673,0.217,0.587,0.907,-16.542,38.183,17.061,37,130
58723,0.264,0.499,0.969,-8.115,21.809,6.916,38,130
58772,0.256,0.531,0.908,-3.618,9.137,-5.359,33,129
58821,0.219,0.58,0.864,-2.55,8.595,-3.786,25,129
58867,0.225,0.567,0.863,-3.443,8.618,-0.534,24,62
58919,0.244,0.541,0.86,-4.756,12.328,-1.412,30,129
58969,0.215,0.561,0.896,-5.511,16.023,-1.847,28,128
59019,0.169,0.545,0.912,-4.641,15.771,-0.328,29,129
59068,0.141,0.529,0.938,-1.885,6.466,0.275,26,128
59160,0.197,0.538,0.883,0.74,-7.069,0.389,25,128
59209,0.203,0.546,0.887,-0.336,-2.885,0.031,24,128
59258,0.192,0.544,0.889,-0.878,-0.969,-0.382,24,128
59308,0.176,0.547,0.904,-1.496,-0.71,-0.344,24,128
59357,0.183,0.55,0.899,-1.672,1.221,-0.496,25,128
59409,0.163,0.536,0.912,-0.58,0.718,-0.069,25,128
59459,0.175,0.539,0.908,0.489,-3.947,0.435,25,128
59508,0.19,0.543,0.885,-0.168,-3.58,-0.13,25,128
59557,0.184,0.536,0.906,-0.427,0.145,-0.519,25,128
59607,0.163,0.542,0.905,0.153,-1.664,-0.359,25,128
59656,0.156,0.538,0.912,0.511,-2.756,0.282,26,128
59705,0.176,0.544,0.887,0.779,-4.29,0.809,25,128
59754,0.18,0.545,0.896,0.595,-3.733,0.527,25,128
59804,0.185,0.552,0.893,0.13,-2.656,0.198,25,128
59856,0.177,0.546,0.893,0.153,-2.809,-0.061,26,128
59906,0.185,0.545,0.902,0.466,-2.542,-0.221,27,128
59955,0.181,0.553,0.883,-0.145,-2.702,-0.389,26,128
60005,0.176,0.545,0.897,-0.359,-0.748,-0.26,27,128
60054,0.167,0.549,0.914,0.237,-1.733,0.527,28,128
60103,0.173,0.546,0.891,1.145,-4.344,0.542,27,129
60153,0.196,0.55,0.89,0.427,-3.58,0.115,27,128
60203,0.187,0.543,0.884,-0.359,-0.908,-0.321,28,129
60253,0.16,0.552,0.905,0.13,-1.519,-0.13,30,128
60305,0.167,0.54,0.892,0.687,-2.534,-0.061,29,128
60355,0.163,0.547,0.899,0.985,-3.359,0.595,29,128
60404,0.187,0.55,0.891,0.954,-4.198,0.603,28,128
60453,0.185,0.551,0.876,0.298,-3.687,0.366,26,128
60504,0.184,0.552,0.891,-0.168,-2.298,-0.214,26,128
60553,0.175,0.552,0.899,0.023,-2.725,-0.092,26,128
60603,0.183,0.557,0.881,-0.305,-3.221,0.198,27,129
60652,0.187,0.554,0.885,-1.137,-2.687,0.061,26,129
60701,0.176,0.554,0.886,-1.076,-0.595,0.107,28,128
60754,0.17,0.552,0.899,-0.473,-2.656,0.611,29,128
60807,0.179,0.549,0.882,-0.504,-4.992,0.26,61,129
60856,0.192,0.561,0.876,-1.87,-1.496,-0.244,31,129
60906,0.172,0.553,0.897,-1.595,0.313,-0.122,30,128
60955,0.166,0.547,0.907,-1.16,-3.031,0.069,30,128
61005,0.181,0.549,0.9,-0.649,-3.496,0.534,30,128
61056,0.174,0.552,0.891,-0.305,-2.679,0.725,30,128
61105,0.183,0.548,0.882,-0.878,-3.641,0.389,30,128
61155,0.19,0.548,0.882,-1.336,-1.458,-0.244,26,128
61208,0.172,0.548,0.9,-1.015,-1.435,0.076,26,128
61257,0.173,0.547,0.906,-0.252,-3.008,0.244,26,128
61306,0.175,0.548,0.886,-0.71,-3.878,0.168,26,128
61357,0.193,0.552,0.893,-1.282,-1.168,-0.153,26,128
61406,0.174,0.546,0.893,-1.542,0.947,-0.275,26,128
61456,0.167,0.546,0.914,-0.275,-2.473,0.282,26,128
61505,0.179,0.546,0.892,0.031,-4.321,0.557,26,128
61555,0.186,0.548,0.878,-0.458,-2.855,-0.061,26,128
61604,0.166,0.548,0.892,-0.298,-1.634,0.321,26,128
61701,0.177,0.536,0.896,-0.099,-3.427,0.305,25,128
61751,0.19,0.551,0.891,0.008,-2.45,0.191,25,128
61800,0.184,0.549,0.884,-0.115,-1.771,-0.099,26,128
61850,0.177,0.545,0.895,-0.45,-0.863,-0.397,26,128
61899,0.167,0.548,0.9,0.183,-2.389,-0.176,29,128
61949,0.17,0.548,0.892,0.595,-3.26,0.038,29,128
62005,0.167,0.549,0.886,0.863,-3.992,0.641,27,128
62054,0.191,0.549,0.884,-0.069,-2.664,-0.107,27,128
62102,0.174,0.545,0.895,-0.435,0.618,-0.115,28,128
62151,0.166,0.546,0.902,0.344,-1.672,0.137,29,128
62202,0.178,0.55,0.892,0.595,-3.206,0.153,28,128
62252,0.166,0.548,0.887,0.191,-2.679,-0.046,29,128
62301,0.178,0.548,0.895,0.153,-2.527,0.023,29,128
62350,0.168,0.554,0.896,0.389,-3,0.084,29,128
62398,0.168,0.548,0.892,0.695,-2.634,0.435,28,128
62447,0.166,0.551,0.897,0.817,-3.229,0.275,28,128
62496,0.184,0.554,0.887,0.527,-3.298,0.29,27,128
62544,0.17,0.548,0.89,0.16,-1.939,-0.061,27,128
62594,0.17,0.556,0.89,0.16,-2.366,-0.168,27,128
62645,0.185,0.548,0.885,0.725,-3.557,0.313,27,128
62694,0.176,0.551,0.878,0.649,-2.817,0.115,27,128
62743,0.183,0.568,0.88,-0.023,-3.489,-0.198,26,128
62791,0.174,0.557,0.885,-0.405,-0.931,-0.061,27,128
62840,0.174,0.56,0.877,-0.489,-1.733,0.511,27,128
62889,0.173,0.558,0.888,-0.122,-4.053,0.313,27,128
62939,0.178,0.557,0.876,-0.809,-2.885,-0.275,27,128
62987,0.179,0.556,0.882,-1.427,0.168,-0.031,28,128
63036,0.162,0.559,0.898,-0.977,-1.702,-0.023,28,128
63088,0.175,0.557,0.887,-1.115,-3.198,0.252,28,128
63137,0.183,0.554,0.879,-0.832,-2.557,0.389,28,128
63186,0.176,0.556,0.884,-1.115,-2.595,0.458,28,128
63236,0.176,0.556,0.885,-1.351,-2.031,0.275,28,128
63284,0.171,0.552,0.894,-1.656,-1.489,-0.298,26,128
63333,0.161,0.552,0.9,-0.992,-1.718,0.069,26,128
63382,0.165,0.551,0.891,-0.817,-2.45,0.13,26,128
63431,0.179,0.562,0.884,-1.107,-3.618,0.55,26,128
63479,0.193,0.552,0.886,-1.817,-2.115,-0.183,25,128
63532,0.167,0.55,0.898,-1.534,0.763,-0.237,26,128
63581,0.163,0.554,0.905,-0.672,-2.489,0.74,26,128
63630,0.185,0.551,0.887,-0.122,-3.969,0.374,26,128
63678,0.177,0.551,0.886,-1.015,-2.351,-0.099,26,128
63727,0.171,0.548,0.891,-0.969,-1.298,0.183,26,128
63776,0.166,0.556,0.893,-0.962,-2.931,0.137,26,128
63825,0.167,0.547,0.895,-1.053,-2.702,0.153,26,128
63875,0.174,0.556,0.894,-0.611,-2.504,0.168,25,128
63923,0.174,0.545,0.892,-0.603,-2.328,0.29,25,128
63975,0.173,0.548,0.893,-0.641,-2.489,0.351,25,128
64024,0.172,0.552,0.892,-0.74,-1.58,0.008,25,128
64073,0.16,0.549,0.903,0.076,-2.511,0.275,25,128
64121,0.161,0.545,0.932,0.725,-5.336,0.198,25,128
64214,0.117,0.626,1.139,11.779,-86.595,2.954,25,129
64264,0.275,0.642,0.978,28.092,-142.534,-1.878,30,131
64326,0.482,0.626,0.704,31.084,-175.008,-34.481,0,0
64390,0.674,0.746,0.488,-7.863,-100.458,-38.16,0,0
64446,0.492,0.612,0.595,-32.931,-46.794,-31,9,0
64506,0.454,0.564,0.62,-34.069,-38.282,-26.534,103,0
64565,0.442,0.557,0.614,-31.794,-35.427,-22.924,104,0
64623,0.462,0.539,0.643,-32.389,-28.183,-16.122,105,0
64683,0.495,0.488,0.697,-25.931,-24.206,-14.756,135,0
64746,0.535,0.517,0.736,-15.366,-21.008,-16.687,0,0
64796,0.573,0.55,0.741,-6.015,-12.183,-14.87,141,36
64857,0.563,0.601,0.738,-3.542,-0.198,-8.992,142,0
64920,0.499,0.596,0.774,-4.374,-1.641,-1.511,0,0
64984,0.526,0.562,0.72,3.282,-12.427,-3.618,0,0
65058,0.517,0.596,0.689,9.244,1.466,2.328,0,0
65124,0.51,0.622,0.706,10.611,-4.695,5.336,0,0
65189,0.55,0.625,0.667,9.214,-9.656,5.031,0,0
65255,0.557,0.638,0.665,9.229,-2.122,3.481,0,0
65321,0.545,0.646,0.665,7.107,-5.031,4.198,0,0
65376,0.579,0.623,0.631,4.458,-6.786,3.878,7,0
65430,0.573,0.615,0.623,2.817,-3.519,1.435,9,0
65497,0.568,0.617,0.626,0.855,-3.687,-0.015,0,0
65562,0.572,0.611,0.634,-1.092,-1.817,-1.672,0,0
65628,0.563,0.628,0.647,-2.275,-1.359,-2.924,0,0
65693,0.561,0.632,0.667,-1.901,-0.122,-3.901,138,0
65747,0.551,0.628,0.661,-1.527,0.565,-3.206,9,0
65803,0.54,0.624,0.663,-0.221,-1.489,-2.038,9,0
65858,0.545,0.622,0.649,0.664,-1.511,-1.901,9,0
65912,0.533,0.631,0.648,1.359,1.206,-1.038,7,0
65968,0.534,0.63,0.661,1.069,-0.58,-1.664,7,0
66022,0.541,0.643,0.655,0.084,-0.718,-0.74,7,0
66077,0.531,0.628,0.663,-0.725,-1.992,-0.198,7,0
66131,0.537,0.634,0.655,-0.336,-2.664,-0.45,7,0
66197,0.544,0.629,0.632,-0.954,-0.015,-0.595,0,0
66267,0.534,0.636,0.655,-2.305,-1.374,-1.145,0,0
66332,0.514,0.649,0.657,-3.427,-1.527,-1.359,0,0
66399,0.535,0.631,0.671,-3.786,0.695,-0.878,0,0
66464,0.536,0.616,0.664,-3.443,-0.573,-1.618,0,0
66530,0.519,0.612,0.671,-2.473,2.481,-1.595,0,0
66596,0.517,0.632,0.689,-3.405,0.771,-1.061,0,0
66662,0.523,0.655,0.685,-3.916,0.527,-1.542,0,0
66727,0.527,0.664,0.692,-6.427,2.321,-1.878,0,0
66794,0.514,0.627,0.704,-7.573,0.137,-1.412,0,0
66863,0.506,0.598,0.707,-7.481,0.954,-3.733,0,0
66925,0.501,0.567,0.719,-6.924,0.42,-5.695,137,0
66991,0.499,0.588,0.729,-4.092,-1.58,-5.542,0,0
67047,0.495,0.597,0.704,-1.336,1.435,-5.099,0,32
67103,0.479,0.636,0.708,0.328,4.397,-5.427,0,32
67160,0.457,0.625,0.712,-0.42,2.824,-5.412,0,31
67216,0.458,0.639,0.707,-2.107,4.206,-4.015,0,31