Timestamp(ms),AccelX(g),AccelY(g),AccelZ(g),GyroX(deg/s),GyroY(deg/s),GyroZ(deg/s),DistanceLeft(cm),DistanceRight(cm)
23759,-0.267,0.606,0.769,-5.969,4.847,2.611,23,21
23802,-0.321,0.58,0.84,-3.412,6.107,1.58,23,21
23845,-0.306,0.583,0.837,0.267,-8.275,0.275,23,21
23887,-0.247,0.598,0.798,3.229,-3.229,0.26,22,21
23930,-0.269,0.606,0.785,1.794,6.115,1.473,22,22
23973,-0.321,0.6,0.839,2.649,2.74,-1.183,23,21
24015,-0.29,0.604,0.808,1.031,-11.168,-2.924,22,21
24058,-0.267,0.609,0.767,-0.206,-5.237,-1.26,22,21
24104,-0.289,0.612,0.799,-1.374,0.168,-0.29,22,21
24146,-0.299,0.599,0.813,0.214,-4.443,-0.718,22,21
24189,-0.255,0.613,0.792,-0.504,-3.122,-1.42,22,21
24231,-0.265,0.605,0.802,-1.603,-0.924,-1.534,22,21
24274,-0.268,0.614,0.81,-2.664,-0.626,-3.092,23,21
24317,-0.275,0.602,0.785,-3.878,-0.336,-3.183,24,21
24360,-0.285,0.609,0.83,-3.489,6.168,-3.282,23,20
24403,-0.32,0.586,0.829,-3.504,-0.931,-3,26,20
24445,-0.28,0.592,0.803,-2.534,-3.069,-4.061,22,22
24492,-0.297,0.597,0.831,-2.511,0.046,-3.397,25,21
24535,-0.293,0.606,0.805,-1.916,0.527,-4.176,23,21
24578,-0.265,0.598,0.802,-2.534,3.588,-5.466,27,21
24621,-0.254,0.594,0.779,-4.962,4.069,-9.183,27,20
24664,-0.245,0.593,0.78,-9.198,7.252,-15.336,26,21
24713,-0.326,0.563,0.824,-11.611,1.29,-18.504,143,20
24763,-0.345,0.562,0.832,-11.336,-6.832,-19.733,145,20
24812,-0.34,0.544,0.831,-10.076,2.893,-15.977,147,19
24863,-0.399,0.531,0.864,-6.351,7.71,-7.802,167,19
24918,-0.404,0.534,0.865,-2.137,1.611,-1.412,167,20
24969,-0.371,0.534,0.843,0.458,-1.305,2.267,168,19
25019,-0.34,0.541,0.834,-0.206,3.916,5.053,167,19
25069,-0.339,0.537,0.8,-0.473,4.901,5.298,147,19
25119,-0.375,0.536,0.865,-0.618,6.641,5.252,147,19
25168,-0.377,0.511,0.833,2.702,-7.962,4.84,147,20
25219,-0.338,0.543,0.846,6.702,-7.985,6.908,145,20
25268,-0.363,0.547,0.833,8.122,-5.786,8.702,144,19
25318,-0.344,0.56,0.828,9.153,-8.672,7.847,143,21
25364,-0.299,0.581,0.808,9.092,-9.779,9.748,24,20
25407,-0.27,0.589,0.791,6.42,-6.267,9.168,26,21
25449,-0.254,0.581,0.796,4.008,-2.122,7.176,24,20
25492,-0.263,0.591,0.794,1.45,2.046,3.389,26,20
25535,-0.265,0.582,0.821,-0.481,1.122,-0.038,25,20
25578,-0.295,0.59,0.812,-1.244,-1.55,-2.076,27,21
25621,-0.301,0.596,0.813,-1.473,1.321,-2.45,23,20
25664,-0.327,0.573,0.818,-0.924,4.191,-1.382,26,20
25714,-0.324,0.588,0.82,0.069,1.908,-0.137,143,22
25760,-0.314,0.581,0.817,0.351,-3.015,-0.168,27,21
25803,-0.284,0.593,0.799,-0.458,-1.237,-0.611,26,21
25846,-0.303,0.588,0.823,-1.13,2.122,-0.664,27,21
25889,-0.319,0.586,0.817,-1.542,-1.366,-0.679,24,21
25932,-0.3,0.59,0.811,-1.656,0.122,-1.412,24,21
25975,-0.311,0.578,0.83,-1.626,0.771,-1.214,24,21
26061,-0.313,0.583,0.817,0.191,-0.687,0.534,24,21
26104,-0.311,0.589,0.824,0.389,0.046,1.244,24,21
26147,-0.299,0.586,0.814,0.565,-0.992,0.145,24,21
26193,-0.299,0.59,0.808,-0.267,0.504,-0.374,24,21
26236,-0.305,0.587,0.813,-1.053,0.893,-0.511,24,21
26279,-0.316,0.588,0.822,-0.634,-2.069,-0.863,24,21
26322,-0.302,0.585,0.821,-0.321,-0.786,-0.695,24,21
26365,-0.313,0.578,0.828,-0.275,0.733,0.466,24,21
26408,-0.321,0.584,0.818,0.092,-0.992,0.42,24,21
26451,-0.305,0.591,0.814,0.153,-0.954,0.985,24,21
26494,-0.312,0.588,0.811,0.16,-0.42,1.168,27,21
26537,-0.31,0.589,0.821,0.275,-2.206,0.244,26,21
26584,-0.289,0.588,0.796,0.435,-1.786,-0.061,24,21
26627,-0.287,0.596,0.806,0.053,2.458,0.099,25,21
26670,-0.305,0.59,0.814,-0.099,0.794,-0.473,26,21
26713,-0.298,0.593,0.808,-0.863,-1.511,-0.863,26,21
26757,-0.314,0.585,0.82,-1.076,0.26,-0.359,27,21
26800,-0.321,0.587,0.835,-0.863,0.435,0.42,27,21
26843,-0.317,0.59,0.811,-0.618,-1.71,0.061,27,21
26886,-0.297,0.589,0.807,-0.763,-1.771,0.038,27,21
26930,-0.309,0.593,0.816,-0.779,1.038,0.71,27,21
26976,-0.308,0.587,0.82,-0.336,-1.237,-0.366,24,21
27019,-0.3,0.588,0.787,-0.344,0.924,-0.328,24,21
27062,-0.31,0.59,0.819,-0.634,2.015,-0.229,24,21
27105,-0.311,0.584,0.81,-0.443,-0.435,-0.145,24,21
27148,-0.313,0.588,0.812,-0.771,-1.641,0.107,24,21
27192,-0.307,0.594,0.819,-0.519,0.053,0.137,24,21
27235,-0.314,0.587,0.813,-0.55,-0.588,-0.122,24,21
27278,-0.311,0.586,0.816,-0.542,-0.969,-0.267,25,21
27321,-0.313,0.581,0.81,-0.824,-0.45,-0.58,25,21
27364,-0.306,0.59,0.813,-1.145,0.74,-0.473,26,21
27411,-0.314,0.598,0.801,-1.351,2.206,0.351,27,21
27460,-0.315,0.588,0.81,-2.412,2.573,-0.221,143,21
27504,-0.304,0.58,0.81,-1.977,3.458,-0.565,25,21
27547,-0.341,0.577,0.842,0.527,-4.901,-0.084,25,21
27597,-0.297,0.575,0.802,2.252,-7.412,0.55,143,21
27648,-0.298,0.585,0.811,3.244,-0.916,0.924,143,21
27691,-0.324,0.594,0.823,1.458,-3.366,1.351,26,21
27734,-0.314,0.595,0.819,1.565,-6.321,-0.473,26,20
27784,-0.295,0.594,0.806,1.473,-6.641,0.008,143,20
27837,-0.299,0.601,0.811,0.092,-1.611,0.473,143,20
27887,-0.311,0.591,0.816,-0.221,-4.595,-0.26,143,20
27937,-0.279,0.592,0.8,-0.389,-3.718,0.16,143,20
27987,-0.29,0.59,0.815,-0.351,0.321,0.115,143,20
28038,-0.301,0.592,0.824,0.237,0.496,0.107,143,20
28087,-0.285,0.599,0.814,-0.176,-1.702,-0.443,143,20
28137,-0.282,0.594,0.798,-0.618,0.733,-0.786,143,20
28187,-0.306,0.599,0.825,0.198,0.802,0.092,143,20
28237,-0.309,0.589,0.827,0.359,-1.786,1.206,143,20
28291,-0.314,0.59,0.827,3.023,-3.321,4.298,143,21
28377,-0.276,0.598,0.795,6.603,-1.656,7.908,25,21
28421,-0.248,0.627,0.786,4.427,-2.275,5.29,23,21
28464,-0.234,0.614,0.775,1.779,-3.504,0.588,26,21
28508,-0.236,0.63,0.765,-1.931,0.718,-2.084,23,21
28551,-0.275,0.613,0.789,-4.061,1.84,-3.282,23,21
28604,-0.281,0.61,0.797,-5.389,1.069,-5.008,0,21
28656,-0.282,0.601,0.808,-6.809,-0.969,-5.847,168,21
28706,-0.3,0.599,0.812,-6.115,-0.053,-4.29,143,20
28752,-0.329,0.591,0.845,-2.901,-3.046,-1.107,24,20
28803,-0.296,0.593,0.832,0.481,-1.992,1.412,144,20
28847,-0.272,0.599,0.807,0.74,2.817,2.107,26,21
28890,-0.286,0.587,0.814,-0.099,-3.519,0.206,25,21
28940,-0.263,0.602,0.796,-1.832,-3.489,-0.992,144,21
28990,-0.287,0.596,0.831,-1.672,2.328,-0.221,144,21
29040,-0.306,0.594,0.841,0.099,-4.29,-0.084,144,21
29090,-0.26,0.596,0.797,0.076,-1.534,-0.26,144,21
29145,-0.295,0.589,0.816,-0.336,4.153,0.351,0,21
29198,-0.289,0.593,0.796,-0.282,-2.725,-1.053,144,21
29248,-0.284,0.604,0.809,-1.519,-0.702,-0.748,143,21
29298,-0.29,0.594,0.826,-1.198,0.679,0.084,144,21
29348,-0.294,0.595,0.813,-0.931,-1.573,0.092,143,21
29400,-0.269,0.596,0.815,-0.58,0.16,-0.305,143,21
29450,-0.27,0.599,0.806,-1.282,5.427,-0.221,143,21
29493,-0.307,0.597,0.831,-1.046,1.74,-0.366,24,20
29536,-0.287,0.602,0.818,-1.397,-0.359,-0.893,24,20
29586,-0.291,0.603,0.82,-3.489,0.977,-0.664,24,20
29631,-0.304,0.577,0.798,-2.969,5.061,1.13,24,20
29674,-0.317,0.591,0.837,0.466,-3.748,0.023,24,20
29717,-0.281,0.574,0.808,1.336,-2.519,0.817,27,21
29760,-0.295,0.605,0.827,2.267,1.565,1.229,26,21
29802,-0.295,0.592,0.839,2.847,-1.74,-0.58,24,21
29845,-0.277,0.595,0.811,3.221,-3.847,-0.023,24,20
29887,-0.284,0.612,0.782,1.794,0.023,0.573,23,20
29930,-0.301,0.606,0.798,-0.13,1.244,-0.046,24,20
29973,-0.289,0.608,0.801,-1.588,-1.397,-1.069,24,20
30018,-0.302,0.604,0.813,-2.603,-2.466,-0.29,24,20
30061,-0.292,0.604,0.835,-2.344,-2.42,-0.076,24,20
30104,-0.292,0.593,0.821,-0.733,-3.977,0.618,24,21
30146,-0.285,0.59,0.821,0.473,-1.969,0.786,23,21
30189,-0.27,0.594,0.812,0.603,-0.153,0.435,23,21
30232,-0.277,0.602,0.803,0.481,0.45,-0.092,24,21
30274,-0.288,0.598,0.81,0.008,-1.183,-1.076,24,21
30317,-0.301,0.604,0.819,0.191,-5.107,-0.481,24,21
30360,-0.282,0.606,0.812,-0.13,-5.824,-0.321,24,21
30405,-0.286,0.602,0.819,0.069,-2.443,1.374,24,21
30455,-0.32,0.585,0.859,1.603,-8.45,2.534,144,21
30504,-0.276,0.613,0.825,4.427,-15.588,3.87,144,21
30547,-0.254,0.615,0.808,5.924,-6.252,6.298,26,20
30590,-0.243,0.608,0.811,6.031,-9.183,5.153,25,21
30633,-0.214,0.624,0.787,3.55,-5.191,4.214,26,21
30720,-0.238,0.619,0.806,0.626,-2.763,0.771,23,21
30763,-0.235,0.622,0.806,0.237,-8.046,-0.786,23,21
30804,-0.216,0.627,0.796,-0.794,-0.733,-0.26,23,21
30848,-0.243,0.618,0.828,-0.527,0.16,-0.168,23,22
30894,-0.231,0.63,0.82,-0.305,-1.252,0.061,23,21
30937,-0.231,0.627,0.808,0.076,-0.29,-0.015,23,22
30980,-0.235,0.627,0.809,-0.756,0.901,-0.069,23,22
31022,-0.231,0.623,0.819,-1.031,-0.313,-0.061,24,22
31065,-0.235,0.619,0.814,-0.832,-2.053,-0.847,24,22
31118,-0.226,0.625,0.812,-1.13,-0.496,-0.733,0,22
31171,-0.242,0.617,0.819,-1.489,2.137,-0.977,0,21
31224,-0.256,0.614,0.826,-1.145,-1.893,-1.084,0,21
31278,-0.225,0.614,0.802,-1.336,-0.015,-1.046,0,21
31333,-0.245,0.617,0.825,-1.061,2.771,-0.42,0,21
31386,-0.24,0.611,0.819,-1.145,-1.176,-1.504,0,21
31436,-0.226,0.62,0.801,-1.519,0.893,-1.954,143,21
31486,-0.24,0.617,0.824,-2.55,6.901,-1.71,144,21
31536,-0.268,0.608,0.826,-3.053,0.817,-2.374,144,21
31586,-0.251,0.609,0.823,-1.939,-1.389,-1.969,143,20
31636,-0.257,0.607,0.83,-0.626,0.176,0.206,143,20
31685,-0.256,0.607,0.814,-0.099,0.931,0.58,143,21
31728,-0.243,0.605,0.816,-0.168,1.374,0.634,24,21
31774,-0.24,0.607,0.818,-0.695,1.58,-0.092,24,20
31817,-0.246,0.619,0.811,-1.763,1.74,-0.672,25,20
31860,-0.259,0.631,0.826,-2.565,0.901,-1.145,26,20
31903,-0.264,0.614,0.833,-4.237,0.634,-0.298,27,20
31946,-0.26,0.591,0.79,-3.824,2.664,-0.214,23,20
31989,-0.26,0.6,0.842,-1.176,-2.328,-0.344,23,20
32038,-0.248,0.584,0.822,0.794,-4.252,0.275,142,20
32081,-0.252,0.616,0.82,3.069,0.42,1.16,25,20
32124,-0.285,0.6,0.854,3.969,-2.634,-0.122,23,20
32171,-0.24,0.611,0.793,3.145,-9.626,-0.695,26,21
32214,-0.225,0.626,0.778,0.557,2.885,0.046,26,20
32258,-0.282,0.61,0.83,-0.504,3.885,0.817,26,20
32301,-0.266,0.613,0.827,-0.771,-8.565,-1.115,26,20
32344,-0.231,0.616,0.802,-1.137,-4.16,0.229,25,21
32387,-0.246,0.613,0.825,-1.534,1.389,0.74,24,21
32430,-0.271,0.601,0.834,-0.679,-2.511,0.458,23,21
32473,-0.237,0.608,0.809,0.443,-5.962,-0.847,23,21
32516,-0.233,0.619,0.808,0.183,1.382,0.664,22,21
32562,-0.258,0.605,0.832,-0.191,-2.13,-0.656,23,21
32605,-0.248,0.611,0.816,-0.229,-2.931,-0.374,23,21
32648,-0.25,0.617,0.82,-0.26,-0.458,0.313,23,21
32691,-0.245,0.615,0.818,-0.351,-2.084,0,23,21
32734,-0.243,0.611,0.809,-0.588,-3.435,0.359,22,21
32777,-0.224,0.613,0.804,-0.939,-0.26,0.061,26,21
32820,-0.251,0.61,0.833,-0.802,2.763,0.626,23,21
32863,-0.253,0.612,0.826,-0.282,-4.099,-0.595,26,21
32907,-0.235,0.622,0.802,-0.55,-2.557,0.084,26,21
32953,-0.257,0.612,0.836,-0.26,-0.786,1,26,21
33039,-0.24,0.619,0.821,0.725,-2.618,1.084,23,21
33082,-0.233,0.611,0.831,0.702,-1.58,1.58,23,21
33125,-0.229,0.615,0.816,1.137,-3.458,0.885,26,21
33169,-0.213,0.614,0.814,0.985,-2.458,0.557,26,22
33212,-0.226,0.613,0.809,-0.244,0.58,0.397,26,22
33262,-0.224,0.625,0.816,-0.55,-2.58,-0.672,142,22
33312,-0.232,0.61,0.817,-0.992,0.031,-0.313,142,22
33361,-0.232,0.622,0.823,-0.389,-0.16,0.038,142,22
33405,-0.218,0.618,0.807,-0.412,-0.328,-0.198,23,22
33445,-0.225,0.621,0.813,-0.748,2.45,-0.153,23,21
33489,-0.244,0.614,0.828,0.046,0.794,-0.191,23,21
33532,-0.237,0.622,0.828,0.053,-0.908,-0.298,23,21
33575,-0.229,0.618,0.804,-0.771,1.336,-0.031,23,21
33618,-0.242,0.623,0.815,-0.84,-0.977,-0.176,23,21
33661,-0.223,0.619,0.823,-0.87,-1.756,-0.504,23,21
33704,-0.217,0.618,0.807,-1.191,2.756,-0.489,24,21
33748,-0.238,0.617,0.827,-0.725,3.099,-0.214,25,21
33792,-0.246,0.617,0.823,0.107,-0.832,-0.863,26,21
33845,-0.233,0.619,0.805,0.382,0.046,-0.679,141,21
33895,-0.237,0.62,0.816,-0.145,0.656,-0.023,142,21
33938,-0.235,0.622,0.811,-0.756,0.748,-0.13,23,21
33981,-0.241,0.616,0.81,-0.817,-0.313,0.176,23,21
34024,-0.232,0.612,0.812,-0.771,0.534,-0.183,23,21
34068,-0.242,0.61,0.813,-0.832,1.084,0.031,23,21
34111,-0.238,0.614,0.82,-0.664,0.015,-0.214,23,21
34154,-0.231,0.617,0.811,-0.756,2.458,0.115,23,21
34197,-0.244,0.621,0.817,-1.015,2.641,-0.122,24,21
34250,-0.25,0.622,0.824,-0.863,2.519,-0.191,142,21
34300,-0.248,0.618,0.81,-2.618,1.641,-0.71,142,21
34344,-0.252,0.627,0.818,-6.855,4.947,-1.481,24,21
34395,-0.276,0.591,0.796,-6.351,0.573,-1.405,143,21
34445,-0.255,0.593,0.831,-0.656,-5.053,-0.351,142,21
34495,-0.252,0.604,0.838,2.962,6.458,2.718,143,21
34548,-0.299,0.6,0.889,8.298,-0.962,2.298,0,21
34591,-0.22,0.618,0.794,7.985,-13.55,-0.885,24,21
34635,-0.197,0.635,0.749,4.794,0.397,0.573,23,21
34681,-0.255,0.645,0.811,1.939,6.466,0.649,24,21
34724,-0.27,0.622,0.791,-0.718,-3.756,-0.58,24,21
34768,-0.237,0.628,0.788,-2.748,-2.656,-0.733,24,21
34811,-0.244,0.622,0.804,-3.298,1.122,0.076,24,21
34855,-0.256,0.611,0.83,-0.802,-2.229,0.084,23,21
34898,-0.227,0.622,0.807,0.573,-2.504,-0.069,23,21
34942,-0.228,0.629,0.804,0.626,2.618,0.397,23,21
34985,-0.257,0.621,0.822,-0.046,2.191,-0.695,23,21
35028,-0.252,0.625,0.804,-0.359,-2.466,-1.885,24,21
35076,-0.242,0.635,0.79,-0.954,-1.145,-0.985,26,20
35120,-0.259,0.632,0.804,-2.084,2.687,-0.168,26,20
35163,-0.278,0.62,0.825,-1.42,-1.573,0.13,23,20
35207,-0.241,0.628,0.802,-1.183,-4.237,-0.084,25,21
35250,-0.231,0.629,0.799,-0.458,1.344,0.206,24,21
35337,-0.244,0.627,0.806,-0.298,-1.481,-0.153,24,21
35380,-0.245,0.629,0.813,-0.16,-0.145,-0.244,25,21
35430,-0.249,0.631,0.81,-0.817,1.115,0.405,25,21
35473,-0.254,0.629,0.809,-0.733,-0.168,0.168,25,21
35518,-0.242,0.623,0.813,-0.794,-1.565,-0.046,23,21
35561,-0.235,0.624,0.807,-0.916,-1.435,-0.252,23,21
35604,-0.246,0.62,0.814,-1.282,-0.031,-0.664,23,21
35646,-0.261,0.617,0.811,-1.191,0.282,-0.473,23,21
35689,-0.252,0.625,0.805,-1.221,-1.504,-0.267,23,21
35732,-0.235,0.632,0.797,-2.885,1.244,0.16,23,21
35774,-0.233,0.617,0.802,-2.878,8.466,1.481,23,21
35817,-0.277,0.626,0.839,-3.412,4.954,-0.023,24,21
35860,-0.262,0.605,0.8,-5.198,-2.336,-2.817,25,21
35905,-0.228,0.608,0.785,-3.908,-6.779,-4.962,23,20
35948,-0.23,0.605,0.857,-1.985,-6.756,-6.008,25,20
35991,-0.261,0.574,0.816,-2.855,-13.168,-8.122,24,21
36034,-0.22,0.54,0.894,5.107,-38.336,-21.71,25,20
36077,-0.098,0.622,0.751,6.939,-42.351,-22.137,25,20
36120,-0.126,0.626,0.806,17.153,-18.725,-24.702,30,19
36163,-0.314,0.772,0.865,10.931,26.687,-5.031,33,19
36206,-0.547,0.933,1.068,23.275,35.168,22.023,33,19
36250,-0.523,0.702,1.104,42.412,7.237,36.802,37,19
36296,0.199,0.186,0.39,35.504,-10.153,22.916,37,20
36339,0.434,0.305,-0.031,-3.679,66.511,-19.237,36,19
36383,-0.762,1.07,0.61,-40.847,145.527,19.794,37,19
36432,-1.485,0.581,1.751,12.031,-1.45,43.221,139,20
36476,0.01,0.402,0.806,32.42,-167.13,31.565,40,20
36519,0.512,0.906,0.256,24.298,17.87,21.466,38,20
36563,-0.543,0.63,1.056,13.023,47.634,10.664,37,20
36613,-0.422,0.714,0.797,28.679,-53.183,15.466,137,20
36657,0.101,0.844,0.642,36.695,11.496,21.763,41,20
36703,-0.299,0.799,0.959,48.893,-7.023,12.626,37,20
36753,-0.17,0.787,0.501,76.008,8.58,23.573,147,21
36796,-0.236,0.867,0.487,58.557,9.611,47.359,32,20
36840,0.003,0.771,0.49,41.832,1.985,29.809,37,21
36884,-0.139,0.9,0.865,49.878,-0.321,25.718,38,21
36933,-0.057,1.028,0.607,78.313,-8.939,20.878,131,21
36978,-0.117,0.868,0.328,78.435,2.603,25.511,57,21
37020,0.097,0.954,0.013,60.092,-5.344,20.115,18,20
37063,0.021,1.079,0.086,20.985,1.931,15.565,16,20
37109,0.109,0.933,0.104,-1.763,-5.878,1.153,33,20
37153,-0.066,0.979,0.357,-3.924,9.595,4.153,31,21
37196,0.052,1.009,0.318,-2.878,-8.168,-0.328,30,20
37239,0.075,0.99,0.328,-6.29,-7.893,-7.687,31,21
37284,-0.051,0.902,0.519,2.603,14.076,1.87,46,21
37327,-0.175,0.858,0.773,40.931,0.405,10.191,30,19
37370,-0.101,0.896,0.632,91.168,10.053,18.962,29,19
37414,-0.209,1.102,0.295,129.534,18.092,54.008,29,19
37456,0.492,1.366,-0.887,44.183,-31.611,25.618,16,19
37504,0.174,0.625,-0.2,-46.45,9.939,-18.687,27,19
37590,0.377,0.988,0.222,52.351,-22.092,17.618,27,19
37633,0.372,0.972,-0.208,38.008,-13.374,-28.389,16,19
37676,-0.038,1.226,-0.154,-1.176,0.427,-41.771,16,18
37719,-0.621,1.041,0.354,10.824,23.832,19.756,29,18
37762,0.246,1.147,-0.055,29.206,-34.84,26.947,17,18
37805,0.377,0.792,-0.129,-1.962,17.336,-2.908,19,18
37848,-0.143,0.995,0.126,0.237,14.481,-17.626,30,18
37891,-0.205,1.109,0.161,15.916,-12.519,12.534,16,18
37937,0.106,0.943,0.035,16.168,-0.45,18.305,17,18
37979,0.09,0.95,0.129,31.015,-5.42,14.511,17,18
38022,0.319,1.09,-0.19,23.763,-3.824,-1.74,11,17
38064,0.112,1.188,-0.303,-2.412,3.664,-16.351,16,17
38107,-0.25,0.942,0.008,-11.947,28.382,11.542,13,18
38149,0.152,1.081,0.074,2.756,-4.099,19.969,11,18
38191,0.221,0.866,0.015,13.924,7.466,6.26,11,18
38234,0.122,1.198,-0.198,7.504,7.023,-1.885,11,18
38276,-0.206,1.056,-0.003,3.718,6.214,15.626,11,18
38322,0.157,0.906,-0.049,2.489,1.382,25.687,12,18
38364,0.392,0.843,-0.088,1.885,2.588,8.13,16,19
38407,0.032,1.193,0.066,11.908,4.191,6.969,16,19
38450,0.282,0.935,-0.271,-1.389,-13.779,-2.046,16,20
38492,0.027,1.045,-0.035,-7.626,8.229,-2.595,16,19
38535,0.039,0.989,0.085,4.206,4.702,14.466,16,19
38578,0.293,0.963,-0.064,11.397,-9.305,5.45,17,18
38621,0.145,0.987,-0.043,8.924,2.893,-4.397,27,19
38665,0.012,1.054,-0.038,19.16,1.229,15.58,27,19
38707,0.306,1.012,-0.102,22.42,-15.641,12.42,17,18
38753,0.403,0.919,-0.219,9.817,-9.412,-24.649,17,17
38797,-0.122,1.146,-0.049,10.893,5.221,-16.122,27,17
38840,0.063,1.026,-0.296,3.74,-17.878,11.191,17,17
38882,0.329,0.944,-0.181,-10.198,4.725,-3.092,11,17
38925,0.021,1.037,0.017,-1.557,5.458,-0.198,17,18
38967,0.167,1.03,-0.15,2.962,-12.458,6.802,11,17
39010,0.215,0.997,-0.147,-2.901,4.611,-4,11,17
39053,-0.032,0.998,-0.007,4.695,16.382,6.817,17,18
39095,0.269,0.998,-0.196,11.26,-12.863,11.817,11,18
39141,0.248,0.981,-0.199,-6.626,2.015,-13.084,11,17
39184,-0.024,1.038,-0.075,-5.29,-0.84,-4.74,17,17
39226,0.098,1.055,-0.024,4.802,-6.634,14.122,11,17
39269,0.352,0.908,-0.235,-0.786,-8.176,-2.924,11,17
39311,0.119,0.977,-0.089,0.053,9.992,-9.298,12,17
39354,0.015,1.007,-0.018,4.58,-1.687,0.031,17,17
39396,0.191,1.025,-0.125,7.504,-1.191,8.573,10,17
39439,0.203,1.005,-0.132,10.015,-9.969,-2.458,10,17
39482,0.11,0.987,-0.089,13.977,3.779,0.573,19,17
39527,0.174,1.052,-0.218,19.45,-8.664,1.191,11,17
39570,0.169,0.971,-0.243,6.557,1.305,1,11,16
39612,0.179,1.027,-0.197,2.863,-5.26,-6.29,9,17
39655,0.133,0.995,-0.135,3.053,7.481,2.374,9,17
39697,0.162,1.008,-0.227,3.924,-1.672,-2.137,9,16
39782,0.173,1.018,-0.234,-3,-0.305,0.122,11,16
39825,0.141,0.949,-0.132,-2.878,0.382,0.641,9,17
39867,0.202,1.036,-0.141,2.603,-8.481,-3.901,9,17
39910,0.054,0.937,-0.121,4.756,7.954,1.458,9,17
39955,0.182,1.065,-0.225,9.588,-4.26,2.847,9,17
39998,0.207,0.971,-0.254,2.084,3.084,-3.244,9,16
40040,0.088,1.002,-0.22,-4.084,0.718,-4.733,10,16
40082,0.061,0.967,-0.095,3.023,0.405,7.748,9,17
40125,0.29,0.984,-0.273,1.359,2.756,1.374,11,17
40167,0.095,1.049,-0.196,-4.344,-2.321,-3.229,11,17
40210,0.152,0.975,-0.188,-0.435,4.214,4.916,11,17
40253,0.234,1.007,-0.161,3.519,-4.267,-3.328,11,17
40295,0.083,0.977,-0.185,3.588,6.038,-3.366,12,16
40341,0.143,1.012,-0.268,1.374,-4.496,0.252,10,17
40384,0.135,0.974,-0.203,-1.824,0.519,1.901,11,16
40426,0.165,1.003,-0.148,-0.427,-2.015,1.947,11,16
40469,0.222,0.919,-0.24,1.702,-2.588,-3.412,9,16
40511,0.067,1.023,-0.155,2.916,1.473,-2.702,10,16
40554,0.161,0.979,-0.269,1.16,-3.229,1.412,10,16
40596,0.161,1.009,-0.171,-1.053,-0.985,-0.626,10,17
40639,0.183,1.009,-0.174,-0.107,-4.084,-2.046,10,16
40682,0.147,0.985,-0.223,-0.427,-3.061,-6.55,12,17
40724,0.076,0.966,-0.164,1.328,-4.847,-1.908,12,17
40770,0.141,0.99,-0.231,-0.298,5.847,2.473,12,16
40819,0.108,1.01,-0.192,0.053,-3.947,3.687,12,16
40861,0.219,0.938,-0.241,-3.252,1.29,0.779,12,16
40903,0.14,1.081,-0.161,-4.084,1.634,-2.183,12,16
40945,0.14,0.879,-0.156,2.397,1.664,3.168,12,16
40987,0.215,1.043,-0.245,1.817,-4.45,-4.962,12,16
41029,0.073,1.01,-0.203,-3.649,5.634,-0.405,11,17
41071,0.098,1.028,-0.29,-9.198,15.817,12.26,16,16
41113,0.144,0.852,-0.08,-8.618,-12.13,8.771,10,17
41158,0.338,1.034,-0.196,-5.687,6.359,-3.771,9,17
41200,-0.069,0.987,0.031,4.527,14.695,5.565,17,17
41242,0.345,1.025,-0.371,2.183,-15.298,-3.389,9,17
41284,0.067,0.979,-0.107,-3.527,9.198,-0.802,10,17
41326,0.191,1.037,-0.169,2.046,-4.336,5.58,10,17
41368,0.254,0.967,-0.239,-4.687,-11.74,-11.588,10,17
41410,0.248,1.007,-0.364,-20.26,-17.412,-35.832,12,16
41452,0.213,1.018,-0.488,-43.244,21.908,-42.191,11,17
41495,0.106,1.124,-0.365,-58.26,62.977,-27.122,28,17
41541,0.004,0.986,0.027,-69.023,-7.664,-44.885,29,16
41585,-0.198,1.179,0.036,-114.008,-62.656,-38.405,30,17
41628,-0.152,0.811,-0.024,-92.198,-104.603,3.321,30,18
41671,0.496,0.831,0.395,4.863,13.198,-29.924,32,17
41714,-0.104,1.323,0.125,-67.321,75.427,4.244,32,17
41757,-0.258,0.663,0.067,-73.076,-58.45,-13.435,16,17
41800,0.199,0.875,0.292,7.611,31.718,-20.473,35,17
41844,-0.249,1.562,0.283,-44.443,52.13,15.473,34,18
41887,-0.142,0.67,0.223,-67.229,-86.229,-13.924,37,18
41977,-0.257,1.406,0.505,-29.328,78.763,18.221,37,19
42021,-0.201,0.704,0.405,-60.214,-92.374,-23.458,37,18
42065,-0.009,0.699,0.106,31.389,92.397,19.221,38,18
42109,0.072,1.813,0.638,-17.046,44.588,22.504,33,20
42152,0.205,0.182,0.207,-86.954,-95.26,-53.336,37,19
42196,-0.28,1.036,0.461,11.672,127.916,15.626,35,19
42241,-0.361,1.481,1.002,-13.695,-25.046,1.389,36,19
42284,0.15,0.167,0.071,-36.267,-95.504,-28.107,37,18
42335,-0.107,1.521,0.454,9.389,113.573,22.794,102,18
42382,-0.293,0.664,0.669,-42.191,-75.145,-28.916,103,20
42425,0.032,1.066,0.225,4.183,23.687,16.962,16,18
42469,-0.05,1.259,0.751,-1.298,26.763,10.26,37,19
42511,-0.08,0.424,0.354,-23.817,-72.397,-23.374,16,19
42559,-0.039,1.17,0.399,10.687,44.137,11.603,103,19
42601,-0.114,0.979,0.604,-13.885,-22.351,-9.74,16,19
42645,-0.3,0.692,0.211,-31.45,-60.015,6.557,38,19
42693,0.223,1.092,0.527,1.573,0.45,8.977,104,19
42740,0.155,0.904,0.588,3.679,33.42,-23.908,36,19
42783,-0.488,0.927,0.488,-28.748,-8.099,-7.176,36,20
42827,-0.067,1.003,0.566,20.603,-10.252,-2.702,38,19
42871,0.015,1.192,0.392,-1,32.427,9.687,37,19
42919,-0.277,0.752,0.404,-45.298,-53.382,4.504,105,19
42969,0.23,0.928,0.556,10.153,25.366,-0.939,133,19
43013,-0.411,1.08,0.743,-14.473,44.427,26.282,36,19
43060,-0.132,0.867,0.273,-41.252,-102.038,2.595,105,19
43109,0.433,0.794,0.451,-12.489,-8.16,-25.992,123,20
43162,-0.349,0.938,0.757,-20.641,64.641,0.221,136,20
43210,-0.302,0.785,0.705,-12.397,-85.489,-18.145,122,19
43259,0.594,0.915,0.199,20.405,35.031,-25.42,123,19
43308,-0.616,1.011,0.708,-45.649,126.611,28.931,106,19
43357,-0.326,0.578,0.642,-12.687,-146.366,-25.366,124,19
43406,0.609,1.112,0.177,31.656,65.718,-5.565,134,20
43450,-0.844,0.789,1.005,-47.611,90.847,44.069,39,20
43499,-0.125,0.609,0.674,2.328,-168.977,-34.031,122,20
43549,0.642,1.195,0.142,29.947,82.099,-13.298,134,21
43596,-0.998,0.63,1.145,-40.969,53.481,37.893,38,21
43644,0.05,0.847,0.594,15.435,-181.931,-45.374,122,20
43694,0.405,1.106,0.099,20.71,102.565,-3.046,123,19
43739,-0.843,0.627,1.104,-47.458,25.855,32.664,44,20
43783,0.201,0.438,0.436,28.725,-148.206,-41.115,45,19
43828,0.406,1.41,0.158,15.191,125.26,4.122,44,20
43872,-0.927,0.634,1.139,-37.527,35.573,32.618,42,21
43921,0.184,0.8,0.528,27.466,-159.924,-39.786,122,19
43972,0.177,1.179,0.119,4.809,187.809,20.878,106,20
44020,-1.031,0.565,1.13,-41.489,-38.298,13.992,106,21
44064,0.446,0.826,0.193,30.359,-150.321,-38.053,44,20
44112,0.229,1.264,0.181,-1.87,185.74,25.931,108,20
44156,-1.036,0.469,1.263,-39.344,-38.893,14.573,38,22
44206,0.419,0.802,0.327,36.336,-164.863,-49.046,122,20
44254,0.011,1.245,0.304,5.015,189.405,28.466,105,21
44346,0.563,0.868,0.193,35.855,-127.672,-42.664,121,22
44394,-0.344,1.341,0.546,4.061,213.588,44.824,105,21
44446,-0.67,0.524,0.902,-31.427,-167.038,-8.168,105,21
44494,0.993,0.718,-0.213,39.588,-19.695,-18.977,105,22
44542,-0.622,1.319,0.904,-18.695,159.702,36.649,105,23
44588,-0.347,0.307,0.613,-5.389,-175.122,-29.511,51,21
44636,0.507,1.218,0.073,38.969,88.618,22.473,104,22
44681,-0.246,1.065,0.882,-35.313,-15.099,-21.664,50,22
44726,-0.226,0.262,0.359,-1.802,-23.252,10.573,51,21
44774,0.039,1.508,0.707,21.038,14.763,7.748,104,21
44822,0.038,0.592,0.457,-32.305,-27.374,-22.847,104,21
44873,-0.287,0.903,0.616,18.809,17.771,10.511,105,22
44921,0.132,1.179,0.553,8.191,-9.786,-11.412,105,22
44969,-0.317,0.526,0.675,-56.321,-56.817,8.641,105,21
45018,0.347,0.828,0.415,28.84,-19.771,-27.191,106,21
45064,-0.192,1.337,0.51,12.115,164.092,20.511,57,21
45112,-0.908,0.478,1.034,-50.809,-102.198,11.794,105,21
45161,0.893,0.878,-0.066,31.244,-128.26,-57.435,133,21
45210,-0.498,1.419,0.51,-31.779,250.13,53.824,105,22
45258,-0.778,0.263,0.987,-26.969,-223.168,-31.481,51,22
45306,1.244,1.068,-0.417,44.595,-4.489,-24.466,106,22
45355,-0.884,1.088,1.146,-51.809,193.145,62.252,105,22
45404,-0.2,0.408,0.709,9.168,-237.947,-50.458,105,22
45452,0.627,1.409,-0.021,31.855,170.504,20.885,106,22
45498,-1.03,0.599,1.432,-52.931,-26.389,14.992,58,25
45546,0.477,0.472,0.091,9.802,-169.092,-38.405,105,22
45594,0.149,1.388,0.406,23.802,226.901,17.672,105,22
45640,-1.181,0.457,1.399,-52.496,-91.229,7.153,57,23
45692,0.895,0.805,-0.071,37.336,-149.603,-52.015,134,21
45739,-0.371,1.374,0.527,-6.298,250.13,43.366,58,22
45784,-1.286,0.253,1.205,-47.145,-160.886,-5.794,51,22
45834,1.06,1.017,-0.25,43.015,-151.427,-51.008,134,22
45883,-0.427,1.309,0.618,-13.229,250.13,52.214,105,22
45928,-0.961,0.295,1.013,-26.084,-190.046,-24.756,58,22
45977,1.127,1.164,-0.341,30.969,-75.351,-36.962,107,21
46025,-0.619,1.162,0.812,-35.74,216.344,47.252,106,22
46073,-0.666,0.365,0.814,-41.817,-195.58,-23.977,105,22
46127,0.963,0.918,0.04,35.901,54.321,-6.092,122,22
46175,-0.673,0.907,1.316,-23.015,106.366,27.977,106,23
46223,-0.051,0.369,0.467,-6.939,-176.191,-38.802,106,22
46273,0.422,1.207,0.246,23.366,128.725,5.519,134,22
46322,-0.798,0.79,1.179,-29.565,24.038,16.206,106,22
46371,0.214,0.585,0.404,1.153,-148.901,-30.931,129,22
46420,0.337,0.938,0.4,21.878,154.977,1.237,105,22
46469,-1.015,0.857,1.255,-30.198,25.45,25.611,106,22
46527,0.596,0.81,0.131,16.374,-167.008,-45.84,122,22
46576,0.143,1.133,0.377,-7.046,220.473,18.718,134,22
46624,-1.2,0.409,1.345,-55.817,-70.344,2.206,107,22
46672,0.545,0.768,0.2,15.435,-167.145,-46.45,124,22
46722,0.14,1.087,0.502,6.809,220.649,18.198,123,22
46814,0.17,0.686,0.31,13.206,-173.481,-44.237,123,22
46862,0.359,1.058,0.313,-0.649,157.931,7.931,124,22
46911,-0.912,0.645,1.279,-53.847,11.214,14.771,123,22
46960,0.034,0.545,0.601,5.412,-162.481,-38.969,136,22
47013,0.233,1.094,0.552,7.076,129.466,7.687,135,21
47062,-0.752,0.482,1.128,-31.321,-7.198,7.893,125,22
47111,0.126,0.699,0.51,7.397,-116.389,-35.55,136,21
47161,0.209,0.955,0.531,-3.29,113.344,1.947,137,21
47210,-0.88,0.547,1.199,-60.977,-26.771,14.634,138,22
47260,0.308,0.49,0.504,11.458,-138.397,-38.786,135,21
47309,0.236,1.171,0.498,20.893,210.252,15.298,138,21
47358,-1.258,0.188,1.431,-43.328,-47.718,15.115,138,22
47409,0.569,0.816,0.212,29.115,-181.16,-54.366,135,22
47460,-0.101,1.173,0.512,-18.344,232.649,33.198,116,21
47508,-1.299,0.121,1.311,-46.618,-126.069,-7.092,111,21
47558,0.78,0.806,0.18,24.42,-156.908,-46.107,136,21
47607,-0.216,1.171,0.719,-18.214,247.947,49.061,136,22
47657,-0.875,0.116,1.096,-12.374,-143.504,-29.328,136,23
47699,0.854,0.952,0.023,16.305,-32.443,-27.275,16,22
47750,-0.405,1.012,0.808,-28.321,188.588,36.901,136,23
47799,-0.757,0.287,1.006,-23.954,-139.267,-21.244,136,22
47860,0.726,0.777,0.375,19.893,64.802,-13.229,136,22
47909,-0.84,0.743,1.135,-44.092,118.527,42.687,137,24
47960,-0.265,0.524,0.853,-7.603,-170.305,-34.023,136,22
48009,0.662,0.736,0.359,13.733,69.832,-14.832,140,21
48059,-0.833,0.599,1.209,-47.779,98.328,33.092,137,22
48108,-0.134,0.515,0.813,-4.931,-150.656,-38.939,140,22
48158,0.335,0.869,0.639,2.053,77.771,-0.916,140,22
48207,-0.71,0.41,1.19,-30.252,28.137,12.351,141,22
48258,0.066,0.494,0.653,-6.725,-106.137,-26.916,143,22
48311,-0.183,0.879,0.988,19.351,125.412,35.336,141,23
48360,-0.384,0.485,0.997,-10.679,-27.992,6.885,140,23
48410,0.226,0.396,0.519,-21.275,-74.153,-12.099,143,23
48460,0.175,0.757,0.822,2.023,98.244,-12.863,142,22
48510,-0.881,0.664,1.122,-44.893,59.168,21.565,142,23
48561,-0.3,0.457,0.846,-29.74,-180.878,-27.702,144,24
48603,0.722,0.709,0.635,21.473,54.992,-23.656,16,23
48653,-0.65,0.618,1.113,-28.191,161.489,40.557,144,23
48703,-0.603,0.33,0.889,-19.656,-186.069,-37.038,144,22
48749,0.861,0.764,0.32,2.405,49.649,-21.55,16,22
48799,-0.648,0.649,1.157,-42.924,173.962,34.939,146,22
48852,-0.513,0.281,1.054,-21.603,-155.886,-43.916,0,22
48896,0.564,0.339,0.648,21.748,58.962,-11.977,17,22
48937,-0.663,0.866,1.205,3.847,182.26,46.115,16,22
48991,-0.545,0.138,0.937,-6.221,-109.443,-38.847,0,22
49044,0.37,0.363,0.28,5.084,35.313,-7.053,0,20
49094,-0.807,1.119,1.48,13.427,168.092,38.237,146,22
49150,-0.224,0.115,0.626,-7.031,-153.237,-47.26,0,21
49201,0.014,0.687,0.491,-9.206,88.344,20.359,147,21
49251,-0.924,0.639,1.477,-12.87,35.977,12.565,147,22
49337,0.451,0.574,0.648,-5.573,4.443,-0.076,17,21
49390,-0.27,0.648,1.324,15.916,178.435,24.008,0,21
49443,-0.75,-0.01,0.921,-4.916,-104.817,-18.069,0,20
49486,0.382,0.796,0.455,8.557,-29.519,-23.611,17,22
49540,-0.267,0.665,0.935,4.687,169.191,12.542,0,21
49583,-1.098,0.043,1.098,-38.565,-110.595,0.496,16,21
49629,0.44,0.496,0.616,10.031,-150.687,-44.221,16,21
49672,0.486,0.545,0.686,19.985,158.84,-13.893,16,20
49725,-1.229,0.346,1.167,-44.427,152.84,52.458,0,20
49768,-0.341,0.48,0.875,-1.252,-233.359,-52.725,16,21
49810,0.767,0.5,0.456,18.878,63.786,-12.153,17,20
49863,-0.771,0.585,1.187,-21.351,199.954,54.885,0,20
49906,-0.515,0.275,0.935,2.847,-179.779,-47.565,16,20
49959,0.444,0.536,0.38,10.191,6.809,-6.344,0,20
50013,-0.833,0.579,1.389,-0.473,111.481,43.382,0,20
50069,0.1,0.211,0.427,-18.115,-172.153,-54.382,0,21
50112,-0.492,0.383,0.994,-22.229,113.053,46.84,17,20
50155,-0.724,0.645,1.564,2.038,-9.427,13.252,17,21
50198,0.274,0.204,0.548,-22.786,-158,-43.595,16,21
50241,0.07,0.299,0.697,-6,94.328,7.458,16,20
50294,-0.885,0.745,1.75,17.969,105.153,29.244,0,21
50337,0.125,0.159,0.349,-18.855,-152.84,-40.374,16,21
50380,-0.077,0.395,0.665,-28.031,63.542,5.565,17,20
50423,-0.771,0.639,1.83,13.954,71.382,20.214,16,20
50478,0.261,0.084,0.381,-12.252,-128.061,-37.786,17,20
50523,-0.262,0.47,0.838,-24.183,111.55,10.55,16,20
50569,-0.855,0.603,1.837,19.809,38.122,12.382,16,20
50614,0.244,0.142,0.468,-8.061,-131.832,-36.779,16,20
50659,-0.275,0.376,0.7,-20.122,99.74,25.802,16,20
50705,-0.738,0.555,1.783,14.321,14.947,10.206,17,20
50750,0.47,0.105,0.438,-7.702,-138.221,-60.977,17,19
50806,-0.267,0.408,0.746,-28.206,150.458,23.481,0,19
50862,-0.636,0.267,1.469,9.672,-80.397,-27.473,0,19
50911,-0.005,0.363,0.332,-23.344,41.985,19.954,17,19
50967,-0.747,0.53,1.652,-11.603,-0.679,7.397,0,20
51012,0.399,0.008,0.393,-23.183,-69.275,-15.26,13,19
51058,-0.524,0.469,1.501,-2.198,71.618,24.282,18,20
51103,0.045,0.208,1.026,10.695,-76.481,-29.679,16,20
51149,0.075,0.222,0.495,-21.053,45.443,-9.267,12,19
51194,-0.944,0.498,1.592,13.542,42.305,22.053,12,19
51239,0.214,0.16,0.66,4.13,-98.099,-24.969,12,20
51284,-0.048,0.285,0.723,-26.573,68.069,8.267,12,19
51334,-0.751,0.364,1.761,18.916,4.695,9.328,16,20
51379,0.57,0.175,0.372,-1.244,-87.962,-38.023,10,20
51425,-0.569,0.314,1.085,-18.275,123.145,24.145,13,19
51470,-0.663,0.322,1.571,19.794,-55.298,-4.015,16,20
51516,0.642,0.197,0.149,-17.679,-53.046,-29.534,11,19
51561,-0.911,0.261,1.406,-15,100.786,38.939,13,19
51606,-0.228,0.221,1.204,19.603,-110.626,-16.786,11,19
51651,0.666,0.211,0.193,-29.412,28.405,-21.748,11,19