Timestamp(ms),AccelX(g),AccelY(g),AccelZ(g),GyroX(deg/s),GyroY(deg/s),GyroZ(deg/s),DistanceLeft(cm),DistanceRight(cm)
90485,-0.269,0.470,-0.034,65.534,16.977,-32.740,51.0,170.0
90568,-0.843,0.169,0.415,33.969,-2.015,-5.198,52.0,170.0
90660,-0.959,0.628,0.058,109.481,-22.847,91.725,0.0,186.0
90754,-0.128,0.521,0.087,4.496,7.305,56.435,0.0,197.0
90847,0.013,0.389,0.246,-43.366,33.153,21.450,0.0,0.0
90940,-0.227,0.635,0.380,-97.550,45.000,103.237,0.0,0.0
91033,-2.000,2.000,-0.699,-34.008,81.962,138.802,0.0,0.0
91120,-1.273,0.060,-0.644,-166.740,-17.687,120.359,51.0,0.0
91205,-0.295,-0.363,-0.400,57.275,-54.153,62.244,44.0,0.0
91289,-0.057,-0.187,-0.030,26.733,-58.336,-34.038,39.0,0.0
91373,-2.000,2.000,-0.031,250.130,-112.336,-97.412,44.0,0.0
91458,-0.334,2.000,-0.611,2.084,-116.641,-6.550,51.0,0.0
91543,0.333,0.326,0.271,16.252,-85.023,-53.008,49.0,0.0
91628,0.516,0.307,0.183,67.305,-32.290,-8.878,59.0,0.0
91720,-0.206,1.081,0.353,100.733,0.290,52.870,176.0,0.0
91810,-1.741,2.000,-0.922,-92.031,33.779,169.176,146.0,0.0
91892,-0.497,0.153,-0.156,-27.221,-29.710,81.565,43.0,106.0
91971,-0.218,-0.226,-0.218,23.176,-67.344,-21.672,38.0,107.0
92050,-0.260,-0.325,-0.054,21.702,-113.427,-38.221,37.0,102.0
92134,-2.000,2.000,-0.668,213.008,-189.420,-82.786,145.0,92.0
92219,-0.739,1.647,-0.548,113.908,-164.817,-8.275,155.0,94.0
92305,0.216,0.772,-0.151,36.351,-138.496,-51.351,157.0,101.0
92393,0.767,0.180,0.251,43.031,-40.427,-4.443,0.0,101.0
92480,0.188,0.410,0.233,-18.824,39.450,18.481,0.0,92.0
92566,-2.000,2.000,-0.906,4.786,50.481,176.756,176.0,85.0
92642,-0.778,0.756,-0.133,-86.641,3.260,130.443,42.0,93.0
92721,-0.363,-0.027,-0.073,-21.954,-41.504,2.534,37.0,100.0
92800,-0.237,-0.330,-0.080,30.908,-89.191,-21.603,41.0,101.0
92878,-0.829,0.193,-0.056,62.336,-149.305,-47.908,45.0,94.0
92957,-1.604,2.000,-0.470,63.557,-188.992,2.931,52.0,92.0
93041,-0.111,0.870,0.001,41.344,-141.183,-25.443,141.0,100.0
93121,0.389,0.327,0.090,61.298,-116.504,-65.794,47.0,105.0
93206,0.597,0.085,0.309,50.336,-27.924,-10.061,154.0,105.0
93289,0.243,0.658,0.393,-17.298,7.031,37.824,49.0,95.0
93367,-1.692,2.000,-0.160,-61.221,31.847,172.420,47.0,90.0
93446,-0.863,1.072,-0.060,-47.969,34.496,153.290,37.0,97.0
93524,-0.353,-0.089,-0.130,-44.511,-9.168,-32.382,34.0,103.0
93603,-0.330,-0.478,-0.169,60.519,-47.855,-62.588,39.0,103.0
93681,-1.052,0.416,-0.097,139.786,-122.412,-133.466,41.0,94.0
93760,-1.412,2.000,-0.314,59.969,-182.145,13.588,45.0,93.0
93840,0.056,0.856,-0.095,105.962,-127.924,19.878,48.0,100.0
93923,0.490,0.361,0.017,89.198,-99.473,-23.267,51.0,105.0
94002,0.614,0.124,0.312,-10.122,10.954,14.084,50.0,103.0
94081,0.413,0.542,0.374,-29.305,54.725,42.626,51.0,93.0
94160,-1.785,2.000,-0.767,-20.107,50.473,134.550,54.0,90.0
94239,-0.751,1.001,-0.196,-66.840,35.748,99.443,41.0,107.0
94324,-0.392,0.130,-0.141,-20.206,-26.878,-36.229,41.0,0.0
94408,-0.296,-0.191,-0.090,12.832,-70.611,-67.771,38.0,0.0
94487,-0.552,-0.231,-0.084,71.710,-140.870,-59.695,42.0,97.0
94578,-2.000,2.000,-1.086,250.130,-250.137,-27.061,153.0,0.0
94666,0.036,1.056,-0.404,-67.405,-120.641,10.748,46.0,0.0
94751,0.580,0.034,0.204,41.748,-103.260,-52.740,46.0,0.0
94843,0.390,0.078,0.278,-20.420,-65.763,10.252,175.0,0.0
94936,-0.240,1.432,0.548,114.908,-40.679,7.374,170.0,0.0
95021,-1.420,1.766,-0.111,-93.023,13.000,152.282,149.0,91.0
95111,-0.702,0.364,0.203,-29.740,-13.573,-11.710,141.0,0.0
95201,-0.298,-0.239,0.011,46.298,-88.298,-99.779,137.0,0.0
95287,-0.463,0.115,-0.281,13.374,-150.473,-76.985,52.0,0.0
95372,-2.000,2.000,-0.024,137.969,-162.176,-3.992,58.0,0.0
95461,-0.115,0.974,0.154,8.847,-101.573,-23.702,45.0,0.0
95546,0.364,0.007,0.234,129.542,-93.504,-67.321,48.0,0.0
95631,0.496,0.468,0.076,55.336,-25.794,1.710,50.0,0.0
95716,-0.075,1.325,0.306,27.374,41.588,49.351,54.0,0.0
95795,-1.513,2.000,-0.194,-12.595,43.351,159.886,47.0,95.0
95880,-0.813,0.878,0.005,-99.947,10.542,71.679,39.0,0.0
95964,-0.309,-0.152,-0.138,42.046,-52.603,-50.702,37.0,0.0
96049,-0.087,-0.139,-0.196,55.130,-102.176,-107.695,43.0,0.0
96138,-1.698,1.121,0.076,120.901,-137.267,-176.557,44.0,0.0
96223,-0.699,1.805,-0.493,244.450,-107.840,28.351,57.0,0.0
96309,0.109,0.930,-0.145,-11.489,-93.389,-15.580,53.0,0.0
96403,0.517,0.020,0.349,-12.542,-48.405,-5.038,0.0,0.0
96495,-0.070,0.073,0.491,0.809,-13.557,55.947,176.0,0.0
96587,-2.000,2.000,-1.164,90.168,29.679,128.191,163.0,0.0
96672,-0.811,0.719,-0.353,-157.313,13.748,67.740,47.0,0.0
96756,-0.098,-0.406,-0.046,5.145,-34.977,-51.107,39.0,0.0
96841,-0.206,-0.243,-0.168,85.221,-88.565,-46.969,45.0,0.0
96935,-1.295,0.726,0.009,98.672,-147.481,-70.733,146.0,0.0
97028,-0.974,1.830,-0.198,184.527,-133.015,66.137,171.0,0.0
97120,0.158,0.437,0.130,38.313,-100.328,-34.931,167.0,0.0
97206,0.325,0.258,0.012,132.931,-68.550,-12.580,54.0,0.0
97286,0.366,0.334,0.176,-33.687,-5.191,29.649,57.0,96.0
97372,-0.963,2.000,-0.425,105.771,4.977,83.542,177.0,84.0
97451,-1.432,1.643,-0.490,25.824,-15.847,220.771,51.0,87.0
97529,-0.493,0.670,-0.088,29.756,10.191,85.282,46.0,96.0
97608,-0.288,-0.136,-0.003,-51.802,-10.695,-47.282,39.0,101.0
97691,-0.436,-0.529,-0.033,-31.550,-105.046,-62.626,37.0,97.0
97777,-2.000,1.453,-0.645,250.130,-250.137,-140.687,169.0,87.0
97863,-0.455,2.000,-1.794,-33.992,-131.092,105.634,174.0,93.0
97950,0.420,0.051,-0.004,16.015,-124.527,1.374,58.0,101.0
98035,0.816,0.227,0.220,-1.115,-40.061,16.115,163.0,102.0
98121,0.340,0.100,0.189,-57.611,-3.290,-7.313,179.0,93.0
98199,-1.403,2.000,-1.742,189.198,105.397,188.473,60.0,87.0
98283,-1.090,1.010,-0.594,-152.473,101.374,128.786,145.0,94.0
98364,-0.536,-0.032,-0.146,-60.595,-20.733,-8.672,39.0,102.0
98448,-0.303,-0.232,-0.060,-51.282,-66.931,-38.015,135.0,102.0
98527,-0.569,0.164,0.006,49.084,-132.557,-87.802,45.0,96.0
98610,-0.936,2.000,-1.896,250.130,-202.550,95.588,148.0,92.0
98689,-0.073,0.437,-0.130,-146.031,-120.374,-32.672,51.0,97.0
98767,0.285,0.665,-0.118,97.420,-114.725,-11.626,48.0,101.0
98846,0.585,0.177,0.259,-153.305,-55.588,-49.611,51.0,100.0
98925,0.194,0.034,0.514,38.435,-18.008,3.336,54.0,93.0
99012,-1.560,2.000,-0.750,29.748,29.863,135.198,166.0,85.0
99091,-1.148,1.022,-0.053,-114.153,23.374,78.664,42.0,92.0
99170,-0.668,0.128,-0.079,63.603,-13.947,-10.321,40.0,102.0
99249,-0.354,-0.084,-0.115,80.214,-58.000,-45.573,43.0,108.0
99328,-0.355,-0.040,0.032,29.710,-117.061,-59.870,51.0,100.0
99418,-2.000,2.000,-0.529,205.947,-216.840,-60.153,167.0,165.0
99501,-0.318,1.490,-0.365,-25.145,-96.618,10.504,58.0,169.0
99586,0.100,0.293,0.115,-13.702,-90.244,-75.855,58.0,178.0
99677,0.443,0.215,0.313,121.328,-57.153,-49.023,175.0,181.0
99772,0.290,0.423,0.669,-103.443,-84.855,-108.328,0.0,187.0
99865,-1.806,2.000,-0.629,-88.053,12.924,183.229,0.0,0.0
99958,-0.909,-0.028,-0.020,-36.252,12.489,73.298,0.0,0.0
100043,-0.362,0.008,-0.025,97.473,19.328,28.275,52.0,0.0
100128,-0.062,0.158,0.134,-45.427,23.779,69.336,52.0,0.0
100214,-0.285,0.364,0.029,140.115,46.366,-195.550,58.0,0.0
100307,-1.153,2.000,-0.489,48.130,10.221,-126.298,0.0,0.0
100401,-0.671,0.558,-0.286,-45.794,-153.412,18.443,0.0,0.0
100493,-2.000,0.371,-0.899,250.130,-250.137,21.863,0.0,174.0
100582,-0.410,0.821,-0.627,250.130,-133.649,123.840,0.0,168.0
100674,-0.439,0.716,-0.294,-93.435,42.969,-35.725,0.0,164.0
100756,-0.585,0.594,-0.168,-165.748,60.351,-59.863,36.0,160.0
100837,-0.638,0.506,-0.176,-157.969,35.076,-50.649,35.0,157.0
100919,-0.934,1.101,-0.620,112.160,-136.588,51.061,33.0,154.0
101003,-1.038,0.262,-0.160,-199.473,-250.137,-94.931,29.0,0.0
101089,-0.686,0.213,1.399,-250.137,-82.809,-218.107,58.0,0.0
101178,-0.790,0.771,0.728,168.786,-60.939,-160.916,0.0,121.0
101269,-0.045,0.546,1.103,-131.748,-80.000,-71.977,142.0,161.0
101351,0.304,-0.617,0.746,-91.710,-71.252,46.901,51.0,159.0
101434,0.232,-0.591,0.377,25.763,-48.237,73.969,50.0,159.0
101520,0.175,-0.277,0.364,109.290,-80.588,-31.122,110.0,154.0
101606,0.492,0.132,0.758,144.901,32.611,-79.389,115.0,155.0
101700,-2.000,0.214,-0.508,187.092,-89.565,-19.908,0.0,0.0
101784,-0.108,0.480,0.450,-108.886,-54.595,-34.679,0.0,29.0
101877,-0.308,0.264,0.706,132.656,-11.511,63.840,0.0,0.0
101975,-0.208,0.764,0.649,15.527,-4.458,20.130,0.0,0.0
102057,-0.065,0.592,0.956,9.130,-7.481,15.328,0.0,23.0
102141,-0.096,0.662,0.783,1.496,-7.260,-32.863,0.0,29.0
102224,-0.077,0.791,0.626,53.702,-14.069,-25.389,0.0,20.0
102308,-0.052,0.822,0.595,-13.473,6.511,-3.252,0.0,20.0
102402,-0.055,0.715,0.741,-36.908,6.824,1.145,0.0,0.0
102496,-0.138,0.555,0.807,-4.878,-0.634,1.206,0.0,0.0
102589,-0.099,0.660,0.722,13.931,-3.153,-1.145,0.0,0.0
102672,-0.112,0.732,0.717,10.374,-2.443,0.809,0.0,20.0
102759,-0.071,0.727,0.706,-2.046,-0.763,-0.863,0.0,22.0
102842,-0.111,0.674,0.732,-1.115,0.069,1.840,0.0,23.0
102926,-0.108,0.686,0.728,6.229,-1.466,-0.153,0.0,22.0
103009,-0.101,0.709,0.722,4.069,-1.275,-0.031,0.0,21.0
103093,-0.104,0.726,0.707,-0.427,1.366,-1.351,0.0,22.0
103176,-0.109,0.685,0.715,0.779,-0.664,-0.221,0.0,21.0
103269,-0.103,0.702,0.714,3.420,-1.282,0.252,0.0,0.0
103353,-0.104,0.710,0.705,2.931,-1.618,0.099,0.0,20.0
103436,-0.105,0.719,0.707,-1.092,0.229,-0.511,0.0,20.0
103523,-0.102,0.695,0.705,0.908,-1.443,-0.725,0.0,21.0
103606,-0.099,0.710,0.702,2.595,-1.198,0.550,0.0,22.0
103690,-0.095,0.703,0.709,-1.733,-0.580,-0.435,0.0,21.0
103773,-0.096,0.713,0.708,0.878,-0.817,-0.489,0.0,21.0
103857,-0.100,0.707,0.709,-1.924,-0.084,-0.137,0.0,20.0
103940,-0.101,0.701,0.711,-1.107,-0.176,0.092,0.0,20.0
104034,-0.109,0.697,0.707,-2.191,-0.115,-0.252,0.0,0.0
104117,-0.104,0.697,0.713,-0.130,-0.145,-0.282,0.0,22.0
104201,-0.098,0.730,0.703,-0.931,0.107,1.046,0.0,21.0
104288,-0.105,0.692,0.719,-5.000,0.023,0.336,0.0,23.0
104371,-0.101,0.696,0.724,-4.687,-0.374,0.008,0.0,20.0
104465,-0.104,0.679,0.737,-4.565,0.122,0.145,0.0,0.0
104558,-0.106,0.666,0.728,2.504,-0.939,0.733,0.0,0.0
104642,-0.102,0.689,0.728,2.069,-1.351,0.206,0.0,23.0
104735,-0.110,0.682,0.729,1.863,-1.115,0.229,0.0,0.0
104829,-0.092,0.700,0.719,-1.298,-0.198,0.504,0.0,0.0
104923,-0.103,0.674,0.737,1.504,-0.809,0.336,0.0,0.0
105007,-0.094,0.692,0.722,1.298,-0.893,0.290,0.0,22.0
105091,-0.096,0.689,0.724,0.183,-0.649,0.489,0.0,22.0
105177,-0.093,0.692,0.726,0.351,-0.420,0.290,0.0,20.0
105261,-0.096,0.692,0.720,0.695,-0.397,0.336,0.0,22.0
105344,-0.098,0.686,0.718,-0.176,-0.794,0.046,0.0,22.0
105438,-0.088,0.698,0.728,-2.992,-0.366,1.008,0.0,0.0
105531,-0.087,0.711,0.733,-10.924,-0.359,-0.550,0.0,0.0
105625,-0.146,0.876,0.703,-60.916,0.618,-0.229,0.0,0.0
105709,-0.068,0.685,0.720,-225.237,-16.634,19.435,0.0,30.0
105791,-0.001,-0.027,1.083,-239.489,-27.618,12.534,155.0,29.0
105874,-0.029,-0.228,1.025,-142.893,-27.756,35.618,59.0,150.0
105961,-0.043,-0.538,0.952,-118.855,-26.061,28.092,56.0,155.0
106045,0.003,-0.454,0.794,-62.221,-17.466,20.321,54.0,163.0
106130,-0.008,-0.524,0.807,-40.687,-9.176,17.229,54.0,0.0
106216,-0.002,-0.667,0.778,-37.282,-10.809,4.626,54.0,0.0
106302,0.049,-0.656,0.781,-25.160,-7.496,2.183,57.0,0.0
106386,0.023,-0.646,0.767,-14.779,-6.061,0.031,19.0,0.0
106469,0.061,-0.657,0.796,-14.008,-7.023,1.534,19.0,0.0
106555,0.053,-0.631,0.770,-6.939,-10.992,5.878,58.0,0.0
106652,0.099,-0.679,0.772,5.878,-13.267,6.634,0.0,0.0
106736,0.135,-0.700,0.748,-0.550,-6.313,1.160,18.0,0.0
106819,0.083,-0.661,0.733,1.344,0.771,-1.130,19.0,0.0
106903,0.075,-0.669,0.749,7.618,1.756,-2.817,18.0,0.0
106987,0.075,-0.686,0.738,7.336,2.359,-4.573,19.0,0.0
107072,0.077,-0.676,0.715,43.863,16.313,-12.672,57.0,0.0
107158,0.070,-0.592,0.700,174.893,29.985,-20.924,53.0,0.0
107241,0.003,-0.153,0.789,144.603,32.206,-38.542,55.0,154.0
107325,-0.001,-0.094,0.969,61.756,41.664,-43.840,58.0,151.0
107410,-0.269,-0.140,1.344,239.267,25.977,-10.107,153.0,30.0
107494,-0.017,0.694,0.506,201.420,-38.458,41.573,0.0,29.0
107588,0.131,0.673,0.580,-4.702,-7.542,17.031,0.0,0.0
107681,0.140,0.332,1.056,-28.412,-7.053,10.618,0.0,182.0
107774,0.272,0.498,0.814,39.092,-23.802,37.931,0.0,178.0
107868,0.025,0.524,0.857,-32.389,-33.038,16.229,0.0,176.0
107960,0.116,0.291,0.935,-48.221,-76.618,-14.924,0.0,173.0
108049,0.422,0.268,0.912,57.672,-41.679,-25.046,0.0,102.0
108137,0.416,0.670,0.692,87.046,7.702,-58.664,0.0,98.0
108229,0.164,0.657,0.577,-17.389,60.641,-57.031,0.0,98.0
108317,-0.528,0.337,0.626,49.344,66.244,-67.244,0.0,96.0
108405,-0.015,1.522,1.130,47.260,42.924,-98.771,0.0,95.0
108494,-0.009,0.636,0.662,10.053,-4.053,62.473,0.0,106.0
108580,0.304,0.632,0.652,-5.786,10.649,25.366,0.0,57.0
108666,-0.257,0.687,0.511,-11.137,0.168,-16.336,0.0,58.0
108752,-0.156,0.848,0.594,54.092,18.870,-2.702,0.0,59.0
108838,-0.111,0.727,0.564,-25.198,19.267,-25.328,0.0,57.0
108933,-0.214,0.669,0.623,41.359,7.893,-18.031,0.0,103.0
109024,-0.254,0.830,0.556,28.321,6.206,-29.382,0.0,102.0
109111,-0.255,0.828,0.535,-14.603,13.282,-27.137,0.0,101.0
109199,-0.252,0.885,0.456,9.015,22.435,-2.069,0.0,101.0
109286,-0.439,0.807,0.631,25.038,-4.252,27.626,0.0,102.0
109370,-0.192,1.213,0.513,129.573,-54.145,94.634,0.0,45.0
109464,-0.061,0.917,0.344,-20.198,-61.458,88.924,199.0,0.0
109548,0.185,0.765,0.166,41.191,-58.489,94.191,197.0,44.0
109641,0.260,0.739,0.135,43.763,-35.542,51.710,197.0,0.0
109734,0.286,0.824,0.125,0.076,5.710,-2.878,200.0,0.0
109831,0.290,0.867,0.273,-6.809,12.122,-21.573,0.0,0.0
109924,0.366,0.947,0.261,12.252,3.588,-44.573,0.0,0.0
110017,0.115,0.998,0.286,-16.015,-3.267,-14.191,0.0,0.0
110110,0.186,1.064,0.219,21.412,-25.282,1.977,0.0,0.0
110203,0.486,0.951,0.156,-4.244,-20.489,15.817,0.0,0.0
110297,0.499,0.856,0.142,-19.511,9.069,34.939,0.0,0.0
110390,0.375,1.149,0.162,58.634,34.985,35.870,0.0,0.0
110483,-0.079,0.829,0.249,-4.656,105.336,64.092,0.0,0.0
110577,0.206,0.763,0.137,47.931,81.298,18.832,0.0,0.0
110672,-0.412,1.707,-0.117,143.130,-58.084,29.099,0.0,0.0
110757,0.341,0.727,-0.234,9.634,28.931,21.336,37.0,0.0
110840,0.765,0.768,0.014,100.420,44.588,33.420,34.0,0.0
110924,1.071,0.661,0.003,149.931,38.901,63.176,35.0,0.0
111009,1.099,0.330,-0.040,72.435,37.595,112.588,40.0,0.0
111086,0.204,0.707,-0.342,196.382,39.023,53.412,103.0,16.0
111159,1.094,0.890,0.108,164.588,2.336,-51.626,25.0,9.0
111236,0.534,0.988,-0.898,-139.366,77.015,-95.344,104.0,10.0
111318,0.349,0.236,-0.230,-123.473,87.053,-4.061,168.0,16.0
111401,0.702,0.173,-0.033,-1.893,-27.351,-18.076,167.0,16.0
111493,0.740,0.801,-0.177,86.718,-19.931,-30.351,168.0,0.0
111585,0.770,0.738,-0.237,-50.191,-24.733,-53.802,170.0,0.0
111677,0.644,0.693,-0.162,72.374,-64.695,-12.397,172.0,0.0
111769,0.717,1.150,-0.490,-4.160,-9.153,-36.176,173.0,0.0
111861,0.522,0.892,-0.494,1.611,17.565,-47.985,175.0,0.0
111954,0.446,0.877,-0.273,-22.565,25.069,-42.198,0.0,0.0
112048,0.421,1.002,-0.212,-8.878,-7.702,-0.840,0.0,0.0
112145,0.449,0.857,-0.319,20.069,-12.061,21.725,0.0,0.0
112237,0.462,0.843,-0.404,-0.061,0.374,15.008,176.0,0.0
112329,0.481,0.874,-0.275,-11.489,8.298,13.053,176.0,0.0
112421,0.525,0.802,-0.228,-4.267,2.214,-0.130,176.0,0.0
112514,0.499,0.853,-0.312,-2.321,-2.305,-3.336,176.0,0.0
112606,0.516,0.855,-0.262,-2.580,1.534,7.336,176.0,0.0
112698,0.508,0.845,-0.274,-4.084,-3.641,4.511,176.0,0.0
112790,0.504,0.854,-0.300,-3.695,-3.450,4.366,175.0,0.0
112882,0.508,0.800,-0.286,3.496,-3.092,0.954,175.0,0.0
112977,0.512,0.821,-0.306,2.122,-2.069,-6.977,175.0,0.0
113070,0.507,0.845,-0.299,-3.183,1.771,-6.412,176.0,0.0
113162,0.497,0.832,-0.285,-5.916,2.344,-8.664,176.0,0.0
113254,0.482,0.856,-0.287,-10.504,4.916,-13.420,178.0,0.0
113347,0.463,0.869,-0.257,-14.573,6.924,-17.489,0.0,0.0
113441,0.420,0.911,-0.218,-14.351,7.290,-17.763,0.0,0.0
113534,0.405,0.921,-0.166,-5.344,3.443,-1.298,0.0,0.0
113629,0.423,0.906,-0.174,7.725,-6.466,3.786,0.0,0.0
113722,0.432,0.898,-0.220,7.252,-5.611,4.130,0.0,0.0
113818,0.445,0.887,-0.249,1.931,-1.015,2.244,0.0,0.0
113912,0.436,0.893,-0.229,-2.702,1.038,-3.969,0.0,0.0
114006,0.424,0.900,-0.216,-3.687,2.153,-4.176,0.0,0.0
114099,0.417,0.908,-0.209,-1.962,1.420,-2.626,0.0,0.0
114193,0.415,0.909,-0.185,3.595,-2.382,3.237,0.0,0.0
114286,0.425,0.900,-0.214,6.160,-4.336,5.840,0.0,0.0
114379,0.446,0.885,-0.232,3.641,-2.870,6.038,0.0,0.0
114473,0.453,0.880,-0.241,0.221,-1.924,2.198,0.0,0.0
114567,0.442,0.882,-0.237,-2.954,0.344,-0.718,0.0,0.0
114660,0.464,0.862,-0.211,-9.053,0.870,-9.229,0.0,0.0
114757,0.420,0.904,-0.204,-11.855,7.053,-10.802,0.0,0.0
114850,0.396,0.924,-0.141,-5.992,2.748,-2.771,0.0,0.0
114945,0.401,0.921,-0.167,5.916,-3.176,2.580,0.0,0.0
115038,0.426,0.898,-0.187,5.908,-3.412,7.344,0.0,0.0
115132,0.425,0.896,-0.203,0.931,-2.397,1.771,0.0,0.0
115225,0.426,0.907,-0.207,-2.198,-0.870,-1.206,0.0,0.0
115319,0.409,0.921,-0.201,-4.481,0.061,-0.137,0.0,0.0
115412,0.409,0.913,-0.186,2.237,-2.275,2.015,0.0,0.0
115507,0.422,0.907,-0.214,4.679,-2.458,2.908,0.0,0.0
115603,0.426,0.896,-0.224,1.344,-1.244,1.099,0.0,0.0
115697,0.417,0.900,-0.208,-0.969,0.344,-2.183,0.0,0.0
115791,0.421,0.912,-0.200,-1.473,0.183,-0.641,0.0,0.0
115885,0.411,0.911,-0.198,1.137,-1.038,1.191,0.0,0.0
115979,0.427,0.903,-0.205,1.221,-1.328,2.122,0.0,0.0
116072,0.420,0.904,-0.208,0.153,-0.656,-0.527,0.0,0.0
116166,0.423,0.903,-0.196,0.053,-0.267,0.000,0.0,0.0
116259,0.425,0.901,-0.191,1.366,-0.885,0.718,0.0,0.0
116354,0.427,0.900,-0.194,0.534,-0.481,0.260,0.0,0.0
116448,0.418,0.903,-0.215,-0.496,-0.374,0.260,0.0,0.0
116544,0.429,0.906,-0.204,1.252,-0.176,0.878,0.0,0.0
116638,0.424,0.896,-0.197,0.802,-0.550,0.015,0.0,0.0
116731,0.427,0.899,-0.205,0.130,-0.206,-0.130,0.0,0.0
116826,0.438,0.896,-0.194,0.198,-0.305,-0.489,0.0,0.0
116920,0.421,0.904,-0.210,-0.802,0.130,-4.198,0.0,0.0
117013,0.411,0.909,-0.201,-0.733,0.687,0.481,0.0,0.0
117107,0.414,0.906,-0.196,1.282,-1.718,-0.092,0.0,0.0
117201,0.428,0.898,-0.207,-0.198,0.702,-0.496,0.0,0.0
117295,0.412,0.912,-0.199,-2.885,0.550,-6.740,0.0,0.0
117392,0.398,0.919,-0.183,-2.221,-0.336,-4.908,0.0,0.0
117486,0.397,0.923,-0.184,0.893,-0.534,1.160,0.0,0.0
117579,0.400,0.906,-0.190,1.870,-1.412,0.298,0.0,0.0
117673,0.405,0.919,-0.189,0.076,-0.618,-0.481,0.0,0.0
117768,0.405,0.918,-0.189,-0.504,-0.565,-0.252,0.0,0.0
117861,0.393,0.914,-0.202,1.359,-0.496,0.634,0.0,0.0
117955,0.401,0.915,-0.198,0.725,-0.718,-0.252,0.0,0.0
118049,0.396,0.925,-0.199,0.725,-0.374,1.260,0.0,0.0
118142,0.401,0.916,-0.197,1.252,-1.328,0.160,0.0,0.0
118240,0.409,0.917,-0.198,-0.183,0.076,1.267,0.0,0.0
118334,0.403,0.917,-0.197,1.122,-0.962,-0.130,0.0,0.0
118428,0.407,0.917,-0.195,0.947,-0.374,0.351,0.0,0.0
118521,0.392,0.911,-0.193,1.435,-1.084,0.511,0.0,0.0
118616,0.406,0.909,-0.200,0.145,-0.496,1.542,0.0,0.0
118710,0.400,0.916,-0.206,-0.107,-0.756,-1.389,0.0,0.0
118804,0.404,0.911,-0.199,-0.237,-0.130,-0.924,0.0,0.0
118897,0.394,0.917,-0.192,-0.328,-0.183,0.939,0.0,0.0
118991,0.402,0.912,-0.195,0.191,-0.779,-0.206,0.0,0.0
119086,0.397,0.919,-0.194,0.206,-0.656,-0.397,0.0,0.0
119183,0.394,0.919,-0.196,0.031,-0.618,0.206,0.0,0.0
119277,0.399,0.913,-0.198,0.328,0.008,0.244,0.0,0.0
119371,0.399,0.918,-0.193,0.374,-0.550,0.695,0.0,0.0
119464,0.405,0.909,-0.186,1.412,-0.924,0.527,0.0,0.0
119559,0.398,0.912,-0.192,0.588,-0.145,0.634,0.0,0.0
119653,0.399,0.915,-0.188,0.099,-0.198,-0.267,0.0,0.0
119747,0.398,0.910,-0.192,0.420,-0.267,0.908,0.0,0.0
119841,0.402,0.911,-0.197,0.954,-1.153,0.656,0.0,0.0
119936,0.404,0.911,-0.200,0.893,-0.664,0.466,0.0,0.0
120033,0.397,0.911,-0.195,0.214,-0.153,0.916,0.0,0.0
120127,0.406,0.916,-0.201,1.031,-0.504,0.351,0.0,0.0
120221,0.405,0.914,-0.203,0.557,-0.443,0.305,0.0,0.0
120315,0.404,0.909,-0.207,0.695,-0.534,-0.328,0.0,0.0
120410,0.404,0.924,-0.185,1.443,-0.817,2.351,0.0,0.0
120504,0.406,0.907,-0.202,2.359,-1.779,2.221,0.0,0.0
120598,0.412,0.913,-0.204,0.527,-0.206,0.344,0.0,0.0
120697,0.407,0.907,-0.207,-0.527,0.588,-2.092,0.0,0.0
120791,0.407,0.907,-0.191,0.267,-0.046,0.641,0.0,0.0
120884,0.406,0.915,-0.198,2.618,-1.618,2.840,0.0,0.0
120980,0.409,0.905,-0.215,3.580,-2.290,2.924,0.0,0.0
121072,0.424,0.906,-0.212,1.954,-1.183,1.931,0.0,0.0
121165,0.417,0.900,-0.205,0.305,-0.443,0.328,0.0,0.0
121259,0.410,0.906,-0.220,-0.313,-0.153,0.046,0.0,0.0
121352,0.418,0.913,-0.212,0.420,-0.802,-0.229,0.0,0.0
121445,0.415,0.908,-0.219,1.107,-0.221,1.031,0.0,0.0
121538,0.417,0.906,-0.209,0.328,-0.893,0.420,0.0,0.0
121631,0.414,0.904,-0.208,0.290,-0.649,0.427,0.0,0.0
121724,0.415,0.900,-0.212,0.328,-0.504,-0.183,0.0,0.0
121821,0.417,0.900,-0.210,-0.153,0.099,0.069,0.0,0.0
121914,0.417,0.907,-0.204,0.901,-0.626,1.031,0.0,0.0
122007,0.411,0.901,-0.214,1.496,-1.443,1.351,0.0,0.0
122100,0.423,0.903,-0.216,0.290,-0.137,0.412,0.0,0.0
122193,0.420,0.897,-0.212,-0.679,0.160,-0.527,0.0,0.0
122287,0.423,0.912,-0.211,-0.053,-0.382,0.351,0.0,0.0
122380,0.418,0.908,-0.211,1.168,-1.489,0.038,0.0,0.0
122473,0.417,0.897,-0.223,0.122,-0.336,-0.008,0.0,0.0
122566,0.420,0.909,-0.204,-0.443,0.267,-0.267,0.0,0.0
122662,0.415,0.901,-0.209,0.885,-0.962,0.267,0.0,0.0
122756,0.423,0.898,-0.207,1.794,-1.023,1.359,0.0,0.0
122849,0.424,0.907,-0.219,0.817,-0.763,0.924,0.0,0.0
122942,0.415,0.903,-0.215,0.221,-0.908,0.496,0.0,0.0
123035,0.420,0.902,-0.220,0.595,-0.275,0.168,0.0,0.0
123128,0.414,0.898,-0.212,0.321,-0.359,0.321,0.0,0.0
123222,0.423,0.903,-0.210,1.405,-1.214,0.351,0.0,0.0
123315,0.418,0.901,-0.215,2.153,-2.061,0.893,0.0,0.0
123408,0.423,0.896,-0.225,2.160,-2.244,0.099,0.0,0.0
123502,0.419,0.900,-0.224,0.817,-0.695,0.672,0.0,0.0
123597,0.419,0.902,-0.223,-0.344,-0.374,-1.099,0.0,0.0
123692,0.418,0.909,-0.224,0.023,-0.679,-0.198,0.0,0.0
123785,0.424,0.901,-0.210,0.542,-0.725,0.458,0.0,0.0
123878,0.419,0.902,-0.226,0.015,-0.244,-0.153,0.0,0.0
123971,0.417,0.903,-0.232,-0.405,-0.198,-0.603,0.0,0.0
124064,0.425,0.899,-0.221,0.603,-0.595,0.473,0.0,0.0
124157,0.419,0.901,-0.233,0.718,-0.168,0.634,0.0,0.0
124252,0.418,0.902,-0.229,-0.267,0.008,-0.939,0.0,0.0
124345,0.413,0.902,-0.224,-0.962,0.939,0.008,0.0,0.0
124441,0.421,0.905,-0.197,0.344,-0.794,0.267,0.0,0.0
124534,0.420,0.905,-0.215,0.412,0.191,1.672,0.0,0.0
124627,0.432,0.903,-0.219,-0.328,0.580,2.145,0.0,0.0
124721,0.432,0.896,-0.214,-2.275,-1.931,1.634,0.0,0.0
124815,0.426,0.903,-0.234,-4.779,-0.679,2.076,0.0,0.0
124908,0.420,0.903,-0.191,-4.313,-5.153,0.672,0.0,0.0
125001,0.426,0.901,-0.201,-5.183,-6.702,1.863,0.0,0.0
125095,0.449,0.886,-0.193,-9.115,-3.191,-1.053,0.0,0.0
125189,0.393,0.923,-0.192,-11.534,-2.794,-8.122,0.0,0.0
125283,0.427,0.902,-0.152,-13.328,5.588,-4.206,0.0,0.0
125379,0.419,0.892,-0.100,-6.786,-5.183,-11.992,0.0,0.0
125472,0.374,0.927,-0.160,-8.069,-6.511,-25.702,0.0,0.0
125566,0.345,0.924,-0.206,-29.840,17.168,-43.718,0.0,0.0
125660,0.293,0.953,-0.052,-60.847,40.664,-75.519,0.0,0.0
125754,-0.168,1.220,0.079,-75.023,42.977,-59.000,0.0,0.0
125847,0.025,0.921,0.379,47.695,-14.725,15.015,0.0,0.0
125940,0.148,1.030,-0.028,24.458,-12.427,-1.481,0.0,0.0
126034,0.122,0.994,0.095,-14.595,9.786,-7.031,0.0,0.0
126128,0.067,0.994,0.134,-6.076,2.084,-1.924,0.0,0.0
126225,0.083,1.005,0.086,0.603,0.069,0.244,0.0,0.0
126318,0.089,1.005,0.097,-2.260,2.153,-0.275,0.0,0.0
126411,0.072,0.999,0.112,-1.573,1.092,-0.038,0.0,0.0
126505,0.087,1.012,0.097,-2.069,1.389,0.550,0.0,0.0
126599,0.074,0.999,0.132,-1.550,0.534,-0.405,0.0,0.0
126693,0.080,1.005,0.115,1.405,-0.748,0.107,0.0,0.0
126786,0.079,1.006,0.109,-0.832,-0.450,-0.588,0.0,0.0
126880,0.079,1.004,0.120,-1.366,-0.336,-0.840,0.0,0.0
126973,0.075,1.000,0.114,-0.733,-0.115,-0.053,0.0,0.0
127071,0.072,1.005,0.123,-0.160,-0.084,0.397,0.0,0.0
127164,0.069,0.998,0.126,-0.359,-0.366,0.260,0.0,0.0
127257,0.077,1.007,0.120,-0.008,-0.427,-0.099,0.0,0.0
127351,0.069,1.002,0.114,-0.542,-0.244,0.137,0.0,0.0
127444,0.072,1.001,0.123,0.015,-0.489,0.061,0.0,0.0
127539,0.079,1.003,0.120,0.435,-0.374,0.344,0.0,0.0
127632,0.078,1.003,0.119,0.359,-0.458,0.374,0.0,0.0
127725,0.079,0.997,0.125,-0.015,-0.443,0.244,0.0,0.0
127819,0.074,1.001,0.120,0.275,-0.687,0.099,0.0,0.0
127912,0.073,0.999,0.121,0.153,-0.458,0.099,0.0,0.0
128010,0.074,1.003,0.127,0.229,-0.603,0.076,0.0,0.0
128103,0.075,1.003,0.119,0.206,-0.550,-0.099,0.0,0.0
128197,0.080,0.996,0.120,0.718,-0.687,0.260,0.0,0.0
128290,0.075,1.009,0.124,0.076,-0.366,0.260,0.0,0.0
128385,0.077,1.008,0.128,0.389,-0.435,0.412,0.0,0.0
128478,0.077,0.996,0.132,0.267,-0.458,0.198,0.0,0.0
128572,0.077,1.006,0.128,0.290,-0.420,-0.023,0.0,0.0
128665,0.078,1.003,0.125,0.305,-0.458,0.267,0.0,0.0
128759,0.074,1.005,0.124,0.229,-0.466,0.542,0.0,0.0
128857,0.074,1.000,0.131,0.298,-0.244,0.252,0.0,0.0
128950,0.077,0.999,0.130,-0.061,-0.313,0.336,0.0,0.0
129044,0.077,1.006,0.130,0.397,-0.313,0.298,0.0,0.0
129137,0.070,1.007,0.134,0.351,-0.443,0.244,0.0,0.0
129231,0.072,0.995,0.124,0.267,-0.519,0.237,0.0,0.0
129325,0.073,1.003,0.131,0.397,-0.542,0.168,0.0,0.0
129419,0.074,1.006,0.128,0.473,-0.733,-0.015,0.0,0.0
129513,0.075,1.004,0.136,0.206,-0.504,0.198,0.0,0.0
129606,0.071,1.006,0.124,0.496,-0.496,0.137,0.0,0.0
129700,0.071,1.001,0.132,0.252,-0.664,0.328,0.0,0.0
129797,0.071,1.000,0.126,0.427,-0.511,0.038,0.0,0.0
129891,0.075,1.005,0.127,0.244,-0.473,0.076,0.0,0.0
129985,0.074,1.000,0.119,0.160,-0.542,0.092,0.0,0.0
130078,0.081,1.001,0.125,0.260,-0.527,0.115,0.0,0.0
130172,0.072,1.006,0.125,-0.321,-0.397,0.160,0.0,0.0
130267,0.079,1.006,0.127,0.275,-0.382,0.313,0.0,0.0
130360,0.072,1.000,0.125,0.458,-0.443,0.183,0.0,0.0
130454,0.071,1.000,0.127,0.084,-0.389,0.260,0.0,0.0
130548,0.079,1.002,0.130,0.260,-0.496,0.206,0.0,0.0
130641,0.073,1.003,0.130,0.214,-0.519,0.130,0.0,0.0
130739,0.070,1.007,0.141,0.237,-0.298,0.298,0.0,0.0
130833,0.072,0.999,0.129,0.328,-0.473,0.183,0.0,0.0
130927,0.078,0.999,0.128,0.290,-0.427,0.267,0.0,0.0
131020,0.079,0.992,0.139,0.275,-0.336,0.237,0.0,0.0
131115,0.074,1.000,0.130,0.313,-0.450,0.206,0.0,0.0
131209,0.073,0.999,0.126,0.412,-0.519,0.305,0.0,0.0
131303,0.073,1.000,0.138,0.389,-0.427,0.328,0.0,0.0
131396,0.073,1.003,0.130,0.267,-0.443,0.389,0.0,0.0
131490,0.077,1.004,0.136,0.809,-0.504,0.389,0.0,0.0
131588,0.073,1.007,0.125,0.290,-0.557,0.198,0.0,0.0
131682,0.074,1.006,0.119,0.198,-0.275,0.389,0.0,0.0
131776,0.073,1.001,0.128,0.656,-0.641,0.115,0.0,0.0
131870,0.076,0.998,0.135,0.107,-0.626,0.168,0.0,0.0
131963,0.071,1.001,0.137,0.214,-0.427,0.267,0.0,0.0
132058,0.079,0.996,0.130,0.443,-0.511,0.336,0.0,0.0
132152,0.069,1.001,0.126,0.321,-0.458,0.366,0.0,0.0
132246,0.073,1.003,0.130,0.176,-0.466,0.137,0.0,0.0
132340,0.073,0.999,0.127,0.550,-0.534,0.298,0.0,0.0
132434,0.073,1.001,0.129,0.145,-0.366,0.305,0.0,0.0
132532,0.073,1.001,0.136,0.496,-0.450,0.275,0.0,0.0
132631,0.073,1.001,0.130,0.183,-0.435,0.183,0.0,0.0
132724,0.074,1.004,0.132,0.275,-0.427,0.153,0.0,0.0
132817,0.073,0.999,0.134,0.183,-0.504,0.282,0.0,0.0
132911,0.072,1.002,0.136,0.267,-0.382,0.176,0.0,0.0
133003,0.068,0.998,0.128,0.458,-0.351,0.130,0.0,0.0
133096,0.080,1.010,0.132,0.351,-0.412,0.046,0.0,0.0
133189,0.066,1.000,0.125,0.260,-0.718,0.023,0.0,0.0
133282,0.077,1.005,0.137,0.183,-0.420,0.061,0.0,0.0
133376,0.070,1.002,0.131,0.611,-0.626,0.282,0.0,0.0
133471,0.070,0.997,0.144,0.099,-0.443,0.260,0.0,0.0
133564,0.075,1.004,0.131,0.275,-0.435,0.153,0.0,0.0
133657,0.074,1.003,0.132,0.351,-0.489,0.420,0.0,0.0
133750,0.075,1.000,0.143,0.405,-0.641,0.290,0.0,0.0
133843,0.073,1.000,0.138,0.267,-0.359,0.405,0.0,0.0
133937,0.083,1.001,0.132,0.366,-0.313,0.450,0.0,0.0
134030,0.072,1.003,0.134,0.359,-0.374,0.412,0.0,0.0
134123,0.068,1.005,0.130,0.832,-0.382,0.405,0.0,0.0
134216,0.070,1.006,0.134,0.168,-0.496,0.214,0.0,0.0
134312,0.074,1.006,0.128,0.221,-0.511,0.359,0.0,0.0
134406,0.077,0.999,0.126,0.420,-0.611,0.260,0.0,0.0
134499,0.076,0.997,0.131,0.519,-0.626,0.153,0.0,0.0
134592,0.072,1.003,0.125,0.344,-0.466,0.160,0.0,0.0
134685,0.074,1.004,0.135,0.321,-0.527,0.397,0.0,0.0
134778,0.078,0.996,0.125,0.176,-0.405,0.237,0.0,0.0
134872,0.070,0.997,0.131,0.603,-0.336,0.344,0.0,0.0
134965,0.071,1.003,0.127,0.137,-0.427,0.244,0.0,0.0
135058,0.075,1.000,0.135,0.221,-0.336,0.267,0.0,0.0
135151,0.074,0.998,0.130,0.237,-0.641,0.137,0.0,0.0
135247,0.080,1.003,0.131,0.198,-0.580,0.076,0.0,0.0
135341,0.068,1.002,0.124,0.374,-0.573,0.214,0.0,0.0
135434,0.078,1.000,0.130,0.389,-0.359,0.244,0.0,0.0
135527,0.069,1.004,0.128,0.305,-0.679,0.130,0.0,0.0
135620,0.076,1.006,0.139,0.122,-0.565,0.275,0.0,0.0
135713,0.069,0.996,0.130,0.664,-0.656,0.168,0.0,0.0
135806,0.069,1.007,0.127,0.031,-0.496,0.244,0.0,0.0
135901,0.070,1.002,0.130,0.214,-0.573,0.145,0.0,0.0
135994,0.075,1.006,0.130,0.458,-0.511,0.198,0.0,0.0
136087,0.070,1.008,0.130,-0.351,-0.427,0.481,0.0,0.0
136178,0.058,1.002,0.146,3.794,-1.496,3.237,0.0,0.0
136271,0.039,1.052,0.128,19.863,-11.779,28.847,0.0,0.0
136365,0.174,1.148,0.088,35.634,-11.344,73.412,0.0,0.0
136459,0.321,1.558,-0.183,-23.908,-13.420,93.847,0.0,0.0
136552,0.279,0.990,0.186,-193.656,-41.595,107.221,0.0,0.0
136638,0.392,0.641,0.336,-192.275,-99.153,138.870,59.0,0.0
136723,0.683,0.348,0.244,-125.634,-125.023,132.198,53.0,0.0
136808,0.795,0.071,0.103,-124.695,-94.397,114.718,49.0,0.0
136895,1.017,-0.158,0.005,-72.214,-59.672,81.023,39.0,0.0
136979,1.012,-0.182,-0.033,-35.649,-32.740,41.412,36.0,0.0
137064,0.940,-0.159,0.021,-17.802,-11.901,18.893,34.0,0.0
137148,0.884,-0.235,-0.048,-25.290,-10.344,10.824,35.0,0.0
137233,1.007,-0.165,-0.003,-10.473,-0.496,-6.580,43.0,0.0
137317,0.952,-0.163,0.042,-12.916,5.695,-16.130,42.0,0.0
137402,1.000,-0.094,0.047,-5.450,12.244,-10.305,43.0,0.0
137486,0.974,-0.087,0.089,-14.137,17.275,-11.664,36.0,0.0
137571,0.979,-0.115,0.123,-17.412,20.481,-18.962,44.0,0.0
137659,1.002,-0.033,0.134,-26.870,28.420,-24.527,45.0,0.0
137743,1.018,-0.013,0.210,-15.344,21.405,-24.092,36.0,0.0
137829,1.007,0.032,0.249,4.710,5.237,-19.939,47.0,0.0
137914,1.016,0.061,0.247,9.420,-9.687,-23.313,48.0,0.0
137997,1.021,0.089,0.207,-4.954,-17.084,-24.420,36.0,182.0
138080,0.989,0.148,0.176,-12.061,-18.870,-20.069,35.0,182.0
138164,1.031,0.153,0.133,-0.359,-15.015,-15.908,34.0,181.0
138248,0.997,0.184,0.079,4.206,-5.885,-5.427,33.0,0.0
138332,0.989,0.168,0.107,5.519,2.641,-4.252,34.0,0.0
138418,0.998,0.182,0.132,2.405,-0.145,-4.359,34.0,180.0
138502,0.965,0.171,0.138,-2.260,-2.153,-5.779,35.0,0.0
138585,0.988,0.164,0.128,8.992,-1.641,-8.489,34.0,180.0
138669,0.996,0.200,0.117,10.145,2.344,-7.840,35.0,180.0
138752,0.977,0.224,0.148,2.092,3.229,-6.656,36.0,179.0
138835,0.960,0.225,0.140,0.702,-0.969,-7.901,36.0,0.0
138920,0.996,0.244,0.103,9.580,0.901,-8.695,35.0,0.0
139004,0.981,0.234,0.115,7.618,10.542,-4.145,37.0,0.0
139089,0.966,0.210,0.116,13.191,12.588,-15.153,56.0,0.0
139179,0.935,0.191,0.151,32.733,14.053,-33.756,57.0,0.0
139264,0.916,0.317,0.076,28.809,13.595,-54.168,39.0,0.0
139357,0.850,0.559,0.073,76.412,37.779,-61.794,0.0,0.0
139451,0.779,0.415,0.131,122.656,20.382,-67.893,0.0,0.0
139545,0.701,0.739,-0.079,98.534,13.641,-65.664,0.0,0.0
139638,0.606,0.729,-0.125,85.985,5.603,-72.748,0.0,0.0
139732,0.508,0.945,-0.174,84.618,10.359,-47.695,0.0,0.0
139827,0.556,0.940,-0.198,-7.489,14.824,-28.412,0.0,0.0
139920,0.459,0.814,-0.135,19.863,16.672,-24.237,0.0,0.0
140017,0.488,0.863,-0.166,8.229,22.878,-33.695,0.0,0.0
140111,0.320,0.975,-0.170,2.336,18.099,-22.527,0.0,0.0
140205,0.382,1.018,-0.108,-10.008,15.733,-10.603,0.0,0.0
140299,0.439,1.032,0.031,-87.916,17.412,5.885,0.0,0.0
140393,0.313,1.050,0.077,-40.542,-2.664,20.313,0.0,0.0
140487,0.411,0.728,0.184,-40.061,-21.336,-1.565,0.0,0.0
140580,0.500,0.845,0.174,-12.855,-19.366,-17.481,0.0,0.0
140675,0.408,0.762,0.199,-78.229,-7.466,-29.916,0.0,0.0
140769,0.367,0.963,0.203,9.779,-59.351,-32.679,0.0,0.0
140874,0.107,0.790,0.025,-80.511,17.718,-44.901,0.0,0.0
140958,0.159,0.767,0.527,-66.802,16.504,-77.344,39.0,0.0
141041,-0.043,1.048,0.497,31.901,-1.405,-22.855,30.0,0.0
141125,0.115,0.789,0.472,-31.290,13.115,-32.809,37.0,0.0
141210,0.000,0.760,0.657,-33.878,7.626,-10.542,37.0,0.0
141293,-0.030,0.864,0.526,16.481,-2.015,12.321,23.0,0.0
141376,0.057,0.803,0.509,41.656,-18.137,12.382,21.0,0.0
141459,0.125,0.938,0.345,-3.809,0.664,-9.893,19.0,0.0
141542,-0.020,0.973,0.349,16.588,-8.382,-7.626,19.0,0.0
141628,-0.035,0.761,0.556,-0.748,-2.885,-3.336,23.0,0.0
141711,0.153,1.036,0.469,-38.481,4.496,-39.885,24.0,0.0
141794,0.179,1.264,0.472,94.985,-3.298,-52.496,18.0,0.0
141878,-0.294,0.872,0.356,126.137,-5.420,-86.298,43.0,0.0
141962,-0.708,1.725,-0.091,43.466,-63.878,-83.328,30.0,0.0
142046,-0.347,1.148,0.044,-36.115,-44.015,-52.870,36.0,0.0
142130,-0.327,0.651,0.376,-15.992,13.267,-65.931,36.0,0.0
142214,-0.798,1.123,-0.132,80.763,-34.298,-109.618,36.0,0.0
142298,-0.741,1.230,-0.024,113.504,-113.176,-117.412,34.0,0.0
142385,-0.618,0.819,0.337,-91.008,-41.573,-86.183,16.0,76.0
142464,-0.431,0.038,0.649,7.840,-17.878,-42.298,16.0,81.0
142541,-0.669,0.499,0.532,96.870,24.550,-30.359,17.0,81.0
142621,-1.005,0.793,0.283,22.053,23.916,-29.595,19.0,87.0
142702,-0.664,0.392,0.230,39.992,21.718,-34.282,44.0,94.0
142791,-0.510,0.189,0.100,-4.359,39.023,1.595,184.0,101.0
142873,-0.790,0.096,-0.048,-74.519,31.000,-0.496,43.0,108.0
142955,-1.240,0.373,0.027,-15.573,-15.237,-34.847,48.0,118.0
143041,-0.890,0.384,0.118,1.794,-27.504,-12.214,58.0,120.0
143131,-0.469,0.263,0.123,-9.641,-8.092,8.137,170.0,121.0
143221,-0.508,0.410,0.202,-78.504,-18.359,34.450,166.0,124.0
143316,-0.577,0.610,0.491,-94.809,-10.977,41.809,0.0,0.0
143410,-0.507,0.645,0.517,-37.435,45.389,87.611,0.0,141.0
143501,-0.741,0.984,0.236,-106.466,85.000,80.886,0.0,131.0
143592,-0.971,1.030,0.136,-199.855,48.092,43.534,0.0,109.0
143683,-0.817,0.633,-0.014,-85.908,-18.573,50.550,0.0,117.0
143776,-0.627,0.869,-0.349,-123.122,-6.023,36.023,0.0,147.0
143873,-0.709,0.403,0.447,24.321,33.344,14.466,0.0,145.0
143965,-0.725,0.503,1.010,-95.359,10.649,5.710,0.0,142.0
144058,-0.738,0.776,0.888,-112.870,3.153,72.237,0.0,143.0
144142,-0.292,0.409,0.479,-124.153,-25.603,88.748,48.0,147.0
144221,-0.011,0.170,0.345,-140.229,-35.137,120.802,45.0,57.0
144299,-0.312,0.693,0.792,-63.626,-6.656,120.817,36.0,48.0
