Timestamp(ms),AccelX(g),AccelY(g),AccelZ(g),GyroX(deg/s),GyroY(deg/s),GyroZ(deg/s),DistanceLeft(cm),DistanceRight(cm)
150607,-0.323,0.136,0.886,-5.679,-4.145,-1.481,64.0,0.0
150693,-0.366,0.155,0.929,-4.260,-0.931,-13.267,63.0,0.0
150778,-0.372,0.149,0.912,1.351,-2.305,-17.672,61.0,0.0
150863,-0.430,0.107,0.912,15.863,3.824,-5.336,59.0,0.0
150948,-0.506,0.089,0.909,7.069,5.992,-3.840,57.0,0.0
151032,-0.487,0.063,0.864,2.122,1.977,-8.916,55.0,0.0
151117,-0.519,-0.039,0.782,26.786,14.008,-11.870,54.0,0.0
151205,-0.613,-0.010,0.683,87.443,42.321,-22.229,54.0,0.0
151290,-0.612,-0.128,0.717,136.641,56.298,-33.527,55.0,0.0
151373,-0.807,0.391,0.544,169.000,56.405,-49.527,16.0,0.0
151456,-0.788,0.503,0.562,139.504,58.573,-48.595,16.0,0.0
151549,-0.707,0.704,0.365,169.649,43.794,-22.489,0.0,0.0
151643,-0.441,0.986,0.211,129.351,17.237,-2.885,0.0,0.0
151737,-0.195,0.718,0.252,20.374,26.145,4.328,0.0,0.0
151822,-0.504,0.898,0.413,7.595,60.282,46.794,54.0,0.0
151907,-1.210,1.084,0.194,-12.763,42.168,109.901,54.0,0.0
151989,-1.173,1.738,-0.554,-62.626,28.000,95.305,51.0,96.0
152068,-0.671,0.125,-0.251,-72.756,-4.656,47.389,39.0,102.0
152146,-0.241,-0.148,-0.303,59.229,-44.626,12.000,40.0,104.0
152225,-0.479,-0.226,-0.081,64.588,-128.847,-52.336,40.0,101.0
152318,-2.000,2.000,-0.885,250.130,-250.137,18.664,180.0,0.0
152404,-0.169,0.970,-0.245,-83.916,-125.420,-15.802,58.0,0.0
152495,0.380,0.383,0.060,123.519,-85.832,-10.847,144.0,0.0
152584,0.618,0.209,0.203,38.733,-23.641,23.802,156.0,161.0
152674,-0.149,0.644,0.268,22.366,-7.702,14.084,170.0,164.0
152766,-1.622,2.000,-0.677,-24.992,54.695,140.702,145.0,176.0
152851,-0.828,0.375,-0.053,-43.542,6.511,54.557,42.0,0.0
152935,-0.371,-0.322,-0.104,49.466,-75.733,-44.855,41.0,0.0
153020,-0.474,-0.284,-0.053,63.336,-156.115,-66.282,138.0,104.0
153105,-2.000,2.000,-0.936,165.992,-223.786,-48.786,49.0,198.0
153190,-0.089,1.072,-0.246,42.420,-104.336,3.824,48.0,0.0
153275,0.389,0.317,0.074,24.450,-70.542,-48.374,48.0,0.0
153367,0.482,0.030,0.243,54.748,1.267,-2.679,0.0,160.0
153458,-0.633,1.658,0.451,70.756,29.771,71.840,179.0,137.0
153541,-1.732,2.000,-0.596,-48.924,57.237,155.878,57.0,146.0
153626,-0.556,0.530,-0.238,-71.771,21.504,60.145,41.0,0.0
153710,-0.146,-0.329,-0.107,-29.336,-43.779,-47.427,38.0,0.0
153794,-0.264,-0.271,-0.082,65.863,-84.611,-22.191,39.0,178.0
153886,-2.000,2.000,-0.893,165.916,-184.847,-51.305,0.0,175.0
153971,-0.665,1.504,-0.485,89.947,-96.237,23.695,58.0,180.0
154061,0.155,0.639,-0.094,-22.435,-99.954,-39.076,153.0,188.0
154157,0.557,-0.048,0.231,35.275,-49.504,3.244,164.0,196.0
154248,0.212,0.410,0.266,43.420,-4.160,44.389,168.0,0.0
154342,-1.748,2.000,-0.674,-8.214,79.214,93.267,0.0,0.0
154421,-0.852,0.698,-0.271,-66.580,31.618,37.916,43.0,106.0
154506,-0.382,-0.037,-0.227,-16.000,-26.412,-27.481,40.0,0.0
154591,-0.230,-0.299,-0.127,-12.740,-68.985,-40.794,40.0,0.0
154676,-1.893,1.506,-0.464,180.672,-144.527,-56.947,51.0,0.0
154762,-0.828,1.549,-0.155,78.405,-111.115,29.275,58.0,0.0
154847,0.062,0.757,0.073,39.740,-91.084,-24.763,53.0,0.0
154936,0.470,0.056,0.262,22.710,-18.901,-23.130,51.0,0.0
155029,0.235,0.256,0.236,12.557,29.107,6.069,0.0,0.0
155121,-2.000,2.000,-0.921,-58.542,22.847,89.702,167.0,0.0
155206,-0.995,0.681,-0.255,-1.519,3.038,117.870,43.0,0.0
155290,-0.516,0.103,-0.297,2.237,-61.435,2.328,38.0,0.0
155375,-0.229,-0.381,-0.118,8.443,-144.756,-84.122,36.0,0.0
155460,-0.893,0.487,0.307,125.015,-153.947,-138.023,50.0,0.0
155552,-1.135,1.870,-0.053,99.748,-73.939,78.695,168.0,0.0
155638,0.169,0.468,-0.028,100.947,-89.756,22.443,49.0,0.0
155732,0.509,0.100,0.205,28.916,-58.481,-29.595,162.0,0.0
155819,0.382,-0.001,0.275,4.580,13.656,6.580,51.0,0.0
155897,-2.000,2.000,-1.332,60.809,-32.954,152.809,57.0,87.0
155976,-0.884,1.060,-0.002,62.183,-57.588,232.466,44.0,92.0
156056,-0.358,0.586,-0.033,-27.275,55.397,-22.466,45.0,100.0
156135,-0.371,-0.396,-0.237,-100.435,13.298,-122.794,37.0,103.0
156215,-0.414,-0.663,-0.052,31.885,-139.267,-103.282,42.0,98.0
156301,-2.000,2.000,-0.774,250.130,-250.137,-92.260,167.0,91.0
156391,-0.390,1.605,-0.678,97.252,-118.962,-10.817,183.0,97.0
156485,0.389,0.349,-0.042,42.748,-122.702,-38.145,196.0,0.0
156577,0.701,0.079,0.139,64.084,-22.061,20.099,177.0,0.0
156672,-0.513,2.000,-0.271,106.786,35.137,67.977,0.0,0.0
156750,-1.978,1.618,-0.546,-102.847,76.611,169.618,51.0,87.0
156830,-0.679,0.334,-0.063,-49.053,-4.107,60.481,58.0,95.0
156910,-0.219,-0.292,-0.026,3.260,-92.588,-47.000,55.0,99.0
156995,-0.353,-0.381,-0.011,11.206,-155.145,-39.863,152.0,96.0
157078,-2.000,2.000,-0.828,218.443,-216.275,-70.908,51.0,89.0
157164,-0.151,1.403,-0.292,91.015,-109.817,12.099,165.0,96.0
157250,0.288,0.559,0.054,18.893,-101.023,-34.588,158.0,102.0
157337,0.666,-0.007,0.312,-2.145,-48.947,14.145,181.0,101.0
157424,0.067,0.701,0.263,64.450,-8.672,73.305,185.0,90.0
157504,-1.585,2.000,-0.686,-17.008,112.053,152.626,58.0,87.0
157589,-0.875,0.555,0.000,-100.756,44.176,42.145,46.0,96.0
157674,-0.293,-0.329,0.001,56.893,-54.153,-54.672,141.0,115.0
157759,-0.451,-0.276,-0.198,86.985,-124.611,-34.481,58.0,0.0
157852,-2.000,1.979,-0.784,126.802,-250.137,-53.412,149.0,0.0
157942,-0.368,1.869,-0.580,107.702,-144.573,-18.656,185.0,169.0
158033,0.412,0.662,-0.018,30.450,-117.771,-34.504,181.0,177.0
158126,0.752,0.111,0.209,66.779,-22.198,38.916,0.0,186.0
158219,0.239,0.392,0.240,33.817,39.412,28.389,0.0,195.0
158310,-1.814,2.000,-0.741,-43.137,67.168,158.389,168.0,0.0
158394,-1.080,0.884,0.064,-79.046,-2.687,104.886,46.0,0.0
158478,-0.554,0.042,-0.032,74.450,-53.550,-72.481,46.0,0.0
158566,-0.221,-0.177,-0.056,-32.290,-55.107,-60.328,58.0,0.0
158651,-1.152,0.237,-0.056,81.206,-139.466,-118.573,50.0,0.0
158743,-1.037,2.000,-0.771,193.206,-172.458,48.924,182.0,0.0
158834,0.192,0.698,-0.076,-50.771,-85.198,-37.756,172.0,0.0
158927,0.689,0.373,0.374,-41.328,-0.282,-18.137,193.0,0.0
159020,0.048,0.237,0.357,8.679,-6.573,-22.282,0.0,0.0
159113,-1.741,1.564,-0.373,31.725,-17.870,26.519,0.0,0.0
159205,-0.788,0.669,-0.052,-114.847,-12.046,20.275,179.0,0.0
159298,-0.767,0.376,0.057,6.786,-28.351,-42.893,0.0,0.0
159394,-0.466,0.275,0.136,-35.198,-48.489,-21.176,0.0,0.0
159488,-0.716,0.333,0.219,-15.878,-4.305,-5.733,0.0,0.0
159582,-1.213,0.801,0.186,-30.473,10.969,-15.573,0.0,0.0
159673,-1.104,0.563,0.266,-183.863,15.542,-4.099,165.0,0.0
159764,-0.706,0.282,0.461,18.137,20.130,69.145,165.0,0.0
159858,-0.855,0.766,0.211,110.160,3.176,38.359,0.0,0.0
159942,-0.709,0.674,0.288,6.275,-1.626,5.351,37.0,0.0
160026,-0.655,0.802,0.241,25.664,9.634,5.305,36.0,0.0
160110,-0.598,0.957,0.151,-2.885,7.779,4.649,37.0,0.0
160197,-0.620,0.703,0.245,-16.779,-0.221,-2.710,39.0,0.0
160290,-0.646,0.668,0.255,-1.328,-2.115,-8.298,0.0,0.0
160384,-0.816,0.746,0.184,7.840,-4.565,-1.061,0.0,0.0
160477,-0.891,0.853,0.250,42.450,-19.214,30.817,0.0,0.0
160555,-0.658,1.144,0.183,-37.229,-37.000,28.565,40.0,74.0
160638,-0.556,0.800,0.415,-39.313,-34.366,21.641,41.0,0.0
160723,-0.437,0.732,0.465,-29.496,-20.702,25.321,40.0,0.0
160803,-0.360,0.781,0.430,-52.885,0.725,39.519,88.0,88.0
160882,-0.384,0.677,0.499,-43.565,20.557,60.435,45.0,93.0
160961,-0.249,0.648,0.462,-37.595,38.084,82.000,42.0,50.0
161037,-0.101,0.564,0.391,-34.435,70.061,102.084,42.0,52.0
161113,0.000,0.795,0.314,-2.160,88.534,109.198,41.0,50.0
161188,0.063,0.998,0.174,26.443,120.290,82.122,39.0,50.0
161265,-0.033,0.769,0.256,11.573,136.847,63.275,37.0,51.0
161341,-0.049,0.975,0.116,12.076,133.939,50.824,36.0,53.0
161417,-0.044,0.878,0.112,20.931,130.046,34.168,36.0,57.0
161492,-0.018,0.731,0.051,-1.275,134.282,0.557,36.0,59.0
161574,-0.203,0.639,0.127,1.458,129.122,-18.511,36.0,95.0
161652,-0.519,0.781,0.201,26.214,88.031,-26.229,44.0,91.0
161738,-0.638,0.364,0.362,-24.412,48.901,-30.443,175.0,82.0
161825,-1.080,1.016,0.041,-48.771,9.481,-72.954,0.0,77.0
161911,-1.008,0.786,0.209,-10.351,-0.053,-83.099,0.0,73.0
161997,-0.979,0.807,0.071,10.183,-6.779,-82.527,0.0,71.0
162083,-0.953,0.711,0.082,26.382,-0.092,-42.000,0.0,69.0
162169,-0.943,0.893,-0.051,-13.489,5.099,-2.893,0.0,68.0
162255,-1.597,0.345,0.139,40.023,-29.336,53.817,0.0,68.0
162345,-0.949,0.855,0.283,44.237,-18.557,84.931,0.0,72.0
162433,-0.668,0.069,0.703,60.160,-70.374,-50.237,0.0,85.0
162509,-0.443,0.368,0.578,195.534,-187.954,-90.977,42.0,75.0
162587,-0.213,1.213,-0.096,84.870,-222.618,-24.107,45.0,74.0
162676,-0.193,0.734,-0.075,-104.069,-171.672,-31.817,115.0,0.0
162765,-0.677,0.685,-0.071,88.817,-23.206,-48.588,115.0,0.0
162853,-1.255,0.831,-0.207,-118.336,17.687,-120.832,100.0,0.0
162941,-1.003,0.461,0.148,11.634,49.450,15.206,97.0,0.0
163033,-0.867,0.059,0.626,-12.443,6.527,-3.107,95.0,0.0
163112,-0.893,0.229,0.671,-39.885,-5.847,-2.649,94.0,57.0
163200,-0.926,0.513,0.502,-37.344,-8.031,11.405,94.0,0.0
163288,-0.713,0.436,0.505,-37.534,-13.084,23.740,93.0,0.0
163366,-0.697,0.146,0.532,22.672,8.672,-15.061,92.0,60.0
163454,-1.256,0.633,0.368,-12.779,-2.656,-1.511,92.0,0.0
163534,-1.031,0.680,0.282,86.779,10.244,89.000,92.0,62.0
163622,-0.633,0.838,0.381,-16.824,-16.061,95.908,92.0,0.0
163707,-0.270,0.208,0.746,-105.397,-47.237,79.008,190.0,73.0
163794,-0.512,0.985,0.406,56.481,23.366,80.321,185.0,31.0
163870,-0.009,1.014,0.066,-116.656,65.557,121.290,47.0,40.0
163946,0.178,0.562,0.342,-59.344,90.695,127.908,37.0,36.0
164023,-0.065,0.750,0.400,-54.710,117.695,79.886,39.0,61.0
164098,-0.627,0.837,0.321,-51.542,107.893,31.733,36.0,38.0
164183,-0.980,0.617,0.389,-137.244,66.771,-0.382,0.0,43.0
164271,-0.600,0.142,0.592,-66.427,57.931,-38.229,0.0,88.0
164356,-1.086,0.382,0.382,-33.489,64.504,-79.687,0.0,44.0
164442,-1.150,-0.124,0.947,-9.847,-10.359,-10.160,0.0,68.0
164532,-0.979,0.019,0.702,26.542,0.473,5.985,0.0,71.0
164619,-1.274,0.046,0.325,64.947,-68.718,15.214,0.0,84.0
164712,-1.155,0.340,0.112,164.786,-92.893,32.550,0.0,0.0
164797,-0.942,0.867,-0.109,146.053,-62.038,-29.466,0.0,43.0
164874,-0.457,1.099,0.038,81.580,-79.878,-155.916,48.0,44.0
164955,-0.372,1.084,0.226,58.176,-50.611,-175.611,42.0,130.0
165041,-0.406,0.726,0.340,112.137,-30.374,-175.603,52.0,0.0
165126,-0.608,0.856,0.272,119.649,-20.901,-143.542,51.0,0.0
165220,-0.611,0.585,0.410,47.366,4.237,-79.656,148.0,0.0
165312,-0.535,0.218,0.387,12.855,8.237,-40.099,156.0,0.0
165403,-0.739,0.104,0.294,60.779,24.427,-26.527,163.0,0.0
165495,-1.101,0.206,0.148,83.573,52.038,-18.855,171.0,0.0
165590,-1.005,0.218,0.191,90.565,2.885,-10.099,189.0,0.0
165683,-0.967,0.541,0.007,76.740,-7.947,-20.328,197.0,0.0
165777,-1.017,0.551,-0.080,19.740,-0.695,-13.565,0.0,0.0
165871,-0.916,0.406,-0.020,28.023,-1.061,-8.901,0.0,0.0
165964,-1.016,0.398,-0.045,18.473,7.069,-24.710,199.0,0.0
166062,-1.098,0.312,0.004,-32.313,-7.611,-34.260,194.0,0.0
166155,-0.868,0.162,0.191,-65.962,-22.458,-56.481,187.0,0.0
166248,-0.910,-0.026,0.303,-99.015,25.740,-40.389,180.0,0.0
166340,-1.098,-0.296,0.087,-116.824,0.748,16.656,162.0,0.0
166429,-0.865,-0.376,0.019,-41.389,-30.031,47.794,108.0,0.0
166520,-0.782,-0.280,-0.027,-6.656,-17.656,36.817,151.0,0.0
166611,-1.015,-0.263,-0.084,-32.412,10.718,21.137,150.0,0.0
166703,-1.131,-0.452,-0.074,6.237,-0.756,10.519,150.0,0.0
166792,-0.907,-0.331,-0.120,69.145,37.176,-15.031,108.0,0.0
166887,-1.056,-0.181,-0.078,109.298,31.977,-30.924,161.0,0.0
166980,-1.119,-0.169,0.156,126.534,-30.939,3.786,179.0,0.0
167074,-0.839,0.381,0.056,215.511,-55.687,134.763,0.0,0.0
167169,-0.239,0.472,0.194,104.191,-26.183,103.015,0.0,0.0
167263,-0.612,0.383,0.676,14.756,-13.313,82.901,0.0,0.0
167349,-1.569,1.699,0.223,139.466,-51.313,219.130,58.0,0.0
167434,-0.911,1.276,-0.419,5.015,-9.473,225.397,42.0,0.0
167514,-0.374,0.052,-0.229,17.763,-45.855,50.099,36.0,106.0
167602,-0.145,-0.368,-0.053,109.107,-110.061,-81.183,37.0,0.0
167688,-0.613,0.078,0.073,55.786,-177.275,-126.565,46.0,0.0
167780,-1.118,2.000,-1.260,250.130,-203.947,135.740,160.0,0.0
167866,0.116,0.520,-0.226,-47.305,-125.672,-6.672,55.0,0.0
167956,0.475,0.252,0.032,140.664,-72.427,-16.313,132.0,0.0
168042,0.526,0.064,0.205,-18.374,-33.061,-6.885,57.0,0.0
168134,-1.323,1.852,-0.066,144.939,-1.374,5.145,169.0,0.0
168220,-1.428,1.378,-0.290,-80.298,0.198,100.954,147.0,93.0
168305,-0.408,0.111,0.008,5.237,-54.099,-35.069,148.0,99.0
168394,-0.256,-0.302,-0.057,80.489,-93.382,-68.244,150.0,100.0
168482,-0.729,0.147,0.007,93.092,-176.427,-68.031,192.0,94.0
168570,-1.546,2.000,0.541,160.099,-220.809,51.802,180.0,91.0
168664,-0.292,0.508,0.716,-221.580,-137.275,22.183,191.0,102.0
168748,0.270,0.480,0.040,-223.298,-159.015,42.969,42.0,0.0
168832,-0.004,-0.129,0.482,-240.496,-136.267,50.809,21.0,0.0
168914,-0.581,0.474,1.375,-36.290,-126.191,12.305,19.0,0.0
169003,-0.034,-0.115,1.364,2.160,-31.023,25.954,106.0,0.0
169099,-0.214,-0.109,0.716,36.565,12.237,-17.649,0.0,0.0
169183,-0.071,0.014,0.545,-83.145,-22.855,-50.153,38.0,0.0
169269,-0.248,-0.150,1.463,2.748,7.878,-137.634,81.0,0.0
169353,-0.064,-0.499,1.738,47.733,30.557,-92.374,37.0,0.0
169437,0.027,0.185,0.657,-42.985,7.969,-93.847,44.0,0.0
169524,0.299,0.105,0.364,-22.924,-23.649,-60.038,89.0,0.0
169608,0.118,0.034,1.212,-50.504,-45.626,-50.305,36.0,0.0
169695,-0.190,0.072,1.638,-7.931,-4.565,-33.725,94.0,0.0
169783,-0.057,-0.357,1.307,-15.298,19.656,-4.618,97.0,0.0
169873,-0.124,-0.233,0.676,-34.267,10.107,-28.687,102.0,0.0
169962,-0.311,-0.334,0.438,-2.908,-28.771,-77.489,108.0,0.0
170051,-0.998,-0.027,0.980,172.710,12.656,-196.924,122.0,0.0
170142,-0.857,0.136,1.264,250.130,102.374,-186.099,169.0,0.0
170227,-0.123,2.000,-0.883,250.130,-48.473,-96.504,45.0,0.0
170315,0.678,1.012,-0.292,-76.137,-86.664,-92.237,132.0,173.0
170400,0.554,-0.236,0.434,8.725,-17.176,-25.557,44.0,0.0
170488,-1.917,2.000,-0.868,250.130,11.695,55.160,146.0,171.0
170576,-1.181,1.490,-0.618,-174.137,20.137,66.611,58.0,183.0
170660,-0.435,-0.198,-0.136,0.290,-97.198,-26.458,44.0,0.0
170745,-0.176,-0.154,-0.339,148.282,-157.832,-47.374,50.0,194.0
170835,-0.217,0.117,-0.139,81.069,-180.985,-63.282,141.0,191.0
170924,-2.000,2.000,-0.448,234.443,-182.298,-101.115,193.0,120.0
171014,-0.367,1.420,-0.174,43.366,-3.427,-12.397,0.0,123.0
171107,-0.235,0.177,0.367,-53.046,-24.901,-53.550,0.0,0.0
171197,0.202,0.260,0.264,47.137,-64.038,-9.595,0.0,143.0
171290,0.088,0.567,0.590,66.580,-41.863,-4.008,0.0,143.0
171380,-1.959,2.000,-0.409,-78.779,63.229,217.092,0.0,135.0
171465,-0.958,0.758,-0.209,-135.000,112.160,59.847,47.0,0.0
171557,-0.177,-0.638,-0.090,-68.588,62.954,-162.176,181.0,0.0
171651,-0.522,-0.415,0.081,21.069,-14.481,-161.359,0.0,0.0
171745,-2.000,0.393,-0.182,241.504,-41.382,-153.817,0.0,0.0
171838,-1.156,1.232,-0.359,128.802,-54.420,40.718,0.0,0.0
171932,-0.038,0.558,0.195,-2.794,-43.321,14.008,0.0,0.0
172025,0.637,0.640,0.340,25.298,22.565,29.489,0.0,0.0
172122,-1.574,2.000,-1.035,-100.763,64.695,61.641,0.0,0.0
172216,-1.487,0.681,-0.688,-217.496,127.229,133.519,0.0,0.0
172309,-0.910,0.056,-0.445,-137.313,63.916,80.886,0.0,0.0
172402,-0.734,0.237,-0.341,11.153,-2.359,-10.550,181.0,0.0
172492,-2.000,2.000,-2.000,-250.137,250.130,-238.260,142.0,0.0
172577,-1.381,0.854,0.790,22.634,-21.649,77.176,44.0,0.0
172655,-0.288,0.271,-0.600,-250.137,-113.321,119.786,37.0,88.0
172733,-0.085,-0.081,-0.250,-153.725,-117.260,125.260,30.0,95.0
172815,0.608,-0.175,-0.244,-47.092,30.710,167.038,30.0,95.0
172899,0.722,-0.021,-0.385,52.046,162.626,250.130,26.0,0.0
172974,0.704,0.600,-0.993,218.748,182.313,250.130,28.0,51.0
173048,0.329,1.858,-1.809,250.130,169.015,250.130,37.0,29.0
173127,0.118,1.344,-1.436,250.130,169.695,240.511,37.0,92.0
173211,1.824,2.000,-2.000,-250.137,239.878,17.176,30.0,0.0
173295,2.000,0.476,1.963,-15.084,-63.763,250.130,30.0,0.0
173373,1.074,-0.022,-0.129,12.817,-139.275,99.756,51.0,71.0
173457,1.189,-0.384,-0.873,37.687,-32.985,250.130,30.0,0.0
173543,0.510,-0.786,-0.386,-108.947,91.519,190.450,16.0,0.0
173627,0.750,-1.062,0.016,34.557,142.664,-16.481,13.0,0.0
173710,0.081,-0.184,0.016,67.008,108.191,-88.389,18.0,0.0
173795,-0.017,-0.226,0.074,-0.206,38.023,-105.817,38.0,0.0
173880,2.000,-0.219,0.570,24.031,22.550,-97.069,57.0,0.0
173967,1.252,-0.107,0.418,0.153,112.573,-141.947,84.0,0.0
174049,-0.080,0.044,0.152,102.267,64.130,-103.679,118.0,70.0
174139,1.109,0.711,0.421,45.702,108.023,-143.702,125.0,0.0
174229,0.132,0.336,0.693,-99.931,137.649,-162.664,90.0,0.0
174323,-0.448,1.039,1.072,23.328,91.847,-104.008,0.0,0.0
174416,-0.138,0.435,0.970,5.443,-38.160,43.580,0.0,0.0
174511,0.407,0.472,0.706,77.718,-25.931,48.336,0.0,0.0
174604,0.374,0.669,0.541,16.473,11.817,-27.901,0.0,0.0
174698,0.145,0.683,0.821,22.969,28.290,-74.664,0.0,0.0
174791,-0.045,0.943,0.648,9.756,-16.511,17.267,0.0,0.0
174885,0.229,0.637,0.651,-12.031,1.000,13.374,0.0,0.0
174979,0.113,0.675,0.731,-8.565,11.053,-24.076,0.0,0.0
175076,0.077,0.712,0.750,9.008,-3.740,5.466,0.0,0.0
175170,0.132,0.688,0.709,4.763,0.947,-2.420,0.0,0.0
175263,0.078,0.730,0.716,-2.817,0.954,2.244,0.0,0.0
175357,0.122,0.683,0.726,6.893,-0.626,1.679,0.0,0.0
175451,0.092,0.768,0.675,4.313,-0.580,-0.664,0.0,0.0
175545,0.105,0.689,0.720,-6.626,0.779,-0.695,0.0,0.0
175638,0.092,0.700,0.725,5.779,-1.099,0.809,0.0,0.0
175732,0.097,0.726,0.697,-0.336,-0.427,-0.435,0.0,0.0
175825,0.100,0.697,0.719,0.031,-0.420,-0.229,0.0,0.0
175920,0.106,0.718,0.707,1.496,-0.588,0.443,0.0,0.0
176017,0.104,0.711,0.698,-0.260,-0.252,0.191,0.0,0.0
176110,0.099,0.716,0.713,2.542,-0.977,-0.031,0.0,0.0
176204,0.102,0.719,0.697,0.069,-0.611,-0.061,0.0,0.0
176299,0.094,0.711,0.705,-0.206,-0.504,-0.489,0.0,0.0
176392,0.096,0.713,0.706,0.977,-0.740,0.305,0.0,0.0
176486,0.093,0.712,0.713,-0.527,-0.397,-0.206,0.0,0.0
176580,0.092,0.711,0.721,-0.382,-0.519,-0.076,0.0,0.0
176673,0.095,0.715,0.704,0.496,-0.557,-0.084,0.0,0.0
176768,0.102,0.714,0.706,0.084,-0.565,0.107,0.0,0.0
176865,0.097,0.712,0.709,0.573,-0.412,-0.328,0.0,0.0
176959,0.101,0.705,0.710,-0.252,-0.313,0.176,0.0,0.0
177052,0.104,0.713,0.703,0.504,-0.519,0.137,0.0,0.0
177146,0.092,0.717,0.709,-0.267,-0.351,0.130,0.0,0.0
177241,0.097,0.709,0.722,-0.198,-0.344,0.206,0.0,0.0
177334,0.108,0.716,0.713,0.550,-0.489,0.397,0.0,0.0
177428,0.091,0.715,0.699,0.756,-0.298,0.366,0.0,0.0
177522,0.109,0.729,0.700,-0.580,-0.305,-0.122,0.0,0.0
177616,0.118,0.699,0.712,-16.664,1.855,0.962,0.0,0.0
177711,-0.014,0.597,0.770,-17.328,-8.458,7.962,0.0,0.0
177808,0.257,0.695,0.755,37.664,-35.107,35.237,0.0,0.0
177894,0.270,0.761,0.467,15.496,35.084,27.840,0.0,61.0
177980,-0.104,0.604,0.878,-77.863,-8.687,16.634,0.0,60.0
178066,0.281,0.308,0.820,60.954,-6.634,85.832,71.0,0.0
178160,0.155,0.839,0.476,59.244,-0.725,46.260,0.0,0.0
178246,0.694,0.627,0.925,-71.458,-40.237,3.237,56.0,0.0
178323,0.405,0.614,0.775,61.328,-36.756,45.954,30.0,65.0
178407,0.587,0.511,0.668,-1.053,-40.840,31.687,29.0,0.0
178493,0.512,0.376,0.609,45.557,-44.664,-20.267,50.0,0.0
178579,0.614,0.701,0.442,66.611,-43.107,-35.015,0.0,5.0
178652,0.599,0.870,0.260,47.244,-19.221,-43.405,17.0,3.0
178724,0.483,0.793,0.385,-12.298,-7.038,-23.954,18.0,3.0
178796,0.442,0.748,0.362,15.954,-0.130,-13.542,16.0,2.0
178880,0.321,0.677,0.282,16.771,-2.160,4.557,0.0,6.0
178963,0.500,0.897,0.387,-20.779,-2.435,-22.267,20.0,0.0
179048,0.456,0.877,0.391,2.969,-2.992,17.435,25.0,0.0
179121,0.332,0.722,0.367,9.580,-0.947,13.725,21.0,3.0
179204,0.526,0.758,0.372,-24.878,5.664,14.183,8.0,0.0
179290,0.593,0.739,0.445,-3.260,8.840,12.130,9.0,0.0
179384,0.544,0.657,0.560,7.145,-4.038,-23.000,0.0,0.0
179468,0.327,0.760,0.420,-20.634,-22.794,-13.832,19.0,0.0
179552,0.264,0.775,0.265,17.725,-12.573,-20.397,23.0,0.0
179636,0.107,0.900,0.569,-80.924,-73.229,19.115,22.0,0.0
179720,0.602,0.549,0.555,-41.061,-123.710,-17.878,17.0,0.0
179804,0.663,0.849,0.084,-106.023,-102.244,-59.473,19.0,0.0
179894,0.610,0.543,0.250,-51.405,-71.466,-36.908,19.0,0.0
179977,0.765,0.490,0.121,-36.084,-4.634,-53.695,21.0,0.0
180051,0.360,0.772,0.368,-85.237,52.229,-74.565,22.0,3.0
180134,0.206,0.787,0.811,-49.122,23.336,-1.954,22.0,0.0
180217,0.437,0.696,0.507,11.740,-14.008,13.679,17.0,0.0
180300,0.481,0.626,0.439,-50.107,26.733,-38.389,16.0,0.0
180383,0.266,0.681,0.884,-60.405,19.847,-22.420,16.0,0.0
180465,0.510,0.672,0.766,-0.321,2.275,-1.443,16.0,0.0
180537,0.435,0.735,0.679,-28.290,20.237,-29.832,10.0,3.0
180619,0.253,0.549,0.717,-31.053,12.443,-18.321,11.0,0.0
180702,0.273,0.643,0.603,-37.763,16.191,-22.763,17.0,0.0
180798,0.165,0.471,0.820,-57.947,16.145,-24.237,0.0,0.0
180875,0.104,0.617,0.865,-51.038,29.550,-64.924,30.0,80.0
180952,-0.040,0.391,0.690,-50.290,18.137,-87.168,31.0,79.0
181028,0.145,0.441,0.924,-41.649,7.794,-90.679,26.0,80.0
181105,-0.002,0.402,0.671,-12.092,-18.420,-92.237,23.0,81.0
181182,0.366,-0.022,0.736,-40.313,-44.641,-99.618,26.0,84.0
181266,-0.100,-0.468,2.000,-2.260,27.924,-64.588,31.0,0.0
181349,-0.157,0.490,0.944,-4.534,-1.412,-100.794,22.0,0.0
181432,-0.298,0.026,0.969,37.328,-9.565,-115.099,24.0,0.0
181514,-0.594,1.541,0.832,-32.702,41.099,-65.664,24.0,0.0
181606,-0.835,0.361,0.587,-117.603,2.130,51.710,0.0,177.0
181689,-0.773,0.317,0.770,52.015,0.092,-42.031,18.0,0.0
181772,-0.676,0.641,0.615,29.412,82.099,-170.954,18.0,0.0
181853,-0.552,0.330,0.431,34.489,48.817,-250.137,20.0,162.0
181934,-0.190,0.495,0.027,110.809,-161.405,-250.137,26.0,160.0
182012,0.599,1.186,0.664,185.374,-143.550,-76.931,62.0,76.0
182105,0.393,0.850,0.718,-123.397,-113.779,-128.183,0.0,180.0
182193,-0.334,-0.733,1.045,-87.115,-179.061,-194.168,41.0,0.0
182278,1.844,1.198,0.033,250.130,-250.137,68.008,59.0,0.0
182364,1.976,-0.239,0.013,-87.115,-204.870,90.656,68.0,0.0
182458,1.218,0.396,-0.240,10.122,-151.183,41.260,0.0,0.0
182550,1.132,0.340,-0.439,-31.695,-76.328,-13.740,0.0,187.0
182644,0.922,0.405,-0.344,-48.527,-37.977,-47.229,0.0,197.0
182729,1.167,0.417,-0.226,-23.359,-70.176,-87.718,64.0,194.0
182823,0.734,0.685,-0.493,58.924,-80.977,-66.931,0.0,0.0
182917,0.635,0.475,-0.276,-60.519,44.313,-44.534,0.0,0.0
183008,0.566,0.763,-0.162,41.977,-36.511,-24.221,0.0,0.0
183101,0.797,0.698,-0.224,-20.748,-10.595,-4.458,0.0,0.0
183195,0.801,0.625,-0.235,-13.328,9.038,2.290,0.0,0.0
183288,0.693,0.564,-0.245,-35.130,5.832,-9.389,0.0,0.0
183382,0.810,0.685,-0.184,-14.733,9.763,-27.221,0.0,0.0
183476,0.726,0.760,-0.054,-20.992,27.145,-26.260,0.0,0.0
183569,0.730,0.694,0.051,-82.511,23.695,-30.901,0.0,0.0
183662,0.654,0.849,0.140,-98.397,37.756,-62.557,0.0,0.0
183759,0.340,0.902,0.442,-97.145,52.450,-54.504,0.0,0.0
183853,0.328,0.984,0.666,-75.725,-17.618,20.985,0.0,0.0
183946,0.235,0.912,0.651,-85.947,-96.374,49.191,0.0,0.0
184037,0.438,0.555,0.300,-31.687,-161.015,74.168,0.0,147.0
184127,0.912,0.640,-0.036,15.771,-180.595,72.748,0.0,150.0
184218,0.909,0.221,-0.045,25.366,-98.748,58.443,0.0,154.0
184310,0.868,0.142,-0.119,-72.366,-55.756,51.260,0.0,157.0
184401,1.059,0.148,-0.240,-20.229,-25.290,14.092,0.0,158.0
184493,0.961,0.213,-0.202,-1.718,-10.641,-2.695,0.0,159.0
184587,0.993,0.357,-0.155,1.725,-12.725,1.496,0.0,159.0
184678,1.065,0.248,-0.160,-5.466,-4.069,3.458,0.0,159.0
184770,0.978,0.246,-0.155,0.611,-0.855,-0.206,0.0,159.0
184861,0.941,0.266,-0.151,3.969,-7.435,-0.160,0.0,159.0
184952,1.006,0.311,-0.207,23.321,-14.313,0.321,0.0,158.0
185043,1.036,0.223,-0.240,0.496,-6.214,-10.275,0.0,158.0
185135,0.909,0.268,-0.231,4.817,1.191,-14.534,0.0,158.0
185226,0.909,0.279,-0.208,4.466,3.718,-4.496,0.0,157.0
185317,0.959,0.373,-0.237,15.099,4.695,1.260,0.0,157.0
185412,0.933,0.249,-0.212,19.244,1.687,-0.328,0.0,157.0
185503,0.945,0.114,-0.212,24.321,35.992,3.786,0.0,156.0
185594,1.097,0.271,-0.267,88.611,66.382,-14.092,0.0,154.0
185686,0.898,0.493,-0.227,53.725,76.802,-31.252,0.0,152.0
185777,0.716,0.165,0.081,-2.626,92.550,-37.046,0.0,152.0
185867,0.764,0.278,0.110,23.992,80.840,-56.061,0.0,148.0
185958,0.926,0.653,0.037,43.137,117.290,-75.962,0.0,146.0
186044,0.371,0.645,0.438,15.344,81.076,-93.863,57.0,0.0
186137,0.392,1.197,0.363,14.328,72.382,-66.237,0.0,0.0
186226,0.280,0.712,0.628,-22.679,68.504,-34.763,65.0,0.0
186320,0.235,0.932,0.476,-2.473,61.046,-17.695,0.0,0.0
186404,0.112,0.645,0.701,-59.855,49.550,-43.527,22.0,0.0
186488,0.004,0.703,0.748,-52.099,42.153,-55.183,30.0,0.0
186572,-0.133,0.669,0.906,-18.015,23.634,-34.527,37.0,0.0
186657,-0.021,0.593,0.827,-19.198,-3.809,14.221,34.0,0.0
186741,0.041,0.608,0.713,13.718,4.588,2.611,37.0,0.0
186826,-0.103,0.484,0.862,17.282,6.489,-16.473,38.0,0.0
186911,-0.068,0.758,0.655,44.008,-1.725,3.740,39.0,0.0
186998,-0.044,0.774,0.666,-9.618,1.359,-0.565,41.0,0.0
187083,-0.059,0.669,0.751,-5.252,-0.313,-2.000,42.0,0.0
187168,-0.057,0.685,0.740,8.603,-1.725,0.962,41.0,0.0
187253,-0.062,0.707,0.718,1.031,-1.275,0.870,41.0,0.0
187337,-0.057,0.719,0.709,2.130,-0.740,0.718,43.0,0.0
187424,-0.050,0.704,0.721,6.542,-1.405,0.924,78.0,0.0
187509,-0.056,0.724,0.709,4.519,-1.366,0.252,46.0,0.0
187594,-0.058,0.726,0.699,5.130,-1.916,3.321,46.0,0.0
187680,-0.038,0.716,0.707,8.618,-2.687,1.412,49.0,0.0
187768,-0.058,0.727,0.694,1.542,-0.038,-0.260,46.0,0.0
187853,-0.042,0.715,0.716,4.817,-1.046,6.427,48.0,0.0
187938,-0.035,0.730,0.702,5.977,-1.847,1.412,46.0,0.0
188023,-0.035,0.740,0.648,5.985,-3.718,-1.580,46.0,0.0
188109,-0.034,0.767,0.663,1.573,-0.863,0.954,48.0,0.0
188194,-0.039,0.723,0.696,-0.527,-0.229,0.214,50.0,0.0
188279,-0.035,0.743,0.689,3.771,-1.802,3.802,45.0,0.0
188364,-0.023,0.762,0.650,3.008,-0.832,-0.802,45.0,0.0
188449,-0.029,0.762,0.658,-4.527,-1.336,-3.679,45.0,0.0
188538,-0.038,0.742,0.687,-0.954,-1.092,-0.733,45.0,0.0
188623,-0.037,0.737,0.687,-0.115,0.366,1.511,46.0,0.0
188708,-0.038,0.764,0.666,3.290,-0.290,1.588,46.0,0.0
188793,-0.033,0.769,0.650,1.550,-0.130,-0.229,45.0,0.0
188878,-0.029,0.734,0.676,-4.328,-0.595,-1.962,45.0,0.0
188963,-0.040,0.733,0.685,-1.588,-0.458,0.176,45.0,0.0
189049,-0.019,0.756,0.656,-2.328,-0.496,1.695,45.0,0.0
189134,-0.023,0.784,0.648,-20.328,1.534,-1.366,45.0,0.0
189219,-0.046,0.663,0.735,-11.847,0.840,-1.359,45.0,0.0
189304,-0.048,0.701,0.717,11.344,-1.511,1.725,45.0,0.0
189393,-0.027,0.797,0.653,-4.069,-0.718,1.443,46.0,0.0
189478,-0.059,0.697,0.721,-18.733,1.870,-0.634,44.0,0.0
189563,-0.041,0.635,0.766,16.550,-0.656,-1.198,44.0,0.0
189648,-0.030,0.764,0.675,24.496,-4.954,0.710,45.0,0.0
189734,-0.034,0.785,0.664,-6.687,0.351,0.794,47.0,0.0
189819,-0.050,0.717,0.704,-3.924,-0.015,-1.206,46.0,0.0
189904,-0.038,0.732,0.682,3.885,-0.557,-1.130,46.0,0.0
189990,-0.034,0.731,0.681,-0.153,-1.099,0.817,45.0,0.0
190075,-0.048,0.736,0.704,0.947,-0.557,-0.023,46.0,0.0
190163,-0.036,0.740,0.686,1.389,-0.916,-1.557,46.0,0.0
190249,-0.042,0.745,0.673,2.084,-0.595,0.618,45.0,0.0
190334,-0.044,0.743,0.677,-0.916,-0.382,-0.847,46.0,0.0
190419,-0.035,0.741,0.689,0.519,-0.481,0.260,45.0,0.0
190505,-0.039,0.740,0.681,-0.153,-0.511,-0.473,47.0,0.0
190590,-0.045,0.748,0.687,1.069,-0.649,0.252,47.0,0.0
190676,-0.041,0.744,0.685,-0.321,-0.466,-0.366,47.0,0.0
190761,-0.040,0.739,0.686,0.351,-0.450,0.084,47.0,0.0
190848,-0.049,0.731,0.692,0.817,-0.779,0.366,46.0,0.0
190941,-0.042,0.745,0.674,1.122,-0.534,0.244,47.0,0.0
191025,-0.044,0.743,0.691,-0.420,-0.313,0.267,45.0,0.0
191110,-0.039,0.739,0.681,0.733,-0.527,0.275,45.0,0.0
191194,-0.041,0.742,0.676,-0.603,-0.588,0.076,45.0,0.0
191279,-0.042,0.739,0.682,2.740,-0.832,0.916,47.0,0.0
191363,-0.037,0.750,0.676,-0.725,-0.305,-0.282,47.0,0.0
191447,-0.046,0.741,0.688,1.076,-0.611,0.656,46.0,0.0
191532,-0.051,0.737,0.691,-0.626,-0.374,1.015,46.0,0.0
191616,-0.153,0.809,0.848,28.076,-29.107,34.618,46.0,0.0
191704,-0.042,1.007,0.714,-6.847,-74.405,58.550,47.0,0.0
191788,0.135,0.861,0.640,-63.794,-100.038,73.947,44.0,0.0
191872,0.392,0.603,0.679,-84.824,-112.863,62.641,44.0,0.0
191953,0.533,0.546,0.573,-67.046,-114.084,42.321,45.0,150.0
192037,0.648,0.359,0.541,-49.260,-119.779,38.756,43.0,0.0
192119,0.732,0.245,0.395,-21.740,-107.023,31.290,44.0,155.0
192202,0.828,0.245,0.267,-13.931,-91.977,20.198,43.0,156.0
192284,0.927,0.225,0.153,-1.008,-68.244,12.672,46.0,158.0
192375,0.936,0.261,0.122,5.664,-46.412,10.397,0.0,160.0
192470,0.995,0.280,0.037,37.450,-30.076,9.870,0.0,161.0
192561,1.035,0.204,0.070,-0.641,-7.985,11.618,0.0,161.0
192652,1.035,0.209,0.084,-7.153,12.847,12.435,0.0,161.0
192743,0.940,0.209,0.153,-7.412,2.725,5.046,0.0,162.0
192834,0.947,0.205,0.103,2.076,-10.779,2.366,0.0,162.0
192925,0.993,0.194,0.042,3.527,-5.023,3.863,0.0,162.0
193016,0.965,0.210,0.081,9.221,-1.947,0.473,0.0,162.0
193107,0.977,0.197,0.075,14.534,-7.817,-2.450,0.0,162.0
193199,1.016,0.190,0.090,0.267,-5.160,0.786,0.0,162.0
193293,1.005,0.177,0.078,-0.298,-3.443,3.489,0.0,162.0
193384,0.997,0.198,0.030,-8.947,-2.527,4.168,0.0,162.0
193475,1.012,0.233,0.017,12.229,-8.840,-5.221,0.0,162.0
193566,0.979,0.213,0.026,3.954,-4.817,2.099,0.0,162.0
193657,0.987,0.154,0.027,7.084,-1.969,-0.450,0.0,162.0
193748,0.996,0.238,-0.018,-9.649,3.649,0.038,0.0,162.0
193841,0.993,0.210,0.031,-3.481,6.298,1.260,0.0,162.0
193932,0.996,0.227,0.058,-0.061,0.053,-1.824,0.0,162.0
194023,1.000,0.241,0.038,9.534,-4.313,-0.305,0.0,162.0
194117,0.997,0.209,0.016,7.924,0.000,3.725,0.0,162.0
194208,0.978,0.171,0.007,-6.244,4.366,3.061,0.0,162.0
194299,0.944,0.152,0.020,3.893,18.740,4.992,0.0,161.0
194391,0.981,0.123,0.061,8.061,37.412,5.557,0.0,160.0
194482,0.995,0.012,0.173,35.870,68.603,5.779,0.0,158.0
194573,1.027,-0.055,0.321,21.840,92.939,-24.565,0.0,156.0
194664,0.874,0.253,0.362,30.985,88.496,-70.893,0.0,153.0
194754,0.660,0.322,0.521,-0.985,65.084,-86.466,0.0,150.0
194837,0.635,0.502,0.563,24.870,63.542,-79.962,50.0,147.0
194933,0.519,0.624,0.561,43.771,63.588,-73.107,0.0,0.0
195018,0.402,0.798,0.653,-1.878,61.847,-67.542,54.0,0.0
195104,0.204,0.630,0.773,12.305,53.634,-53.237,55.0,0.0
195189,0.195,0.996,0.723,20.977,27.634,-33.145,57.0,0.0
195275,0.141,0.807,0.714,-15.374,12.130,-17.634,57.0,0.0
195360,0.159,0.725,0.648,8.023,7.496,-12.092,57.0,0.0
195446,0.125,0.741,0.630,1.099,16.374,-23.382,58.0,0.0
195531,0.034,0.801,0.684,23.679,12.924,-20.740,58.0,0.0
195617,0.013,0.872,0.646,-9.939,2.176,-8.962,58.0,0.0
195705,0.044,0.847,0.604,-13.099,-1.527,1.214,58.0,0.0
195791,0.034,0.770,0.624,-2.687,3.122,1.626,58.0,0.0
195876,0.015,0.736,0.687,-2.023,1.420,-1.573,57.0,0.0
195961,0.022,0.778,0.656,2.031,-1.473,0.282,58.0,0.0
196047,0.034,0.796,0.624,-0.710,-1.366,0.275,58.0,0.0
196132,0.031,0.824,0.606,-5.061,-0.725,-0.580,58.0,0.0
196218,0.023,0.731,0.682,9.038,-0.450,3.450,58.0,0.0
196303,0.033,0.714,0.686,-1.740,-0.893,1.863,58.0,0.0
196398,0.046,0.809,0.612,-5.718,-1.458,-0.023,0.0,0.0
196487,0.036,0.820,0.630,-1.740,0.466,-1.634,61.0,0.0
196572,0.036,0.756,0.660,3.122,-0.221,0.466,58.0,0.0
196658,0.041,0.737,0.670,4.901,0.214,-0.779,57.0,0.0
196743,0.030,0.761,0.662,4.672,-1.359,-0.053,58.0,0.0
196829,0.034,0.780,0.630,4.122,-2.779,0.824,58.0,0.0
196914,0.034,0.765,0.642,5.374,-4.435,1.580,59.0,0.0
197008,0.056,0.792,0.612,-2.237,-2.519,0.321,0.0,0.0
197102,0.046,0.797,0.631,0.550,-0.885,0.489,0.0,0.0
197195,0.032,0.800,0.612,2.511,-1.733,1.389,0.0,0.0
197288,0.052,0.817,0.605,0.847,-1.908,2.603,0.0,0.0
197378,0.066,0.781,0.618,1.023,-0.359,1.000,60.0,0.0
197464,0.048,0.771,0.641,0.710,1.374,-1.313,59.0,0.0
197558,0.052,0.783,0.618,0.710,1.221,-1.252,0.0,0.0
197651,0.034,0.803,0.626,-1.695,1.611,-2.366,0.0,0.0
197745,0.062,0.779,0.625,1.649,2.771,3.092,0.0,0.0
197830,0.036,0.807,0.623,3.321,7.122,5.389,57.0,0.0
197916,0.029,0.757,0.642,9.550,4.962,8.634,55.0,0.0
198009,0.083,0.855,0.636,11.206,-0.130,16.366,0.0,0.0
198104,0.162,0.820,0.501,19.115,3.863,18.931,0.0,0.0
198201,0.139,0.807,0.590,-36.947,10.092,1.695,0.0,0.0
198294,-0.084,0.709,0.690,-66.649,22.069,-14.763,0.0,0.0
198388,-0.038,0.681,0.832,-63.435,9.115,-15.038,0.0,0.0
198474,-0.207,0.653,0.720,-50.786,27.794,17.969,53.0,0.0
198559,0.065,0.279,0.919,-39.466,27.893,3.214,52.0,0.0
198645,0.057,0.444,0.901,48.481,10.198,-6.924,52.0,0.0
198730,-0.044,0.725,0.744,7.046,-8.076,-1.412,51.0,0.0
198816,-0.008,0.589,0.868,-16.244,0.336,2.198,51.0,0.0
198901,-0.136,0.558,0.766,-12.046,1.885,9.290,44.0,0.0
198988,-0.075,0.562,0.805,-26.328,1.878,6.534,37.0,0.0
199074,-0.060,0.393,0.915,10.611,8.511,-4.153,45.0,0.0
199159,-0.042,0.551,0.779,54.527,-9.725,3.130,44.0,0.0
199244,-0.043,0.735,0.740,27.718,-5.809,-1.427,46.0,0.0
199329,-0.027,0.657,0.754,1.718,3.344,11.672,42.0,0.0
199414,0.025,0.487,0.816,21.534,1.710,4.015,38.0,0.0
199498,0.048,0.756,0.759,42.145,-5.382,-3.832,27.0,0.0
199582,-0.010,0.949,0.626,77.656,-11.534,1.725,24.0,0.0
199655,0.153,1.117,0.415,90.160,-11.176,-11.198,24.0,16.0
199739,0.039,0.933,0.406,-27.756,3.221,10.405,23.0,0.0
199824,-0.025,0.894,0.482,39.107,-0.168,5.992,23.0,4.0
199899,-0.001,0.796,0.595,50.626,0.611,6.573,19.0,2.0
199974,-0.002,0.931,0.397,82.802,-5.924,9.435,20.0,2.0
200049,0.023,1.020,0.301,-78.405,22.115,16.924,16.0,2.0
200124,0.143,1.212,0.050,-8.038,-12.634,-20.992,16.0,3.0
200200,-0.186,0.914,0.256,-78.725,-33.672,-75.214,32.0,3.0
200286,-0.038,0.714,1.042,154.160,-11.282,-123.359,19.0,0.0
200373,-1.117,2.000,-0.363,14.802,-59.015,-151.298,30.0,0.0
200463,-0.945,0.260,0.004,141.985,-37.344,-154.924,36.0,0.0
200551,-1.105,1.711,-0.818,215.137,-92.275,-148.618,39.0,0.0
200639,-0.196,0.488,0.282,45.527,-71.511,-175.015,50.0,0.0
200724,-0.619,0.548,0.267,215.924,-52.405,-133.710,50.0,141.0
200818,-1.069,0.515,-0.126,214.840,38.611,-143.420,165.0,0.0
200912,-0.638,0.237,-0.126,-94.771,52.809,-113.802,162.0,0.0
201008,-0.817,-0.383,0.106,-66.359,31.786,-14.580,157.0,0.0
201101,-0.871,-0.123,-0.050,100.382,-30.870,81.771,153.0,0.0
201195,-0.960,0.366,-0.149,86.176,-44.076,46.450,149.0,0.0
201292,-0.565,0.348,0.019,-11.611,18.084,12.573,143.0,0.0
201384,-0.202,0.401,0.171,-11.412,36.649,18.641,134.0,0.0
201478,-1.027,0.492,0.039,-82.962,20.008,6.130,124.0,0.0
201569,-2.000,0.028,-0.542,-89.931,-35.198,95.290,112.0,0.0
201660,-1.084,0.126,-0.461,-44.328,5.191,199.374,100.0,0.0
201751,-0.064,-0.297,-0.270,-26.901,-26.107,93.321,94.0,0.0
201841,-0.460,-0.463,0.095,23.221,-88.366,-17.656,89.0,0.0
201945,-2.000,1.993,-0.334,222.809,-122.466,66.595,0.0,0.0
202041,-0.042,0.253,0.207,-1.374,-87.855,4.160,171.0,0.0
202130,0.457,0.012,0.234,138.053,-52.389,26.511,186.0,102.0
202225,0.222,0.272,0.119,11.824,-15.252,10.740,185.0,0.0
202320,-2.000,2.000,-0.332,-214.924,-33.878,-11.153,189.0,0.0
202416,-0.787,0.196,0.088,179.458,-71.618,71.389,186.0,0.0
202509,-0.145,0.185,-0.155,176.405,-46.733,4.618,163.0,0.0
202604,-0.117,0.013,-0.026,-65.985,-111.122,3.550,181.0,0.0
202698,-2.000,2.000,-0.215,168.466,-250.137,-32.962,179.0,0.0
202785,-0.317,1.648,-0.564,43.405,-89.084,71.366,50.0,0.0
202875,0.638,0.060,0.405,37.191,-124.733,-32.305,51.0,0.0
202962,0.456,0.551,0.193,3.992,-72.977,29.740,44.0,0.0
203056,-0.420,1.958,0.585,-249.313,-41.931,15.481,165.0,0.0
203152,-1.140,0.794,1.200,-155.389,-100.779,39.290,0.0,0.0
