Timestamp(ms),AccelX(g),AccelY(g),AccelZ(g),GyroX(deg/s),GyroY(deg/s),GyroZ(deg/s),DistanceLeft(cm),DistanceRight(cm)
230330,-0.375,0.437,0.703,51.771,10.733,-66.061,0.0,0.0
230415,-0.260,0.556,0.597,37.771,41.702,-4.924,51.0,0.0
230499,-0.122,0.711,0.317,-9.046,105.496,63.550,46.0,0.0
230582,-0.380,0.444,0.551,-93.985,14.176,99.779,42.0,171.0
230664,-1.046,0.438,0.550,20.229,-28.160,40.893,36.0,167.0
230748,-1.201,0.317,0.354,76.496,-40.893,-24.214,36.0,0.0
230842,-1.417,0.424,0.182,32.061,10.504,-36.443,0.0,0.0
230938,-1.193,0.210,0.363,-1.916,6.298,29.725,0.0,0.0
231031,-0.870,0.301,0.256,121.740,24.267,34.855,0.0,0.0
231126,-1.102,0.838,-0.048,-77.076,13.679,-8.298,0.0,0.0
231219,-1.106,0.353,0.233,46.053,4.786,33.634,0.0,0.0
231312,-0.930,0.606,0.252,26.237,-10.847,29.275,0.0,0.0
231406,-0.746,0.669,0.303,15.672,-29.366,13.076,0.0,0.0
231492,-0.735,0.528,0.432,9.947,-39.275,15.748,0.0,75.0
231579,-0.672,0.717,0.365,13.718,-37.740,13.496,0.0,71.0
231665,-0.394,1.063,0.306,36.366,-24.191,-3.130,0.0,70.0
231755,-0.369,0.936,0.289,17.076,-22.511,-0.511,0.0,82.0
231841,-0.387,1.022,0.226,0.160,-35.275,6.672,187.0,80.0
231931,-0.213,0.888,0.278,20.901,-38.656,11.840,194.0,130.0
232018,-0.175,0.640,0.331,-7.626,-29.473,-1.420,0.0,86.0
232104,-0.295,0.777,0.255,-2.985,-24.107,-5.069,186.0,83.0
232193,-0.424,0.825,0.265,-23.985,-17.695,-11.458,195.0,90.0
232279,-0.471,0.658,0.304,0.023,-10.519,-2.832,184.0,93.0
232366,-0.505,0.850,0.224,32.252,2.893,-12.252,197.0,83.0
232452,-0.616,0.572,0.314,19.931,2.779,-22.756,176.0,84.0
232542,-0.702,0.643,0.305,5.885,0.145,-38.580,191.0,82.0
232629,-0.775,0.680,0.307,10.947,0.908,-23.664,200.0,82.0
232716,-0.712,0.641,0.314,0.756,1.664,-23.038,194.0,85.0
232803,-0.809,0.737,0.322,30.702,-3.695,1.374,199.0,85.0
232890,-0.564,0.758,0.322,1.595,-3.977,-2.634,194.0,89.0
232977,-0.581,0.821,0.283,-0.191,-1.794,-4.618,0.0,80.0
233064,-0.737,0.744,0.186,-36.542,7.580,-25.802,0.0,80.0
233151,-0.717,0.541,0.302,62.450,-5.252,-13.015,0.0,80.0
233238,-0.770,0.596,0.215,16.351,-19.870,-13.809,195.0,81.0
233328,-0.946,0.591,0.219,15.305,-21.214,-8.664,194.0,81.0
233415,-0.815,0.537,0.279,-9.534,-14.687,-9.679,196.0,90.0
233509,-0.830,0.409,0.203,-5.397,-0.115,-17.427,197.0,0.0
233604,-0.820,0.379,0.241,-2.351,12.267,-35.099,0.0,0.0
233697,-0.956,0.313,0.274,22.939,12.405,-81.870,0.0,0.0
233791,-1.000,0.520,0.187,98.298,-2.916,-150.809,0.0,0.0
233880,-1.118,0.453,0.073,145.107,-38.962,-180.405,112.0,0.0
233974,-1.097,0.452,-0.077,110.580,-31.672,-132.779,200.0,0.0
234072,-0.998,0.242,0.059,42.481,-35.756,-57.160,0.0,0.0
234161,-0.910,0.219,0.074,74.603,-32.405,10.427,117.0,0.0
234255,-0.619,0.244,0.218,-18.450,-6.130,25.435,0.0,0.0
234345,-0.660,0.039,0.436,-68.695,13.153,29.168,141.0,0.0
234439,-0.662,-0.049,0.598,-11.565,3.740,25.420,0.0,0.0
234531,-0.853,0.139,0.570,15.244,-12.221,27.740,167.0,0.0
234621,-0.637,0.212,0.591,5.443,-15.237,23.733,128.0,0.0
234711,-0.840,0.498,0.214,-49.924,-19.450,12.595,117.0,0.0
234800,-0.933,0.149,-0.035,-147.466,-85.321,36.962,109.0,0.0
234892,-1.301,0.151,0.037,-15.389,-162.198,3.321,108.0,0.0
234979,-1.030,-0.010,0.445,64.817,-174.000,-1.267,77.0,0.0
235065,-0.580,0.298,1.064,55.099,-74.412,-68.985,68.0,0.0
235151,-0.197,0.064,2.000,-53.466,-2.176,-198.244,58.0,0.0
235236,-0.034,-0.698,1.783,176.137,-47.252,-214.198,60.0,181.0
235320,0.071,0.410,0.988,-47.885,-108.107,-94.504,71.0,138.0
235403,0.067,-0.109,0.618,-129.061,-104.855,-65.252,75.0,128.0
235486,0.166,-0.022,0.592,-50.160,-109.092,-81.168,82.0,122.0
235583,0.285,0.157,0.555,0.878,-98.763,-91.237,0.0,197.0
235665,0.487,0.294,0.676,26.397,-38.481,-61.115,78.0,110.0
235748,0.575,0.176,0.817,-60.412,-23.176,-33.618,95.0,108.0
235837,0.639,-0.241,0.805,4.153,-34.519,-17.260,0.0,107.0
235926,1.025,-0.073,0.719,76.756,-36.672,3.779,0.0,105.0
236014,0.728,0.150,0.687,-6.481,11.603,-9.107,0.0,104.0
236109,0.596,-0.093,0.853,-68.466,-17.328,8.137,0.0,107.0
236196,0.644,-0.171,0.801,-10.779,-11.733,40.504,0.0,109.0
236285,0.669,-0.230,0.734,-26.260,-13.412,40.496,0.0,114.0
236377,0.671,-0.299,0.741,-35.519,-12.443,48.679,0.0,118.0
236465,0.565,-0.351,0.702,-22.145,-19.947,52.954,0.0,124.0
236558,0.526,-0.406,0.633,-19.489,-19.847,83.489,0.0,196.0
236643,0.465,-0.529,0.595,-55.450,-15.000,117.603,64.0,0.0
236733,0.370,-0.810,0.560,-51.908,-23.954,124.725,0.0,142.0
236823,0.317,-1.000,0.453,-24.427,-22.382,118.298,0.0,141.0
236902,0.198,-1.069,0.353,-44.183,3.336,69.267,19.0,141.0
236982,0.075,-0.913,0.304,-33.656,12.947,45.511,18.0,140.0
237062,-0.027,-0.890,0.311,-0.191,4.260,42.779,23.0,140.0
237149,-0.052,-0.814,0.310,5.450,-13.901,50.198,0.0,140.0
237228,-0.108,-0.778,0.260,-13.412,-31.733,68.450,19.0,142.0
237307,-0.195,-0.902,0.250,7.534,-50.435,69.229,17.0,145.0
237387,-0.222,-0.894,0.304,33.420,-55.878,64.191,17.0,148.0
237467,-0.311,-0.935,0.454,2.115,-37.504,47.565,16.0,150.0
237547,-0.244,-0.976,0.485,14.588,-8.740,22.336,17.0,153.0
237629,-0.347,-0.810,0.451,24.145,13.962,8.710,16.0,175.0
237710,-0.417,-0.748,0.489,5.969,10.603,15.344,16.0,176.0
237796,-0.450,-0.712,0.480,5.206,4.099,22.282,16.0,194.0
237879,-0.435,-0.815,0.515,11.366,-16.053,10.252,22.0,0.0
237962,-0.421,-0.774,0.472,22.153,-22.824,5.718,20.0,0.0
238044,-0.386,-0.713,0.497,14.885,-21.328,9.328,17.0,186.0
238127,-0.407,-0.678,0.517,-5.969,-11.962,6.527,16.0,0.0
238210,-0.415,-0.731,0.566,-0.824,-10.214,-4.466,16.0,0.0
238292,-0.440,-0.810,0.611,8.733,-11.008,-13.000,21.0,0.0
238375,-0.357,-0.759,0.554,-27.015,-9.313,-18.328,19.0,0.0
238459,-0.253,-0.807,0.510,-48.985,3.542,-20.786,38.0,0.0
238543,-0.268,-0.899,0.439,-19.771,9.221,-23.969,21.0,160.0
238624,-0.304,-0.896,0.436,-13.221,5.458,-25.794,23.0,159.0
238705,-0.321,-0.787,0.434,21.649,-0.908,-10.450,24.0,159.0
238786,-0.266,-0.896,0.483,1.878,-0.160,-5.313,25.0,159.0
238867,-0.236,-0.863,0.439,-7.366,4.748,0.122,27.0,159.0
238948,-0.259,-0.785,0.402,1.305,4.809,5.145,23.0,159.0
239029,-0.251,-0.916,0.452,2.992,3.916,2.420,27.0,159.0
239111,-0.249,-0.867,0.433,-4.771,-0.275,2.206,25.0,159.0
239195,-0.232,-0.850,0.404,3.893,-0.389,2.153,27.0,159.0
239287,-0.236,-0.895,0.429,7.496,3.130,1.298,0.0,160.0
239368,-0.238,-0.912,0.445,9.656,3.695,0.183,25.0,159.0
239452,-0.183,-0.914,0.365,21.580,-0.282,5.695,33.0,198.0
239536,-0.065,-0.770,0.365,66.702,6.015,15.725,23.0,0.0
239619,-0.114,-0.751,0.487,80.031,26.359,18.679,24.0,0.0
239703,-0.184,-0.805,0.654,9.649,41.008,14.519,33.0,188.0
239787,-0.284,-0.643,0.666,127.557,45.771,10.603,30.0,0.0
239870,-0.440,-0.390,0.684,80.031,33.687,-13.511,28.0,0.0
239958,-0.609,-0.440,0.720,72.534,30.145,-6.771,29.0,0.0
240041,-0.648,-0.375,0.771,21.504,15.023,11.244,25.0,0.0
240124,-0.554,-0.437,0.823,42.687,-11.832,34.595,27.0,0.0
240208,-0.495,-0.304,0.718,23.809,-14.023,40.389,24.0,0.0
240292,-0.528,-0.471,0.747,-26.420,-9.763,10.298,23.0,0.0
240375,-0.596,-0.271,0.688,57.260,23.405,20.191,17.0,0.0
240459,-0.802,-0.055,0.691,-9.947,13.115,50.817,18.0,0.0
240542,-0.595,-0.276,0.707,-78.435,3.802,50.939,16.0,0.0
240625,-0.566,-0.564,0.825,-39.160,-18.534,12.252,20.0,0.0
240712,-0.469,-0.338,0.712,37.725,-11.115,-17.237,25.0,0.0
240796,-0.484,-0.218,0.862,37.313,-27.603,-25.626,25.0,0.0
240880,-0.395,-0.030,0.896,22.344,-45.267,6.351,27.0,0.0
240964,-0.344,-0.053,1.041,49.137,-90.473,13.427,26.0,0.0
241048,-0.264,0.022,0.868,67.702,-88.924,36.466,27.0,0.0
241132,-0.234,-0.184,0.916,34.198,-47.176,16.275,26.0,0.0
241217,-0.346,-0.041,0.933,27.664,-8.221,10.794,29.0,0.0
241300,-0.315,-0.013,0.930,80.626,-8.244,25.420,27.0,0.0
241384,-0.345,0.342,1.114,75.351,1.641,8.046,26.0,0.0
241472,-0.011,0.584,0.717,57.649,-15.137,19.092,36.0,0.0
241556,-0.071,0.417,0.972,-24.031,-13.626,2.519,22.0,0.0
241639,-0.103,0.070,0.940,37.550,-8.115,26.779,23.0,0.0
241723,0.020,0.584,0.806,70.015,-9.458,29.550,17.0,0.0
241806,-0.079,0.459,0.943,34.344,-1.122,26.504,17.0,0.0
241890,0.027,0.522,0.883,34.695,-2.534,25.015,16.0,0.0
241973,0.092,0.478,0.738,37.328,-7.679,35.176,17.0,0.0
242057,0.135,0.685,0.760,22.939,-17.489,31.924,16.0,0.0
242140,0.192,0.739,0.678,3.534,-13.351,33.916,17.0,0.0
242226,0.168,0.593,0.843,0.489,-10.840,19.237,13.0,0.0
242309,0.215,0.622,0.631,4.733,-4.595,17.863,11.0,0.0
242393,0.273,0.699,0.761,28.824,-15.176,16.198,10.0,0.0
242476,0.283,0.921,0.672,7.855,-11.183,22.435,7.0,0.0
242557,0.342,0.751,0.820,11.466,-6.847,22.565,8.0,0.0
242652,0.292,0.744,0.743,53.641,14.191,15.420,0.0,0.0
242746,0.215,0.737,0.730,93.221,35.626,26.053,0.0,0.0
242840,0.019,0.800,0.496,193.992,66.908,108.664,0.0,0.0
242933,-0.013,0.467,0.876,-120.496,42.450,63.962,0.0,0.0
243020,0.541,-0.173,0.528,-74.237,41.260,-44.359,13.0,0.0
243096,0.348,-0.041,-0.101,-37.954,182.244,-250.137,22.0,58.0
243190,-0.669,0.500,-0.044,-103.496,250.130,-250.137,0.0,0.0
243284,-1.516,0.763,1.397,-129.122,103.511,-87.809,0.0,0.0
243379,-0.669,0.399,0.401,-139.198,33.916,138.458,0.0,0.0
243464,-0.685,0.556,0.601,199.855,-10.206,165.947,51.0,0.0
243558,0.154,0.606,0.609,-4.275,2.038,181.947,0.0,0.0
243652,-0.659,2.000,0.011,39.137,34.313,205.992,0.0,0.0
243746,1.556,2.000,-0.361,125.611,51.076,250.130,0.0,0.0
243844,0.390,0.807,0.299,107.466,121.076,193.740,0.0,0.0
243929,0.614,0.162,0.677,-21.313,16.580,53.282,36.0,0.0
244015,0.862,0.777,0.085,87.649,-18.038,19.176,57.0,0.0
244101,0.887,0.612,0.196,-2.763,-10.626,47.489,68.0,0.0
244187,0.610,0.616,0.080,-48.427,-13.954,12.183,0.0,57.0
244273,1.041,0.541,0.037,30.290,-1.466,19.977,0.0,58.0
244359,0.934,0.389,0.155,-26.603,15.885,-6.061,0.0,57.0
244453,0.812,0.492,0.191,-22.908,18.298,-20.687,0.0,0.0
244539,0.755,0.700,0.085,68.878,23.244,-31.580,0.0,59.0
244631,0.829,0.794,0.121,-32.702,66.038,-33.344,0.0,0.0
244725,0.454,0.407,0.410,-136.802,81.847,-78.305,0.0,0.0
244819,0.320,0.900,0.597,33.969,55.443,-29.656,0.0,0.0
244914,0.387,0.781,0.544,1.031,35.450,-27.947,0.0,0.0
245008,0.309,0.723,0.559,19.031,5.237,-40.580,0.0,0.0
245102,0.222,0.941,0.386,83.008,1.229,-41.069,0.0,0.0
245196,0.257,0.947,0.419,10.870,-3.267,-36.214,0.0,0.0
245291,0.167,0.943,0.318,35.328,0.137,-15.557,0.0,0.0
245385,0.189,0.905,0.316,13.137,10.794,-19.954,0.0,0.0
245482,0.130,0.967,0.334,-5.321,20.588,-34.412,0.0,0.0
245576,0.012,1.108,0.347,-43.687,20.290,-36.458,0.0,0.0
245670,0.027,0.830,0.494,-14.809,9.969,0.336,0.0,0.0
245765,-0.018,0.892,0.482,1.405,2.504,0.565,0.0,0.0
245859,0.028,0.900,0.444,7.847,1.046,-2.863,0.0,0.0
245953,0.029,0.879,0.483,15.847,-5.863,-1.481,0.0,0.0
246047,0.030,0.921,0.397,34.893,-5.489,4.092,0.0,0.0
246141,-0.011,1.010,0.317,28.985,-6.534,10.710,0.0,0.0
246236,0.043,1.012,0.266,14.229,1.298,-2.191,0.0,0.0
246333,0.030,0.972,0.310,-9.298,8.061,-2.450,0.0,0.0
246427,-0.010,0.949,0.318,1.893,1.260,0.756,0.0,0.0
246521,0.043,0.961,0.309,2.863,0.061,-0.359,0.0,0.0
246616,0.026,0.958,0.323,-1.466,-0.076,-0.847,0.0,0.0
246710,0.041,0.948,0.318,-2.832,0.176,-0.672,0.0,0.0
246804,0.022,0.943,0.348,2.137,-0.137,-0.725,0.0,0.0
246898,0.025,0.949,0.328,2.168,0.313,-0.282,0.0,0.0
246992,0.023,0.958,0.336,1.962,0.489,0.389,0.0,0.0
247087,0.023,0.956,0.325,1.641,0.092,0.282,0.0,0.0
247186,0.021,0.952,0.326,1.977,0.160,-0.244,0.0,0.0
247282,0.033,0.965,0.314,3.969,0.130,-0.107,0.0,0.0
247375,0.016,0.958,0.328,2.008,0.237,-0.298,0.0,0.0
247469,0.022,0.961,0.326,1.344,0.191,0.000,0.0,0.0
247562,0.025,0.959,0.320,1.794,0.099,0.397,0.0,0.0
247655,0.020,0.955,0.317,1.374,0.122,-0.252,0.0,0.0
247748,0.021,0.954,0.326,2.229,-0.145,-0.046,0.0,0.0
247841,0.015,0.961,0.329,0.924,0.076,-0.328,0.0,0.0
247934,0.021,0.952,0.326,2.069,0.115,-0.031,0.0,0.0
248028,0.027,0.962,0.322,1.153,0.137,-0.305,0.0,0.0
248124,0.028,0.955,0.319,1.626,0.076,-0.336,0.0,0.0
248217,0.019,0.959,0.328,1.656,0.176,-0.160,0.0,0.0
248310,0.028,0.956,0.334,1.595,0.183,-0.122,0.0,0.0
248403,0.019,0.966,0.325,1.237,0.061,-0.198,0.0,0.0
248497,0.020,0.958,0.329,1.870,-0.008,-0.244,0.0,0.0
248591,0.020,0.957,0.329,1.336,0.183,-0.145,0.0,0.0
248684,0.024,0.964,0.323,2.427,0.206,0.130,0.0,0.0
248777,0.019,0.948,0.331,1.740,0.122,-0.069,0.0,0.0
248870,0.019,0.954,0.321,0.954,0.244,0.008,0.0,0.0
248964,0.021,0.954,0.319,1.481,0.298,-0.038,0.0,0.0
249060,0.025,0.962,0.331,1.557,0.214,-0.145,0.0,0.0
249153,0.020,0.960,0.325,1.511,0.053,0.008,0.0,0.0
249246,0.020,0.961,0.327,1.565,0.092,-0.252,0.0,0.0
249339,0.021,0.962,0.325,2.435,0.244,0.168,0.0,0.0
249433,0.021,0.950,0.318,1.260,0.183,-0.015,0.0,0.0
249526,0.021,0.963,0.330,1.504,0.160,-0.008,0.0,0.0
249620,0.017,0.954,0.330,2.069,0.061,0.084,0.0,0.0
249713,0.018,0.956,0.326,1.244,0.237,-0.008,0.0,0.0
249806,0.016,0.961,0.326,1.817,0.038,-0.015,0.0,0.0
249900,0.022,0.953,0.323,1.817,0.061,-0.031,0.0,0.0
249996,0.018,0.953,0.322,1.221,0.191,-0.191,0.0,0.0
250089,0.024,0.959,0.327,1.389,0.053,-0.038,0.0,0.0
250183,0.023,0.958,0.324,1.603,0.053,-0.183,0.0,0.0
250276,0.024,0.953,0.330,1.244,0.191,-0.023,0.0,0.0
250370,0.018,0.956,0.321,1.985,0.015,-0.015,0.0,0.0
250464,0.024,0.958,0.339,1.359,0.237,-0.237,0.0,0.0
250557,0.022,0.958,0.323,1.710,0.008,-0.008,0.0,0.0
250650,0.023,0.959,0.318,1.702,0.206,0.023,0.0,0.0
250743,0.014,0.956,0.335,1.260,0.206,0.115,0.0,0.0
250841,0.024,0.958,0.331,1.672,0.160,-0.061,0.0,0.0
250934,0.019,0.958,0.328,1.534,0.214,-0.069,0.0,0.0
251027,0.022,0.954,0.327,1.107,0.069,-0.145,0.0,0.0
251121,0.019,0.958,0.323,2.008,0.031,0.031,0.0,0.0
251214,0.017,0.957,0.330,1.527,0.099,0.023,0.0,0.0
251308,0.019,0.953,0.325,1.550,0.122,-0.031,0.0,0.0
251402,0.021,0.956,0.329,1.160,0.214,0.038,0.0,0.0
251495,0.018,0.958,0.320,0.580,0.305,-0.191,0.0,0.0
251588,0.017,0.959,0.332,1.794,0.206,0.359,0.0,0.0
251682,0.016,0.956,0.341,-0.046,1.412,1.794,0.0,0.0
251779,-0.001,0.944,0.409,2.931,-9.664,16.046,0.0,0.0
251872,0.103,0.969,0.396,-16.198,-8.107,37.878,0.0,0.0
251966,0.055,1.113,0.446,-75.855,-8.298,75.351,0.0,0.0
252060,0.298,0.955,0.795,-132.649,-52.534,91.420,0.0,0.0
252153,0.407,0.586,0.784,-101.099,-97.550,97.718,0.0,0.0
252238,0.522,0.430,0.547,-79.748,-117.107,86.290,0.0,50.0
252324,0.578,0.230,0.434,-103.641,-127.183,62.153,0.0,53.0
252410,0.770,0.093,0.287,-68.176,-126.137,47.573,0.0,57.0
252496,0.784,-0.087,0.104,-36.908,-117.458,41.573,0.0,60.0
252585,1.004,-0.020,-0.073,-66.649,-88.542,18.969,0.0,71.0
252680,1.094,0.047,-0.215,-66.427,-53.863,26.267,0.0,0.0
252770,0.998,-0.100,-0.279,-42.183,-34.107,22.985,0.0,130.0
252859,0.826,-0.110,-0.288,11.450,-30.244,17.405,0.0,128.0
252949,0.953,-0.200,-0.283,-33.382,-20.137,1.427,0.0,127.0
253039,0.971,-0.158,-0.295,-26.718,-3.702,-8.603,0.0,125.0
253128,0.959,-0.048,-0.302,-6.550,7.176,-7.397,0.0,124.0
253218,0.981,-0.023,-0.307,-31.176,7.527,-6.321,0.0,123.0
253307,1.013,0.052,-0.344,-11.916,10.870,0.435,0.0,123.0
253401,0.997,-0.027,-0.273,2.718,10.237,3.351,0.0,123.0
253490,0.972,-0.045,-0.216,0.084,5.962,-0.908,0.0,123.0
253580,0.990,-0.016,-0.247,3.641,-5.305,-6.794,0.0,123.0
253669,0.987,0.007,-0.270,9.481,-1.008,-1.672,0.0,123.0
253758,0.989,-0.058,-0.235,2.061,5.053,3.397,0.0,123.0
253848,1.004,-0.058,-0.224,0.153,0.511,0.626,0.0,123.0
253937,0.966,-0.028,-0.237,2.282,-4.389,0.947,0.0,123.0
254027,0.957,-0.070,-0.234,2.061,-7.420,0.954,0.0,123.0
254116,0.981,-0.090,-0.250,4.641,-6.977,-4.542,0.0,123.0
254210,0.981,-0.062,-0.261,-0.137,-1.695,-4.534,0.0,123.0
254299,0.971,-0.034,-0.265,-1.992,0.725,-2.351,0.0,122.0
254389,0.982,-0.031,-0.245,4.214,-1.344,-1.702,0.0,122.0
254478,0.979,-0.057,-0.273,6.038,-2.198,0.885,0.0,123.0
254568,0.962,-0.046,-0.281,1.099,2.954,2.046,0.0,123.0
254657,0.969,0.017,-0.315,-2.626,8.550,0.931,0.0,123.0
254747,0.993,-0.020,-0.252,7.817,7.023,-1.954,0.0,123.0
254836,0.996,-0.056,-0.206,9.145,1.023,-2.229,0.0,123.0
254926,0.984,-0.053,-0.218,-3.328,-0.458,2.313,0.0,123.0
255013,0.984,-0.057,-0.237,-3.282,-0.344,6.031,0.0,123.0
255104,0.981,-0.058,-0.257,-1.458,3.053,6.099,0.0,123.0
255193,0.975,-0.070,-0.236,-3.046,6.229,8.076,0.0,123.0
255283,0.984,-0.080,-0.238,-4.092,6.145,5.954,0.0,124.0
255372,0.976,-0.055,-0.250,4.000,9.115,5.626,0.0,124.0
255462,0.910,-0.096,-0.255,18.420,17.397,8.985,0.0,125.0
255552,0.892,-0.141,-0.238,15.092,40.725,7.649,0.0,126.0
255642,0.860,-0.077,-0.213,23.641,74.573,1.840,0.0,127.0
255739,1.034,-0.115,-0.027,18.656,129.153,6.099,0.0,0.0
255825,0.994,-0.082,0.179,54.092,184.168,12.908,0.0,60.0
255911,0.809,-0.051,0.502,59.374,175.084,-35.328,0.0,59.0
255998,0.469,-0.060,0.835,50.176,156.397,-68.664,0.0,65.0
256076,0.329,0.479,1.007,88.580,121.886,-53.855,50.0,61.0
256166,0.115,0.186,1.030,27.748,83.069,-62.206,0.0,139.0
256258,-0.007,0.268,1.032,1.885,56.122,-67.023,0.0,134.0
256348,0.039,0.379,0.947,-0.328,51.511,-51.939,0.0,134.0
256438,-0.219,0.249,1.249,34.359,25.977,-34.718,0.0,131.0
256531,-0.030,0.349,0.730,38.977,8.305,-35.351,0.0,131.0
256622,-0.100,0.491,1.042,32.611,-2.702,-20.351,0.0,131.0
256712,-0.197,0.358,0.910,7.458,-8.534,2.809,0.0,132.0
256806,-0.022,0.466,0.984,84.954,-6.305,14.275,0.0,0.0
256901,-0.041,0.753,0.674,113.992,-14.496,8.267,0.0,0.0
256995,-0.006,0.864,0.581,46.313,-6.298,6.237,0.0,0.0
257089,-0.022,0.824,0.590,-4.771,0.336,-1.969,0.0,0.0
257183,-0.034,0.744,0.673,-0.809,0.328,-0.588,0.0,0.0
257277,-0.029,0.782,0.625,6.008,-0.626,0.305,0.0,0.0
257375,-0.029,0.779,0.636,-0.237,0.351,-0.496,0.0,0.0
257469,-0.018,0.783,0.637,3.389,-0.160,0.069,0.0,0.0
257563,-0.034,0.780,0.634,0.550,0.137,-0.458,0.0,0.0
257657,-0.031,0.772,0.650,3.122,-0.092,0.084,0.0,0.0
257752,-0.026,0.774,0.646,1.107,0.023,-0.672,0.0,0.0
257846,-0.032,0.781,0.636,2.656,-0.176,-0.046,0.0,0.0
257940,-0.033,0.785,0.638,1.069,0.221,-0.153,0.0,0.0
258034,-0.030,0.786,0.634,2.237,0.122,0.244,0.0,0.0
258128,-0.034,0.781,0.637,1.740,0.145,-0.107,0.0,0.0
258223,-0.026,0.782,0.632,2.000,0.061,-0.053,0.0,0.0
258320,-0.028,0.785,0.634,1.298,0.099,-0.153,0.0,0.0
258414,-0.030,0.782,0.639,2.580,0.069,0.160,0.0,0.0
258508,-0.034,0.776,0.636,1.603,0.076,-0.221,0.0,0.0
258603,-0.030,0.782,0.638,1.855,0.099,-0.183,0.0,0.0
258697,-0.029,0.776,0.639,2.137,0.229,0.176,0.0,0.0
258791,-0.025,0.785,0.640,1.344,0.137,-0.076,0.0,0.0
258891,-0.024,0.779,0.638,1.763,0.191,0.107,0.0,0.0
258983,-0.025,0.779,0.639,1.588,0.275,0.260,0.0,0.0
259077,-0.031,0.776,0.634,1.214,0.137,0.008,0.0,0.0
259173,-0.028,0.786,0.635,1.397,0.176,-0.252,0.0,0.0
259266,-0.029,0.780,0.631,1.786,0.008,-0.092,0.0,0.0
259359,-0.029,0.778,0.639,1.237,0.237,-0.061,0.0,0.0
259452,-0.022,0.780,0.629,2.275,0.145,0.145,0.0,0.0
259546,-0.026,0.780,0.633,1.237,0.046,-0.206,0.0,0.0
259639,-0.030,0.781,0.633,1.748,0.115,0.061,0.0,0.0
259732,-0.029,0.785,0.627,1.153,0.420,-0.160,0.0,0.0
259825,-0.034,0.779,0.651,1.137,0.229,0.038,0.0,0.0
259918,-0.031,0.786,0.631,1.046,0.366,-0.435,0.0,0.0
260012,-0.028,0.781,0.634,1.489,0.137,0.038,0.0,0.0
260108,-0.026,0.783,0.632,0.885,0.275,-0.214,0.0,0.0
260201,-0.030,0.781,0.628,2.214,-0.031,0.061,0.0,0.0
260294,-0.023,0.781,0.646,1.443,0.221,-0.176,0.0,0.0
260388,-0.028,0.773,0.640,1.542,0.107,0.046,0.0,0.0
260482,-0.028,0.784,0.644,1.679,0.092,-0.061,0.0,0.0
260575,-0.023,0.774,0.637,1.214,0.183,0.023,0.0,0.0
260668,-0.028,0.786,0.633,1.893,0.053,0.107,0.0,0.0
260761,-0.032,0.776,0.645,1.588,0.099,0.153,0.0,0.0
260854,-0.027,0.785,0.634,0.863,0.336,-0.069,0.0,0.0
260951,-0.027,0.787,0.636,2.214,0.076,0.145,0.0,0.0
261044,-0.028,0.777,0.642,1.344,0.214,-0.191,0.0,0.0
261137,-0.033,0.787,0.638,1.863,0.084,-0.107,0.0,0.0
261231,-0.024,0.780,0.638,1.908,0.298,0.092,0.0,0.0
261324,-0.034,0.773,0.645,1.481,0.298,0.351,0.0,0.0
261417,-0.027,0.781,0.635,1.252,0.160,-0.336,0.0,0.0
261511,-0.020,0.774,0.644,1.947,0.069,0.061,0.0,0.0
261605,-0.030,0.783,0.634,1.206,0.313,-0.115,0.0,0.0
261698,-0.025,0.782,0.641,1.695,0.176,0.252,0.0,0.0
261791,-0.033,0.785,0.639,1.420,0.176,-0.122,0.0,0.0
261888,-0.029,0.786,0.640,1.595,0.061,-0.046,0.0,0.0
261981,-0.025,0.781,0.629,1.450,0.229,-0.038,0.0,0.0
262075,-0.035,0.778,0.643,1.229,0.267,0.168,0.0,0.0
262168,-0.028,0.779,0.644,1.275,0.160,-0.122,0.0,0.0
262261,-0.030,0.780,0.635,1.733,0.107,0.008,0.0,0.0
262355,-0.029,0.782,0.639,1.008,0.221,-0.168,0.0,0.0
262449,-0.031,0.777,0.639,1.855,0.214,0.038,0.0,0.0
262542,-0.034,0.780,0.632,0.977,0.275,-0.290,0.0,0.0
262636,-0.029,0.783,0.635,1.573,0.084,-0.053,0.0,0.0
262729,-0.026,0.783,0.631,1.702,0.260,-0.046,0.0,0.0
262825,-0.024,0.772,0.646,1.160,0.290,-0.115,0.0,0.0
262920,-0.029,0.789,0.629,1.992,0.107,-0.099,0.0,0.0
263013,-0.032,0.773,0.646,1.672,0.214,-0.046,0.0,0.0
263106,-0.022,0.785,0.633,0.656,0.374,-0.076,0.0,0.0
263200,-0.025,0.783,0.639,2.229,0.031,0.191,0.0,0.0
263293,-0.031,0.778,0.641,1.282,0.053,-0.206,0.0,0.0
263387,-0.035,0.780,0.634,1.840,0.191,0.053,0.0,0.0
263481,-0.026,0.771,0.630,1.725,0.153,0.115,0.0,0.0
263574,-0.031,0.773,0.646,1.008,0.466,0.214,0.0,0.0
263671,-0.026,0.785,0.644,1.282,0.145,-0.443,0.0,0.0
263764,-0.029,0.781,0.645,2.366,0.069,-0.008,0.0,0.0
263858,-0.032,0.781,0.642,0.725,0.366,0.008,0.0,0.0
263952,-0.031,0.780,0.640,2.252,0.122,0.115,0.0,0.0
264045,-0.028,0.776,0.634,1.321,0.153,-0.153,0.0,0.0
264139,-0.031,0.784,0.635,1.595,0.145,0.038,0.0,0.0
264232,-0.028,0.784,0.639,1.603,0.206,0.076,0.0,0.0
264326,-0.033,0.779,0.629,0.435,0.344,-0.069,0.0,0.0
264420,-0.029,0.779,0.628,1.977,0.191,0.000,0.0,0.0
264513,-0.029,0.780,0.637,1.496,0.183,-0.031,0.0,0.0
264610,-0.036,0.788,0.630,0.695,0.244,-0.115,0.0,0.0
264704,-0.031,0.778,0.635,2.496,-0.061,0.069,0.0,0.0
264798,-0.025,0.779,0.635,1.244,0.099,-0.382,0.0,0.0
264891,-0.028,0.787,0.636,1.588,-0.061,-0.122,0.0,0.0
264985,-0.029,0.778,0.637,1.763,0.015,-0.031,0.0,0.0
265079,-0.032,0.780,0.636,1.466,0.107,-0.191,0.0,0.0
265172,-0.026,0.775,0.647,3.023,-0.008,0.176,0.0,0.0
265267,-0.029,0.784,0.635,0.885,0.176,-0.252,0.0,0.0
265360,-0.025,0.779,0.632,2.275,-0.084,0.115,0.0,0.0
265457,-0.028,0.773,0.641,1.794,0.099,-0.023,0.0,0.0
265551,-0.030,0.785,0.630,1.718,0.130,-0.076,0.0,0.0
265645,-0.027,0.781,0.633,1.725,0.282,-0.084,0.0,0.0
265739,-0.025,0.782,0.643,1.725,0.160,-0.130,0.0,0.0
265832,-0.032,0.781,0.634,1.412,0.084,-0.061,0.0,0.0
265926,-0.030,0.770,0.638,2.427,0.099,0.191,0.0,0.0
266020,-0.029,0.776,0.634,0.687,0.382,-0.260,0.0,0.0
266114,-0.032,0.780,0.635,2.198,-0.023,0.046,0.0,0.0
266208,-0.037,0.783,0.643,1.511,0.244,0.420,0.0,0.0
266302,-0.074,0.840,0.704,0.321,-13.664,17.031,0.0,0.0
266398,-0.014,0.824,0.736,42.893,-39.840,74.038,0.0,0.0
266492,0.088,1.147,0.635,-105.962,-61.038,104.305,0.0,0.0
266587,0.349,0.617,0.911,-152.366,-122.298,114.886,0.0,0.0
266673,0.735,0.264,0.702,-112.824,-165.702,81.710,0.0,58.0
266759,0.917,0.078,0.381,-37.931,-133.527,30.313,0.0,57.0
266849,0.670,0.086,0.291,-41.656,-80.420,-1.740,0.0,131.0
266939,0.684,0.124,0.216,-5.557,-86.962,-1.725,0.0,130.0
267029,0.794,0.198,-0.002,-6.427,-94.763,19.534,0.0,128.0
267119,0.914,0.109,-0.206,-7.481,-87.557,31.534,0.0,80.0
267209,0.950,-0.039,-0.263,5.870,-71.435,26.344,0.0,127.0
267299,0.965,-0.045,-0.408,30.458,-56.420,21.122,0.0,128.0
267389,0.958,-0.147,-0.400,14.473,-33.031,7.924,0.0,127.0
267480,0.938,-0.121,-0.418,2.374,-9.611,1.481,0.0,127.0
267570,0.891,-0.095,-0.369,1.718,0.870,0.214,0.0,126.0
267659,0.925,-0.116,-0.379,-1.450,2.756,-1.031,0.0,126.0
267749,0.972,-0.049,-0.423,15.069,5.672,-4.336,0.0,127.0
267843,0.943,-0.019,-0.399,27.672,13.023,8.221,0.0,0.0
267940,1.023,0.020,-0.404,65.160,21.328,35.802,0.0,0.0
268035,1.133,-0.065,-0.333,145.886,36.397,71.351,0.0,0.0
268129,0.897,-0.097,-0.204,65.160,72.053,93.641,0.0,0.0
268223,0.839,-0.332,0.073,135.702,74.672,125.817,0.0,0.0
268317,0.720,-0.525,0.290,112.275,75.847,138.634,0.0,0.0
268411,0.356,-0.595,0.402,67.435,79.275,106.427,0.0,0.0
268496,0.125,-0.780,0.628,105.366,69.573,59.870,44.0,0.0
268582,0.009,-0.646,0.788,135.214,82.076,8.863,45.0,0.0
268667,-0.476,-0.527,0.940,44.137,79.611,-23.832,44.0,0.0
268755,-0.463,-0.666,0.941,62.038,16.321,15.435,45.0,0.0
268850,-0.317,-0.403,0.851,63.130,14.504,65.603,0.0,0.0
268945,-0.055,-0.331,0.951,-10.893,11.733,65.435,0.0,0.0
269039,0.032,-0.222,0.953,-41.763,31.092,36.198,0.0,0.0
269125,-0.166,-0.188,0.860,-46.244,36.779,40.924,62.0,0.0
269211,-0.304,-0.111,0.830,-40.107,40.863,48.107,57.0,0.0
269297,-0.533,-0.194,0.726,-43.702,20.603,39.107,59.0,0.0
269382,-0.607,-0.518,0.770,33.237,-35.550,31.466,36.0,0.0
269468,-0.491,-0.362,0.754,103.695,-29.809,15.802,57.0,0.0
269556,-0.243,-0.384,0.914,72.206,0.412,11.740,57.0,172.0
269642,-0.170,-0.255,0.891,30.786,13.626,15.405,58.0,198.0
269736,-0.271,-0.083,1.005,77.771,36.534,23.168,0.0,197.0
269831,-0.665,0.090,1.091,113.588,29.786,1.824,0.0,188.0
269918,-0.833,0.247,0.827,58.534,10.779,-11.832,0.0,72.0
270010,-0.645,0.165,0.751,-42.656,22.382,-34.214,0.0,160.0
270102,-0.870,-0.604,1.054,23.031,-30.023,-18.168,0.0,160.0
270193,-0.514,0.464,0.370,110.557,17.885,21.809,0.0,152.0
270286,-0.643,0.592,0.318,-249.947,111.557,-0.107,0.0,171.0
270376,-0.483,0.170,0.795,-86.176,94.405,45.122,68.0,0.0
270461,-0.690,0.484,0.891,25.443,66.565,-17.221,50.0,174.0
270556,-1.482,0.172,0.757,-49.252,51.519,84.237,0.0,200.0
270646,-0.984,0.322,0.299,-109.473,57.931,150.099,40.0,187.0
270736,-0.942,0.145,0.253,-93.618,20.527,138.855,0.0,147.0
270826,-1.314,0.202,0.274,-93.740,-11.275,92.817,0.0,147.0
270908,-0.800,0.361,0.104,-104.191,-5.420,120.725,38.0,148.0
270989,-0.631,0.507,0.174,-122.550,9.023,116.931,39.0,151.0
271074,-0.436,0.640,0.391,-97.168,43.809,91.313,38.0,155.0
271166,-0.738,0.683,0.575,-104.611,53.420,87.519,0.0,185.0
271259,-0.360,0.466,0.571,-60.550,5.031,51.511,0.0,191.0
271352,-0.285,0.698,0.529,-86.702,15.947,42.824,0.0,0.0
271446,-0.443,0.459,0.739,-63.679,12.023,13.519,0.0,0.0
271540,-0.481,0.412,0.754,-62.855,-4.992,3.786,0.0,0.0
271633,-0.520,0.249,0.802,-37.198,5.618,26.916,0.0,0.0
271726,-0.569,0.077,0.795,-50.023,6.695,30.809,0.0,0.0
271819,-0.530,0.056,0.797,-30.656,12.000,27.939,0.0,0.0
271916,-0.539,0.093,0.800,-25.008,12.046,23.954,0.0,0.0
272010,-0.438,-0.061,0.684,23.168,23.962,33.229,0.0,0.0
272103,-0.322,-0.004,0.457,106.252,68.122,31.382,0.0,0.0
272196,-0.543,0.393,-0.031,250.130,131.374,-10.137,0.0,0.0
272290,-1.565,0.465,0.121,176.901,81.985,-139.305,0.0,0.0
272384,-1.689,0.185,-0.330,250.130,28.626,-57.015,0.0,0.0
272478,-1.447,0.246,-0.434,132.435,-59.679,-60.153,0.0,0.0
272571,-2.000,-0.820,-0.197,117.298,-154.298,-139.687,0.0,0.0
272664,-1.818,0.395,-0.373,250.130,-249.008,-203.779,0.0,0.0
272759,-0.721,0.680,-0.427,170.863,-210.290,-60.290,0.0,166.0
272851,-0.469,0.457,-0.238,-46.328,-119.809,-26.962,0.0,167.0
272945,-0.517,0.111,0.160,5.695,-90.473,89.794,0.0,0.0
273037,-0.306,-0.363,0.252,-20.290,-94.374,159.015,0.0,175.0
273125,-0.529,-0.545,0.671,90.924,-139.641,197.061,107.0,0.0
273210,0.838,-0.027,1.863,-141.359,-60.221,37.763,60.0,189.0
273295,0.973,-1.566,1.256,-250.137,-87.695,125.046,36.0,0.0
273378,1.038,-1.436,0.469,-43.053,-12.580,122.756,28.0,190.0
273465,0.432,-0.786,-0.058,82.099,-2.557,-11.458,27.0,0.0
273547,0.304,-0.418,-0.016,-26.885,-2.511,-142.672,30.0,160.0
273631,0.320,-0.266,0.598,-82.053,65.252,-136.542,30.0,0.0
273715,0.060,-0.107,1.200,-93.046,100.130,-103.672,33.0,0.0
273796,0.265,-0.493,0.656,-250.137,101.450,-70.840,33.0,149.0
273878,0.243,-2.000,0.704,-26.992,-12.840,6.244,45.0,150.0
273960,0.174,-0.777,-0.109,212.473,-66.786,52.267,51.0,150.0
274041,0.120,-0.577,0.013,-91.695,-58.550,43.885,30.0,150.0
274125,0.279,-1.228,0.332,-31.511,-27.542,15.168,28.0,151.0
274207,0.339,-0.832,0.204,28.557,-45.618,-24.527,27.0,152.0
274288,0.382,-0.898,0.249,-16.931,-40.710,-23.466,29.0,153.0
274369,0.621,-0.944,0.313,19.260,-14.328,-6.076,23.0,154.0
274461,0.522,-0.871,0.276,-6.748,-4.038,-4.916,0.0,154.0
274541,0.364,-0.779,0.244,15.916,3.779,1.496,16.0,154.0
274632,0.369,-0.869,0.278,-6.817,2.672,9.336,0.0,154.0
274713,0.355,-0.942,0.297,2.634,1.267,11.466,23.0,154.0
274804,0.368,-0.913,0.285,8.695,-1.160,1.397,0.0,155.0
274888,0.401,-0.877,0.233,-5.046,6.382,-1.809,17.0,154.0
274969,0.585,-0.917,0.087,25.618,14.313,17.458,24.0,154.0
275050,0.269,-1.073,-0.344,147.794,-6.115,69.313,13.0,155.0
275133,0.509,-0.747,0.322,162.672,37.573,43.908,8.0,0.0
275227,0.144,-0.633,1.023,46.832,49.611,-15.557,0.0,0.0
275311,0.018,-0.230,0.986,90.534,80.733,-21.221,29.0,0.0
275395,-0.322,0.143,1.010,-5.191,31.656,12.252,30.0,0.0
275479,-0.117,-0.513,0.968,7.840,-16.214,69.496,38.0,0.0
275564,0.077,-0.591,0.784,-26.031,-17.206,86.130,30.0,0.0
275652,0.211,-0.681,0.751,19.672,-29.122,114.290,44.0,0.0
275736,-0.013,-0.227,0.709,73.282,-31.000,141.237,28.0,0.0
275820,-0.189,-0.173,0.820,46.550,12.153,148.992,28.0,0.0
275904,-0.662,-0.085,0.962,-38.344,18.542,98.160,27.0,0.0
275988,-0.723,-0.317,0.970,-5.153,-4.053,48.496,29.0,0.0
276072,-0.847,-0.344,1.055,34.794,-8.954,19.038,24.0,0.0
276156,-0.487,-0.225,0.812,40.817,12.870,20.420,24.0,0.0
276240,-0.425,-0.241,0.957,55.183,8.718,1.260,24.0,0.0
276324,-0.382,0.099,0.831,80.496,-10.206,-0.725,25.0,0.0
276411,-0.398,0.118,0.915,3.473,-6.992,-0.649,24.0,0.0
276495,-0.404,-0.021,0.973,1.573,0.885,-1.893,27.0,0.0
276579,-0.401,0.065,0.890,8.076,4.817,-1.412,25.0,0.0
276662,-0.407,0.043,0.895,-1.573,4.580,-0.427,26.0,0.0
276746,-0.390,-0.010,0.878,20.588,-0.588,-2.450,24.0,0.0
276830,-0.446,0.076,0.901,36.061,-1.962,-1.977,25.0,0.0
276914,-0.404,0.140,0.945,24.534,-0.733,0.939,29.0,0.0
276999,-0.402,0.117,0.925,-9.504,5.595,0.092,30.0,0.0
277083,-0.429,0.118,0.889,-5.756,0.443,0.046,30.0,0.0
277170,-0.458,0.148,0.896,3.137,-1.580,0.214,27.0,0.0
277254,-0.407,0.083,0.936,-7.206,0.099,8.221,29.0,0.0
277338,-0.242,0.098,1.077,-49.794,-7.992,23.687,24.0,0.0
277422,-0.231,0.069,0.813,-49.336,-29.779,65.588,25.0,0.0
277506,-0.341,-0.034,0.763,-87.702,-27.794,63.122,29.0,0.0
277591,-0.422,-0.360,1.007,-23.160,-23.519,52.802,36.0,0.0
277676,-0.390,0.023,0.968,92.969,20.580,55.618,34.0,0.0
277760,-0.414,0.406,0.792,57.328,-6.015,50.374,17.0,0.0
277842,-0.301,0.446,1.077,35.351,10.206,29.511,18.0,0.0
277931,-0.211,0.457,0.911,43.656,7.893,13.336,43.0,0.0
278016,-0.278,0.077,0.939,52.076,22.443,-8.260,37.0,0.0
278110,-0.334,0.385,0.895,12.656,25.580,-13.176,0.0,0.0
278196,-0.354,0.695,0.678,14.511,23.107,-25.267,61.0,0.0
278282,-0.407,0.615,0.692,38.412,8.557,-20.527,45.0,0.0
278367,-0.410,0.401,0.823,31.313,2.206,-25.397,44.0,0.0
278452,-0.465,0.513,0.636,15.382,-0.542,-21.145,44.0,0.0
278537,-0.393,0.344,0.633,8.916,-4.389,-3.053,44.0,0.0
278631,-0.555,0.451,0.788,19.756,-19.015,2.359,45.0,0.0
278718,-0.444,0.540,0.819,-2.924,-1.496,-0.153,45.0,0.0
278803,-0.530,0.563,0.702,3.603,3.420,-0.504,44.0,0.0
278887,-0.492,0.509,0.776,8.229,-3.015,0.130,45.0,0.0
278972,-0.463,0.559,0.767,-5.366,5.565,-6.366,44.0,0.0
279056,-0.484,0.446,0.766,-6.954,5.916,-6.870,43.0,0.0
279141,-0.468,0.419,0.684,1.519,0.679,-4.145,43.0,0.0
279225,-0.434,0.485,0.720,14.954,-4.969,-2.817,45.0,0.0
279310,-0.449,0.460,0.742,5.489,-3.435,-2.489,44.0,0.0
279394,-0.437,0.506,0.731,4.832,-1.183,-3.702,44.0,0.0
279481,-0.495,0.538,0.727,4.168,-0.076,-9.924,44.0,0.0
279566,-0.538,0.487,0.725,11.115,0.603,-10.954,45.0,0.0
279650,-0.456,0.315,0.829,7.893,5.534,-13.046,43.0,0.0
279735,-0.375,0.379,0.708,-5.954,-8.573,0.076,44.0,0.0
279819,-0.572,0.460,0.790,-12.366,-16.908,-2.679,43.0,0.0
279904,-0.457,0.211,0.963,-20.908,-5.382,0.725,36.0,0.0
279988,-0.441,0.379,0.896,-30.206,-1.015,-6.069,45.0,0.0
280073,-0.638,0.232,0.769,-13.176,-17.679,8.519,41.0,0.0
280157,-0.392,0.470,0.770,-55.237,-34.550,11.496,34.0,0.0
280243,-0.374,0.185,1.000,-80.962,-18.908,-12.771,30.0,0.0
280327,-0.301,0.067,1.162,-14.313,14.000,-9.359,28.0,0.0
280411,-0.362,0.040,0.852,-32.435,16.817,-12.588,28.0,0.0
280495,-0.365,0.101,0.881,-19.229,17.061,-10.412,25.0,0.0
280579,-0.451,0.060,0.888,-22.634,12.443,-5.740,33.0,0.0
280672,-0.428,0.039,0.891,-12.847,10.885,-4.550,0.0,0.0
280756,-0.399,0.121,0.792,-2.076,0.008,-1.298,36.0,0.0
280840,-0.528,0.154,0.848,-3.076,-8.427,7.687,29.0,0.0
280924,-0.419,-0.014,0.957,2.374,1.214,0.107,29.0,0.0
281020,-0.404,0.063,0.910,-21.481,4.145,3.527,0.0,0.0
281104,-0.458,-0.036,0.903,5.191,3.649,3.290,30.0,0.0
281188,-0.451,-0.111,0.905,-3.962,0.260,0.618,28.0,0.0
281272,-0.448,0.042,0.879,-5.458,-2.992,0.015,29.0,0.0
281355,-0.434,-0.065,0.891,-3.840,-3.344,2.802,28.0,0.0
281449,-0.421,0.002,0.880,-9.168,-2.763,6.000,0.0,0.0
281532,-0.420,-0.032,0.885,2.985,-1.634,4.145,25.0,0.0
281616,-0.424,-0.061,0.864,4.702,-3.847,4.824,25.0,0.0
281700,-0.435,-0.070,0.898,16.565,-6.557,4.183,28.0,0.0
281804,-0.349,0.047,0.973,-3.901,-8.412,-0.160,0.0,0.0
281901,-0.409,-0.028,0.911,-11.267,0.260,-4.405,0.0,0.0
281987,-0.374,-0.044,0.840,-21.702,6.565,-7.458,28.0,0.0
282073,-0.319,-0.105,0.956,-3.107,7.015,-11.366,23.0,0.0
282169,-0.494,-0.203,0.903,-6.489,1.611,-6.748,0.0,0.0
282255,-0.457,-0.144,0.988,-10.420,12.595,-9.534,25.0,0.0
282340,-0.425,-0.117,0.896,-29.435,26.092,-7.420,17.0,0.0
282426,-0.474,-0.207,0.859,-46.847,25.298,1.450,17.0,0.0
282511,-0.513,-0.303,0.773,-34.427,21.695,1.405,8.0,0.0
282599,-0.577,-0.354,0.745,-4.985,14.740,-1.023,7.0,0.0
282684,-0.535,-0.298,0.740,-12.176,7.557,-1.168,4.0,0.0
282769,-0.521,-0.322,0.742,-1.924,3.855,-3.115,5.0,0.0
282854,-0.561,-0.326,0.754,8.458,-0.679,-5.382,5.0,0.0
282939,-0.536,-0.341,0.773,8.290,0.656,-2.824,4.0,0.0
283024,-0.538,-0.334,0.758,4.321,2.382,0.153,4.0,0.0
283109,-0.562,-0.320,0.746,2.359,0.008,-1.237,4.0,0.0
283194,-0.540,-0.326,0.751,6.481,-2.763,-2.176,4.0,0.0
283279,-0.530,-0.323,0.766,9.450,-4.008,-2.847,4.0,0.0
283367,-0.532,-0.313,0.793,6.038,-1.733,-1.282,4.0,0.0
283452,-0.527,-0.314,0.784,2.656,-0.076,-1.069,4.0,0.0
283537,-0.537,-0.297,0.779,9.962,-0.763,-1.252,4.0,0.0
283622,-0.520,-0.309,0.784,7.084,-1.947,-2.466,4.0,0.0
283707,-0.510,-0.287,0.806,3.015,-1.008,-3.351,4.0,0.0
283792,-0.522,-0.287,0.783,3.382,0.351,-3.466,4.0,0.0
283877,-0.526,-0.294,0.782,7.137,-0.427,-4.244,4.0,0.0
283962,-0.529,-0.243,0.815,10.725,0.603,-10.313,3.0,0.0
