Timestamp(ms),AccelX(g),AccelY(g),AccelZ(g),GyroX(deg/s),GyroY(deg/s),GyroZ(deg/s),DistanceLeft(cm),DistanceRight(cm)
290250,-0.273,-0.055,0.968,13.427,10.137,6.206,39.0,0.0
290334,-0.303,0.036,0.917,-0.038,6.527,6.481,38.0,0.0
290418,-0.268,0.054,0.906,21.023,4.565,7.374,41.0,0.0
290502,-0.286,0.031,0.957,14.458,3.527,13.473,37.0,0.0
290587,-0.312,0.070,0.961,0.153,2.305,15.099,41.0,0.0
290671,-0.295,0.129,0.921,14.550,-0.382,18.183,42.0,0.0
290755,-0.281,-0.038,0.906,38.542,1.550,17.656,38.0,0.0
290840,-0.319,-0.116,0.822,67.626,17.725,-5.382,45.0,0.0
290937,-0.450,0.341,0.633,143.328,53.313,-60.344,0.0,0.0
291031,-0.703,0.456,0.462,244.817,80.786,-72.511,0.0,0.0
291124,-0.656,0.785,0.158,202.351,85.886,-73.901,0.0,0.0
291218,-0.850,0.784,0.033,108.733,52.595,-110.229,0.0,0.0
291311,-0.955,0.635,0.025,58.489,13.053,-87.405,0.0,186.0
291403,-0.948,0.438,-0.009,113.435,-11.122,-43.847,0.0,183.0
291496,-0.935,0.437,-0.128,113.832,-24.466,-16.573,0.0,182.0
291590,-0.996,0.326,-0.142,71.053,-39.641,6.221,0.0,184.0
291687,-0.995,0.330,-0.191,72.603,-38.115,29.527,0.0,0.0
291781,-0.940,0.286,-0.190,67.244,-41.824,30.183,0.0,0.0
291874,-0.898,0.324,-0.173,76.817,-56.305,10.115,0.0,0.0
291966,-1.149,0.459,0.145,51.794,-38.435,15.786,0.0,167.0
292061,-1.165,0.507,0.655,-113.886,-114.435,6.542,0.0,0.0
292152,-0.535,0.303,-0.056,206.069,-178.748,90.069,0.0,159.0
292246,-0.425,0.574,-0.322,2.260,-129.847,75.122,0.0,0.0
292340,-0.424,0.440,-0.007,57.718,-39.939,76.443,0.0,0.0
292433,-0.426,0.927,0.080,89.641,44.176,0.763,190.0,0.0
292527,-0.617,1.234,0.388,-63.000,102.458,-28.733,0.0,141.0
292610,-0.896,0.800,0.459,-168.557,75.985,-29.878,51.0,139.0
292691,-1.163,0.821,0.304,-89.466,-56.221,-63.290,50.0,137.0
292772,-1.316,0.952,0.105,-125.137,-239.092,-106.908,47.0,136.0
292864,-0.724,0.825,0.380,174.359,-250.137,41.695,0.0,134.0
292954,0.941,1.463,0.938,-64.069,-102.015,2.534,0.0,135.0
293045,1.067,0.688,1.012,-250.137,-19.481,-46.565,0.0,149.0
293132,0.522,-0.260,0.460,-250.137,-17.565,-29.641,74.0,0.0
293221,0.592,-0.563,0.238,-194.756,-52.427,-58.405,65.0,0.0
293304,0.626,-0.573,0.118,-71.771,-52.611,-64.504,44.0,148.0
293387,0.572,-0.671,0.022,-83.092,-59.672,-40.099,69.0,147.0
293468,0.503,-0.851,0.167,-56.931,-68.656,27.702,36.0,137.0
293550,0.544,-0.841,0.340,-28.603,-59.481,33.672,34.0,156.0
293630,0.514,-0.744,0.424,-31.679,-36.954,8.008,31.0,136.0
293711,0.477,-0.835,0.397,23.656,-38.649,-7.443,31.0,139.0
293793,0.495,-0.617,0.289,36.260,-28.855,-25.855,31.0,150.0
293885,0.821,-0.888,0.413,-67.977,-2.740,-9.687,0.0,167.0
293969,0.784,-0.965,0.252,76.504,-11.573,26.824,30.0,145.0
294051,0.531,-0.642,0.197,-2.168,-18.237,48.031,28.0,145.0
294141,0.647,-1.002,0.288,-39.786,1.450,62.725,0.0,144.0
294222,0.709,-0.925,0.192,12.954,51.252,100.198,29.0,142.0
294313,0.520,-0.845,0.137,-4.366,78.160,104.435,0.0,141.0
294405,0.383,-0.816,0.170,15.702,34.206,87.847,0.0,140.0
294484,0.183,-0.626,0.238,16.908,-26.908,99.618,20.0,141.0
294565,0.040,-0.626,0.279,64.244,-60.878,102.992,24.0,144.0
294653,-0.089,-0.500,0.441,121.924,-59.290,93.733,37.0,0.0
294738,-0.367,-0.359,0.735,73.229,-2.595,67.366,33.0,0.0
294823,-0.807,-0.574,1.103,62.794,-7.267,36.389,36.0,0.0
294908,-0.870,-0.367,0.976,153.840,-32.267,27.939,48.0,0.0
294993,-0.598,0.052,0.914,60.672,-41.122,62.603,36.0,0.0
295077,-0.373,-0.226,1.065,33.496,-41.588,63.053,16.0,0.0
295161,-0.384,0.071,0.904,-19.145,-25.344,46.542,16.0,0.0
295244,-0.325,-0.199,0.826,-4.511,-19.221,28.450,17.0,0.0
295329,-0.462,-0.080,0.737,22.947,4.298,4.824,30.0,0.0
295416,-0.638,-0.022,0.704,24.496,4.679,15.519,27.0,0.0
295500,-0.421,-0.054,0.586,62.076,49.435,54.824,23.0,0.0
295590,-0.384,-0.865,1.635,132.031,-57.336,27.740,23.0,0.0
295673,-0.337,-0.192,1.177,-37.115,-8.107,18.382,25.0,0.0
295756,-0.481,0.023,1.058,-14.473,15.298,37.954,29.0,0.0
295849,-0.305,0.471,0.737,14.885,20.756,46.450,0.0,0.0
295943,-0.433,0.196,0.757,38.542,-17.084,40.405,0.0,0.0
296027,-0.223,0.196,0.863,21.794,-43.137,48.168,41.0,0.0
296111,-0.155,0.313,1.033,54.893,-47.305,50.595,30.0,0.0
296196,0.139,0.480,0.797,52.252,-2.504,48.160,36.0,188.0
296279,-0.135,0.485,0.794,33.122,5.550,51.412,31.0,186.0
296361,-0.080,0.358,0.949,-10.382,0.153,58.206,28.0,185.0
296443,-0.062,0.405,0.823,18.527,-3.115,48.420,25.0,185.0
296525,-0.018,0.363,0.817,18.962,-7.847,57.405,23.0,185.0
296607,-0.018,0.454,0.854,-2.107,-16.206,85.931,22.0,186.0
296691,0.132,0.505,0.980,-8.847,-4.031,74.015,21.0,0.0
296773,0.233,0.196,0.979,11.420,-3.458,76.206,18.0,0.0
296856,0.369,0.343,0.978,39.710,-15.664,56.794,18.0,0.0
296942,0.258,0.399,0.808,-6.794,9.748,40.374,22.0,0.0
297024,0.426,0.366,0.673,1.122,-11.786,37.901,16.0,0.0
297107,0.573,0.751,0.455,78.176,-10.802,9.076,18.0,0.0
297191,0.350,0.351,0.693,13.313,-21.046,26.863,31.0,0.0
297274,0.353,0.574,0.870,32.153,-0.519,50.740,23.0,0.0
297357,0.467,0.283,0.872,17.947,11.328,43.977,25.0,0.0
297442,0.312,0.650,0.543,28.176,-13.748,63.405,47.0,0.0
297535,0.702,0.409,0.737,46.603,-34.145,63.878,0.0,0.0
297628,0.582,0.284,0.688,46.489,-43.198,70.405,0.0,0.0
297724,0.604,0.448,0.601,37.656,-33.061,82.878,0.0,0.0
297800,1.045,0.476,0.508,53.702,-16.748,48.779,52.0,57.0
297885,1.089,0.288,0.692,69.931,20.939,-32.397,57.0,0.0
297979,-0.955,0.904,0.853,202.290,99.863,50.069,0.0,0.0
298061,0.227,0.547,0.617,-45.885,-50.397,178.160,0.0,16.0
298139,1.717,-0.283,0.390,14.267,35.229,183.107,64.0,60.0
298217,0.953,-0.491,0.135,-141.672,-32.504,131.122,64.0,69.0
298296,0.910,-0.488,0.178,65.550,-17.924,112.427,68.0,76.0
298382,1.521,-0.125,-0.087,32.328,-57.405,117.427,70.0,0.0
298470,1.007,-0.290,0.003,52.565,-14.473,143.634,44.0,0.0
298555,0.395,-0.187,0.035,94.496,29.389,165.534,59.0,0.0
298640,0.161,-0.290,0.181,105.260,74.725,185.344,51.0,0.0
298724,-0.071,-0.360,0.443,98.824,122.168,158.290,39.0,0.0
298808,-0.674,-0.931,0.761,27.229,129.679,115.718,30.0,0.0
298901,-0.922,-0.724,0.925,64.710,116.947,45.595,0.0,0.0
298985,-1.042,-0.445,0.834,132.672,52.893,9.290,16.0,0.0
299074,-0.704,-0.164,0.680,105.443,34.863,22.053,122.0,0.0
299170,-0.730,-0.121,0.672,16.855,46.542,38.130,0.0,0.0
299251,-0.690,-0.010,0.642,23.603,28.176,22.634,136.0,23.0
299330,-0.924,-0.112,0.784,-4.260,17.160,0.489,119.0,19.0
299409,-0.745,-0.167,0.780,-29.191,-3.130,-8.687,118.0,20.0
299488,-0.699,-0.032,0.623,-42.122,2.771,-10.847,118.0,20.0
299576,-0.681,-0.247,0.671,-72.458,2.489,-11.405,116.0,0.0
299665,-0.654,-0.492,0.715,-28.435,0.824,-6.649,115.0,0.0
299754,-0.680,-0.333,0.592,-3.977,-1.656,0.947,115.0,0.0
299838,-0.680,-0.311,0.652,16.382,-3.725,4.107,17.0,0.0
299924,-0.676,-0.281,0.666,4.176,-1.656,1.664,17.0,0.0
300007,-0.673,-0.290,0.654,1.740,0.015,-0.130,17.0,0.0
300096,-0.681,-0.296,0.653,-0.626,-0.053,-1.672,114.0,0.0
300179,-0.684,-0.296,0.654,0.725,-0.191,-0.756,17.0,0.0
300262,-0.675,-0.301,0.651,2.244,-0.328,-0.359,17.0,0.0
300346,-0.676,-0.305,0.665,1.435,0.374,0.038,17.0,0.0
300429,-0.678,-0.301,0.646,0.176,0.931,-0.023,17.0,0.0
300512,-0.683,-0.300,0.647,1.740,0.496,0.076,17.0,0.0
300601,-0.678,-0.307,0.662,0.878,0.656,-0.244,115.0,0.0
300693,-0.679,-0.292,0.653,3.870,0.504,0.382,115.0,0.0
300781,-0.679,-0.301,0.647,0.687,0.947,-0.405,115.0,0.0
300865,-0.679,-0.302,0.645,0.893,0.435,-0.389,16.0,0.0
300948,-0.682,-0.307,0.646,2.260,-0.260,0.282,16.0,0.0
301037,-0.681,-0.300,0.661,1.412,0.359,0.176,115.0,0.0
301120,-0.684,-0.310,0.641,1.534,-0.122,-0.122,16.0,0.0
301209,-0.683,-0.297,0.651,2.733,-0.702,-0.275,115.0,0.0
301298,-0.685,-0.307,0.642,2.748,-1.092,0.244,114.0,0.0
301387,-0.679,-0.296,0.666,1.618,-0.641,-0.588,115.0,0.0
301479,-0.674,-0.303,0.659,0.847,0.183,-0.183,115.0,0.0
301569,-0.681,-0.303,0.659,2.504,-0.771,0.053,114.0,0.0
301658,-0.674,-0.293,0.663,2.885,-0.382,0.473,115.0,0.0
301747,-0.676,-0.299,0.658,1.298,0.183,-0.618,115.0,0.0
301836,-0.679,-0.303,0.651,2.076,0.092,0.206,114.0,0.0
301919,-0.670,-0.293,0.659,1.527,0.718,-0.427,16.0,0.0
302003,-0.678,-0.300,0.657,2.290,0.855,-0.038,16.0,0.0
302086,-0.681,-0.296,0.651,0.924,1.267,-0.878,16.0,0.0
302175,-0.680,-0.303,0.649,-0.985,1.496,-0.687,115.0,0.0
302267,-0.674,-0.310,0.648,1.489,0.229,-0.046,115.0,0.0
302356,-0.677,-0.300,0.662,0.863,0.863,0.382,115.0,0.0
302445,-0.677,-0.314,0.644,-0.046,0.977,-0.084,115.0,0.0
302534,-0.693,-0.300,0.644,1.985,0.038,0.130,115.0,0.0
302623,-0.691,-0.318,0.635,2.489,-1.031,0.389,115.0,0.0
302707,-0.676,-0.297,0.654,0.954,-0.611,-0.389,16.0,0.0
302796,-0.686,-0.305,0.646,0.603,-0.153,-0.176,115.0,0.0
302885,-0.681,-0.304,0.641,3.069,-0.763,0.733,115.0,0.0
302968,-0.685,-0.298,0.653,2.282,-0.573,0.382,16.0,0.0
303055,-0.677,-0.298,0.654,0.885,-0.115,-0.519,16.0,0.0
303139,-0.681,-0.306,0.657,2.107,-0.237,-0.130,16.0,0.0
303222,-0.675,-0.295,0.655,2.725,-0.450,0.038,16.0,0.0
303306,-0.678,-0.299,0.653,3.710,-0.634,0.664,16.0,0.0
303389,-0.679,-0.297,0.663,1.649,-0.076,-0.267,16.0,0.0
303473,-0.680,-0.305,0.650,0.901,0.122,-0.435,16.0,0.0
303556,-0.683,-0.303,0.660,1.985,-0.397,0.069,16.0,0.0
303640,-0.673,-0.296,0.658,2.290,-0.160,0.397,16.0,0.0
303724,-0.673,-0.299,0.654,1.275,0.153,-0.305,17.0,0.0
303810,-0.677,-0.299,0.656,1.634,0.229,-0.008,16.0,0.0
303894,-0.672,-0.294,0.658,2.489,0.008,0.198,16.0,0.0
303978,-0.679,-0.311,0.648,0.832,-0.053,0.183,16.0,0.0
304067,-0.677,-0.287,0.668,1.931,-0.206,0.061,115.0,0.0
304150,-0.674,-0.308,0.663,0.176,0.496,-0.603,16.0,0.0
304234,-0.673,-0.304,0.655,2.573,-0.328,0.221,16.0,0.0
304323,-0.672,-0.291,0.663,2.359,0.053,0.160,114.0,0.0
304407,-0.674,-0.296,0.656,0.580,0.695,-0.115,16.0,0.0
304490,-0.678,-0.298,0.653,1.107,0.550,-0.191,16.0,0.0
304577,-0.681,-0.294,0.656,1.092,0.435,-0.092,16.0,0.0
304661,-0.675,-0.293,0.657,0.740,0.771,-0.351,16.0,0.0
304744,-0.688,-0.304,0.638,0.847,0.267,0.244,16.0,0.0
304828,-0.677,-0.290,0.658,0.656,0.427,-0.328,16.0,0.0
304917,-0.678,-0.302,0.651,-0.939,1.153,-0.649,115.0,0.0
305007,-0.680,-0.293,0.651,2.229,0.168,0.206,115.0,0.0
305096,-0.681,-0.297,0.657,1.870,0.115,0.313,115.0,0.0
305185,-0.680,-0.303,0.646,1.122,0.176,-0.344,115.0,0.0
305274,-0.686,-0.298,0.645,2.321,-0.313,0.061,115.0,0.0
305361,-0.679,-0.310,0.659,2.229,-0.374,0.115,16.0,0.0
305445,-0.672,-0.312,0.642,1.069,-0.359,0.252,16.0,0.0
305529,-0.674,-0.293,0.668,3.649,-0.885,0.153,16.0,0.0
305612,-0.681,-0.297,0.663,0.496,0.420,-0.634,16.0,0.0
305696,-0.685,-0.293,0.647,2.771,-0.153,0.198,16.0,0.0
305780,-0.675,-0.296,0.661,2.260,-0.183,0.244,16.0,0.0
305864,-0.671,-0.291,0.656,3.672,-0.275,0.511,16.0,0.0
305947,-0.677,-0.305,0.652,1.977,-0.015,-0.252,16.0,0.0
306031,-0.679,-0.296,0.653,1.580,-0.107,-0.130,16.0,0.0
306118,-0.679,-0.298,0.666,1.954,0.038,0.176,16.0,0.0
306202,-0.670,-0.290,0.656,1.595,0.061,-0.298,16.0,0.0
306286,-0.681,-0.303,0.658,2.519,-0.763,0.244,16.0,0.0
306370,-0.673,-0.284,0.667,1.275,0.122,-0.511,16.0,0.0
306464,-0.673,-0.308,0.658,0.092,0.656,-0.649,114.0,0.0
306553,-0.671,-0.302,0.663,-0.740,0.496,-1.237,115.0,0.0
306641,-0.672,-0.313,0.660,3.183,-0.405,-0.214,114.0,0.0
306731,-0.675,-0.293,0.656,1.427,0.244,0.046,115.0,0.0
306819,-0.679,-0.304,0.652,1.824,0.115,0.275,115.0,0.0
306910,-0.677,-0.294,0.658,2.534,-0.366,0.198,115.0,0.0
306998,-0.674,-0.297,0.654,1.641,-0.038,-0.336,115.0,0.0
307087,-0.677,-0.309,0.655,2.702,-0.626,0.931,115.0,0.0
307170,-0.675,-0.279,0.667,1.855,0.084,0.282,16.0,0.0
307258,-0.679,-0.296,0.665,-0.634,0.977,-0.595,114.0,0.0
307347,-0.672,-0.292,0.666,1.924,0.168,0.092,115.0,0.0
307435,-0.676,-0.294,0.666,1.183,0.534,-0.130,115.0,0.0
307523,-0.674,-0.301,0.651,-0.038,1.092,-0.374,114.0,0.0
307612,-0.674,-0.299,0.649,1.183,0.832,0.053,115.0,0.0
307703,-0.677,-0.295,0.653,1.023,0.893,-0.130,114.0,0.0
307792,-0.680,-0.295,0.659,0.374,1.122,-0.282,115.0,0.0
307880,-0.676,-0.296,0.641,4.069,-0.115,0.267,115.0,0.0
307970,-0.677,-0.290,0.657,0.870,0.908,-0.557,115.0,0.0
308058,-0.682,-0.312,0.644,1.359,0.145,0.130,115.0,0.0
308147,-0.680,-0.307,0.657,2.626,-0.679,0.267,115.0,0.0
308236,-0.681,-0.296,0.656,1.649,-0.260,0.069,115.0,0.0
308324,-0.678,-0.302,0.652,1.740,-0.328,-0.260,115.0,0.0
308413,-0.670,-0.300,0.657,2.779,-0.679,0.328,115.0,0.0
308504,-0.678,-0.300,0.667,2.260,-0.015,-0.267,115.0,0.0
308593,-0.677,-0.302,0.653,3.237,-0.885,0.122,115.0,0.0
308681,-0.677,-0.289,0.675,2.137,-0.290,-0.069,115.0,0.0
308770,-0.677,-0.299,0.654,1.321,0.061,-0.137,115.0,0.0
308858,-0.680,-0.295,0.664,2.122,-0.260,0.168,115.0,0.0
308947,-0.678,-0.293,0.671,2.046,-0.176,0.183,115.0,0.0
309037,-0.670,-0.298,0.661,1.290,0.137,-0.344,115.0,0.0
309125,-0.672,-0.294,0.657,1.779,0.275,-0.260,115.0,0.0
309214,-0.681,-0.289,0.668,1.534,0.290,0.237,115.0,0.0
309305,-0.669,-0.293,0.654,1.870,0.145,-0.351,115.0,0.0
309394,-0.672,-0.297,0.651,1.786,-0.328,0.191,115.0,0.0
309483,-0.670,-0.284,0.672,1.275,0.092,-0.122,114.0,0.0
309571,-0.680,-0.299,0.659,0.710,0.573,-0.321,115.0,0.0
309660,-0.671,-0.290,0.667,2.656,-0.061,0.282,115.0,0.0
309749,-0.681,-0.291,0.657,0.725,0.679,0.061,114.0,0.0
309837,-0.675,-0.297,0.657,1.092,0.710,-0.244,114.0,0.0
309926,-0.677,-0.289,0.656,0.588,0.969,-0.412,114.0,0.0
310016,-0.672,-0.295,0.664,0.924,0.924,-0.214,114.0,0.0
310107,-0.677,-0.298,0.654,0.779,0.985,-0.237,114.0,0.0
310196,-0.674,-0.301,0.650,0.397,0.893,0.031,114.0,0.0
310285,-0.677,-0.287,0.660,2.809,0.092,0.031,114.0,0.0
310373,-0.679,-0.299,0.658,-0.160,1.321,-0.588,114.0,0.0
310462,-0.682,-0.302,0.647,2.221,0.176,0.137,114.0,0.0
310551,-0.684,-0.304,0.652,1.893,0.092,0.076,115.0,0.0
310639,-0.681,-0.297,0.649,1.733,-0.015,-0.015,114.0,0.0
310728,-0.674,-0.302,0.660,1.466,-0.031,-0.107,114.0,0.0
310817,-0.681,-0.299,0.644,1.855,-0.107,0.527,114.0,0.0
310909,-0.686,-0.298,0.652,2.267,-0.496,0.061,114.0,0.0
310999,-0.685,-0.302,0.642,2.412,-0.885,0.076,114.0,0.0
311087,-0.680,-0.291,0.670,1.244,-0.427,-0.145,114.0,0.0
311176,-0.681,-0.310,0.661,1.206,-0.099,-0.115,114.0,0.0
311265,-0.672,-0.299,0.664,2.252,-0.427,0.122,115.0,0.0
311354,-0.677,-0.294,0.659,2.198,-0.374,0.206,115.0,0.0
311443,-0.669,-0.294,0.663,1.557,-0.183,-0.206,115.0,0.0
311532,-0.679,-0.290,0.661,1.786,-0.023,-0.038,115.0,0.0
311620,-0.678,-0.295,0.662,1.977,-0.130,0.122,115.0,0.0
311712,-0.678,-0.293,0.667,1.893,-0.076,-0.076,114.0,0.0
311801,-0.677,-0.296,0.655,2.206,-0.466,0.275,114.0,0.0
311890,-0.673,-0.286,0.666,1.443,0.115,-0.031,114.0,0.0
311980,-0.675,-0.301,0.653,0.664,0.321,-0.305,114.0,0.0
312069,-0.676,-0.292,0.660,2.588,-0.298,0.290,114.0,0.0
312158,-0.678,-0.291,0.669,1.832,-0.046,0.214,114.0,0.0
312247,-0.675,-0.292,0.661,1.153,0.313,-0.366,114.0,0.0
312336,-0.672,-0.295,0.659,1.763,0.023,-0.015,114.0,0.0
312425,-0.671,-0.287,0.664,1.397,0.237,-0.023,114.0,0.0
312517,-0.671,-0.295,0.660,1.130,0.527,-0.336,114.0,0.0
312606,-0.677,-0.299,0.657,1.031,0.305,0.084,114.0,0.0
312694,-0.675,-0.283,0.671,1.244,0.252,-0.313,114.0,0.0
312783,-0.675,-0.292,0.661,-0.603,1.328,-0.870,115.0,0.0
312872,-0.681,-0.300,0.656,1.160,0.817,-0.290,115.0,0.0
312962,-0.672,-0.299,0.658,1.603,0.321,-0.183,115.0,0.0
313051,-0.672,-0.292,0.658,0.214,1.130,-0.405,115.0,0.0
313140,-0.678,-0.300,0.652,0.748,0.733,-0.229,115.0,0.0
313229,-0.678,-0.302,0.656,1.244,0.427,-0.008,115.0,0.0
313321,-0.684,-0.306,0.662,1.107,0.710,-0.206,114.0,0.0
313410,-0.680,-0.304,0.645,3.443,-0.763,0.305,115.0,0.0
313499,-0.680,-0.292,0.659,0.977,0.000,-0.573,115.0,0.0
313588,-0.677,-0.308,0.644,1.740,-0.214,0.122,114.0,0.0
313677,-0.673,-0.301,0.665,2.496,-0.550,0.267,114.0,0.0
313766,-0.671,-0.302,0.663,1.405,-0.092,-0.168,114.0,0.0
313857,-0.673,-0.302,0.650,1.626,-0.015,-0.336,115.0,0.0
313945,-0.671,-0.298,0.653,2.511,-0.458,0.191,114.0,0.0
314034,-0.678,-0.299,0.659,2.198,0.046,0.198,114.0,0.0
314127,-0.675,-0.302,0.655,1.664,-0.099,-0.076,114.0,0.0
314216,-0.673,-0.294,0.671,3.771,-0.611,0.290,114.0,0.0
314305,-0.672,-0.298,0.662,1.038,0.290,-0.519,114.0,0.0
314394,-0.676,-0.307,0.651,2.260,-0.229,0.237,114.0,0.0
314483,-0.674,-0.295,0.676,2.260,-0.298,0.344,115.0,0.0
314572,-0.674,-0.295,0.666,1.794,0.023,0.015,114.0,0.0
314655,-0.668,-0.303,0.661,1.664,0.221,-0.122,10.0,0.0
314738,-0.669,-0.296,0.656,1.779,0.046,0.198,8.0,0.0
314822,-0.677,-0.290,0.657,1.939,0.008,-0.008,8.0,0.0
314914,-0.669,-0.297,0.659,1.626,-0.053,0.221,114.0,0.0
315003,-0.670,-0.281,0.676,2.298,-0.023,0.237,114.0,0.0
315092,-0.671,-0.296,0.663,-0.305,1.145,-0.794,115.0,0.0
315182,-0.677,-0.303,0.656,1.702,0.435,0.031,115.0,0.0
315272,-0.671,-0.296,0.663,1.443,0.595,-0.099,115.0,0.0
315361,-0.678,-0.299,0.665,0.260,1.244,-0.244,116.0,0.0
315450,-0.679,-0.302,0.653,0.519,0.992,-0.168,115.0,0.0
315534,-0.677,-0.306,0.665,0.878,0.588,0.107,17.0,0.0
315623,-0.673,-0.304,0.651,0.435,0.947,-0.160,115.0,0.0
315710,-0.682,-0.292,0.660,2.840,0.168,0.061,17.0,0.0
315794,-0.677,-0.304,0.646,0.969,0.527,-0.229,17.0,0.0
315878,-0.677,-0.301,0.650,3.061,-0.565,0.275,17.0,0.0
315961,-0.674,-0.299,0.656,1.863,-0.229,-0.130,17.0,0.0
316051,-0.680,-0.296,0.654,2.008,-0.313,0.389,115.0,0.0
316134,-0.671,-0.300,0.656,1.985,-0.183,-0.412,17.0,0.0
316224,-0.680,-0.293,0.652,2.267,-0.374,0.031,115.0,0.0
316313,-0.678,-0.293,0.664,2.130,-0.031,0.183,115.0,0.0
316397,-0.666,-0.298,0.665,4.298,-0.679,0.130,17.0,0.0
316484,-0.676,-0.294,0.669,1.221,0.046,-0.351,17.0,0.0
316567,-0.673,-0.309,0.648,2.122,-0.099,0.237,10.0,0.0
316651,-0.675,-0.299,0.671,1.794,-0.336,0.153,10.0,0.0
316734,-0.670,-0.297,0.655,1.992,-0.328,0.229,10.0,0.0
316818,-0.678,-0.294,0.654,1.519,-0.092,-0.183,10.0,0.0
316902,-0.668,-0.289,0.661,2.069,-0.092,0.145,17.0,0.0
316991,-0.670,-0.291,0.662,2.305,-0.076,-0.046,115.0,0.0
317081,-0.677,-0.297,0.661,0.962,-0.206,-0.374,115.0,0.0
317165,-0.678,-0.292,0.665,3.122,-0.382,0.252,17.0,0.0
317252,-0.670,-0.292,0.658,0.725,0.313,-0.527,17.0,0.0
317336,-0.673,-0.292,0.660,2.000,-0.153,0.061,17.0,0.0
317425,-0.673,-0.297,0.667,1.992,0.038,0.099,115.0,0.0
317514,-0.674,-0.293,0.666,0.901,0.725,-0.176,114.0,0.0
317598,-0.675,-0.300,0.660,1.206,0.672,-0.427,17.0,0.0
317688,-0.677,-0.293,0.662,0.847,0.641,-0.214,17.0,0.0
317770,-0.673,-0.291,0.665,0.908,0.817,-0.450,17.0,0.0
317853,-0.677,-0.301,0.651,2.260,0.107,0.214,17.0,0.0
317936,-0.674,-0.286,0.670,0.336,0.939,-0.519,17.0,0.0
318024,-0.679,-0.305,0.653,-0.137,1.023,-0.473,115.0,0.0
318110,-0.679,-0.302,0.657,1.504,0.244,0.099,17.0,0.0
318193,-0.678,-0.296,0.651,1.137,0.511,0.183,17.0,0.0
318281,-0.679,-0.294,0.653,0.519,0.534,-0.260,115.0,0.0
318370,-0.676,-0.307,0.656,2.260,-0.191,0.176,115.0,0.0
318458,-0.676,-0.296,0.662,2.031,-0.344,0.076,115.0,0.0
318547,-0.675,-0.306,0.650,1.405,-0.252,0.229,114.0,0.0
318630,-0.675,-0.291,0.669,3.244,-0.977,0.351,17.0,0.0
318718,-0.678,-0.302,0.660,0.733,0.267,-0.756,114.0,0.0
318808,-0.672,-0.300,0.657,2.771,-0.557,0.511,115.0,0.0
318893,-0.676,-0.295,0.658,2.046,-0.061,0.466,17.0,0.0
318976,-0.678,-0.291,0.664,2.115,0.107,0.351,17.0,0.0
319058,-0.675,-0.288,0.664,1.878,0.031,-0.305,17.0,0.0
319141,-0.672,-0.290,0.662,2.168,-0.031,0.115,17.0,0.0
319224,-0.673,-0.288,0.666,2.069,-0.160,0.122,17.0,0.0
319307,-0.671,-0.295,0.658,1.565,0.076,0.069,17.0,0.0
319390,-0.670,-0.295,0.668,3.458,-0.603,0.229,17.0,0.0
319473,-0.683,-0.298,0.667,-0.305,0.092,0.153,17.0,0.0
319562,-0.737,-0.314,0.669,1.397,-5.672,5.641,115.0,0.0
319659,-0.779,-0.385,0.636,-56.702,-40.832,-6.687,0.0,0.0
319753,-0.708,-0.494,0.779,-1.840,-41.969,-50.176,0.0,0.0
319836,-0.759,-0.507,0.713,12.550,-59.237,-73.328,16.0,0.0
319919,-0.439,-0.358,0.750,-0.481,-81.130,-50.771,24.0,0.0
320003,-0.168,-0.314,0.706,-54.931,-65.786,-50.832,25.0,0.0
320087,-0.115,-0.563,0.788,-74.511,-54.374,-47.153,28.0,0.0
320171,-0.032,-0.641,0.693,-75.511,-58.397,-28.389,29.0,0.0
320254,0.038,-0.788,0.632,-69.107,-47.962,-14.168,31.0,0.0
320342,0.122,-0.867,0.448,-77.176,-33.298,-7.901,36.0,0.0
320427,0.086,-0.872,0.373,-47.076,-12.977,-18.313,35.0,0.0
320510,0.114,-0.960,0.373,-14.534,-10.573,-23.328,33.0,200.0
320594,0.196,-0.778,0.378,-4.229,-12.672,-32.687,34.0,199.0
320679,0.309,-0.791,0.361,-19.099,-8.885,-24.267,44.0,199.0
320774,0.319,-0.849,0.385,-23.733,-5.336,-23.542,0.0,199.0
320867,0.241,-0.925,0.358,1.237,-29.893,-44.267,0.0,200.0
320952,0.396,-0.821,0.244,-2.901,-19.763,-53.710,35.0,0.0
321045,0.458,-0.838,0.279,-20.511,1.458,-59.069,0.0,0.0
321142,0.698,-0.800,0.318,-26.244,-0.534,-66.878,0.0,0.0
321235,0.731,-0.698,0.220,-27.985,19.977,-43.115,0.0,0.0
321318,0.649,-0.614,0.227,-15.015,8.611,-32.748,16.0,0.0
321413,0.763,-0.619,0.209,-10.931,-9.908,-33.550,0.0,0.0
321507,0.830,-0.606,0.160,6.107,8.786,-24.969,0.0,0.0
321600,0.799,-0.593,0.302,-4.809,8.672,-20.305,0.0,0.0
321694,0.750,-0.613,0.298,10.473,7.412,2.802,0.0,0.0
321787,0.759,-0.563,0.256,6.473,-11.573,-10.168,0.0,0.0
321870,0.796,-0.573,0.167,11.634,-9.786,-7.229,5.0,0.0
321955,0.821,-0.636,0.169,19.542,-4.855,-20.786,5.0,0.0
322038,0.844,-0.558,0.233,18.137,3.687,-28.916,9.0,0.0
322132,0.792,-0.408,0.270,19.122,0.305,-25.527,0.0,0.0
322216,0.877,-0.398,0.241,15.847,-14.053,-8.939,37.0,0.0
322301,0.890,-0.397,0.249,33.641,-13.473,-10.092,37.0,0.0
322385,0.892,-0.359,0.243,15.305,-18.664,-10.924,36.0,0.0
322470,0.919,-0.275,0.195,23.252,-5.260,-1.183,37.0,0.0
322555,0.939,-0.361,0.263,28.733,0.573,-1.969,40.0,0.0
322649,1.001,-0.384,0.328,13.107,2.634,7.710,0.0,0.0
322746,0.886,-0.301,0.318,25.244,-8.527,20.420,0.0,0.0
322830,0.842,-0.421,0.304,9.328,-0.229,23.824,40.0,0.0
322915,0.811,-0.529,0.386,-6.153,-9.489,5.710,40.0,0.0
323009,0.827,-0.508,0.333,-15.718,-18.863,-19.733,0.0,0.0
323102,0.882,-0.454,0.239,-14.809,-6.794,-39.321,0.0,0.0
323187,0.933,-0.334,0.187,-17.458,-6.061,-30.198,38.0,0.0
323281,0.887,-0.309,0.128,-22.504,-4.389,-11.031,0.0,0.0
323375,0.938,-0.283,0.160,-6.611,-3.107,4.145,0.0,0.0
323469,0.971,-0.329,0.170,-0.084,-1.191,-0.679,0.0,0.0
323566,0.926,-0.336,0.158,4.656,3.076,-4.076,0.0,0.0
323659,0.906,-0.342,0.179,-0.336,2.153,-1.954,0.0,0.0
323753,0.940,-0.336,0.164,-1.405,-0.618,-2.634,0.0,0.0
323848,0.959,-0.322,0.163,3.168,3.237,-4.237,0.0,0.0
323936,0.945,-0.301,0.162,10.511,7.191,-4.824,0.0,101.0
324030,0.902,-0.376,0.159,25.275,17.947,2.366,0.0,0.0
324114,0.701,-0.816,0.185,109.580,41.244,9.420,39.0,0.0
324208,0.677,-0.063,-0.041,97.214,48.557,-47.809,0.0,0.0
324302,0.716,-0.252,0.388,143.229,127.092,-80.977,0.0,0.0
324400,0.592,0.646,0.525,71.977,98.405,-129.931,0.0,0.0
324494,0.450,0.610,0.715,39.122,110.641,-96.366,0.0,0.0
324577,0.189,0.738,0.912,-52.313,78.298,-70.519,0.0,20.0
324661,0.302,0.727,1.037,64.870,49.588,-25.076,0.0,21.0
324755,0.546,0.800,1.016,70.359,48.061,-0.321,0.0,0.0
324849,0.218,0.636,0.760,94.947,57.817,1.366,0.0,0.0
324943,0.068,0.458,0.938,-40.916,57.061,0.916,0.0,0.0
325037,-0.240,0.831,0.722,9.145,29.511,-21.634,0.0,0.0
325131,-0.212,0.581,0.809,27.359,3.817,8.015,0.0,0.0
325228,0.060,0.732,0.645,18.695,3.725,3.718,0.0,0.0
325322,-0.037,0.508,0.676,-15.649,13.786,-35.725,0.0,0.0
325416,-0.211,0.538,0.406,51.779,8.557,-53.672,0.0,0.0
325511,-0.239,0.750,0.654,-18.092,16.000,-42.313,0.0,0.0
325603,-0.260,0.861,0.667,22.229,3.809,-50.466,169.0,0.0
325695,-0.292,0.882,0.645,29.420,15.229,-52.618,168.0,0.0
325780,-0.605,1.082,0.659,-54.435,10.351,-51.802,30.0,0.0
325864,-0.556,0.916,0.803,-52.481,-14.008,-4.084,30.0,0.0
325948,-0.514,0.771,0.769,-49.802,-38.260,28.481,22.0,0.0
326026,-0.405,0.643,0.699,-78.786,-31.565,25.534,19.0,29.0
326111,-0.423,0.494,0.605,-75.916,-31.000,43.718,0.0,33.0
326196,-0.407,0.257,0.473,-41.443,-4.015,71.313,0.0,39.0
326281,-0.097,0.296,0.605,-45.985,35.282,77.542,0.0,44.0
326366,-0.069,0.257,0.910,-109.305,52.122,43.221,0.0,51.0
326452,-0.164,0.078,1.027,-43.290,48.466,33.473,0.0,55.0
326539,-0.213,0.289,0.948,-30.023,49.260,37.160,0.0,62.0
326626,-0.465,0.311,0.875,-86.397,51.160,32.221,0.0,87.0
326712,-0.587,-0.040,0.935,-134.794,18.916,36.794,42.0,0.0
326809,-0.753,-0.095,0.810,-33.542,5.107,14.214,0.0,0.0
326903,-0.880,-0.377,0.738,10.313,-9.435,-7.046,0.0,0.0
326998,-0.540,-0.079,0.775,146.595,6.282,-3.840,0.0,0.0
327083,-0.477,-0.024,0.817,3.954,57.771,-6.336,44.0,0.0
327177,-0.662,0.129,0.604,-55.855,73.756,-30.107,0.0,0.0
327271,-0.464,-0.049,0.626,-9.565,49.450,-28.023,0.0,0.0
327365,-0.427,0.106,0.465,-9.130,92.168,-4.137,0.0,0.0
327459,-0.870,0.289,0.482,-32.748,175.687,13.763,0.0,0.0
327550,-1.769,0.263,0.199,-78.237,92.557,-12.092,0.0,142.0
327644,-1.954,-0.058,-0.317,-217.855,46.588,89.809,0.0,118.0
327735,-1.462,-0.617,-0.175,-57.382,12.557,129.099,0.0,137.0
327826,-0.893,-0.140,-0.108,36.855,15.153,51.580,0.0,141.0
327917,-0.721,0.015,0.028,-37.603,-8.908,28.374,0.0,144.0
328008,-0.750,-0.042,0.165,4.695,-29.122,6.748,0.0,144.0
328099,-0.719,0.186,-0.016,116.656,-4.580,18.771,0.0,144.0
328190,-0.741,0.395,-0.130,33.916,12.511,-4.237,0.0,140.0
328281,-0.917,0.263,-0.054,48.718,3.786,-18.847,0.0,138.0
328375,-0.995,0.359,-0.296,67.939,-7.450,0.191,0.0,133.0
328466,-0.857,0.384,-0.268,23.763,2.641,10.824,0.0,142.0
328557,-0.899,0.286,-0.223,15.061,-8.282,10.809,0.0,141.0
328647,-0.936,0.268,-0.228,70.908,-19.924,11.794,0.0,129.0
328738,-0.882,0.305,-0.224,78.366,-23.031,17.275,0.0,141.0
328830,-0.925,0.311,-0.220,54.870,-21.954,3.427,0.0,160.0
328923,-1.019,0.295,-0.213,70.641,-30.779,-4.336,0.0,158.0
329023,-0.927,0.267,-0.170,94.809,-49.405,3.221,0.0,0.0
329112,-0.942,0.240,-0.137,119.725,-73.015,13.466,133.0,0.0
329204,-1.007,0.281,-0.180,179.298,-75.992,9.473,134.0,0.0
329294,-0.863,0.422,-0.128,147.756,-58.023,-11.580,137.0,0.0
329384,-0.935,0.306,0.083,86.023,-36.374,-24.855,140.0,0.0
329475,-0.877,0.295,0.099,70.000,-23.198,-19.595,143.0,0.0
329565,-0.773,0.246,0.126,83.275,-11.290,-17.115,146.0,0.0
329656,-0.740,0.301,0.061,85.794,3.328,-12.496,149.0,0.0
329746,-1.126,0.325,-0.000,71.069,2.740,-18.702,151.0,0.0
329839,-1.383,0.132,-0.069,96.130,-40.947,30.840,185.0,0.0
329932,-1.037,0.230,-0.167,175.046,-32.626,92.992,0.0,0.0
330023,-0.815,0.414,-0.158,51.557,-32.450,62.328,0.0,0.0
330117,-0.883,0.148,-0.056,69.420,-52.687,1.687,182.0,0.0
330204,-0.923,0.237,-0.180,173.886,-79.847,-33.656,90.0,0.0
330291,-0.973,0.388,-0.253,165.985,-104.649,-70.321,94.0,0.0
330380,-1.155,0.421,-0.119,99.214,-80.122,-71.237,104.0,0.0
330468,-1.024,0.632,-0.049,47.466,-31.481,-2.603,106.0,0.0
330555,-0.940,0.421,0.335,30.397,-57.420,30.366,96.0,0.0
330644,-0.657,0.579,0.428,51.824,-67.870,61.305,108.0,0.0
330740,-0.478,0.803,0.451,-69.382,-51.588,48.412,0.0,0.0
330833,-0.697,0.589,0.797,-122.031,-83.069,81.573,0.0,0.0
330928,-0.507,0.456,0.804,-81.137,-118.641,97.298,0.0,0.0
331011,-0.377,0.321,0.697,-57.977,-89.511,89.603,16.0,0.0
331098,-0.264,0.372,0.681,-66.145,-49.168,66.145,85.0,0.0
331185,-0.299,0.366,0.854,-39.450,-8.565,34.244,86.0,0.0
331272,-0.215,0.184,0.904,-17.779,3.481,17.473,88.0,0.0
331359,-0.274,0.198,0.910,10.931,-1.985,-11.229,91.0,0.0
331447,-0.282,0.207,1.090,-53.008,-9.282,-47.954,88.0,0.0
331537,-0.134,0.051,1.038,-66.656,-21.008,-83.954,88.0,0.0
331624,-0.153,-0.093,0.971,-16.473,-4.511,-44.153,95.0,0.0
331712,-0.222,-0.121,0.969,-26.366,0.290,-44.924,95.0,0.0
331800,-0.109,-0.158,0.948,-19.122,0.321,-23.008,100.0,0.0
331888,-0.080,-0.203,0.924,-2.351,-2.023,-5.504,101.0,0.0
331976,-0.077,-0.220,0.951,9.962,-2.542,3.969,103.0,0.0
332064,-0.088,-0.195,0.969,19.244,-9.008,10.679,106.0,0.0
332152,-0.105,-0.210,0.888,50.046,4.931,22.611,110.0,0.0
332241,-0.287,0.115,0.675,126.840,76.221,17.252,119.0,0.0
332339,-0.451,0.508,0.362,250.130,88.221,-6.908,0.0,0.0
332432,-0.613,0.470,0.798,66.366,72.718,-89.886,0.0,0.0
332526,-0.657,0.587,0.518,219.786,49.840,-50.168,0.0,0.0
332620,-0.550,0.726,0.229,155.954,49.893,-75.260,0.0,0.0
332711,-0.740,0.623,0.021,-5.229,51.885,-155.504,167.0,0.0
332804,-1.427,0.523,-0.129,-34.794,63.069,-112.389,170.0,0.0
332896,-1.180,0.424,-0.070,92.931,14.588,-13.748,174.0,0.0
332989,-0.918,0.360,-0.178,232.534,-36.191,2.817,177.0,0.0
333085,-0.725,0.469,-0.210,148.321,-34.962,20.511,0.0,0.0
333179,-0.954,0.302,-0.103,64.198,-29.893,15.687,0.0,0.0
333274,-0.834,0.442,-0.041,66.779,-14.702,30.603,0.0,0.0
333365,-0.565,0.319,0.196,28.076,2.618,3.473,0.0,165.0
333457,-0.869,0.389,-0.081,41.290,26.489,-18.695,0.0,174.0
333551,-1.351,0.426,-0.539,-113.450,28.374,-0.244,0.0,0.0
333645,-1.029,-0.015,-0.359,1.160,17.191,29.656,0.0,0.0
333739,-0.716,0.189,-0.281,-50.122,3.740,-4.901,0.0,0.0
333833,-1.006,0.435,-0.475,78.244,-25.069,22.969,0.0,0.0
333929,-1.092,0.261,-0.228,82.748,-18.878,13.634,0.0,180.0
334020,-0.756,0.398,-0.178,-2.817,-15.504,3.595,0.0,163.0
334112,-0.776,0.302,-0.029,-50.008,2.405,-19.252,0.0,164.0
334205,-0.929,0.475,-0.201,6.580,0.595,5.794,0.0,186.0
334299,-0.870,0.227,0.067,-47.206,-10.115,-3.481,0.0,0.0
334392,-0.726,0.337,0.016,38.427,-22.153,-30.771,0.0,187.0
334485,-0.979,0.435,-0.185,-28.618,-1.687,-80.702,0.0,185.0
334579,-1.042,0.060,-0.252,-65.137,29.122,-69.878,0.0,190.0
334673,-0.984,-0.183,-0.409,-50.489,40.092,-23.687,0.0,0.0
334770,-1.567,0.102,-0.336,24.099,26.137,37.802,0.0,0.0
334864,-1.371,0.165,-0.298,-75.290,39.198,141.603,0.0,0.0
334958,-0.869,-0.031,0.145,1.176,-6.168,77.496,0.0,0.0
335052,-0.540,0.802,-0.380,53.550,-5.489,55.466,0.0,0.0
335147,-0.699,0.515,-0.195,-92.832,-4.046,8.824,0.0,0.0
335240,-0.780,0.591,-0.253,28.695,6.977,33.267,0.0,0.0
335334,-0.788,0.485,-0.145,-58.382,15.153,9.023,0.0,0.0
335428,-0.765,0.719,-0.237,15.198,1.977,21.260,0.0,0.0
335521,-0.530,0.803,-0.293,-27.763,13.191,6.786,0.0,0.0
335619,-0.646,0.483,-0.044,14.626,7.374,-6.496,0.0,0.0
335713,-0.633,0.768,-0.242,28.947,23.840,-5.817,0.0,0.0
335807,-0.893,0.677,-0.290,-36.740,25.298,-8.588,0.0,0.0
335901,-0.914,0.236,-0.052,89.176,2.214,-16.046,0.0,0.0
335994,-0.727,0.706,-0.433,-33.702,0.550,-31.221,0.0,0.0
336089,-0.704,0.375,-0.242,-14.130,12.061,-39.916,0.0,0.0
336174,-0.910,0.616,-0.314,77.084,2.977,-26.504,36.0,0.0
336259,-0.832,0.861,-0.540,-16.725,3.153,-8.969,39.0,0.0
336353,-0.945,0.294,-0.202,7.084,-14.992,3.802,0.0,0.0
336444,-0.758,0.579,-0.429,44.382,-13.702,2.863,0.0,0.0
336538,-0.789,0.332,-0.173,-18.397,-45.252,-30.588,0.0,0.0
336632,-0.924,0.343,-0.204,71.221,-67.595,-43.107,0.0,0.0
336727,-1.068,0.218,-0.182,96.977,-70.511,-25.420,0.0,192.0
336820,-1.023,0.275,-0.282,98.847,-44.046,16.450,0.0,190.0
336914,-0.923,0.306,-0.194,37.214,-49.687,9.992,0.0,191.0
337006,-0.812,0.292,-0.175,14.130,-2.809,-7.550,0.0,171.0
337098,-0.831,0.000,0.029,78.641,-44.878,-16.802,0.0,167.0
337193,-0.822,0.472,-0.249,10.405,30.687,-12.237,0.0,159.0
337286,-1.043,-0.186,0.187,-0.305,-33.511,-1.290,0.0,157.0
337377,-0.772,0.186,-0.059,178.550,-44.748,38.336,0.0,155.0
337469,-0.743,0.393,-0.004,-26.763,0.641,-21.893,0.0,154.0
337560,-1.004,0.008,0.241,50.580,-16.252,-17.870,0.0,156.0
337652,-1.062,0.408,-0.138,45.817,-71.527,17.458,0.0,152.0
337743,-0.984,0.243,-0.051,-53.198,-92.756,6.802,0.0,150.0
337833,-0.836,0.214,-0.003,-25.977,-118.779,6.969,0.0,130.0
337924,-1.219,0.442,0.093,36.282,-176.176,41.267,0.0,129.0
338018,-0.985,0.995,0.849,23.832,-148.198,158.527,0.0,134.0
338100,0.199,0.532,1.676,-151.908,-88.099,20.313,122.0,64.0
338182,0.272,-0.629,1.624,-63.458,-106.389,10.412,118.0,65.0
338262,0.483,-0.232,0.759,30.084,-67.641,43.466,84.0,68.0
338342,0.626,-0.494,0.442,-91.710,-63.466,3.328,83.0,71.0
338427,0.696,0.439,-0.037,-250.137,151.145,-26.351,58.0,183.0
338513,-0.028,-1.564,1.668,17.824,-48.290,-50.366,57.0,0.0
338600,0.141,1.121,0.387,4.534,20.527,-13.817,129.0,147.0
338692,-0.465,-0.919,1.523,20.649,27.160,-13.099,134.0,151.0
338776,-0.091,0.022,0.891,-64.282,-0.679,-15.336,60.0,149.0
338861,-0.028,-0.738,1.077,10.160,-33.511,-34.794,51.0,183.0
338946,0.097,-0.247,0.799,-100.046,2.969,2.198,58.0,185.0
339033,0.207,-0.495,0.890,-5.527,-21.359,16.588,57.0,0.0
339118,0.109,-0.395,0.817,-31.748,-19.504,25.481,48.0,0.0
339204,0.108,-0.569,0.831,-14.206,-30.023,19.824,55.0,0.0
339291,0.060,-0.570,0.828,-23.198,-18.252,36.595,54.0,0.0
339377,-0.004,-0.658,0.828,1.916,-23.908,28.260,50.0,0.0
339466,0.087,-0.663,0.804,0.924,-34.588,14.908,51.0,0.0
339551,0.092,-0.600,0.723,-11.786,-14.756,12.145,49.0,0.0
339637,0.085,-0.685,0.761,-10.481,-10.214,7.977,49.0,0.0
339723,0.110,-0.648,0.729,-8.878,-17.550,11.145,51.0,0.0
339809,0.149,-0.670,0.752,-11.794,-14.389,10.908,52.0,0.0
339894,0.159,-0.705,0.737,-3.756,-13.137,6.244,51.0,182.0
339979,0.160,-0.648,0.704,1.641,-10.573,4.023,44.0,184.0
340065,0.169,-0.709,0.715,-2.779,-6.733,5.672,49.0,0.0
340150,0.143,-0.697,0.716,1.817,-2.206,2.298,48.0,0.0
340248,0.154,-0.719,0.739,4.008,-3.847,3.061,39.0,0.0
340340,0.167,-0.721,0.711,8.015,0.542,0.725,39.0,183.0
340427,0.147,-0.688,0.731,-0.336,0.397,-0.191,46.0,0.0
340514,0.147,-0.689,0.728,1.145,1.389,-1.786,38.0,0.0
340600,0.140,-0.729,0.705,-1.931,5.679,-6.962,38.0,0.0
340687,-0.004,-0.897,0.661,2.550,13.191,-21.374,46.0,0.0
340774,-0.044,-0.923,0.664,5.366,38.481,-48.908,48.0,0.0
340862,-0.045,-0.833,0.731,2.863,60.282,-79.191,51.0,0.0
340950,-0.027,-0.739,0.827,7.046,63.336,-125.069,58.0,0.0
341041,0.029,-0.475,0.807,10.672,79.901,-150.740,59.0,0.0
341123,-0.002,-0.213,0.758,52.985,86.328,-148.779,69.0,95.0
341212,0.076,-0.137,0.820,-41.473,99.336,-132.313,0.0,72.0
341300,0.023,-0.184,0.843,62.168,59.618,-98.267,0.0,57.0
341386,0.378,0.056,1.104,120.313,85.817,-100.267,0.0,37.0
341474,-0.252,0.225,1.449,38.053,41.053,-61.389,0.0,56.0
341561,-0.024,0.296,0.856,-29.977,9.901,-11.008,0.0,55.0
341650,0.016,-0.158,0.990,31.786,4.527,-11.863,0.0,71.0
341748,-0.015,-0.038,1.137,-4.389,9.595,-12.198,0.0,0.0
341844,0.018,-0.004,0.983,-32.298,0.366,2.008,0.0,0.0
341933,-0.035,-0.200,1.051,-7.168,2.817,4.481,0.0,57.0
342028,-0.011,-0.144,1.001,17.458,5.771,-2.931,0.0,0.0
342124,-0.050,-0.025,1.008,4.611,5.252,-4.962,0.0,0.0
342220,-0.044,-0.066,0.961,-0.748,4.405,-0.496,0.0,0.0
342316,-0.058,-0.136,1.042,5.947,3.412,1.260,0.0,0.0
342412,-0.077,-0.072,1.006,11.198,-1.908,1.901,0.0,0.0
342507,-0.043,-0.040,1.012,1.634,-3.733,1.840,0.0,0.0
342603,-0.034,-0.042,0.944,-9.779,3.603,-1.031,0.0,0.0
342703,0.009,-0.073,0.985,5.550,4.130,-3.809,0.0,0.0
342798,-0.037,-0.010,0.993,4.702,-3.015,0.176,0.0,0.0
342894,-0.059,-0.072,0.987,5.557,1.962,0.214,0.0,0.0
342990,-0.059,-0.095,1.001,7.031,3.718,4.061,0.0,0.0
343086,-0.051,-0.068,1.000,1.458,2.282,1.809,0.0,0.0
343182,-0.053,-0.012,0.989,5.305,0.038,0.145,0.0,0.0
343277,-0.042,-0.049,1.009,5.420,0.595,2.061,0.0,0.0
343373,-0.041,-0.030,1.020,1.969,-0.099,1.908,0.0,0.0
