Timestamp(ms),AccelX(g),AccelY(g),AccelZ(g),GyroX(deg/s),GyroY(deg/s),GyroZ(deg/s),DistanceLeft(cm),DistanceRight(cm)
169547,0.975,-0.025,0.042,105.565,103.427,-61.908,0.0,0.0
169641,0.417,0.437,-0.022,12.603,122.618,-28.649,0.0,0.0
169725,0.878,0.785,0.334,115.359,132.977,14.924,40.0,0.0
169809,0.707,0.203,0.458,5.969,167.389,51.626,36.0,0.0
169893,1.337,-0.039,0.442,245.603,133.649,-72.977,37.0,0.0
169987,0.861,0.285,1.773,-31.580,57.771,-97.977,0.0,0.0
170080,0.291,1.000,0.734,138.939,35.527,-82.687,0.0,0.0
170176,0.047,0.528,0.720,-100.244,67.977,-51.908,0.0,0.0
170269,-0.398,0.539,0.403,-104.382,52.229,-13.733,0.0,0.0
170362,-0.150,0.410,0.312,-235.427,51.740,50.794,0.0,0.0
170457,0.033,-0.153,1.069,-60.824,49.221,89.130,0.0,0.0
170550,-0.500,0.464,0.897,-23.977,39.580,40.084,0.0,0.0
170643,-0.717,-0.718,0.924,-104.634,43.725,15.053,0.0,0.0
170737,-0.582,-0.263,0.761,-63.084,56.267,-45.389,0.0,0.0
170830,-0.046,-0.068,0.715,72.168,103.863,-91.458,0.0,0.0
170925,-0.410,-0.132,0.659,-105.275,143.611,-54.038,0.0,0.0
171021,-0.982,-0.341,0.760,12.000,147.496,18.160,0.0,0.0
171115,-1.012,-0.242,0.582,99.214,78.328,89.771,0.0,0.0
171208,-0.957,0.411,0.228,-39.092,43.641,88.985,0.0,0.0
171297,-0.808,-0.450,0.441,-40.870,47.466,80.046,120.0,0.0
171392,-0.524,-0.023,-0.064,183.603,72.069,121.527,0.0,0.0
171485,-0.811,0.382,-0.258,-2.756,33.122,83.405,0.0,0.0
171579,-1.199,-0.065,-0.063,-11.130,19.130,23.519,0.0,0.0
171673,-1.104,0.161,-0.020,183.954,58.527,-101.008,0.0,0.0
171766,-1.374,0.348,-0.172,150.160,53.221,-199.359,0.0,0.0
171859,-1.255,0.254,-0.147,57.954,26.847,-158.977,125.0,0.0
171953,-0.956,0.268,-0.028,46.733,-2.756,-59.954,0.0,0.0
172041,-0.890,0.096,0.079,12.840,-47.817,36.397,137.0,156.0
172132,-0.960,0.092,0.046,-13.878,-43.634,94.618,0.0,156.0
172224,-1.111,-0.047,0.022,-43.496,-13.618,122.756,0.0,162.0
172317,-1.130,-0.016,-0.098,-89.153,2.756,94.435,0.0,0.0
172411,-1.031,-0.087,0.019,-13.748,-2.389,82.985,0.0,0.0
172506,-1.013,0.229,-0.039,14.878,12.656,47.122,0.0,0.0
172602,-0.799,0.182,0.072,-18.603,10.267,15.771,0.0,0.0
172696,-0.661,0.248,0.091,23.656,14.282,-15.496,0.0,0.0
172790,-0.802,0.377,0.040,29.397,16.458,-68.817,0.0,0.0
172883,-1.063,0.357,-0.121,-41.679,-6.221,-77.260,0.0,0.0
172978,-1.292,0.060,-0.052,-14.336,-37.656,17.641,0.0,0.0
173071,-0.987,0.133,-0.120,86.405,-42.939,114.366,0.0,0.0
173165,-0.851,-0.038,-0.103,108.672,-48.931,13.672,0.0,0.0
173258,-1.224,0.008,-0.121,93.740,-52.099,-39.206,190.0,195.0
173351,-1.085,0.367,-0.147,94.924,-42.473,-56.008,194.0,189.0
173448,-0.880,0.190,-0.045,56.489,-50.641,-36.565,200.0,183.0
173540,-0.801,0.172,-0.028,157.901,-52.901,-18.336,0.0,178.0
173633,-0.671,0.418,-0.043,153.725,-15.962,-31.595,0.0,174.0
173725,-0.798,0.464,0.137,38.221,16.588,-56.710,0.0,173.0
173818,-0.986,0.356,0.286,-4.901,34.519,-41.702,0.0,174.0
173902,-1.134,0.193,0.352,23.588,18.656,3.740,67.0,176.0
173996,-1.093,0.301,0.250,43.939,14.771,45.786,0.0,179.0
174089,-0.960,0.210,0.181,9.733,-13.840,81.740,0.0,184.0
174182,-1.011,0.361,0.042,35.351,-33.779,83.954,0.0,0.0
174279,-0.829,0.463,0.007,-9.695,-28.557,49.809,0.0,0.0
174373,-0.787,0.391,0.015,-19.901,-3.435,36.573,0.0,0.0
174468,-0.798,0.414,0.034,5.550,1.786,0.183,0.0,0.0
174561,-1.052,0.377,0.065,0.053,3.130,-21.366,0.0,0.0
174655,-1.227,0.301,0.109,63.580,1.992,-31.603,0.0,0.0
174749,-0.771,0.483,0.087,17.084,0.641,-66.931,0.0,0.0
174842,-1.065,0.212,0.130,-15.015,-1.969,-73.290,0.0,0.0
174937,-0.852,0.141,0.070,103.702,-12.817,-39.183,0.0,0.0
175031,-0.711,0.504,-0.021,57.832,4.122,-34.466,0.0,0.0
175128,-0.735,0.396,0.081,-38.641,24.443,-64.198,0.0,0.0
175222,-1.366,0.287,0.021,-39.878,25.870,-44.351,0.0,0.0
175316,-1.290,0.116,0.006,-75.412,-24.725,95.473,0.0,0.0
175410,-1.264,0.075,-0.077,23.038,-32.771,164.443,0.0,0.0
175504,-0.766,0.147,-0.081,12.718,-12.649,103.053,0.0,0.0
175598,-0.854,0.184,-0.077,-42.817,1.649,20.542,0.0,0.0
175692,-1.048,0.163,0.016,20.733,-26.809,-28.130,0.0,0.0
175787,-0.848,0.346,0.058,89.542,-5.412,-77.924,0.0,0.0
175880,-1.062,0.369,0.037,-8.328,12.420,-93.786,194.0,0.0
175972,-0.886,0.180,0.111,24.008,3.794,-79.191,199.0,0.0
176071,-0.822,0.323,0.020,60.611,13.786,-47.443,192.0,0.0
176164,-1.015,0.278,0.010,7.687,15.618,-8.137,193.0,0.0
176256,-1.071,0.219,-0.028,2.534,2.382,59.466,185.0,0.0
176348,-1.184,0.131,-0.094,44.534,-37.366,106.954,180.0,0.0
176441,-0.934,0.215,-0.168,95.908,-34.916,120.573,0.0,0.0
176534,-0.971,0.364,-0.205,54.702,-43.763,48.206,0.0,0.0
176626,-1.075,0.497,-0.080,-14.748,-48.840,-49.366,0.0,0.0
176720,-1.165,0.172,0.059,-12.878,-101.939,-102.916,167.0,0.0
176813,-0.732,0.187,0.085,212.756,-88.824,-60.916,172.0,0.0
176904,-0.738,0.668,-0.040,119.305,-75.519,-78.443,176.0,0.0
176996,-0.774,0.443,0.180,-6.023,-46.786,-64.038,182.0,0.0
177088,-1.006,0.246,0.189,29.878,-48.145,-14.298,177.0,0.0
177179,-0.510,0.274,0.075,25.282,-39.840,55.542,175.0,0.0
177270,-0.572,0.341,0.117,-20.626,-41.931,59.092,171.0,0.0
177361,-0.668,0.032,0.232,57.656,-135.573,61.931,161.0,0.0
177455,-0.834,0.367,0.576,130.679,-250.137,95.725,0.0,0.0
177543,-0.235,1.579,0.903,-125.137,-182.618,140.679,62.0,0.0
177628,0.077,1.303,1.499,-68.969,-136.053,16.969,57.0,0.0
177710,1.307,-0.386,0.863,-183.267,-197.481,16.344,134.0,69.0
177790,1.374,0.219,-0.118,13.237,-85.672,-0.931,70.0,98.0
177870,1.038,-0.237,-0.177,-220.382,-24.901,-110.886,71.0,100.0
177948,0.589,-0.012,0.013,-2.061,6.641,-118.168,74.0,57.0
178033,0.396,0.598,0.105,25.992,-6.748,-114.489,0.0,50.0
178117,1.994,1.053,1.071,32.550,38.061,-106.939,0.0,47.0
178204,-0.308,0.682,0.726,-104.672,33.137,-170.450,0.0,45.0
178288,0.336,0.537,0.898,41.756,34.282,-43.099,0.0,42.0
178373,0.187,0.586,0.653,19.443,9.977,-94.321,0.0,43.0
178457,0.177,0.584,0.793,29.901,26.878,-72.763,0.0,43.0
178539,-0.041,1.176,0.771,35.031,4.626,-19.496,0.0,3.0
178632,0.136,0.607,0.666,-7.718,4.168,18.443,0.0,0.0
178725,0.060,0.703,0.741,-31.069,15.176,-9.328,0.0,0.0
178819,0.036,0.614,0.805,2.786,0.908,2.137,0.0,0.0
178912,0.070,0.721,0.732,16.626,-0.351,-1.672,0.0,0.0
179008,0.060,0.691,0.729,-3.412,1.191,-0.702,0.0,0.0
179090,0.047,0.666,0.742,8.962,0.878,1.145,0.0,5.0
179183,0.042,0.691,0.737,13.344,1.779,2.718,0.0,0.0
179277,0.069,0.724,0.706,4.489,-0.573,-1.504,0.0,0.0
179371,0.062,0.698,0.723,-0.718,-0.336,-2.740,0.0,0.0
179452,0.051,0.726,0.705,4.519,-1.076,-1.000,0.0,5.0
179546,0.045,0.677,0.753,-1.160,1.229,0.000,0.0,0.0
179629,0.049,0.717,0.700,14.420,0.115,2.252,0.0,4.0
179710,0.069,0.757,0.676,2.885,-0.481,-0.718,0.0,3.0
179792,0.049,0.707,0.710,-1.237,-0.328,-2.076,0.0,3.0
179877,0.045,0.717,0.708,2.053,0.191,-0.947,0.0,3.0
179959,0.044,0.708,0.702,8.435,-0.153,0.473,0.0,3.0
180042,0.058,0.753,0.694,2.336,0.092,-0.076,0.0,7.0
180124,0.052,0.708,0.712,-0.237,0.122,-1.603,0.0,4.0
180206,0.049,0.735,0.695,4.969,-0.237,0.038,0.0,6.0
180289,0.054,0.727,0.698,-0.954,0.053,-0.046,0.0,7.0
180371,0.052,0.723,0.705,2.107,0.038,-0.214,0.0,7.0
180454,0.053,0.730,0.687,1.198,0.260,-0.336,0.0,7.0
180536,0.050,0.716,0.704,1.977,0.397,0.198,0.0,7.0
180622,0.049,0.726,0.700,-0.656,0.420,0.061,0.0,7.0
180704,0.047,0.719,0.713,1.573,0.168,-0.053,0.0,7.0
180786,0.057,0.719,0.702,5.809,0.137,-0.420,0.0,2.0
180869,0.048,0.730,0.695,10.504,-0.496,0.099,0.0,3.0
180951,0.052,0.751,0.681,6.771,0.008,-0.237,0.0,4.0
181032,0.049,0.744,0.690,1.237,0.191,0.145,0.0,4.0
181115,0.054,0.736,0.692,2.511,0.176,0.191,0.0,4.0
181197,0.058,0.739,0.687,3.863,0.206,-0.153,0.0,4.0
181291,0.052,0.752,0.677,1.817,0.023,0.145,0.0,0.0
181385,0.055,0.752,0.676,1.756,0.046,-0.084,0.0,0.0
181481,0.053,0.739,0.686,2.328,-0.015,0.023,0.0,0.0
181574,0.051,0.747,0.668,1.580,0.313,-0.290,0.0,0.0
181668,0.052,0.744,0.679,2.031,0.168,-0.137,0.0,0.0
181762,0.054,0.745,0.681,1.641,-0.053,-0.275,0.0,0.0
181855,0.050,0.743,0.682,1.588,-0.053,-0.298,0.0,0.0
181949,0.048,0.751,0.679,2.733,0.053,-0.046,0.0,0.0
182042,0.057,0.745,0.676,0.817,0.221,-0.191,0.0,0.0
182125,0.055,0.744,0.678,2.275,0.206,-0.260,0.0,7.0
182207,0.050,0.743,0.685,1.939,-0.046,0.206,0.0,7.0
182290,0.049,0.738,0.683,1.603,0.099,0.237,0.0,7.0
182375,0.055,0.738,0.671,1.168,0.069,0.031,0.0,7.0
182458,0.048,0.757,0.677,2.000,0.130,-0.237,0.0,7.0
182541,0.053,0.739,0.686,2.412,0.107,0.008,0.0,7.0
182623,0.051,0.747,0.677,1.282,0.153,-0.435,0.0,5.0
182706,0.055,0.741,0.676,2.015,0.214,0.053,0.0,5.0
182788,0.054,0.759,0.684,0.924,0.275,-0.076,0.0,5.0
182871,0.054,0.748,0.677,2.267,0.275,-0.275,0.0,5.0
182953,0.052,0.747,0.677,1.603,0.153,0.092,0.0,4.0
183035,0.053,0.745,0.680,2.580,0.122,-0.008,0.0,4.0
183118,0.052,0.747,0.679,0.992,0.176,-0.099,0.0,4.0
183203,0.047,0.740,0.683,2.344,0.168,0.260,0.0,4.0
183286,0.056,0.760,0.667,1.198,0.137,-0.305,0.0,4.0
183368,0.052,0.745,0.676,2.450,-0.008,0.061,0.0,4.0
183451,0.055,0.755,0.667,0.511,0.191,-0.038,0.0,4.0
183534,0.048,0.747,0.671,2.748,0.000,0.023,0.0,4.0
183616,0.050,0.747,0.687,0.969,0.046,-0.176,0.0,4.0
183699,0.049,0.755,0.675,2.443,0.015,0.076,0.0,4.0
183782,0.060,0.749,0.676,0.962,0.153,-0.053,0.0,4.0
183864,0.052,0.749,0.681,1.580,0.237,0.115,0.0,4.0
183959,0.057,0.746,0.673,1.130,0.160,-0.305,0.0,4.0
184041,0.053,0.748,0.684,1.748,0.038,-0.084,0.0,4.0
184123,0.054,0.747,0.673,0.611,0.183,0.015,0.0,4.0
184205,0.057,0.747,0.675,2.458,0.176,-0.061,0.0,4.0
184287,0.057,0.745,0.673,1.053,0.115,-0.122,0.0,4.0
184369,0.052,0.743,0.676,1.809,0.145,0.008,0.0,4.0
184451,0.052,0.746,0.668,1.382,0.053,-0.099,0.0,4.0
184532,0.055,0.746,0.684,2.015,0.122,-0.023,0.0,4.0
184614,0.046,0.748,0.688,1.305,-0.015,0.145,0.0,4.0
184707,0.062,0.745,0.671,5.664,0.420,-0.137,0.0,0.0
184792,0.055,0.771,0.667,-3.542,0.382,-0.160,0.0,4.0
184885,0.044,0.744,0.683,-4.603,1.031,-1.145,0.0,0.0
184978,0.050,0.732,0.696,2.305,0.611,-0.397,0.0,0.0
185071,0.041,0.738,0.678,-0.870,0.733,0.573,0.0,0.0
185153,0.039,0.736,0.685,-1.763,0.840,-0.008,0.0,4.0
185235,0.042,0.728,0.691,0.908,0.450,-0.305,0.0,4.0
185317,0.048,0.737,0.699,1.786,0.321,-0.702,0.0,4.0
185399,0.045,0.735,0.681,2.420,-0.473,-0.893,0.0,4.0
185481,0.042,0.738,0.692,0.664,0.466,-1.420,0.0,4.0
185563,0.057,0.728,0.690,0.405,-0.260,-0.435,0.0,4.0
185648,0.053,0.722,0.687,5.107,-0.046,0.565,0.0,4.0
185730,0.051,0.728,0.685,1.412,-0.786,-0.412,0.0,4.0
185811,0.042,0.744,0.693,-1.481,0.656,-0.947,0.0,5.0
185905,0.045,0.729,0.701,1.641,0.534,-0.618,0.0,0.0
185998,0.051,0.740,0.684,1.237,-0.290,-0.160,0.0,0.0
186091,0.093,0.703,0.756,10.191,-1.939,3.282,0.0,0.0
186184,0.005,0.865,0.786,47.191,-24.046,46.489,0.0,0.0
186277,0.253,1.240,0.567,-7.473,-18.267,81.664,0.0,0.0
186360,0.286,0.709,0.456,38.679,-7.725,77.718,0.0,19.0
186447,0.407,0.603,0.325,17.847,11.954,80.649,0.0,24.0
186525,0.539,0.582,0.296,34.267,39.870,45.885,74.0,57.0
186603,0.420,0.448,0.305,8.794,48.489,38.160,70.0,62.0
186696,0.470,0.538,0.447,120.954,44.656,33.771,0.0,0.0
186783,0.309,0.823,0.534,31.664,56.924,-9.618,0.0,89.0
186869,-0.275,0.744,0.595,30.931,39.336,19.740,0.0,68.0
186955,0.572,1.461,0.728,42.641,43.649,-57.214,0.0,64.0
187042,0.122,0.762,0.619,-24.649,-1.000,-15.626,0.0,85.0
187128,0.210,0.970,0.333,57.290,-14.069,5.084,0.0,76.0
187225,0.350,0.890,0.328,-14.573,-18.603,25.641,196.0,0.0
187302,0.426,0.926,0.311,-11.160,1.565,17.198,35.0,77.0
187379,0.398,0.907,0.399,-57.947,14.359,3.504,31.0,78.0
187456,0.415,0.770,0.575,-59.908,18.878,-7.969,30.0,78.0
187533,0.304,0.688,0.619,-10.519,15.344,-21.412,29.0,86.0
187610,0.277,0.811,0.564,9.511,6.504,-18.809,29.0,77.0
187687,0.285,0.841,0.511,-1.069,12.947,-15.603,29.0,83.0
187765,0.277,0.798,0.575,-19.336,21.305,-19.710,30.0,95.0
187843,0.224,0.760,0.641,-13.565,24.916,-30.595,37.0,84.0
187923,0.139,0.711,0.666,6.466,24.198,-40.656,30.0,76.0
188000,0.058,0.855,0.572,19.840,17.878,-50.824,30.0,79.0
188078,-0.013,0.875,0.574,8.840,17.756,-55.282,30.0,83.0
188154,-0.101,0.804,0.599,-13.092,11.168,-45.557,34.0,73.0
188231,-0.090,0.895,0.690,-0.473,-0.962,-37.473,34.0,80.0
188309,-0.139,0.934,0.907,61.534,13.267,-13.504,42.0,82.0
188386,-0.036,0.885,0.853,8.817,-19.992,13.664,36.0,61.0
188462,0.021,0.845,0.868,-77.565,-66.015,14.160,33.0,64.0
188538,0.160,0.650,0.729,-78.107,-77.977,26.405,32.0,70.0
188618,0.112,0.778,0.548,-102.496,-87.183,4.573,33.0,74.0
188695,0.321,0.297,0.524,-120.740,-76.527,-53.992,33.0,70.0
188781,-0.056,0.521,0.465,-20.740,24.992,-76.649,0.0,67.0
188858,-0.042,0.230,0.433,-71.756,56.115,-22.336,37.0,66.0
188936,-1.764,1.014,2.000,94.107,-118.985,-4.267,37.0,68.0
189012,-0.582,0.735,2.000,12.855,-35.038,-62.183,35.0,68.0
189089,0.186,0.612,0.945,48.893,33.076,-54.496,34.0,68.0
189166,-0.039,0.256,1.303,41.489,44.534,-97.382,37.0,69.0
189246,-0.442,0.958,1.037,-37.626,73.656,-215.069,39.0,72.0
189334,-0.375,1.479,0.108,-146.160,32.702,-250.137,0.0,87.0
189422,0.164,-0.463,0.242,156.038,29.443,-166.992,0.0,97.0
189507,-0.441,-0.175,0.934,71.435,-59.084,-11.221,0.0,50.0
189592,0.032,0.433,0.804,45.947,-55.099,16.725,0.0,47.0
189677,-0.324,0.363,1.530,20.840,-52.779,37.282,0.0,50.0
189763,-0.256,0.846,0.785,-6.244,-23.244,18.985,0.0,50.0
189848,-1.327,0.958,0.692,-2.092,-8.641,7.145,0.0,48.0
189933,-0.932,0.155,0.618,61.748,-21.389,-11.107,0.0,55.0
190022,-0.354,0.321,0.354,-16.611,-61.420,-90.725,0.0,51.0
190107,0.382,1.058,1.141,-150.901,34.634,-224.603,0.0,53.0
190192,0.038,0.431,1.001,-250.137,73.779,-250.137,41.0,0.0
190279,-0.183,-0.656,1.059,-250.137,38.771,-241.710,66.0,0.0
190362,-0.419,-1.109,1.046,4.985,-84.962,-147.527,49.0,175.0
190448,0.064,-0.232,0.261,85.176,-224.511,-86.924,57.0,0.0
190536,0.508,-0.306,0.028,-26.611,-202.473,-185.878,94.0,0.0
190625,0.729,-0.886,-0.155,200.748,-113.664,-89.450,102.0,0.0
190716,0.956,0.323,-0.507,-64.725,-67.886,-193.817,114.0,187.0
190804,1.186,0.330,-0.141,-65.962,-36.038,-197.313,123.0,174.0
190897,0.949,0.865,-0.333,-30.908,-26.053,-113.107,0.0,167.0
190989,0.974,0.735,-0.132,39.107,-24.534,-53.664,0.0,164.0
191081,1.042,0.683,-0.040,6.519,-20.130,-74.000,0.0,163.0
191175,0.876,0.808,-0.108,29.023,-31.595,-53.573,0.0,0.0
191268,0.518,0.767,-0.129,-16.290,-18.000,-21.557,0.0,0.0
191363,0.950,0.794,-0.162,-3.695,-12.496,-18.656,0.0,0.0
191457,0.566,0.885,-0.191,7.832,1.618,-26.626,0.0,0.0
191554,0.615,0.745,-0.107,13.069,-3.031,-20.305,0.0,0.0
191647,0.669,0.744,-0.139,22.061,-3.824,-23.198,0.0,0.0
191741,0.596,0.849,-0.230,-21.359,15.359,-41.282,0.0,0.0
191836,0.539,0.745,-0.107,17.092,13.275,-42.832,0.0,0.0
191930,0.457,0.997,-0.156,1.000,22.511,-41.847,0.0,0.0
192024,0.382,0.835,-0.029,-36.145,29.695,-23.786,0.0,0.0
192117,0.384,0.906,0.040,-19.183,18.565,-28.527,0.0,0.0
192211,0.287,0.854,0.111,-51.023,17.626,-48.908,0.0,0.0
192306,0.200,1.120,0.162,-32.664,9.214,-46.573,0.0,0.0
192403,0.138,0.974,0.195,-23.718,6.878,-5.092,0.0,0.0
192497,0.195,0.909,0.227,-14.489,9.023,-7.557,0.0,0.0
192591,0.173,0.974,0.218,-17.214,10.565,-32.374,0.0,0.0
192685,0.029,1.048,0.258,-17.145,6.107,-17.969,0.0,0.0
192779,0.084,0.941,0.311,8.878,-2.534,5.550,0.0,0.0
192873,0.095,1.010,0.186,-1.847,-1.695,1.847,0.0,0.0
192967,0.072,1.085,0.435,-0.656,-11.344,63.748,0.0,0.0
193061,0.199,1.417,0.117,45.183,-25.748,157.351,0.0,0.0
193156,0.292,0.946,0.051,-174.237,-33.351,163.168,0.0,0.0
193251,0.564,-0.158,0.376,-250.137,-93.000,89.115,0.0,169.0
193345,0.916,0.334,0.203,-4.847,-70.985,85.992,0.0,0.0
193430,0.932,-0.026,0.331,-24.267,-55.298,50.779,57.0,176.0
193515,0.970,0.050,0.223,-10.626,-47.069,32.031,57.0,178.0
193608,1.005,0.052,0.152,-13.397,-28.962,20.405,0.0,179.0
193692,1.025,-0.023,0.147,19.504,-19.099,13.061,55.0,180.0
193785,1.013,0.106,0.093,-8.519,-12.336,11.282,0.0,181.0
193870,1.016,0.029,0.088,8.122,-8.214,12.061,51.0,181.0
193955,1.016,-0.042,0.114,1.893,-2.229,8.107,51.0,182.0
194042,1.005,-0.018,0.114,-1.542,-2.702,5.244,51.0,182.0
194127,1.005,-0.032,0.101,6.985,-1.450,3.611,50.0,182.0
194212,0.999,-0.029,0.109,3.099,-1.756,0.015,50.0,182.0
194296,1.002,-0.019,0.101,2.321,-4.000,-0.344,51.0,182.0
194381,1.005,-0.001,0.080,2.908,-3.855,-0.450,51.0,182.0
194466,1.003,-0.085,0.126,19.305,-0.672,0.809,51.0,182.0
194560,1.004,0.007,0.090,-15.435,-1.885,-4.221,0.0,182.0
194643,1.013,0.086,0.034,7.237,-3.824,-1.351,51.0,182.0
194737,1.011,-0.065,0.087,19.450,-0.702,-1.099,0.0,182.0
194834,1.052,-0.178,0.079,12.939,8.954,-7.374,0.0,181.0
194933,1.076,-0.158,-0.008,22.718,42.947,-50.969,0.0,179.0
195024,0.941,0.043,0.051,58.069,71.214,-96.962,0.0,175.0
195117,0.774,0.306,0.169,25.282,87.168,-138.855,0.0,168.0
195210,0.594,0.568,0.386,22.382,101.275,-137.824,0.0,0.0
195303,0.391,0.887,0.501,43.557,85.389,-120.405,0.0,0.0
195396,0.238,0.981,0.656,42.733,54.687,-71.237,0.0,0.0
195489,0.182,1.008,0.573,-17.160,21.908,-32.534,0.0,0.0
195586,0.213,0.796,0.476,15.519,12.527,-8.947,0.0,0.0
195679,0.173,0.786,0.456,52.496,16.992,-35.603,0.0,0.0
195772,0.047,1.254,0.411,9.191,7.542,-40.168,0.0,0.0
195865,0.117,0.875,0.406,7.336,-0.221,11.321,0.0,0.0
195958,0.070,0.941,0.387,16.527,6.244,-12.519,0.0,0.0
196051,0.048,0.927,0.342,32.687,0.687,2.565,0.0,0.0
196145,0.079,0.946,0.335,21.924,2.176,0.763,0.0,0.0
196238,0.089,0.969,0.291,7.115,1.588,-0.092,0.0,0.0
196331,0.080,0.969,0.284,1.687,0.702,-0.229,0.0,0.0
196424,0.083,0.980,0.265,4.275,-1.076,-0.107,0.0,0.0
196520,0.074,0.977,0.297,0.458,0.931,-0.626,0.0,0.0
196614,0.080,0.965,0.290,3.000,0.313,-0.397,0.0,0.0
196707,0.069,0.962,0.301,-0.954,0.550,-0.260,0.0,0.0
196800,0.077,0.966,0.302,2.099,0.160,-0.183,0.0,0.0
196893,0.076,0.971,0.295,1.168,0.374,-0.252,0.0,0.0
196986,0.071,0.970,0.264,2.580,-0.847,0.710,0.0,0.0
197080,0.077,0.966,0.296,-1.328,0.969,-0.130,0.0,0.0
197173,0.072,0.956,0.308,-0.351,0.679,-0.855,0.0,0.0
197266,0.074,0.955,0.307,2.573,0.511,-0.107,0.0,0.0
197359,0.084,0.956,0.307,-0.489,0.496,-0.496,0.0,0.0
197455,0.075,0.959,0.295,2.252,0.061,0.000,0.0,0.0
197549,0.065,0.959,0.304,2.885,-0.122,0.160,0.0,0.0
197642,0.077,0.954,0.316,1.557,0.740,-0.046,0.0,0.0
197735,0.078,0.981,0.273,1.153,0.214,-0.099,0.0,0.0
197828,0.079,0.955,0.303,2.702,-0.366,0.053,0.0,0.0
197921,0.087,0.969,0.294,1.908,-0.031,-0.176,0.0,0.0
198014,0.070,0.955,0.307,3.687,0.076,0.176,0.0,0.0
198108,0.079,0.964,0.297,1.244,0.344,-0.015,0.0,0.0
198201,0.075,0.971,0.287,0.878,-0.153,-0.038,0.0,0.0
198297,0.076,0.975,0.298,3.634,-0.107,0.160,0.0,0.0
198391,0.076,0.966,0.300,1.618,0.450,-0.115,0.0,0.0
198484,0.073,0.942,0.309,16.145,-0.305,0.664,0.0,0.0
198578,0.085,0.990,0.249,11.916,-1.183,0.084,0.0,0.0
198671,0.078,0.980,0.258,2.328,0.122,-0.542,0.0,0.0
198764,0.076,0.980,0.262,2.695,-0.015,-0.069,0.0,0.0
198858,0.083,0.977,0.260,2.267,0.031,-0.130,0.0,0.0
198951,0.076,0.978,0.257,1.565,0.397,-0.092,0.0,0.0
199045,0.083,0.979,0.259,2.031,0.145,-0.015,0.0,0.0
199138,0.070,0.977,0.266,1.603,0.122,-0.137,0.0,0.0
199234,0.080,0.984,0.252,1.748,0.122,-0.382,0.0,0.0
199327,0.071,0.980,0.258,2.061,0.336,0.145,0.0,0.0
199421,0.081,0.985,0.261,1.840,-0.107,-0.298,0.0,0.0
199515,0.080,0.977,0.250,2.160,0.076,-0.198,0.0,0.0
199608,0.077,0.975,0.252,1.160,0.122,-0.069,0.0,0.0
199701,0.076,0.975,0.253,2.840,0.198,0.069,0.0,0.0
199795,0.081,0.975,0.251,1.076,0.015,-0.229,0.0,0.0
199888,0.077,0.979,0.249,2.084,0.046,0.031,0.0,0.0
199982,0.070,0.981,0.252,1.863,0.321,0.137,0.0,0.0
200075,0.079,0.978,0.242,1.840,0.099,0.092,0.0,0.0
200166,0.075,0.976,0.256,1.977,-0.198,-0.244,0.0,0.0
200260,0.073,0.975,0.247,0.588,0.534,-0.015,0.0,0.0
200353,0.073,0.983,0.264,2.107,0.198,-0.061,0.0,0.0
200446,0.085,0.982,0.241,1.282,0.336,0.122,0.0,0.0
200540,0.081,0.976,0.257,2.031,0.031,-0.084,0.0,0.0
200634,0.078,0.970,0.255,0.878,0.282,-0.313,0.0,0.0
200727,0.075,0.974,0.252,1.519,0.305,0.099,0.0,0.0
200820,0.082,0.980,0.260,1.137,0.076,0.061,0.0,0.0
200914,0.079,0.980,0.250,1.725,0.267,-0.031,0.0,0.0
201011,0.080,0.977,0.251,0.817,0.145,-0.115,0.0,0.0
201105,0.071,0.980,0.258,2.153,0.191,-0.008,0.0,0.0
201198,0.075,0.978,0.256,1.382,0.229,-0.115,0.0,0.0
201291,0.076,0.979,0.253,2.901,-0.130,0.168,0.0,0.0
201385,0.076,0.974,0.255,1.023,-0.038,-0.038,0.0,0.0
201479,0.077,0.981,0.252,1.534,0.595,0.160,0.0,0.0
201573,0.080,0.984,0.256,1.710,0.214,-0.038,0.0,0.0
201666,0.077,0.974,0.243,-2.763,2.611,-0.084,0.0,0.0
201760,0.080,0.965,0.273,2.695,-0.038,-0.092,0.0,0.0
201853,0.082,0.976,0.245,3.519,-0.214,0.092,0.0,0.0
201951,0.080,0.976,0.254,1.183,0.130,-0.191,0.0,0.0
202044,0.075,0.978,0.251,1.855,0.267,0.000,0.0,0.0
202138,0.074,0.982,0.254,2.008,-0.053,0.076,0.0,0.0
202231,0.080,0.980,0.250,1.748,0.244,-0.176,0.0,0.0
202326,0.074,0.980,0.257,2.076,0.122,-0.198,0.0,0.0
202419,0.069,0.980,0.257,1.389,0.122,0.076,0.0,0.0
202513,0.075,0.980,0.245,1.557,0.015,-0.153,0.0,0.0
202606,0.073,0.980,0.256,4.779,-0.336,0.137,0.0,0.0
202700,0.075,0.981,0.243,0.702,0.084,-0.092,0.0,0.0
202793,0.074,0.977,0.247,1.687,0.252,-0.084,0.0,0.0
202891,0.074,0.968,0.246,1.916,0.008,-0.046,0.0,0.0
202984,0.071,0.976,0.248,1.473,0.237,-0.076,0.0,0.0
203078,0.077,0.978,0.256,0.985,0.221,-0.122,0.0,0.0
203171,0.074,0.985,0.254,1.962,0.137,-0.137,0.0,0.0
203266,0.075,0.979,0.247,1.076,0.229,0.221,0.0,0.0
203359,0.075,0.984,0.236,1.557,0.183,0.076,0.0,0.0
203453,0.078,0.981,0.251,1.969,0.076,-0.267,0.0,0.0
203546,0.076,0.981,0.254,0.817,0.206,-0.282,0.0,0.0
203640,0.083,0.977,0.246,2.130,0.145,-0.061,0.0,0.0
203738,0.077,0.977,0.257,1.725,-0.046,-0.015,0.0,0.0
203831,0.078,0.976,0.249,1.084,0.359,-0.145,0.0,0.0
203925,0.081,0.980,0.250,1.305,0.191,0.008,0.0,0.0
204019,0.070,0.972,0.248,1.573,0.298,0.000,0.0,0.0
204112,0.081,0.982,0.248,2.099,0.183,-0.359,0.0,0.0
204207,0.069,0.982,0.251,1.183,0.115,-0.099,0.0,0.0
204301,0.079,0.978,0.245,1.015,0.183,-0.214,0.0,0.0
204394,0.080,0.978,0.247,2.481,-0.008,-0.046,0.0,0.0
204488,0.080,0.981,0.254,1.511,0.160,-0.023,0.0,0.0
204582,0.078,0.980,0.249,1.573,0.145,-0.099,0.0,0.0
204679,0.078,0.984,0.255,1.916,0.115,-0.069,0.0,0.0
204773,0.077,0.975,0.254,1.412,0.107,0.023,0.0,0.0
204867,0.074,0.979,0.248,1.908,0.069,0.061,0.0,0.0
204961,0.078,0.977,0.255,2.229,0.015,-0.237,0.0,0.0
205054,0.076,0.976,0.245,1.237,0.198,-0.076,0.0,0.0
205149,0.076,0.979,0.248,2.115,0.092,0.038,0.0,0.0
205243,0.079,0.980,0.254,1.947,-0.069,-0.321,0.0,0.0
205336,0.083,0.981,0.234,1.733,-0.015,-0.198,0.0,0.0
205430,0.072,0.976,0.260,-0.008,0.336,-0.046,0.0,0.0
205524,0.081,0.977,0.251,1.771,0.076,-0.198,0.0,0.0
205622,0.077,0.977,0.242,1.328,-0.084,-0.443,0.0,0.0
205716,0.079,0.982,0.260,1.901,0.137,-0.031,0.0,0.0
205810,0.075,0.978,0.264,0.847,0.336,0.198,0.0,0.0
205904,0.080,0.981,0.258,1.191,0.435,0.214,0.0,0.0
205998,0.075,0.980,0.250,1.519,0.061,-0.244,0.0,0.0
206092,0.074,0.976,0.257,2.931,-0.237,-0.206,0.0,0.0
206186,0.085,0.978,0.250,0.351,0.573,-0.046,0.0,0.0
206280,0.076,0.979,0.251,2.313,0.153,0.267,0.0,0.0
206374,0.077,0.974,0.264,1.053,0.321,0.153,0.0,0.0
206472,0.078,0.976,0.249,1.076,0.168,0.191,0.0,0.0
206566,0.072,0.978,0.258,0.962,0.198,0.260,0.0,0.0
206660,0.076,0.982,0.253,0.908,0.481,0.229,0.0,0.0
206753,0.077,0.979,0.254,1.908,0.084,-0.267,0.0,0.0
206854,0.075,0.978,0.253,1.489,0.176,0.023,0.0,0.0
206947,0.081,0.979,0.250,1.137,0.168,-0.069,0.0,0.0
207039,0.075,0.976,0.251,2.031,0.191,-0.031,0.0,0.0
207132,0.076,0.975,0.263,1.389,0.252,-0.183,0.0,0.0
207225,0.077,0.981,0.258,1.870,0.214,-0.076,0.0,0.0
207319,0.077,0.974,0.253,2.031,0.092,-0.214,0.0,0.0
207415,0.070,0.975,0.249,1.771,0.282,-0.031,0.0,0.0
207507,0.073,0.979,0.249,1.458,0.122,-0.084,0.0,0.0
207600,0.077,0.977,0.246,2.099,0.107,0.000,0.0,0.0
207693,0.075,0.977,0.254,0.992,0.397,-0.061,0.0,0.0
207787,0.073,0.976,0.255,2.351,0.191,0.115,0.0,0.0
207880,0.072,0.977,0.250,1.282,-0.053,-0.137,0.0,0.0
207973,0.071,0.979,0.244,1.924,-0.038,0.214,0.0,0.0
208066,0.078,0.978,0.261,2.191,0.031,0.191,0.0,0.0
208159,0.077,0.981,0.255,1.298,0.168,-0.115,0.0,0.0
208252,0.070,0.980,0.256,1.824,0.046,-0.053,0.0,0.0
208349,0.074,0.980,0.253,1.458,0.145,0.031,0.0,0.0
208442,0.074,0.975,0.258,2.000,0.427,0.061,0.0,0.0
208535,0.078,0.973,0.249,0.649,0.267,-0.252,0.0,0.0
208628,0.079,0.979,0.249,1.939,-0.145,-0.260,0.0,0.0
208721,0.071,0.974,0.253,1.221,0.031,-0.206,0.0,0.0
208815,0.071,0.974,0.262,1.832,0.160,0.168,0.0,0.0
208907,0.078,0.975,0.253,1.160,0.137,0.000,0.0,0.0
209000,0.075,0.980,0.257,1.885,0.153,0.160,0.0,0.0
209093,0.073,0.973,0.255,1.160,0.305,-0.084,0.0,0.0
209189,0.079,0.977,0.257,2.053,0.092,0.206,0.0,0.0
209283,0.080,0.974,0.252,1.137,0.191,-0.137,0.0,0.0
209376,0.080,0.978,0.261,1.786,0.237,0.008,0.0,0.0
209469,0.073,0.976,0.249,1.397,0.107,-0.214,0.0,0.0
209562,0.080,0.978,0.260,1.519,0.061,-0.099,0.0,0.0
209655,0.070,0.974,0.247,1.588,0.038,-0.023,0.0,0.0
209748,0.079,0.974,0.257,1.473,0.160,0.214,0.0,0.0
209842,0.074,0.973,0.250,1.435,0.198,-0.099,0.0,0.0
209935,0.078,0.977,0.258,2.137,0.214,-0.023,0.0,0.0
210028,0.074,0.980,0.255,0.939,0.130,-0.198,0.0,0.0
210124,0.069,0.975,0.255,2.466,0.092,0.107,0.0,0.0
210217,0.080,0.971,0.260,1.626,0.122,-0.359,0.0,0.0
210312,0.075,0.979,0.260,1.611,0.374,-0.038,0.0,0.0
210405,0.073,0.970,0.246,1.366,0.160,-0.237,0.0,0.0
210498,0.074,0.978,0.250,2.015,-0.031,-0.122,0.0,0.0
210591,0.082,0.974,0.262,1.679,0.023,-0.107,0.0,0.0
210684,0.080,0.978,0.262,1.931,0.191,-0.122,0.0,0.0
210779,0.082,0.976,0.254,0.893,0.191,-0.107,0.0,0.0
210872,0.081,0.972,0.263,2.130,-0.107,-0.115,0.0,0.0
210965,0.077,0.971,0.258,1.435,0.107,-0.099,0.0,0.0
211061,0.078,0.975,0.252,1.573,0.336,0.084,0.0,0.0
211154,0.081,0.981,0.252,1.656,0.069,-0.137,0.0,0.0
211249,0.073,0.976,0.249,1.206,0.267,0.046,0.0,0.0
211342,0.074,0.971,0.251,1.511,0.198,-0.198,0.0,0.0
211435,0.073,0.979,0.261,1.939,0.092,0.137,0.0,0.0
211528,0.079,0.972,0.251,1.160,0.092,-0.122,0.0,0.0
211621,0.072,0.972,0.252,2.000,0.183,-0.008,0.0,0.0
211716,0.076,0.970,0.266,1.137,0.176,-0.282,0.0,0.0
211809,0.074,0.975,0.252,1.756,0.252,-0.137,0.0,0.0
211902,0.072,0.975,0.255,1.473,0.336,-0.038,0.0,0.0
211993,0.072,0.975,0.253,1.489,0.275,0.099,0.0,0.0
212086,0.076,0.977,0.256,2.008,-0.099,-0.122,0.0,0.0
212180,0.074,0.971,0.267,0.725,0.237,0.000,0.0,0.0
212274,0.078,0.980,0.251,2.115,0.061,0.015,0.0,0.0
212367,0.076,0.974,0.250,1.588,0.183,-0.137,0.0,0.0
212460,0.078,0.978,0.264,1.855,0.221,-0.122,0.0,0.0
212554,0.074,0.967,0.265,2.000,0.282,0.038,0.0,0.0
212647,0.079,0.972,0.251,1.580,0.115,-0.092,0.0,0.0
212741,0.074,0.976,0.252,1.595,0.160,-0.191,0.0,0.0
212838,0.078,0.979,0.254,2.031,-0.183,-0.107,0.0,0.0
212931,0.075,0.977,0.250,1.702,0.015,-0.237,0.0,0.0
213025,0.083,0.977,0.249,2.550,-0.084,0.061,0.0,0.0
213118,0.076,0.972,0.258,1.328,0.229,0.008,0.0,0.0
213212,0.074,0.977,0.249,1.221,0.031,-0.046,0.0,0.0
213306,0.070,0.975,0.255,2.481,0.046,0.092,0.0,0.0
213399,0.079,0.976,0.250,0.878,0.153,-0.053,0.0,0.0
213493,0.079,0.971,0.255,1.519,0.031,-0.206,0.0,0.0
213586,0.078,0.973,0.260,2.084,0.038,0.107,0.0,0.0
213680,0.070,0.975,0.257,0.794,0.061,-0.008,0.0,0.0
213777,0.076,0.978,0.250,2.084,0.084,0.046,0.0,0.0
213870,0.069,0.981,0.254,1.298,0.153,-0.084,0.0,0.0
213964,0.078,0.973,0.257,1.405,-0.046,-0.176,0.0,0.0
214057,0.076,0.972,0.253,1.962,-0.038,0.084,0.0,0.0
214152,0.080,0.976,0.261,1.229,0.298,0.115,0.0,0.0
214245,0.079,0.980,0.259,1.313,0.130,-0.061,0.0,0.0
214339,0.076,0.979,0.259,1.908,0.198,0.076,0.0,0.0
214432,0.071,0.981,0.250,1.397,0.191,-0.107,0.0,0.0
214526,0.075,0.967,0.256,1.580,0.313,0.122,0.0,0.0
214620,0.071,0.977,0.264,1.183,0.290,-0.153,0.0,0.0
214717,0.077,0.983,0.255,1.611,0.160,-0.107,0.0,0.0
214810,0.074,0.980,0.252,1.557,0.198,-0.282,0.0,0.0
214904,0.070,0.976,0.246,1.840,0.221,-0.160,0.0,0.0
214998,0.076,0.976,0.256,1.580,0.076,-0.153,0.0,0.0
215092,0.076,0.978,0.259,1.656,0.153,-0.176,0.0,0.0
215186,0.083,0.972,0.250,1.618,0.252,-0.031,0.0,0.0
215279,0.073,0.974,0.262,1.695,0.176,0.099,0.0,0.0
215373,0.078,0.972,0.257,1.267,0.122,-0.023,0.0,0.0
215467,0.074,0.977,0.254,2.084,0.092,-0.023,0.0,0.0
215564,0.071,0.972,0.256,1.160,0.275,-0.130,0.0,0.0
215658,0.070,0.980,0.248,1.756,0.260,0.145,0.0,0.0
215751,0.076,0.971,0.260,1.580,0.191,-0.046,0.0,0.0
215845,0.072,0.974,0.254,1.534,0.046,-0.107,0.0,0.0
215940,0.073,0.977,0.255,1.611,0.176,0.076,0.0,0.0
216033,0.074,0.974,0.260,0.618,0.412,0.046,0.0,0.0
216127,0.075,0.980,0.254,1.824,0.107,-0.176,0.0,0.0
216221,0.073,0.971,0.263,1.969,0.015,-0.176,0.0,0.0
216314,0.074,0.978,0.257,1.183,0.122,-0.137,0.0,0.0
216409,0.077,0.981,0.258,2.031,0.183,-0.046,0.0,0.0
216506,0.075,0.977,0.262,1.740,0.160,-0.176,0.0,0.0
216599,0.080,0.974,0.261,1.229,0.145,-0.115,0.0,0.0
216693,0.071,0.978,0.261,1.176,0.313,-0.221,0.0,0.0
216787,0.071,0.983,0.250,1.450,0.115,-0.053,0.0,0.0
216882,0.071,0.974,0.266,2.450,-0.168,-0.053,0.0,0.0
216975,0.076,0.973,0.250,1.061,0.168,-0.183,0.0,0.0
217069,0.076,0.977,0.261,1.969,0.122,-0.183,0.0,0.0
217163,0.071,0.973,0.260,1.588,0.221,-0.061,0.0,0.0
217257,0.077,0.974,0.256,1.534,0.168,0.000,0.0,0.0
217351,0.073,0.967,0.259,1.649,0.237,0.008,0.0,0.0
217448,0.074,0.971,0.263,1.962,0.137,0.038,0.0,0.0
217542,0.073,0.979,0.258,1.786,0.229,-0.008,0.0,0.0
217636,0.075,0.969,0.266,1.817,0.229,0.015,0.0,0.0
217731,0.068,0.980,0.264,0.885,0.214,-0.275,0.0,0.0
217824,0.071,0.976,0.252,2.076,-0.031,-0.076,0.0,0.0
217918,0.074,0.973,0.266,1.298,0.321,-0.198,0.0,0.0
218012,0.077,0.970,0.255,1.412,0.130,-0.008,0.0,0.0
218106,0.070,0.976,0.262,2.153,-0.046,-0.206,0.0,0.0
218201,0.072,0.969,0.255,1.840,-0.046,-0.069,0.0,0.0
218298,0.079,0.978,0.256,1.130,0.237,-0.031,0.0,0.0
218392,0.074,0.968,0.266,2.275,0.145,-0.046,0.0,0.0
218486,0.075,0.979,0.260,0.794,0.282,-0.344,0.0,0.0
218580,0.073,0.979,0.262,1.794,0.206,0.053,0.0,0.0
218675,0.068,0.980,0.262,1.557,0.313,-0.168,0.0,0.0
218774,0.076,0.979,0.251,1.397,0.069,-0.076,0.0,0.0
218867,0.069,0.978,0.253,1.832,0.099,-0.198,0.0,0.0
218960,0.071,0.979,0.260,1.389,0.313,0.023,0.0,0.0
219054,0.075,0.979,0.257,1.634,-0.015,-0.137,0.0,0.0
219147,0.073,0.979,0.261,-1.603,0.542,-1.137,0.0,0.0
219242,0.064,0.973,0.271,1.802,-0.084,0.023,0.0,0.0
219335,0.073,0.983,0.248,-0.214,0.282,-0.344,0.0,0.0
219428,0.073,0.974,0.269,3.275,-0.336,-0.137,0.0,0.0
219522,0.069,0.973,0.267,1.137,0.252,-0.160,0.0,0.0
219615,0.072,0.972,0.249,2.427,-0.023,-0.023,0.0,0.0
219708,0.077,0.971,0.276,1.580,0.099,-0.183,0.0,0.0
219801,0.077,0.971,0.266,2.053,0.099,0.000,0.0,0.0
219894,0.074,0.975,0.266,2.092,0.130,-0.153,0.0,0.0
219987,0.069,0.970,0.261,1.122,0.069,0.122,0.0,0.0
220081,0.076,0.977,0.257,1.893,0.229,0.198,0.0,0.0
220177,0.006,1.030,0.246,-8.924,0.099,13.183,0.0,0.0
220270,0.109,1.457,0.308,-8.237,-36.969,102.611,0.0,0.0
220363,0.195,1.057,0.262,-127.886,-58.038,127.931,0.0,0.0
220456,0.412,0.504,0.431,-96.168,-73.168,122.382,0.0,0.0
220549,0.688,0.374,0.370,-56.939,-68.916,95.924,0.0,167.0
220640,0.803,0.315,0.358,-54.214,-63.985,71.282,0.0,170.0
220732,0.904,0.187,0.287,-13.183,-52.603,59.824,0.0,175.0
220824,0.985,0.106,0.220,-7.031,-35.069,38.580,0.0,177.0
220916,0.994,0.082,0.188,-3.908,-19.885,23.267,0.0,178.0
221011,0.987,0.037,0.222,-1.389,-10.221,12.252,0.0,178.0
221104,0.979,0.068,0.204,4.183,-6.382,8.710,0.0,179.0
221196,0.988,0.075,0.196,8.763,-4.763,6.191,0.0,179.0
221281,0.993,0.044,0.190,6.954,-3.145,4.397,73.0,179.0
221366,0.988,0.083,0.187,11.656,-1.771,4.527,72.0,179.0
221451,0.989,0.028,0.199,-1.046,-5.504,7.687,71.0,179.0
221536,1.000,0.022,0.164,0.557,-3.122,6.695,71.0,180.0
221620,1.006,0.025,0.148,5.763,-0.221,2.985,60.0,180.0
221705,0.997,0.023,0.174,5.924,2.649,-0.504,71.0,180.0
221792,0.987,0.050,0.184,1.496,0.443,-0.740,71.0,180.0
221877,0.999,0.066,0.161,2.863,0.015,-0.366,72.0,179.0
221962,0.997,0.057,0.153,3.122,0.870,-1.336,58.0,179.0
222046,1.017,-0.023,0.146,15.603,7.321,-4.443,71.0,179.0
222139,1.028,-0.110,0.105,27.802,32.061,-21.443,0.0,178.0
222230,0.962,-0.211,0.180,101.244,80.298,-65.886,0.0,174.0
222322,0.696,-0.033,0.237,250.130,82.099,-118.473,0.0,166.0
222416,0.867,1.413,-0.088,-58.695,6.519,-120.931,0.0,0.0
222510,0.596,0.762,0.296,-213.313,68.824,-108.679,0.0,0.0
222600,0.374,0.555,0.693,-87.374,57.947,-71.229,83.0,0.0
222686,0.375,0.622,0.694,-32.237,51.191,-30.679,80.0,0.0
222773,0.308,0.670,0.644,-75.931,52.122,-26.656,78.0,0.0
222859,0.177,0.663,0.814,-64.099,71.740,-5.763,58.0,0.0
222944,-0.067,0.470,0.839,21.359,32.183,6.672,48.0,0.0
223030,-0.005,0.432,0.892,-37.107,55.817,-6.611,79.0,0.0
223124,-0.268,0.691,1.041,79.527,15.702,-31.069,0.0,0.0
223211,0.061,0.914,0.589,-58.466,29.840,27.328,82.0,0.0
223306,-0.107,0.061,1.392,-47.664,6.817,7.450,30.0,0.0
223394,-0.147,0.847,1.130,43.634,-7.489,-0.550,64.0,0.0
223480,0.493,-0.203,0.361,43.908,53.145,-25.252,30.0,0.0
223570,0.186,0.798,0.393,116.405,-15.817,-73.405,81.0,0.0
223666,0.016,0.426,1.237,76.573,26.313,-91.733,0.0,0.0
223762,-0.256,0.922,0.970,49.779,98.511,-120.588,0.0,0.0
223858,-2.000,1.695,-0.406,-122.977,44.366,85.313,0.0,0.0
223945,-0.714,0.778,0.405,-10.580,-22.832,250.130,45.0,0.0
224029,-0.345,-0.497,0.159,-250.137,-14.290,250.130,33.0,145.0
