Timestamp(ms),AccelX(g),AccelY(g),AccelZ(g),GyroX(deg/s),GyroY(deg/s),GyroZ(deg/s),DistanceLeft(cm),DistanceRight(cm)
23713,-0.103,0.069,1.034,2.244,13.061,0.305,72,65
23761,-0.135,0.121,1.077,13.115,28.282,0.038,72,65
23810,-0.214,0.139,1.061,12.038,12.779,-4.611,73,68
23865,-0.197,0.226,1.002,4.519,-7.626,-6.87,0,64
23920,-0.174,0.202,0.996,-2.924,-4.733,3.336,198,66
23975,-0.14,0.173,0.968,-3.29,1.863,8.427,0,68
24031,-0.151,0.212,0.986,-12.405,20.374,16.046,0,71
24087,-0.184,0.187,1.067,-20.015,7.42,15.687,0,68
24145,-0.169,0.163,1.039,-18.725,-4.725,9.122,0,66
24194,-0.169,0.138,1.048,-14.603,-8.641,9.656,75,66
24249,-0.142,0.126,1.052,-13.985,-2.031,13.389,0,60
24304,-0.107,0.088,1.05,-10.191,-4.229,6,0,67
24359,-0.1,0.057,1.021,-5.55,-0.313,-4.794,0,66
24416,-0.148,0.064,1.054,-0.626,3.901,-8.817,0,65
24471,-0.203,0.074,1.096,-0.908,-4.267,-3.504,0,65
24526,-0.158,0.072,1.063,2.053,-13.824,-1.878,0,61
24582,-0.095,0.081,1.033,3.359,-8.725,-2.137,0,62
24640,-0.102,0.082,1.035,3.328,3.489,-1.168,0,63
24684,-0.123,0.094,1.063,3.641,-2.786,-4.153,16,62
24739,-0.1,0.097,1.03,2.855,-1.832,-3.237,0,65
24795,-0.143,0.084,1.051,3.282,2.641,-1.504,0,60
24850,-0.138,0.092,1.048,2.496,-5.061,-0.145,0,63
24905,-0.105,0.082,1.028,2.771,-2.664,0.191,0,60
24960,-0.103,0.101,1.052,4.16,0.641,0.42,182,59
25014,-0.103,0.093,1.035,3.214,1.718,-0.702,181,59
25068,-0.092,0.079,1.058,2.168,1.779,-2.695,183,60
25125,-0.11,0.059,1.058,5.626,1.794,-7.733,183,61
25181,-0.101,0.142,1.011,3.244,7.206,-5.71,0,65
25236,-0.178,0.141,1.062,-2.366,6.374,1.756,0,66
25292,-0.133,0.122,1.032,-0.954,-5.84,2.168,0,65
25336,-0.081,0.132,0.997,-2.344,3.191,2.313,9,60
25391,-0.1,0.101,1.051,-5.649,3.954,0.328,185,60
25445,-0.121,0.049,1.096,-5.779,-19.458,-10.366,184,58
25499,-0.052,0.099,1.104,-1.725,2.183,-3.565,183,57
25554,-0.058,0.068,1.274,18.237,-9.809,-16.458,0,57
25613,-0.005,0.15,1.155,41.489,-30.107,-43.229,193,66
25661,-0.046,0.177,0.962,48.519,-4.733,-33.137,73,64
25709,-0.174,0.214,0.939,38.053,30.237,-9.45,72,57
25756,-0.261,0.184,0.986,25.618,1.786,-1.382,73,57
25804,-0.145,0.228,0.881,11.992,-27.115,-0.244,74,58
25852,-0.018,0.203,0.871,0.183,-3.962,4.573,74,51
25900,-0.07,0.184,0.986,-4.038,10.374,2.603,73,52
25947,-0.081,0.192,1.003,-7.55,6.267,1.275,73,52
25995,-0.07,0.182,1.018,-9.695,8.046,1.832,74,52
26046,-0.094,0.183,1.053,-8.847,13.183,4.122,73,66
26094,-0.075,0.204,1.114,-10.076,2.87,7.489,73,66
26140,-0.024,0.199,1.11,-3.71,1.718,3.939,30,66
26188,-0.074,0.215,1.087,3,6.107,0.756,72,65
26233,-0.155,0.227,1.022,0.099,8.977,9.328,30,65
26279,-0.158,0.198,1.04,-9.191,-5.351,20.328,29,66
26371,0.031,0.18,0.998,-2.374,-12.916,3.305,71,67
26419,0,0.211,1.01,0.359,15.092,0.74,71,66
26468,-0.089,0.227,1.056,-1.809,17.382,0.557,71,67
26519,-0.102,0.231,1.062,-9.29,-5.969,-0.145,72,67
26563,-0.082,0.14,1.09,-15.427,-31.046,-3.443,7,68
26608,0.033,0.089,1.088,-2.191,0.412,4.84,7,59
26656,-0.007,0.099,1.06,13.412,35.336,1.924,71,67
26704,-0.109,0.143,1.1,18.672,35.122,-3.282,72,67
26750,-0.155,0.224,1.119,18.137,-3.466,-15.313,23,66
26799,-0.098,0.247,1.017,15.053,-26.763,-20.802,73,57
26847,-0.047,0.226,0.954,11.573,-9.618,-15.061,73,67
26895,-0.096,0.222,1.002,10.55,11.084,-7.573,73,57
26946,-0.116,0.238,1.032,8.473,4.382,-4.687,74,59
26994,-0.105,0.221,1.023,5.206,-1.061,-2.679,73,66
27042,-0.101,0.216,1.006,2.115,4.924,0.573,74,65
27090,-0.113,0.204,1.01,-0.969,5.038,2.45,74,58
27139,-0.092,0.191,0.991,-3.954,2.466,3.611,73,57
27187,-0.094,0.199,1.021,-7.878,5.153,5.405,73,57
27235,-0.096,0.185,1.041,-6.221,1.031,3.29,72,67
27284,-0.083,0.197,1.01,-4.221,4.145,1.206,72,67
27332,-0.134,0.207,1.006,-9.466,13.55,8.55,73,67
27380,-0.127,0.186,1.051,-12.458,1.458,11.977,72,67
27429,-0.073,0.196,1.018,-11.397,-2.458,7.695,16,68
27478,-0.064,0.172,1.039,-8.695,2.908,3.328,73,69
27523,-0.08,0.153,1.057,-5.664,0.992,-1.626,6,69
27567,-0.09,0.13,1.043,-4.29,1.489,-2.038,9,60
27613,-0.104,0.191,1.041,-5.435,11.237,-0.13,16,70
27658,-0.147,0.163,1.103,-5.221,2.191,-1.817,16,58
27703,-0.099,0.135,1.106,4.008,-14.412,-4.603,16,59
27747,-0.029,0.138,1.022,13.611,16.038,1.015,16,58
27803,-0.097,0.188,1.103,16.809,36.115,2.954,196,65
27854,-0.223,0.188,1.154,21.748,-2.656,-9.573,73,65
27899,-0.13,0.219,1.004,23.137,-27.191,-15.038,16,65
27949,-0.073,0.231,0.942,18.733,-7.634,-9.847,73,66
27998,-0.131,0.237,0.968,12.511,8.733,-6.29,76,66
28053,-0.165,0.205,1.001,10.053,-3.542,-7.656,197,57
28097,-0.105,0.239,0.971,5.786,-2.832,-7.687,16,52
28142,-0.125,0.223,1.024,5.885,3.137,-6.718,18,57
28188,-0.124,0.224,1.018,7.305,2.252,-7.275,23,66
28234,-0.113,0.25,1.017,4.412,3.046,-6.84,29,59
28292,-0.127,0.225,1.025,0.672,1.611,-5.794,0,52
28347,-0.149,0.215,1.036,3.443,-0.473,-5.16,0,52
28402,-0.125,0.262,1.028,3.794,0.779,-3.885,0,51
28447,-0.126,0.257,1.025,4.87,-4.397,-4.305,23,51
28503,-0.105,0.279,1.015,5.695,0.336,-3.939,0,51
28548,-0.138,0.283,1.018,6.16,1.954,-2.076,22,57
28594,-0.145,0.226,1.022,4.252,-2.786,0.366,22,58
28639,-0.1,0.254,1.007,5.244,-2.023,-1.565,22,61
28694,-0.103,0.257,0.979,0.977,2.832,-3.55,0,51
28752,-0.131,0.222,1.006,-2.435,-0.641,-2.42,0,51
28840,-0.103,0.235,1.063,0.893,-0.878,-5.214,24,51
28896,-0.138,0.201,1.052,4.672,2.817,-3.511,0,59
28951,-0.167,0.209,0.979,-0.611,7.496,8.252,0,52
28997,-0.141,0.142,0.965,-14.916,-4.244,18.725,37,53
29052,-0.106,0.214,0.981,-21.58,0.015,16.275,0,53
29109,-0.105,0.23,1.003,-21.031,2.977,12.397,197,67
29155,-0.099,0.301,1.068,-23.901,-1.076,6.771,16,71
29211,-0.058,0.25,1.079,-14.786,-12.786,-3.145,197,68
29263,-0.009,0.27,1.027,-4.947,5.87,-10.061,73,69
29313,-0.127,0.213,1.056,-3.374,18.344,-4,74,68
29368,-0.177,0.194,1.079,-1.74,6.794,-1.183,196,64
29424,-0.126,0.155,1.048,-3.718,-12.634,-3.298,0,65
29479,-0.02,0.1,1.018,-4.206,-15.656,-7.634,197,61
29536,-0.087,0.097,1.088,6.679,21.26,1.389,196,67
29592,-0.14,0.183,1.122,18.13,30.779,4.977,0,60
29637,-0.192,0.194,1.107,17.626,-5.992,-2.908,16,61
29683,-0.111,0.245,1,15.267,-24.107,-8.053,20,69
29743,-0.07,0.216,0.97,11.618,-11.145,-7.473,200,67
29789,-0.098,0.245,1,11,4.015,-5.45,16,66
29845,-0.141,0.213,1.042,11.015,6.244,-4.748,0,66
29901,-0.123,0.306,1.051,13.382,2.374,-5.229,0,65
29946,-0.096,0.299,1.025,13.26,6,-4.084,16,58
30002,-0.146,0.237,1.053,12.191,1.031,-1.267,0,52
30047,-0.102,0.278,1.01,8.481,-5.229,-1.397,30,52
30094,-0.114,0.256,1.002,3.328,-1.16,-2.595,31,60
30155,-0.205,0.204,0.979,5.023,-0.16,3.496,0,60
30213,-0.182,0.204,0.918,-5.809,-1.321,16.58,0,59
30257,-0.13,0.159,0.96,-19.71,-7.824,23.481,16,52
30312,-0.07,0.16,1.013,-20.405,-13.649,16.29,0,58
30367,0.043,0.202,1.055,-7.221,-4.962,1.595,0,68
30413,0.002,0.272,1.059,-1.878,4.885,-11.847,30,69
30459,-0.047,0.289,1.06,-5.504,7.817,-8.29,30,68
30515,-0.102,0.229,1.079,-3.053,4.931,-6.122,0,68
30571,-0.112,0.238,1.032,2.275,1.16,-3.977,0,76
30626,-0.103,0.247,1.025,4.672,9.771,0.344,0,76
30682,-0.114,0.224,1.044,1.221,-1.374,1.168,0,67
30731,-0.047,0.197,1.033,-4.45,-16.046,-7.412,38,67
30777,-0.054,0.16,1.051,-1.015,10.878,-3.229,37,67
30833,-0.104,0.136,1.096,8.351,18.359,-0.176,0,66
30878,-0.116,0.257,1.101,13.137,9.504,-2.664,30,54
30932,-0.12,0.305,1.047,14.061,-11.107,-10.611,0,53
30987,-0.076,0.316,0.975,10.466,-12.298,-8.443,0,52
31043,-0.134,0.279,1.004,8.496,1.076,0.153,0,66
31097,-0.086,0.248,0.991,7.275,-10.481,-1.176,0,53
31142,-0.08,0.104,0.956,2.267,-9.748,0.672,30,57
31201,-0.071,0.109,0.962,-6.756,9.244,10.924,0,57
31256,-0.105,0.195,1.041,-12.87,1.71,6.794,0,66
31311,-0.025,0.292,1.063,-4.763,-6.802,-5.267,0,67
31367,-0.029,0.324,1.04,0.344,8.771,-5.145,0,54
31422,-0.072,0.284,1.082,0.076,7.733,-2.733,0,53
31520,-0.083,0.245,1.003,-0.42,1.969,-0.916,0,67
31576,-0.083,0.228,1.005,-3.634,3.588,-2.58,0,67
31621,-0.103,0.215,1.052,-5.74,-0.748,-3.313,23,59
31666,-0.077,0.186,1.107,-0.221,4.855,-2.702,16,59
31714,-0.097,0.132,1.07,9.046,4.26,-0.382,30,58
31769,-0.085,0.236,1.041,12.55,16.336,3.779,0,66
31823,-0.12,0.254,1.041,8.565,1.466,-3.038,0,53
31879,-0.076,0.268,0.957,6.183,-12.008,-9.847,0,53
31934,-0.082,0.26,0.975,-0.351,8,-1.626,0,54
31988,-0.115,0.258,1.065,-0.511,-0.901,-2,0,53
32033,-0.079,0.311,1.054,1.855,-3.336,-2.206,29,53
32079,-0.087,0.301,1.065,8.321,2.58,-2.802,29,66
32125,-0.129,0.276,1.07,11.351,-2.962,-2.191,30,66
32174,-0.083,0.274,1.003,8.031,-12.405,-4.145,32,57
32219,-0.042,0.241,0.982,-2.573,-23.069,-10.863,31,54
32264,-0.042,0.094,0.942,-8.977,-24.977,-8.718,29,57
32310,-0.133,0.158,1.019,-7.573,8.305,4.015,30,57
32354,-0.196,0.174,1.042,-13.534,-7.313,14.389,16,57
32399,-0.127,0.205,0.995,-28,-21.221,33.313,26,57
32445,-0.026,0.149,1.074,-39.053,-21.397,61.023,29,68
32500,0.186,0.165,1.05,-25.679,15.771,54.672,0,58
32546,0.14,0.232,1.221,12.015,37.748,21.947,30,56
32604,0.077,0.288,1.121,31.275,6.229,-12.42,0,57
32660,0.072,0.3,0.965,26.046,-21.168,-39.916,0,60
32715,-0.053,0.241,0.945,13.351,1.954,-33.878,0,68
32771,-0.162,0.195,1.015,4.42,4.015,-18.855,0,53
32826,-0.138,0.105,1,-2,-24.504,-11.733,0,58
32871,-0.044,0.126,0.916,-12.298,-18.344,-0.115,16,57
32915,-0.103,0.105,0.975,-23.771,3.069,19.053,19,57
32960,-0.173,0.082,1.031,-34.557,6.87,43.473,16,57
33015,-0.049,0.135,1.114,-41.588,-1.092,64.069,0,57
33062,0.223,0.146,1.274,-9.115,-0.122,32.137,6,57
33106,0.32,0.22,1.208,27.198,-3.725,-5.282,7,56
33162,0.288,0.299,1.053,40.221,4.244,-33.847,0,57
33217,0.042,0.289,0.984,32.076,23.397,-42.099,0,58
33273,-0.175,0.24,1.025,21.84,8.756,-32.794,0,68
33329,-0.115,0.187,0.916,6.45,-18.534,-22.687,0,62
33384,-0.094,0.067,0.926,-8.473,-9.947,-7.45,0,52
33428,-0.089,0.027,0.93,-14.924,-7.412,4.763,16,53
33473,-0.104,0.09,0.935,-23.939,12.511,22.733,18,60
33531,-0.172,0.112,1.078,-44.298,22.908,54.244,0,56
33575,0.014,0.085,1.131,-52.611,4.84,61.977,6,57
33620,0.215,0.119,1.32,-16.626,-4.099,29.214,5,64
33676,0.312,0.158,1.24,26.679,2.061,-5.008,0,57
33720,0.138,0.202,1.097,41.435,21.618,-25.351,7,56
33775,-0.012,0.192,1.035,31.389,20.153,-26.573,0,56
33830,-0.117,0.176,1.047,21.298,5.672,-20.481,0,58
33875,-0.064,0.2,1.005,20.038,-13.611,-26.405,16,58
33921,-0.043,0.184,0.974,21.061,-10.16,-30.74,17,60
33980,-0.073,0.195,0.993,20.069,6.534,-23.74,0,74
34068,-0.106,0.28,1.033,5.328,-1.962,-21.115,26,55
34123,-0.088,0.233,0.957,-1.076,-7.145,-12.267,0,53
34169,-0.091,0.205,0.98,-15.702,-8.336,-6.809,26,52
34225,-0.091,0.098,1.02,-23.649,-22.641,0.099,0,57
34269,-0.072,0.137,1.077,-19.092,-6.656,18.115,17,53
34315,-0.145,0.123,0.996,-24.366,10.481,37.198,24,61
34360,-0.114,0.158,1.038,-39.443,5.13,56.42,27,57
34405,0.098,0.081,1.087,-36.985,4.962,49.962,17,57
34463,0.18,0.143,1.185,-12.87,22.214,23.244,0,56
34519,0.103,0.133,1.175,20.244,17.137,-8.16,0,56
34564,0.016,0.174,1.082,27.389,11.229,-21.015,9,57
34619,-0.065,0.163,1.049,22.641,7.26,-21.198,0,59
34674,-0.086,0.186,1.046,16.847,0.863,-18.863,0,54
34719,-0.09,0.181,1.032,17.702,-8.809,-21.366,16,54
34764,-0.087,0.18,1.01,18.229,-10.031,-21.687,16,57
34809,-0.078,0.19,1.018,16.992,-4.305,-18.878,16,57
34853,-0.071,0.198,1.026,15.878,-1.443,-17.359,16,52
34912,-0.111,0.204,1.027,12.275,-9.389,-19.008,0,52
34968,-0.063,0.225,0.991,8.71,-18.71,-14.931,0,68
35023,-0.034,0.23,1.003,0.947,-12.786,-5.099,0,57
35069,-0.041,0.177,1.012,-3.336,-1.313,5.977,24,53
35115,-0.022,0.231,1.078,-0.168,0.832,4.802,26,54
35170,-0.007,0.236,1.064,3.588,-5.878,-0.679,0,54
35225,0.057,0.255,0.985,0.626,-2.237,-3.328,0,53
35270,-0.009,0.249,1.037,-11.198,1.679,-4.023,29,53
35326,-0.022,0.103,1.138,-3.435,-2.878,-1.137,0,57
35372,-0.004,0.164,1.065,10.641,17.557,2.473,31,58
35430,-0.052,0.247,1.073,9.802,21.107,4.641,0,53
35476,-0.089,0.227,1.062,4.115,-9.527,0.725,24,52
35530,0.002,0.224,1.004,2.229,-18.206,-1.74,0,53
35587,0.043,0.235,0.997,1.84,-1.244,-2.756,0,54
35642,-0.004,0.24,1.042,0.786,5.557,-3.916,0,53
35697,-0.006,0.264,1.021,-1.168,-0.924,-6.863,0,53
35742,-0.026,0.235,1.031,-3.427,3.969,-5.099,30,53
35798,-0.042,0.194,1.049,-3.29,-0.954,-4.656,0,54
35854,-0.014,0.202,1.071,-0.809,0.328,-4.595,0,57
35913,0,0.136,0.998,5.679,-1.206,2.794,0,66
35969,-0.005,0.217,1.041,9.221,24.504,3.931,0,52
36024,-0.093,0.211,1.103,9.183,0.061,-2.733,0,54
36079,0.02,0.243,1.006,8.229,-20.267,-8.145,0,57
36135,0.04,0.254,0.993,3.023,4.16,-7.008,0,68
36191,-0.052,0.257,1.061,2.565,7.885,-5.206,0,52
36246,-0.021,0.268,1.041,3.366,-7.26,-7.725,0,53
36302,-0.007,0.24,1.029,3.924,-1.985,-6.115,0,54
36358,-0.041,0.245,1.072,6.855,-1.71,-6.924,0,58
36407,-0.07,0.233,1.094,13.55,-19.122,-8.031,16,67
36462,-0.039,0.275,1.041,17.137,-44.252,-13.145,0,53
36517,0.075,0.34,0.926,4.992,-27.84,-7.206,0,55
36574,0.114,0.289,0.919,-5.053,-3.588,-0.099,0,57
36630,0.065,0.253,1.017,-3.092,26.603,3.702,0,69
36719,0.044,0.271,1.032,2.756,-2.588,-3.687,24,58
36774,0.04,0.259,1.019,2.084,7.252,0.901,0,56
36826,0.017,0.274,1.041,2.595,3.878,0.153,23,54
36870,0.047,0.272,1.015,2.038,-1.298,-1.824,23,54
36918,0.043,0.266,0.99,0.634,2.55,-1.435,77,54
36965,0.03,0.246,1.032,1.275,2.473,-1.176,23,54
37019,0.047,0.267,1.033,3.252,2.924,-1.305,0,54
37074,0.015,0.287,1.042,2.832,5.779,-0.412,0,54
37118,0.024,0.287,1.022,2.336,-0.954,-1.557,30,54
37164,0.053,0.283,1.017,0.962,-1.374,-1.885,30,54
37209,0.031,0.263,1.028,1.405,3.053,-1.779,30,54
37254,0.01,0.25,1.046,3.244,1.855,-2.099,30,54
37299,0.019,0.292,1.024,3.229,0.786,-2.168,32,54
37346,0.03,0.298,1.015,1.336,-0.137,-1.931,77,54
37396,0.033,0.273,1,1.55,3.725,-2.824,77,54
37444,0.007,0.28,1.025,1.351,4.374,-2.618,76,55
37491,0.022,0.274,1.03,1.313,0.351,-2.809,76,56
37539,0.032,0.295,1.015,1.137,5.244,-0.977,77,57
37587,0.007,0.281,1.034,0.443,4.405,-1.542,77,58
37635,0.003,0.283,1.035,1.344,0.863,-1.985,78,58
37683,0.014,0.287,1.028,1.664,-0.641,-1.542,77,57
37731,0.018,0.279,1.019,2.076,1.565,-1.71,77,57
37778,0.017,0.279,1.016,0.809,0.954,-0.74,76,57
37829,0.023,0.28,1.011,1.115,1.351,-2.145,76,57
37876,0.003,0.282,1.021,0.275,0.588,-2.267,77,55
37924,0.012,0.271,1.014,0.939,-0.527,-2.328,77,55
37972,0.025,0.271,1.028,0.718,3.275,-1.855,77,55
38020,0.006,0.287,1.038,1.412,2.313,-1.847,77,56
38068,0.012,0.279,1.034,1.947,0.466,-1.824,77,57
38116,0.016,0.289,1.025,2.763,1.237,-2.061,78,58
38163,0.01,0.285,1.029,1.924,1.702,-2.313,78,58
38211,0.005,0.279,1.019,0.931,0.298,-1.939,78,58
38266,0.015,0.283,1.024,0.237,0.855,-0.977,0,57
38313,0.018,0.277,1.015,0.511,1.458,-2.046,16,57
38358,0.01,0.285,1.027,0.374,2.122,-2.366,16,57
38403,0.011,0.281,1.024,0.481,2.076,-2.397,16,57
38447,0.01,0.295,1.035,0.573,2.45,-2.626,16,57
38491,0.005,0.275,1.032,0.931,1.718,-2.015,16,57
38536,-0.001,0.286,1.028,2.153,0.008,-1.16,16,57
38580,0.006,0.286,1.022,2.389,1.237,0.031,16,55
38635,0.01,0.294,1.018,1.504,2.687,0.275,0,54
38689,0.005,0.29,1.014,0.71,-1.053,-0.466,0,54
38748,0.027,0.284,1.001,-1.603,-0.176,-1.924,0,54
38802,0.018,0.281,1.003,-2.107,3.557,-3.122,196,52
38847,0.001,0.288,1.001,-4.519,3.42,-3.176,30,53
38902,-0.013,0.237,1.106,-2.847,1.565,-1.397,196,57
38947,0.032,0.187,1.048,6.748,3.275,-0.008,33,53
39002,0.031,0.216,1.064,15.588,14.374,-4.374,195,54
39057,0.005,0.221,1.029,14.695,5.748,-11.206,0,53
39102,0.003,0.201,0.948,6.229,-7.389,-21.527,30,52
39200,-0.053,0.246,0.942,-2.519,15.824,-24.893,0,61
39256,-0.091,0.273,0.977,-4.748,17.496,-23.176,198,57
39304,-0.078,0.305,0.955,-8.496,19.061,-25.244,16,58
39352,-0.113,0.352,0.961,-16.443,22.092,-24.557,77,63
39401,-0.149,0.337,1.006,-24.069,20.656,-22.298,77,68
39456,-0.157,0.297,1.07,-23.061,13.015,-19.191,197,64
39512,-0.155,0.257,1.102,-16.565,10.527,-14.924,196,63
39567,-0.15,0.229,1.094,-7.42,17.916,-9.26,198,63
39623,-0.213,0.2,1.082,-3.229,17.053,-2.557,0,63
39678,-0.196,0.186,1.043,-4.565,5.603,0.756,0,62
39737,-0.192,0.169,1.046,-5.076,3.748,0.573,200,62
39792,-0.191,0.162,1.042,-0.351,0.496,-0.427,198,62
39848,-0.184,0.182,1.038,0.611,4.42,1.565,198,62
39894,-0.199,0.17,1.029,1.954,2.13,3.489,29,62
39949,-0.184,0.181,1.004,1.244,4.153,4.664,198,62
40005,-0.217,0.196,1.019,-1.924,10.427,8.389,0,62
40051,-0.244,0.188,1.066,0.58,4.183,10.038,29,62
40095,-0.202,0.194,1.042,5.626,-4.511,7.748,16,62
40152,-0.17,0.205,1.011,5.45,-2.427,7.794,0,64
40207,-0.201,0.198,1.041,3.42,-0.107,9.947,0,64
40256,-0.193,0.203,1.02,3.916,-6.023,9.412,27,64
40302,-0.166,0.199,1.002,2.901,-3.924,8.427,28,68
40357,-0.161,0.18,0.998,4.115,-1.802,5.863,0,65
40413,-0.159,0.194,0.993,5.656,0.855,2.496,0,66
40462,-0.175,0.187,1.019,3.931,5.664,2.702,77,67
40511,-0.187,0.194,1.031,3.069,0.305,1.878,76,67
40559,-0.157,0.198,1,2.198,-1.443,-0.603,75,68
40608,-0.172,0.197,1.019,0.908,2.977,-0.603,75,67
40656,-0.171,0.203,1.021,1.336,1.695,-1.061,75,67
40709,-0.171,0.203,1.024,1.786,0.664,-0.534,74,66
40757,-0.166,0.212,1.008,1.473,1.336,-0.336,74,66
40805,-0.17,0.216,1.006,0.099,1.473,-0.786,74,66
40854,-0.188,0.206,1.022,-0.061,-0.939,-1.924,74,66
40902,-0.177,0.215,1.01,0.695,-0.908,-0.466,74,68
40951,-0.177,0.205,1.029,1.931,0.397,-0.634,74,66
40999,-0.177,0.219,1.028,3.237,0.847,-1.466,74,67
41046,-0.172,0.217,1.024,2.481,0.679,-0.901,31,65
41095,-0.169,0.219,1.024,1.779,-1.252,-1.588,74,68
41146,-0.169,0.212,1.013,1.656,-0.023,-2.191,74,65
41195,-0.181,0.216,1.007,0.916,0.206,-1.397,74,66
41243,-0.169,0.228,1.016,0.656,-0.366,-1.595,73,65
41291,-0.158,0.228,1.003,-0.466,2.634,-2.191,74,65
41337,-0.175,0.204,1.022,-1.901,1.702,-1.183,25,63
41383,-0.181,0.194,1.03,-1.84,-1.122,-1.374,37,59
41430,-0.171,0.211,1.022,-0.84,0.939,-0.13,37,59
41478,-0.178,0.207,1.031,0.038,3.847,1.779,72,58
41527,-0.175,0.204,1.031,1.359,-1.924,0.71,72,69
41572,-0.144,0.216,1.008,1.733,-0.916,-0.351,26,60
41621,-0.164,0.209,1.007,0.397,2.901,-1.427,25,62
41667,-0.174,0.2,1.024,-0.863,-2.412,-2.573,26,68
41758,-0.184,0.201,1.019,-2.84,-0.26,-3.237,73,60
41807,-0.182,0.194,1.03,-1.282,-3.817,-1.282,73,66
41857,-0.133,0.212,1.029,0.206,1.489,-0.656,73,69
41905,-0.153,0.204,1.036,-0.382,1.382,-2.878,73,66
41953,-0.158,0.198,1.031,-1.443,-4.626,-5.366,73,64
42002,-0.154,0.192,0.988,-2.374,-4.427,-2.756,73,64
42051,-0.214,0.235,1.028,-3.534,5.824,6.908,73,65
42102,-0.233,0.273,1.042,-6.832,-4.939,15.656,72,59
42150,-0.17,0.212,1.028,-9.214,-15.649,21.374,71,59
42199,-0.081,0.1,1.039,-2.046,-6.817,21.626,70,57
42247,-0.041,0.08,1.05,8.527,11.389,13.015,71,58
42295,-0.078,0.122,1.07,10.458,11.344,5.214,72,57
42341,-0.098,0.118,1.038,9.298,-1.855,-4.45,29,57
42386,-0.085,0.165,1.004,8.359,-3.954,-13.786,29,57
42433,-0.107,0.21,0.998,5.916,1.985,-18.817,30,67
42479,-0.16,0.2,1.005,5.061,3.008,-19.153,28,67
42528,-0.177,0.233,1.02,4.069,1.221,-14.313,30,65
42574,-0.174,0.255,1.01,1.924,2.038,-9.206,30,65
42624,-0.164,0.246,1.03,0.527,0.145,-5.496,74,65
42670,-0.144,0.231,1.006,1.191,-2.634,-4.817,29,66
42719,-0.138,0.25,1,0.206,0.481,-5.214,74,67
42767,-0.155,0.226,1.013,-3.832,-1.038,-3.183,74,65
42816,-0.183,0.223,1.026,-7.58,-4.412,-1.863,73,66
42862,-0.171,0.237,0.987,-8.649,3.038,8.794,30,66
42909,-0.256,0.283,1.061,-11.229,5.794,21.031,26,67
42960,-0.192,0.224,1.087,-9.031,-17.565,26.336,71,57
43009,-0.035,0.12,1.021,-0.71,-16.595,27.481,70,57
43057,-0.009,0.125,1.049,6.626,11.221,22.954,71,62
43103,-0.086,0.103,1.083,9.481,5.695,13.45,16,60
43155,-0.057,0.144,1.026,5.656,-11.008,4.55,18,73
43199,-0.043,0.114,0.991,0.305,-8.237,-0.481,16,57
43243,-0.043,0.122,1.012,-0.137,-7.198,-9.221,16,57
43288,-0.046,0.115,1.037,2.519,-5.382,-17.023,19,59
43343,-0.034,0.088,1.039,7.534,-1.718,-22.71,0,58
43401,-0.008,0.115,1.039,11.023,6.267,-31.756,0,57
43445,0.008,0.162,0.944,17.084,21.58,-46.802,16,59
43500,0.084,0.215,0.768,22.496,89.733,-52.42,197,64
43546,-0.394,0.4,0.857,21.618,208.481,-13.008,26,66
43591,-0.88,0.331,1.15,14.16,141.321,0.473,27,63
43637,-0.855,0.297,1.177,14.344,-16.634,-6.26,28,65
43693,-0.574,0.354,0.945,8.389,-100.511,-8.718,0,67
43738,-0.371,0.323,0.86,0.038,-103.962,-1.252,27,67
43784,-0.249,0.309,0.903,-6.053,-84.122,8.145,26,64
43832,-0.212,0.29,0.986,-10.908,-66.504,17.405,26,63
43887,-0.202,0.252,1.058,-14.87,-77.748,22.023,198,64
43942,0.026,0.208,0.964,-11.954,-77.634,19.214,196,65
43998,0.169,0.196,0.901,-3.573,-19.389,12.992,197,65
44053,0.021,0.17,0.974,-0.069,33.122,8.908,197,64
44108,0.018,0.171,0.934,5.985,49.298,-2.16,0,57
44163,-0.03,0.206,0.92,9.107,103.786,-2.221,0,57
44251,-0.417,0.231,1.025,9.832,107.26,-1.458,25,57
44297,-0.453,0.268,1.009,7.618,78.901,0.679,27,57
44344,-0.507,0.276,0.994,2.16,56.802,3.954,25,57
44389,-0.568,0.262,1.044,-0.519,14.435,1.099,26,58
44434,-0.554,0.242,1.02,1.328,-33.359,-0.71,26,59
44479,-0.55,0.248,1.064,2.183,-80.542,-2.046,29,57
44524,-0.425,0.274,1.005,-0.015,-124.634,-3.099,25,58
44568,-0.236,0.264,0.923,-3.382,-127.115,1.038,16,53
44624,-0.163,0.243,0.954,-7.458,-117.565,7.305,0,65
44680,0,0.211,0.962,-8.115,-99.695,7.611,0,67
44735,0.241,0.246,0.841,-3.015,-42.397,-1.702,197,67
44793,0.086,0.224,0.968,1.748,23.588,-1.557,198,67
44838,0.053,0.241,0.942,6.252,48.611,-2.527,9,58
44893,0.149,0.256,0.817,4.122,98.412,0.214,0,58
44948,-0.109,0.256,0.852,-2.916,182.107,10.221,0,57
44993,-0.564,0.198,1.094,-3.092,165.443,8.389,26,58
45038,-0.655,0.214,1.115,2.168,78.55,-2.756,27,57
45084,-0.719,0.206,1.186,1.611,-18.679,-6.931,27,57
45129,-0.401,0.268,0.926,-2.099,-71.252,-11.847,30,57
45174,-0.327,0.231,0.971,-4.122,-46.053,-4.374,25,57
45222,-0.408,0.185,1.104,2.397,-58.916,-6.802,25,65
45268,-0.454,0.176,1.136,10.183,-105.725,-9.008,24,65
45323,-0.388,0.202,1.082,11.977,-156.42,-4.84,0,54
45368,0.085,0.294,0.844,6.809,-134.55,4.443,9,58
45412,0.248,0.29,0.808,-2.916,-64.298,12.756,9,67
45468,0.131,0.249,0.949,-6.641,-16.489,14.038,196,68
45512,0.153,0.223,0.971,-5.366,-13.756,8.321,7,68
45557,0.249,0.212,0.907,3.099,42.153,7,7,70
45613,0.094,0.217,1.001,16.115,89.832,8.863,0,66
45661,-0.016,0.279,0.969,25.824,124.206,17.214,16,54
45705,-0.212,0.318,1.001,24.672,146.992,31.924,16,53
45760,-0.356,0.303,1.043,25.038,134.122,36.26,0,53
45805,-0.5,0.313,1.064,30.84,90.443,39.855,24,52
45849,-0.461,0.357,0.976,36.115,53.145,41.382,23,51
45894,-0.391,0.434,0.87,35.504,49.389,48.458,21,49
45948,-0.38,0.44,0.824,34.115,48.664,50.351,0,47
46004,-0.453,0.495,0.839,28.573,39.153,48.71,0,49
46058,-0.437,0.537,0.798,19.153,18.061,48.351,0,48
46116,-0.487,0.549,0.852,11.672,-17.588,48.313,0,49
46171,-0.312,0.585,0.771,6.733,-45.557,40.802,0,49
46226,-0.292,0.584,0.817,-1.359,-43.687,34.145,0,50
46281,-0.209,0.571,0.83,-5.115,-55.725,20.87,0,51
46336,-0.12,0.596,0.817,-10.275,-34.359,13.954,0,50
46391,-0.164,0.558,0.903,-15.748,-47.076,4.893,0,51
46436,-0.081,0.566,0.857,-27.824,-62.908,-8.992,16,51
46490,-0.036,0.545,0.83,-43.634,-64.527,-16.527,0,52
46535,0.062,0.498,0.778,-70.244,-57.389,-29.313,17,51
46583,0.129,0.475,0.844,-95.107,-46.145,-40.611,21,51
46627,0.039,0.26,0.943,-97.71,-45.817,-37.237,8,51
46671,0.088,0.231,1.025,-76.099,-38.634,-44.802,11,51
46770,0.049,0.205,1.052,-25.084,-18.237,-56.863,0,57
46825,0.093,0.284,0.931,-5.221,22.336,-55.565,0,58
46880,-0.061,0.226,0.995,-0.351,52.725,-46.641,0,57
46937,-0.076,0.101,1.046,11.473,34.55,-50.763,0,65
46992,-0.159,0.188,1.128,23.565,19.473,-52.893,0,57
47047,-0.184,0.307,1.058,4.84,-1.863,-40.229,0,52
47106,-0.188,0.237,1.141,-23.145,-20.344,0.534,0,52
47161,-0.041,0.188,1.116,-17.718,-36.359,4.29,197,60
47210,0.097,0.176,1.029,-1.504,-18.053,-2.832,73,65
47255,0.083,0.163,0.973,7.794,15.893,-8.901,17,66
47303,-0.037,0.176,1.028,7.832,32.634,-7.641,73,67
47348,-0.09,0.175,1.052,4.008,22.977,-5.695,18,58
47396,-0.102,0.196,1.047,0.863,7.977,-9.137,72,65
47446,-0.049,0.203,1.007,2.603,8.725,-11.221,72,65
47491,-0.094,0.222,1.046,3.962,19.137,-9.58,16,65
47542,-0.122,0.219,1.074,5.069,17.496,-7.618,72,65
47591,-0.123,0.176,1.085,8.26,6.198,-8.336,73,63
47639,-0.095,0.211,1.038,12.55,0.931,-11.969,73,57
47687,-0.143,0.281,0.976,7.038,15.427,-5.267,73,66
47736,-0.226,0.256,1.034,-8.198,8.58,8.939,73,65
47784,-0.179,0.207,1.052,-9.679,-16.053,7.992,73,57
47833,-0.063,0.205,0.997,-3.443,-16.084,2.031,72,64
47878,-0.049,0.193,0.997,0.244,2.626,-1.069,16,65
47924,-0.109,0.207,1.042,-0.504,10.366,-1.687,16,66
47975,-0.153,0.21,1.05,-4.672,-1.122,-0.71,72,65
48021,-0.109,0.196,1.031,-4.71,-4.282,1.221,20,65
48066,-0.144,0.24,1.029,-0.908,6.115,3.786,16,66
48114,-0.188,0.296,1.039,-2.496,3.237,10.802,72,64
48161,-0.176,0.249,1.072,-7.588,-8.863,18.641,30,70
48209,-0.075,0.122,1.049,0.939,-15.069,22.74,71,57
48256,0.028,0.108,1.019,17.954,17.885,18.237,30,57
48301,-0.019,0.142,1.028,20.282,35.618,9.779,23,57
48347,-0.148,0.176,1.054,12.992,20.084,0.931,31,54
48405,-0.174,0.185,0.999,4.809,-10.901,-8.237,0,53
48450,-0.099,0.214,0.947,-4.374,-16.359,-7.924,30,57
48496,-0.081,0.185,0.973,-6.008,-1.87,-7.672,30,58
48542,-0.096,0.165,1.022,-0.305,4.71,-12.046,30,57
48588,-0.086,0.185,1.029,5.702,7.198,-18.389,30,57
48633,-0.116,0.251,1.047,4.046,14.29,-18.229,29,58
48680,-0.181,0.251,1.075,2.969,9.092,-13.405,30,67
48736,-0.194,0.278,1.048,2.282,2.145,-8.489,0,64
48792,-0.201,0.294,1.028,-1.084,0.901,2.679,0,64
48851,-0.188,0.268,1.001,-1.985,-5.687,9.145,0,66
48898,-0.116,0.217,0.974,-4.237,-5.824,9.779,29,58
48944,-0.112,0.202,0.996,-6.977,-1.679,8.473,30,57
48999,-0.123,0.19,1.052,-8.473,1.237,6.794,0,57
49045,-0.135,0.15,1.084,-7.595,-5.763,6.618,29,57
49091,-0.08,0.091,1.095,-4.855,-22.412,-2.076,30,57
49146,-0.001,0.068,1.064,-2.122,-33.954,-14.298,199,57
49192,-0.009,0.021,1.061,6.176,-9.389,-19.435,28,57
49291,-0.057,0.226,0.984,19.099,6.611,-31.939,198,58
49350,-0.165,0.333,0.977,17.481,22.313,-20.58,198,64
49406,-0.23,0.352,0.979,6.489,10.962,-5.687,198,64
49463,-0.159,0.278,0.987,-2.122,-14.954,0.985,0,63
49512,-0.055,0.286,0.949,-7.649,-9.344,0.855,75,64
49561,-0.103,0.233,1.044,-10.321,-1.901,0.763,74,66
49615,-0.106,0.179,1.094,-6.855,-11.061,1.74,74,65
49664,-0.062,0.175,1.07,-1.397,-12.649,-0.26,73,65
49712,-0.026,0.177,1.04,1.725,-9.947,-0.321,74,65
49760,-0.027,0.193,1.022,0.992,0.458,-0.527,73,64
49811,-0.067,0.187,1.06,1.206,0.511,0.351,73,64
49858,-0.049,0.202,1.033,0.824,-4.779,-0.985,73,64
49906,-0.029,0.195,1.016,-0.634,-0.527,-3.511,73,64
49954,-0.056,0.192,1.025,-1.916,2.992,-3.313,73,65
50002,-0.065,0.197,1.043,-2.519,1.527,-2.939,74,65
50051,-0.052,0.178,1.051,0.771,-0.16,-3.588,74,64
50099,-0.04,0.187,1.029,6.802,9.275,-2.244,74,64
50147,-0.086,0.245,1.023,7.802,19.427,1.87,74,64
50195,-0.141,0.272,1.006,1.412,18.542,9,73,65
50243,-0.154,0.222,1.055,-6.84,6.885,17.328,72,66
50293,-0.045,0.179,1.064,-0.87,-13.55,10.336,72,66
50341,0.041,0.174,0.993,5.29,-2.351,-0.344,71,66
50386,-0.046,0.191,1.016,3.931,20.321,-3.344,16,67
50435,-0.159,0.138,1.098,2.382,7.275,-1.588,72,65
50483,-0.085,0.187,1.025,2.679,-8.214,-1.893,71,66
50531,-0.055,0.201,0.998,-0.962,5.321,0.466,71,67
50579,-0.109,0.187,1.037,0.069,0.794,-2.153,72,68
50627,-0.069,0.209,1.004,2.687,-3.473,-4.87,72,67
50675,-0.078,0.213,1.006,-1.366,3.588,-4.244,72,66
50726,-0.105,0.215,1.026,-4.42,2.435,-2.71,71,65
50774,-0.113,0.264,1.016,-7.794,3.061,0.443,71,65
50820,-0.182,0.312,1.022,-11.58,3.718,6.527,19,67
50867,-0.248,0.3,1.123,-10.221,11.008,24.481,71,57
50912,-0.197,0.186,1.104,-9.214,-17.595,40.679,19,57
50959,0.038,-0.027,1.092,8.42,-6.748,35.847,30,84
51004,0.167,0.01,1.026,19.13,15.771,13.45,37,62
51050,0.069,0.024,1.052,17.427,18.962,-8.496,29,64
51095,-0.053,0.082,1.041,11.794,-0.046,-30.916,25,57
51152,-0.122,0.189,1.009,3.733,-10.412,-39.008,0,57
51198,-0.148,0.238,0.992,0.527,-4.901,-28.939,16,70
51245,-0.157,0.274,1.017,1.626,5.626,-18.374,30,67
51299,-0.167,0.285,1.024,3.313,1.832,-10.939,0,58
51355,-0.112,0.271,0.984,2.878,-1.336,-6.069,0,65
51403,-0.074,0.229,0.978,-0.405,5.183,-6.13,75,66
51451,-0.124,0.176,1.036,-2.076,7.122,-6.58,74,65
51500,-0.166,0.188,1.103,0.435,6.939,-1.992,73,65
51549,-0.137,0.214,1.085,1.618,-1.076,1.802,73,65
51600,-0.076,0.206,1.035,2.023,-6.198,-1.076,73,66
51648,-0.066,0.212,1.023,0.908,-5.084,-4.962,73,66
51696,-0.109,0.184,1.01,-0.267,-5.405,-4.992,73,65
51787,-0.133,0.19,1.067,2.412,0.87,0.282,73,65
51835,-0.072,0.235,1.005,2.947,-4.26,-2.847,73,66
51885,-0.066,0.262,0.973,-2.496,4.42,-4.229,73,65
51933,-0.155,0.243,0.999,-9.977,8.229,2.015,72,66
51978,-0.199,0.234,1.034,-11.863,-1.473,11.122,20,65
52023,-0.134,0.285,1.034,-11.458,4.29,19.924,20,67
52074,-0.23,0.22,1.12,-11.389,-0.038,30.565,71,58
52119,-0.098,0.07,1.044,-2.87,-18.244,34.847,30,58
52167,0.072,0.042,1.04,13.832,10.427,27.015,70,54
52215,0.03,0.097,1.062,14.405,24.939,11.55,71,59
52263,-0.063,0.12,1.082,1.565,-8.55,-5.618,72,65
52312,-0.036,0.105,1.022,-6.87,-31.962,-18.969,70,64
52359,-0.034,0.121,1.04,-6.779,-17.519,-20.366,70,53
52405,-0.062,0.12,1.06,0.565,-9.626,-20.527,30,58
52453,-0.043,0.154,1.066,3.885,-9.176,-19.191,70,62
52502,-0.04,0.205,1.046,1.641,-12.863,-20.115,29,71
52550,-0.03,0.18,1.042,0.183,-13.626,-19.069,71,57
52595,-0.027,0.193,1.003,-0.458,-4.145,-15.427,16,66
52640,-0.063,0.183,1.042,-0.519,-2.916,-12.611,17,66
52696,-0.038,0.226,1.017,0.183,-2.511,-11.916,196,58
52751,-0.052,0.193,1.038,2.435,3.092,-9.351,196,65
52807,-0.039,0.205,1.039,7.481,6.252,-5.931,198,64
52862,-0.054,0.24,1.025,5.145,14.893,2.55,0,65
52919,-0.087,0.203,1.069,0.351,1.634,6.679,0,65
52970,-0.016,0.192,1.018,0.397,-6.443,4.038,74,58
53018,-0.017,0.213,1.031,-0.84,10.313,7.336,73,66
53063,-0.059,0.172,1.063,2.031,7.137,6.389,16,66
53111,-0.008,0.166,1.023,4.267,-1.168,0.641,72,66
53157,0.006,0.208,0.992,-1.344,4.176,-3.13,16,68
53202,-0.093,0.187,1.015,-9.26,0.595,-2.069,23,67
53248,-0.178,0.268,1.084,-6.557,11.183,13.588,9,71
53297,-0.199,0.226,1.106,-0.405,-1.817,28.244,71,69
53345,0.009,0.093,1.087,13.183,-4.137,31.015,70,58
53405,0.105,0.079,1.045,18.618,17.588,17.565,70,69
53464,0.022,0.07,1.078,11.672,6.992,1.412,0,67
53521,0.03,0.087,1.011,5.092,-5.206,-17.26,0,58
53568,-0.01,0.117,1.021,3.107,0.305,-26.519,18,58
53616,-0.042,0.186,1.034,-0.26,0.779,-27.29,28,59
53664,-0.103,0.246,1.039,-3.061,-1.595,-26.16,16,67
53714,-0.12,0.262,1.035,-0.954,-2.015,-18.397,74,58
53766,-0.122,0.274,1.023,-0.29,-1.435,-7.771,73,58
53817,-0.083,0.242,1.023,0.962,-3.702,-2.588,73,65
53870,-0.045,0.216,1.009,0.947,1.084,-3.382,73,66
53921,-0.057,0.216,1.039,0.099,5.458,-1.374,72,65
53972,-0.084,0.199,1.068,0.511,3.954,-1.198,73,65
54023,-0.074,0.194,1.047,2.412,-0.42,-0.847,72,65
54074,-0.053,0.211,1.027,1.427,4.084,1.382,72,65
54124,-0.085,0.239,1.043,0.527,2.015,2.008,72,58
54175,-0.102,0.29,1.007,-1.901,4.847,7.481,73,67
54222,-0.144,0.266,1.025,-4.183,5.16,18.878,16,53