Timestamp(ms),AccelX(g),AccelY(g),AccelZ(g),GyroX(deg/s),GyroY(deg/s),GyroZ(deg/s),DistanceLeft(cm),DistanceRight(cm)
48684,-0.190,-1.041,0.190,-2.519,22.244,-1.107,0.0,0.0
48744,-0.250,-1.021,0.218,-1.580,17.748,-5.458,0.0,0.0
48804,-0.222,-0.898,0.187,-6.824,6.275,-5.855,0.0,0.0
48865,-0.214,-0.920,0.168,-6.206,0.374,-13.550,0.0,0.0
48925,-0.248,-0.898,0.189,-6.351,11.687,-15.267,0.0,0.0
48985,-0.245,-0.975,0.171,-13.160,-0.771,-4.336,0.0,0.0
49045,-0.191,-1.059,0.074,-13.344,-17.573,3.275,0.0,0.0
49108,-0.049,-0.835,0.022,-11.992,0.664,16.977,0.0,0.0
49169,-0.104,-1.078,-0.000,-11.664,16.000,15.656,0.0,0.0
49229,-0.156,-1.168,0.006,-6.542,0.466,-3.084,0.0,0.0
49290,-0.153,-1.031,0.065,-17.000,-16.244,-1.221,0.0,0.0
49349,-0.127,-0.940,0.042,-7.817,-26.260,-4.763,0.0,0.0
49410,-0.067,-0.988,-0.045,-7.580,-15.443,-2.687,0.0,0.0
49470,-0.135,-0.997,0.018,-0.496,1.252,2.939,0.0,0.0
49530,-0.139,-0.969,0.015,1.053,1.130,9.053,0.0,0.0
49591,-0.073,-0.858,-0.020,3.382,-2.756,14.794,0.0,0.0
49650,-0.021,-0.720,-0.045,7.412,20.679,16.901,0.0,0.0
49714,-0.107,-0.734,0.017,11.771,44.748,16.275,0.0,0.0
49774,-0.168,-0.803,-0.002,19.817,31.672,7.748,0.0,0.0
49833,-0.146,-0.858,0.017,11.870,31.427,9.802,0.0,191.0
49894,-0.216,-1.370,0.080,3.176,43.794,6.450,0.0,193.0
49953,-0.219,-1.292,0.186,-5.679,23.840,17.389,0.0,195.0
50014,-0.327,-1.375,0.257,-12.137,-22.221,5.573,0.0,195.0
50074,-0.210,-1.292,0.143,-5.427,-30.809,1.046,0.0,198.0
50135,-0.138,-0.950,0.109,0.786,19.084,15.626,0.0,0.0
50195,-0.196,-0.777,0.145,4.626,15.382,15.519,0.0,0.0
50257,-0.204,-0.688,0.144,-0.748,-1.748,9.489,0.0,0.0
50318,-0.100,-0.696,0.051,0.466,-7.237,10.542,0.0,0.0
50378,-0.161,-0.706,0.085,-1.656,-8.237,3.863,0.0,0.0
50439,-0.198,-0.708,0.106,0.221,-8.260,4.473,0.0,0.0
50496,-0.045,-0.709,-0.040,2.924,-0.992,11.069,0.0,161.0
50554,-0.190,-1.307,0.028,-12.137,17.099,18.641,0.0,163.0
50613,-0.169,-1.369,0.036,-4.321,12.473,27.344,0.0,164.0
50673,-0.338,-1.658,0.109,-19.763,-2.718,10.000,0.0,0.0
50734,-0.316,-1.394,0.105,-1.321,15.718,0.023,0.0,0.0
50795,-0.408,-1.088,0.198,-8.832,15.160,-10.893,0.0,164.0
50853,-0.375,-0.783,0.218,9.321,-28.733,-0.374,0.0,169.0
50913,-0.101,-0.729,-0.090,13.412,-15.824,-3.832,0.0,169.0
50972,-0.162,-0.713,-0.022,11.947,6.992,-1.534,0.0,176.0
51031,-0.117,-0.700,-0.072,9.771,9.023,0.069,0.0,172.0
51084,-0.105,-0.614,-0.019,-1.664,5.313,2.229,0.0,77.0
51137,-0.159,-0.656,0.027,-1.786,4.214,4.153,0.0,76.0
51190,-0.068,-0.787,-0.039,-4.282,-1.328,2.008,0.0,76.0
51244,-0.315,-1.271,0.156,-10.153,9.443,-4.374,0.0,77.0
51300,-0.174,-1.357,0.047,-12.344,0.809,5.107,0.0,65.0
51352,-0.344,-1.472,0.364,-26.626,0.763,17.504,0.0,66.0
51405,-0.221,-1.420,0.193,-15.191,-16.038,28.794,0.0,68.0
51459,-0.171,-1.291,0.147,-6.191,2.611,20.489,0.0,71.0
51512,-0.268,-0.997,0.205,3.237,-1.954,9.023,0.0,71.0
51565,-0.103,-0.852,0.012,8.771,3.183,7.870,0.0,72.0
51661,-0.197,-0.708,0.083,10.779,35.924,2.985,0.0,75.0
51715,-0.268,-0.635,0.146,8.076,7.412,-5.298,0.0,75.0
51768,-0.170,-0.567,0.062,3.954,-6.748,-4.641,0.0,77.0
51824,-0.176,-0.694,0.037,2.679,-20.176,-6.916,0.0,81.0
51877,-0.137,-0.769,0.006,2.405,-0.702,-2.397,0.0,74.0
51931,-0.141,-0.940,0.013,-12.519,7.786,11.046,0.0,60.0
51983,-0.260,-1.366,0.082,-19.870,-16.878,6.809,0.0,61.0
52036,-0.156,-1.459,-0.003,-12.069,7.458,18.863,0.0,62.0
52088,-0.276,-1.618,-0.023,-13.893,34.160,9.786,0.0,61.0
52142,-0.359,-1.303,0.077,-7.221,24.130,6.191,0.0,62.0
52194,-0.456,-1.192,0.166,-20.160,-3.878,1.702,0.0,63.0
52247,-0.262,-0.998,0.023,-2.573,-21.885,2.695,0.0,64.0
52303,-0.240,-0.784,0.074,1.015,-3.168,-1.092,0.0,68.0
52356,-0.144,-0.716,-0.015,5.183,-12.389,1.198,0.0,69.0
52409,-0.149,-0.706,-0.003,7.840,-9.947,-0.466,0.0,71.0
52463,-0.080,-0.714,-0.076,2.954,-9.473,2.908,0.0,73.0
52516,-0.155,-0.749,-0.016,6.870,1.939,0.160,0.0,73.0
52570,-0.142,-0.805,-0.027,9.313,2.817,1.328,0.0,72.0
52622,-0.190,-0.723,0.042,6.206,22.618,2.519,0.0,62.0
52675,-0.240,-0.971,0.033,6.473,26.977,5.847,0.0,60.0
52727,-0.351,-1.462,0.101,4.321,4.580,-6.473,0.0,62.0
52784,-0.208,-1.031,0.207,-8.374,-2.076,11.160,0.0,62.0
52836,-0.202,-1.208,0.152,-15.550,-6.565,19.496,0.0,62.0
52889,-0.279,-1.580,0.123,-6.435,-25.611,5.641,0.0,64.0
52942,-0.133,-1.067,0.128,-8.557,-17.611,4.053,0.0,67.0
52996,-0.099,-0.998,0.065,-3.450,9.382,7.076,0.0,69.0
53049,-0.148,-0.828,0.075,10.611,41.313,4.649,0.0,69.0
53102,-0.249,-0.750,0.152,2.435,34.450,7.809,0.0,70.0
53155,-0.215,-0.785,0.084,1.092,16.534,7.580,0.0,71.0
53209,-0.202,-0.699,0.089,-0.931,11.168,6.000,0.0,73.0
53265,-0.223,-0.669,0.121,-2.542,-0.695,1.099,0.0,74.0
53319,-0.138,-0.754,0.025,1.695,-15.832,-0.641,0.0,79.0
53372,-0.127,-0.724,0.035,-0.214,2.702,-5.962,0.0,70.0
53426,-0.182,-1.026,0.054,-6.603,-3.244,-1.198,0.0,59.0
53478,-0.214,-1.477,-0.046,-1.115,-1.237,-0.473,0.0,59.0
53531,-0.217,-1.209,0.074,-9.519,8.321,17.779,0.0,60.0
53583,-0.339,-1.607,0.010,-13.748,-15.000,11.786,0.0,60.0
53637,-0.262,-1.259,0.059,-10.458,-5.344,12.519,0.0,61.0
53690,-0.330,-1.197,0.050,-14.931,0.641,4.298,0.0,63.0
53746,-0.339,-0.930,0.137,4.870,-26.748,-0.588,199.0,66.0
53799,-0.168,-0.820,-0.009,1.046,-31.344,1.344,197.0,67.0
53853,-0.129,-0.755,-0.021,11.595,-2.061,11.847,194.0,72.0
53906,-0.102,-0.713,-0.050,11.282,6.145,13.985,192.0,81.0
53959,-0.130,-0.756,-0.060,11.275,13.611,11.794,190.0,74.0
54011,-0.127,-0.692,-0.023,0.992,10.336,5.198,188.0,64.0
54065,-0.216,-0.751,0.002,2.863,10.534,2.947,186.0,74.0
54117,-0.121,-0.726,-0.035,-1.695,-4.641,2.969,184.0,62.0
54169,-0.308,-1.130,0.066,-4.023,7.198,-5.550,182.0,61.0
54224,-0.266,-1.213,0.072,-15.748,-7.435,2.618,179.0,61.0
54276,-0.322,-1.322,0.226,-34.344,-18.038,19.840,177.0,62.0
54371,-0.189,-1.247,0.164,-12.267,-24.511,20.656,173.0,66.0
54423,-0.222,-1.208,0.116,2.863,-3.771,11.168,172.0,67.0
54474,-0.110,-0.982,0.010,8.191,5.847,7.191,170.0,61.0
54525,-0.161,-0.810,0.076,5.748,37.168,5.931,169.0,70.0
54578,-0.231,-0.728,0.121,7.122,25.366,0.634,167.0,70.0
54629,-0.212,-0.743,0.062,7.626,12.107,-5.802,166.0,64.0
54679,-0.180,-0.704,0.049,0.290,-4.573,-12.885,165.0,48.0
54732,-0.201,-0.695,0.068,1.191,3.702,-15.000,163.0,48.0
54784,-0.202,-0.712,0.047,2.962,2.511,-12.863,161.0,49.0
54833,-0.236,-0.800,0.069,0.519,6.763,-6.069,160.0,49.0
54883,-0.152,-0.870,0.027,-6.351,17.092,11.351,158.0,50.0
54933,-0.318,-1.330,0.108,-10.046,10.489,12.985,156.0,53.0
54983,-0.147,-1.107,0.017,0.305,7.649,23.824,154.0,54.0
55032,-0.266,-1.465,0.069,-18.458,-5.145,9.878,153.0,54.0
55083,-0.148,-1.282,-0.089,9.061,18.916,3.160,151.0,55.0
55136,-0.342,-1.252,0.090,-16.489,-2.130,-1.557,150.0,58.0
55186,-0.352,-1.228,0.037,-10.252,-26.214,-8.397,148.0,59.0
55236,-0.294,-1.059,0.074,-7.710,-28.084,-9.656,146.0,60.0
55286,-0.220,-0.924,0.026,0.763,-20.573,-4.519,144.0,61.0
55335,-0.169,-0.778,0.028,8.008,-8.756,2.588,142.0,64.0
55386,-0.111,-0.725,-0.037,7.298,-1.992,6.069,140.0,64.0
55436,-0.099,-0.707,-0.037,10.641,16.779,11.580,138.0,65.0
55485,-0.105,-0.713,-0.048,6.649,18.809,10.656,136.0,68.0
55535,-0.131,-0.685,-0.019,4.321,18.672,9.939,134.0,71.0
55588,-0.073,-0.722,-0.054,2.824,19.023,9.740,131.0,71.0
55643,-0.239,-1.177,0.060,-5.969,12.206,1.885,129.0,60.0
55691,-0.175,-1.280,0.023,-14.832,13.809,4.786,127.0,60.0
55739,-0.289,-1.245,0.207,-16.481,12.496,5.603,126.0,62.0
55786,-0.311,-1.484,0.165,-12.893,-4.603,4.939,123.0,61.0
55834,-0.234,-1.253,0.181,-13.802,-0.725,14.687,122.0,66.0
55882,-0.230,-1.276,0.118,-4.466,2.595,13.313,120.0,67.0
55929,-0.153,-1.052,0.038,9.145,9.985,8.802,119.0,65.0
55977,-0.102,-0.848,0.001,6.450,42.740,8.588,118.0,67.0
56028,-0.212,-0.769,0.066,4.076,43.038,7.855,117.0,67.0
56076,-0.168,-0.735,-0.001,5.122,37.443,3.863,116.0,70.0
56123,-0.228,-0.707,0.063,-2.237,26.290,-2.718,114.0,71.0
56171,-0.232,-0.715,0.018,-5.015,13.328,-6.985,113.0,74.0
56219,-0.205,-0.679,0.007,-6.466,4.618,-10.176,112.0,73.0
56266,-0.193,-0.676,0.005,-1.855,26.412,-7.771,110.0,71.0
56314,-0.267,-0.785,0.017,-1.313,24.641,0.435,108.0,70.0
56360,-0.208,-0.795,-0.008,-4.084,27.969,4.931,106.0,56.0
56408,-0.159,-1.038,-0.069,-10.603,35.115,15.588,104.0,68.0
56458,-0.255,-1.546,-0.082,-6.382,25.267,7.389,103.0,67.0
56504,-0.145,-1.636,-0.157,2.099,44.634,22.458,101.0,60.0
56551,-0.242,-1.545,-0.109,-7.992,37.023,12.229,100.0,62.0
56598,-0.206,-1.138,0.033,-8.168,27.198,22.191,99.0,75.0
56645,-0.292,-1.155,0.058,-19.053,-13.275,-6.397,97.0,77.0
56692,-0.020,-0.960,-0.177,18.206,4.229,-7.634,96.0,75.0
56739,-0.045,-0.722,-0.052,12.107,49.855,0.053,95.0,75.0
56786,-0.167,-0.875,-0.107,11.130,68.794,11.794,95.0,77.0
56880,-0.150,-0.805,-0.107,13.244,23.374,-0.122,94.0,77.0
56928,-0.168,-0.786,-0.092,19.031,36.733,-0.740,94.0,93.0
56975,-0.274,-0.729,-0.031,21.061,38.863,0.130,95.0,80.0
57023,-0.195,-0.658,-0.109,21.168,51.466,10.908,94.0,84.0
57078,-0.292,-0.726,-0.061,20.046,56.756,10.115,0.0,110.0
57133,-0.232,-0.913,-0.148,25.359,61.916,4.328,0.0,109.0
57182,-0.342,-1.285,-0.016,7.687,45.130,-10.137,89.0,112.0
57230,-0.307,-1.306,0.098,-3.443,37.580,3.832,87.0,98.0
57284,-0.278,-1.589,0.164,-18.160,4.863,16.954,0.0,100.0
57342,-0.134,-1.392,0.122,-4.664,10.443,14.031,0.0,98.0
57397,-0.198,-1.226,0.114,18.198,37.939,0.489,0.0,98.0
57451,-0.144,-0.858,0.044,21.748,39.595,7.206,0.0,99.0
57506,-0.130,-0.758,0.019,15.771,49.725,9.870,0.0,99.0
57561,-0.158,-0.839,-0.032,16.046,60.496,8.252,0.0,98.0
57615,-0.181,-0.881,-0.034,1.718,43.244,1.733,0.0,98.0
57670,-0.215,-0.804,0.012,-4.374,32.137,-6.802,0.0,100.0
57724,-0.243,-0.793,0.014,-4.947,22.122,-13.588,0.0,100.0
57780,-0.291,-0.738,0.053,-0.679,24.237,-14.634,0.0,100.0
57837,-0.316,-0.769,0.053,0.802,27.504,-7.145,0.0,101.0
57892,-0.350,-0.913,0.077,9.237,19.206,-8.664,0.0,103.0
57948,-0.376,-0.861,0.104,8.191,19.534,-0.748,0.0,105.0
58003,-0.212,-1.053,-0.050,4.145,5.031,19.244,0.0,109.0
58058,-0.133,-1.412,-0.058,1.557,-4.702,10.511,0.0,113.0
58114,-0.105,-1.657,-0.082,9.863,22.969,16.443,0.0,115.0
58170,-0.116,-1.312,-0.023,9.122,28.260,22.595,0.0,118.0
58225,-0.219,-1.195,0.077,-12.069,-13.412,3.664,0.0,119.0
58281,-0.051,-0.888,-0.052,10.779,11.885,-2.405,0.0,121.0
58341,-0.185,-0.784,0.067,1.573,13.855,-2.122,0.0,122.0
58397,-0.139,-0.905,-0.053,9.840,-0.962,1.924,0.0,124.0
58454,-0.069,-0.879,-0.108,6.176,19.672,3.511,0.0,126.0
58510,-0.206,-0.819,-0.029,2.763,35.496,5.450,0.0,126.0
58566,-0.243,-0.842,0.012,-2.176,9.687,6.229,0.0,127.0
58622,-0.174,-0.737,-0.058,-0.305,4.382,-5.366,0.0,129.0
58679,-0.236,-0.627,0.036,1.145,21.649,-1.519,0.0,131.0
58736,-0.236,-0.750,0.011,5.282,5.740,-1.405,0.0,133.0
58792,-0.171,-0.907,0.015,1.450,7.237,0.023,0.0,136.0
58853,-0.163,-1.556,-0.006,-7.008,-2.863,-4.420,0.0,137.0
58910,-0.180,-1.267,0.219,-14.244,-9.305,-7.328,0.0,139.0
58968,-0.301,-1.569,0.170,-10.214,-37.221,-2.344,0.0,143.0
59025,-0.030,-1.086,0.092,-2.427,-21.244,10.191,0.0,144.0
59082,-0.097,-1.154,0.038,9.176,20.305,12.031,0.0,146.0
59141,-0.109,-0.793,0.070,11.931,35.863,8.947,0.0,147.0
59198,-0.156,-0.810,0.051,5.962,22.084,12.504,0.0,150.0
59256,-0.154,-0.763,0.074,-1.962,14.420,8.145,0.0,150.0
59314,-0.120,-0.724,0.063,-6.710,1.794,9.244,0.0,153.0
59375,-0.161,-0.645,0.124,-0.382,4.336,2.519,0.0,156.0
59433,-0.086,-0.641,0.047,6.916,-4.527,5.244,0.0,156.0
59487,-0.172,-0.791,0.103,7.779,13.130,6.687,0.0,62.0
59539,-0.100,-1.048,0.042,0.672,1.313,14.046,0.0,67.0
59592,-0.227,-1.625,0.000,6.763,-7.191,-3.321,0.0,64.0
59688,-0.135,-1.421,-0.078,-10.053,-20.328,8.237,0.0,64.0
59742,-0.230,-1.275,0.095,-15.382,0.771,13.962,0.0,66.0
59795,-0.325,-1.237,0.101,-8.092,-4.000,2.702,0.0,67.0
59848,-0.256,-0.895,0.129,0.763,-15.176,12.145,0.0,67.0
59905,-0.162,-0.730,0.034,3.214,-7.771,16.397,0.0,68.0
59958,-0.182,-0.741,-0.005,7.565,-3.832,9.260,0.0,73.0
60011,-0.118,-0.814,-0.105,12.008,2.649,5.351,0.0,71.0
60064,-0.142,-0.803,-0.073,9.489,20.870,4.573,0.0,62.0
60118,-0.219,-0.768,0.051,-1.626,-0.718,4.702,0.0,83.0
60171,-0.072,-0.743,-0.046,-0.931,9.786,9.565,0.0,67.0
60224,-0.187,-0.666,0.091,-4.053,17.389,3.092,0.0,66.0
60278,-0.233,-0.639,0.141,0.969,0.435,0.893,0.0,72.0
60331,-0.213,-1.112,0.069,-4.076,-13.649,0.527,199.0,62.0
60387,-0.259,-1.387,0.139,1.710,-19.435,-2.076,197.0,71.0
60440,-0.213,-1.748,0.123,-25.481,-19.443,12.023,195.0,62.0
60493,-0.117,-1.299,0.121,-20.908,-13.031,9.573,193.0,64.0
60546,-0.198,-1.383,0.128,-7.573,4.176,1.534,192.0,66.0
60595,-0.115,-1.181,0.104,-1.885,5.664,6.679,129.0,67.0
60648,-0.134,-0.906,0.188,-6.153,17.702,7.939,190.0,68.0
60700,-0.072,-0.768,0.079,1.321,20.542,15.252,189.0,71.0
60753,-0.174,-0.711,0.128,8.176,25.107,8.023,188.0,71.0
60807,-0.155,-0.830,0.042,7.817,3.672,3.038,188.0,72.0
60863,-0.195,-0.983,0.076,-5.817,-20.534,-8.763,187.0,74.0
60915,-0.137,-1.080,0.026,-11.481,-23.947,-7.542,186.0,71.0
60968,-0.201,-1.191,0.085,-12.954,-12.710,-3.710,186.0,73.0
61022,-0.187,-1.073,0.007,1.603,-9.061,2.840,186.0,72.0
61075,-0.100,-0.636,0.085,-0.595,14.542,21.794,186.0,79.0
61127,-0.221,-0.886,0.133,-8.267,3.412,22.153,185.0,73.0
61180,-0.156,-1.208,-0.010,-3.496,-30.099,9.947,184.0,74.0
61233,-0.073,-1.063,-0.032,-9.397,-9.015,-0.702,184.0,61.0
61288,-0.167,-0.865,0.084,-6.435,9.718,7.282,184.0,61.0
61340,-0.213,-1.010,0.070,-5.710,-16.527,1.244,184.0,61.0
61388,-0.141,-1.055,-0.006,-4.473,-12.947,-4.511,99.0,62.0
61435,-0.186,-1.008,0.051,-10.206,-4.748,-1.229,98.0,63.0
61484,-0.209,-0.978,0.076,-4.069,0.298,1.893,97.0,79.0
61531,-0.218,-0.982,0.075,-0.855,-7.206,1.580,99.0,61.0
61578,-0.168,-1.014,0.029,-0.344,-1.885,4.977,99.0,71.0
61625,-0.196,-1.004,0.061,-0.115,0.565,6.695,98.0,61.0
61673,-0.200,-0.978,0.043,1.565,-1.947,5.649,98.0,78.0
61729,-0.185,-0.984,0.022,-1.702,-7.588,7.550,185.0,82.0
61784,-0.125,-1.004,-0.038,1.733,9.412,8.573,185.0,83.0
61832,-0.225,-0.955,0.055,-2.092,13.351,7.718,104.0,76.0
61885,-0.245,-0.940,0.086,-5.153,-11.084,6.321,185.0,74.0
61933,-0.156,-1.025,-0.020,-3.328,-16.527,4.916,100.0,75.0
61986,-0.157,-1.019,-0.007,-5.107,-0.298,5.061,185.0,76.0
62040,-0.223,-0.979,0.074,-8.290,3.275,8.275,185.0,76.0
62088,-0.260,-0.979,0.106,-6.160,-16.260,7.397,103.0,77.0
62141,-0.184,-1.003,0.025,-1.847,-19.687,7.015,185.0,74.0
62192,-0.171,-0.995,0.015,0.366,-1.244,9.183,99.0,73.0
62240,-0.192,-0.982,0.032,3.038,9.756,9.870,99.0,74.0
62337,-0.172,-0.982,0.015,1.710,7.550,11.214,184.0,77.0
62390,-0.227,-0.995,0.064,-1.435,2.443,8.275,184.0,77.0
62449,-0.195,-0.964,0.038,-2.275,-9.130,4.763,183.0,78.0
62495,-0.189,-0.976,0.048,-3.481,-8.168,4.702,98.0,60.0
62541,-0.170,-0.981,0.027,-0.733,-5.405,5.206,99.0,60.0
62587,-0.162,-0.969,0.010,1.893,12.718,5.534,98.0,62.0
62640,-0.271,-0.993,0.112,-3.450,7.947,6.595,183.0,75.0
62693,-0.209,-1.019,0.046,-1.496,-8.679,6.695,183.0,61.0
62740,-0.220,-0.972,0.094,-2.595,-0.847,6.397,102.0,61.0
62786,-0.233,-0.977,0.070,-0.901,-5.695,7.664,101.0,60.0
62832,-0.225,-0.980,0.060,0.122,-8.008,8.626,101.0,62.0
62879,-0.222,-0.964,0.067,-2.656,-9.733,9.504,101.0,60.0
62925,-0.170,-1.003,0.008,-2.374,-8.504,10.870,101.0,60.0
62971,-0.177,-0.979,0.038,0.076,10.038,9.511,100.0,61.0
63019,-0.247,-0.996,0.093,-1.427,7.489,6.511,102.0,63.0
63070,-0.253,-0.969,0.092,-0.275,-4.244,5.504,182.0,63.0
63124,-0.201,-0.982,0.050,-2.618,-7.038,7.496,183.0,63.0
63175,-0.196,-0.981,0.031,1.718,9.061,8.076,182.0,64.0
63226,-0.267,-0.955,0.077,0.221,9.382,6.595,182.0,63.0
63278,-0.249,-0.966,0.071,-0.817,-4.756,6.099,183.0,64.0
63330,-0.194,-0.987,0.027,-2.260,-2.145,6.359,182.0,64.0
63382,-0.240,-0.971,0.076,-2.710,6.450,6.405,182.0,82.0
63434,-0.251,-0.986,0.092,-3.198,-4.779,4.313,183.0,80.0
63482,-0.230,-0.983,0.075,-3.412,-5.229,3.595,102.0,77.0
63535,-0.220,-0.987,0.071,-3.237,-4.084,2.718,182.0,84.0
63590,-0.222,-0.971,0.089,-1.252,4.611,3.687,183.0,84.0
63643,-0.247,-0.992,0.100,-2.290,-1.527,3.534,183.0,84.0
63695,-0.231,-0.966,0.090,0.153,0.397,3.008,183.0,84.0
63748,-0.227,-0.968,0.077,-0.840,-0.031,4.618,183.0,77.0
63800,-0.242,-0.976,0.091,-0.305,-0.214,4.344,183.0,79.0
63853,-0.219,-0.968,0.066,-1.817,-6.748,3.412,183.0,76.0
63905,-0.217,-0.978,0.067,-2.336,0.458,6.397,183.0,76.0
63958,-0.254,-0.968,0.101,-3.985,-7.710,5.420,183.0,76.0
64010,-0.179,-0.990,0.037,-2.885,-2.130,6.061,183.0,76.0
64065,-0.233,-0.973,0.105,-2.626,5.573,6.389,182.0,77.0
64117,-0.225,-0.973,0.073,-0.420,2.168,5.916,183.0,75.0
64168,-0.239,-0.964,0.087,-3.237,-2.534,5.977,183.0,65.0
64222,-0.214,-0.992,0.049,-1.855,-1.740,4.344,182.0,80.0
64274,-0.229,-0.972,0.083,-4.000,-2.427,2.282,182.0,79.0
64326,-0.219,-0.977,0.063,-3.687,-3.710,2.229,182.0,80.0
64379,-0.239,-0.977,0.089,-4.397,-3.511,2.893,183.0,82.0
64432,-0.196,-0.992,0.052,-2.504,1.656,4.115,183.0,85.0
64485,-0.246,-0.964,0.108,-2.794,5.969,6.740,182.0,82.0
64540,-0.236,-0.992,0.082,-1.672,-4.160,5.000,183.0,76.0
64587,-0.222,-0.965,0.071,-1.351,-4.435,4.618,96.0,76.0
64634,-0.231,-0.987,0.073,-3.267,-6.321,4.504,95.0,76.0
64681,-0.207,-0.976,0.052,-2.733,-6.137,3.893,96.0,76.0
64729,-0.218,-0.974,0.072,-4.298,-3.847,5.115,96.0,77.0
64777,-0.220,-0.983,0.068,-2.084,2.656,5.336,96.0,77.0
64824,-0.244,-0.992,0.106,-2.221,-1.618,5.443,96.0,77.0
64918,-0.238,-0.963,0.092,-1.183,-1.061,7.527,183.0,61.0
64970,-0.217,-0.997,0.073,-0.168,-3.725,7.527,182.0,62.0
65025,-0.219,-0.972,0.074,0.504,3.580,6.687,183.0,62.0
65076,-0.241,-0.958,0.100,-0.382,-1.481,6.603,183.0,62.0
65128,-0.221,-0.970,0.069,-0.794,-5.809,5.420,183.0,62.0
65179,-0.199,-0.958,0.047,-1.282,-4.305,4.504,182.0,61.0
65231,-0.195,-0.949,0.059,-2.740,6.649,5.672,182.0,62.0
65284,-0.244,-1.006,0.082,-4.282,1.511,3.962,183.0,77.0
65336,-0.221,-0.984,0.078,-3.985,-0.061,3.260,183.0,77.0
65388,-0.256,-0.972,0.126,-4.863,0.840,3.298,183.0,62.0
65442,-0.237,-0.981,0.088,-1.977,-6.802,3.183,183.0,61.0
65495,-0.235,-0.968,0.099,-2.901,-4.107,4.870,182.0,61.0
65546,-0.217,-1.000,0.057,-0.855,-0.328,6.412,183.0,61.0
65598,-0.232,-0.979,0.085,-1.412,-2.092,5.954,182.0,61.0
65649,-0.208,-0.972,0.065,-2.710,-3.519,6.015,182.0,60.0
65701,-0.217,-0.975,0.075,-2.450,-3.298,4.191,182.0,60.0
65753,-0.197,-0.969,0.063,-3.061,-1.969,4.031,182.0,60.0
65804,-0.226,-0.966,0.097,-3.679,0.344,3.031,182.0,51.0
65850,-0.208,-0.983,0.086,-4.000,-6.046,2.244,96.0,52.0
65899,-0.192,-0.978,0.050,-2.603,2.618,2.275,95.0,52.0
65945,-0.228,-0.980,0.095,-3.305,4.687,3.221,95.0,53.0
65991,-0.228,-0.976,0.089,-3.137,-0.145,3.489,95.0,52.0
66037,-0.197,-0.982,0.063,-2.031,2.664,3.359,95.0,52.0
66083,-0.230,-0.977,0.095,-2.344,4.038,3.824,96.0,53.0
66135,-0.226,-0.972,0.086,-0.985,1.023,3.740,182.0,54.0
66186,-0.212,-0.988,0.072,-1.695,1.519,3.794,182.0,53.0
66237,-0.203,-0.979,0.070,-1.290,-0.137,3.611,182.0,53.0
66288,-0.216,-0.963,0.084,-2.107,5.588,5.908,181.0,52.0
66342,-0.228,-0.992,0.078,-2.183,-0.672,5.290,181.0,54.0
66390,-0.218,-0.980,0.079,-3.511,-2.679,5.710,97.0,53.0
66436,-0.214,-0.979,0.071,-3.588,-2.695,6.802,97.0,53.0
66482,-0.208,-0.982,0.085,-2.122,-1.443,7.321,95.0,53.0
66528,-0.213,-0.976,0.098,-1.534,0.611,7.130,95.0,53.0
66574,-0.214,-0.979,0.081,-2.481,-1.595,7.802,95.0,53.0
66621,-0.200,-0.997,0.071,-1.748,-1.115,6.069,95.0,53.0
66667,-0.207,-0.978,0.083,-1.595,-0.496,5.443,95.0,54.0
66713,-0.213,-0.968,0.088,-3.794,-5.046,6.412,94.0,54.0
66762,-0.196,-0.987,0.056,-2.847,-2.115,5.740,96.0,54.0
66809,-0.222,-0.984,0.095,-1.237,0.977,6.626,94.0,54.0
66861,-0.210,-0.983,0.073,-1.916,-0.351,7.168,180.0,63.0
66912,-0.230,-0.987,0.103,-0.954,2.947,7.183,180.0,54.0
66963,-0.233,-0.972,0.104,-1.298,-3.053,6.863,180.0,55.0
67015,-0.214,-0.991,0.087,-0.779,-5.725,5.198,180.0,53.0
67066,-0.202,-0.988,0.065,0.916,1.069,5.511,180.0,53.0
67118,-0.241,-0.968,0.085,-0.115,0.427,5.344,180.0,54.0
67169,-0.249,-0.966,0.097,-0.595,-4.443,6.794,180.0,53.0
67223,-0.213,-0.978,0.070,-0.924,-4.489,8.046,180.0,53.0
67275,-0.223,-0.976,0.087,-1.786,1.420,8.695,180.0,54.0
67326,-0.234,-0.968,0.105,-2.092,-3.489,7.985,180.0,53.0
67378,-0.213,-0.974,0.090,-1.664,-0.466,7.511,179.0,53.0
67472,-0.217,-0.966,0.109,-0.962,-2.389,6.847,180.0,54.0
67523,-0.223,-0.977,0.091,-0.282,-0.664,4.863,180.0,53.0
67575,-0.231,-0.952,0.096,-0.550,-0.924,6.267,180.0,54.0
67627,-0.234,-0.970,0.092,-0.771,-2.679,6.176,180.0,63.0
67681,-0.213,-0.979,0.078,-0.214,0.260,5.137,180.0,90.0
67737,-0.249,-0.953,0.103,-1.870,1.351,5.611,180.0,88.0
67790,-0.223,-0.950,0.090,-2.916,-4.275,5.244,180.0,87.0
67845,-0.222,-0.957,0.078,-2.473,1.527,5.794,180.0,89.0
67896,-0.252,-0.973,0.101,-4.824,-0.046,5.679,180.0,52.0
67947,-0.226,-0.998,0.089,-5.053,-1.260,6.496,181.0,52.0
67998,-0.256,-0.969,0.131,-5.305,-1.008,6.260,181.0,53.0
68050,-0.240,-0.982,0.117,-2.504,-3.992,4.954,181.0,52.0
68102,-0.231,-0.979,0.102,-1.092,-3.023,4.252,180.0,52.0
68153,-0.250,-0.969,0.107,-1.985,-5.649,3.962,181.0,52.0
68210,-0.223,-0.966,0.064,-0.084,1.336,4.099,181.0,86.0
68262,-0.253,-0.962,0.098,-2.718,-1.191,4.328,181.0,65.0
68315,-0.236,-0.963,0.075,-3.656,-6.053,4.679,181.0,65.0
68367,-0.238,-0.984,0.076,-4.809,-3.863,5.527,181.0,64.0
68418,-0.246,-0.967,0.114,-4.809,-2.519,6.305,181.0,51.0
68470,-0.228,-0.971,0.092,-3.687,-2.924,7.901,181.0,52.0
68521,-0.240,-0.982,0.105,-3.649,-2.511,8.137,181.0,52.0
68573,-0.228,-0.975,0.097,-1.557,-0.168,6.527,181.0,51.0
68625,-0.231,-0.963,0.089,-1.473,3.573,5.771,181.0,52.0
68679,-0.247,-0.973,0.105,-1.901,-2.099,4.496,181.0,51.0
68731,-0.240,-0.975,0.085,-2.954,-5.641,3.160,181.0,52.0
68783,-0.225,-0.966,0.083,-2.794,-1.412,3.069,182.0,51.0
68835,-0.241,-0.969,0.095,-2.939,2.351,3.328,182.0,53.0
68886,-0.255,-0.970,0.107,-3.099,-1.344,3.015,182.0,52.0
68938,-0.247,-0.974,0.095,-3.511,-2.275,4.634,182.0,61.0
68997,-0.250,-0.961,0.106,-2.924,-2.076,4.061,182.0,61.0
69048,-0.243,-0.971,0.095,-2.939,-6.435,3.870,182.0,61.0
69093,-0.231,-0.971,0.082,-2.962,-6.099,5.069,98.0,51.0
69142,-0.235,-0.965,0.075,-3.244,-3.130,5.542,98.0,52.0
69187,-0.224,-0.973,0.077,-4.015,-2.198,6.183,95.0,52.0
69232,-0.235,-0.977,0.099,-3.458,0.321,5.870,94.0,51.0
69278,-0.246,-0.977,0.109,-3.466,-3.168,5.084,93.0,51.0
69323,-0.245,-0.972,0.107,-3.389,-6.252,5.985,93.0,52.0
69368,-0.232,-0.978,0.094,-3.351,-5.427,6.351,93.0,51.0
69414,-0.188,-0.966,0.067,-1.511,4.969,7.550,93.0,51.0
69459,-0.265,-0.965,0.132,-3.863,2.947,7.214,93.0,52.0
69505,-0.230,-0.988,0.090,-2.771,-6.718,6.061,93.0,52.0
69553,-0.215,-0.972,0.079,-1.374,4.313,5.924,93.0,51.0
69599,-0.254,-0.969,0.117,-1.504,3.061,5.885,93.0,52.0
69644,-0.248,-0.977,0.105,-1.153,-5.107,6.809,93.0,51.0
69689,-0.232,-0.980,0.083,-1.939,-4.351,6.931,93.0,51.0
69735,-0.230,-0.975,0.084,-2.061,-3.389,7.786,94.0,51.0
69780,-0.232,-0.962,0.103,-2.321,-2.580,7.649,94.0,51.0
69826,-0.217,-0.979,0.096,-2.550,-4.198,6.527,93.0,52.0
69871,-0.203,-0.985,0.079,-0.870,-1.084,5.061,94.0,52.0
69917,-0.219,-0.956,0.101,-0.992,6.092,4.435,94.0,52.0
70009,-0.224,-0.970,0.084,-0.748,-5.168,1.267,93.0,62.0
70055,-0.237,-0.966,0.101,-1.603,2.985,3.244,93.0,61.0
70102,-0.257,-0.987,0.095,-1.229,0.840,3.725,94.0,61.0
70148,-0.253,-0.958,0.109,-1.779,-2.626,2.763,95.0,62.0
70194,-0.239,-0.960,0.095,-2.351,-2.206,4.244,94.0,62.0
70240,-0.242,-0.978,0.093,-1.962,-1.924,4.046,94.0,63.0
70287,-0.229,-0.958,0.105,-2.466,-2.092,3.504,95.0,81.0
70335,-0.243,-0.971,0.096,-3.496,-3.656,3.809,94.0,80.0
70382,-0.221,-0.976,0.096,-3.458,-5.504,3.809,94.0,81.0
70432,-0.218,-0.968,0.097,-2.794,-0.115,3.489,94.0,79.0
70479,-0.240,-0.976,0.110,-4.038,-2.481,3.275,94.0,78.0
70526,-0.224,-0.983,0.086,-3.405,-5.496,2.809,94.0,79.0
70574,-0.222,-0.968,0.100,-3.550,-2.824,1.252,95.0,80.0
70621,-0.226,-0.967,0.102,-3.802,-2.664,2.450,94.0,80.0
70668,-0.212,-0.978,0.087,-3.672,-2.351,2.969,96.0,62.0
70719,-0.210,-0.985,0.097,-3.702,-1.069,2.443,182.0,61.0
70770,-0.210,-0.978,0.100,-3.473,1.092,2.450,182.0,62.0
70816,-0.209,-0.970,0.100,-3.863,-3.115,1.565,96.0,62.0
70866,-0.196,-0.972,0.084,-2.695,0.824,0.924,95.0,62.0
70913,-0.222,-0.976,0.104,-3.992,-0.969,1.160,94.0,61.0
70959,-0.206,-0.992,0.088,-3.939,-6.328,1.626,94.0,61.0
71005,-0.190,-0.980,0.085,-4.137,-3.710,2.061,94.0,61.0
71051,-0.205,-0.973,0.105,-4.802,-5.115,3.397,93.0,52.0
71096,-0.206,-0.989,0.109,-4.710,-7.908,5.298,93.0,52.0
71142,-0.165,-0.981,0.073,-2.901,-3.298,7.763,93.0,52.0
71188,-0.179,-0.987,0.088,-3.115,1.282,8.290,93.0,53.0
71233,-0.193,-0.991,0.089,-1.565,1.870,6.611,93.0,52.0
71282,-0.198,-0.982,0.092,-1.534,-2.351,4.382,93.0,52.0
71328,-0.195,-0.984,0.074,-1.458,-2.733,4.290,93.0,53.0
71373,-0.189,-0.987,0.086,-1.962,-3.496,5.565,93.0,52.0
71419,-0.186,-0.997,0.076,-0.985,1.939,5.565,93.0,52.0
71465,-0.217,-0.978,0.104,-1.000,-0.351,5.092,93.0,53.0
71512,-0.202,-0.982,0.094,-0.794,-3.000,6.336,94.0,53.0
71557,-0.186,-0.979,0.081,-1.099,-2.069,6.618,93.0,52.0
71603,-0.170,-0.982,0.061,-0.115,3.015,6.481,93.0,53.0
71649,-0.208,-0.964,0.093,-0.634,6.985,6.298,93.0,53.0
71698,-0.229,-0.987,0.111,-2.366,-3.244,5.489,93.0,54.0
71744,-0.172,-0.984,0.069,-3.038,-4.389,6.168,93.0,54.0
71790,-0.195,-0.983,0.097,-3.496,3.305,5.725,93.0,53.0
71835,-0.214,-0.997,0.107,-2.176,1.649,5.702,93.0,53.0
71881,-0.208,-0.970,0.111,-2.374,-1.809,5.557,93.0,53.0
71927,-0.204,-0.979,0.105,-2.679,-3.366,5.626,93.0,53.0
71973,-0.193,-0.988,0.087,-1.710,-3.725,4.802,92.0,53.0
72019,-0.191,-0.976,0.086,-1.779,-0.237,5.603,93.0,53.0
72066,-0.196,-0.983,0.092,-2.588,-0.550,6.015,93.0,53.0
72115,-0.193,-0.979,0.089,-2.092,-1.397,5.206,93.0,54.0
72161,-0.201,-0.973,0.082,-3.405,-1.885,5.557,93.0,53.0
72206,-0.184,-0.977,0.088,-4.298,-1.840,6.351,94.0,52.0
72252,-0.194,-0.993,0.090,-2.366,1.779,5.878,94.0,53.0
72298,-0.208,-0.987,0.108,-2.855,0.443,4.901,94.0,52.0
72387,-0.199,-0.973,0.100,-1.710,4.038,4.634,93.0,53.0
72434,-0.229,-0.988,0.115,-2.206,0.519,3.634,94.0,53.0
72480,-0.210,-0.979,0.085,-1.382,-3.137,3.336,93.0,64.0
72527,-0.205,-0.970,0.086,-2.656,-2.916,3.527,94.0,64.0
72577,-0.203,-0.983,0.078,-1.412,-0.366,3.985,93.0,63.0
72624,-0.222,-0.977,0.113,-2.985,-1.130,5.183,93.0,65.0
72671,-0.206,-0.978,0.102,-3.496,-5.802,5.603,93.0,64.0
72717,-0.185,-0.990,0.071,-2.626,-4.069,4.458,93.0,65.0
72764,-0.191,-0.969,0.100,-2.962,-2.969,3.893,93.0,76.0
72812,-0.207,-0.987,0.111,-3.878,-5.802,4.908,93.0,77.0
72859,-0.180,-0.993,0.070,-2.153,-2.885,4.496,93.0,77.0
72907,-0.199,-0.975,0.084,-2.969,0.038,5.000,93.0,77.0
72954,-0.193,-0.989,0.087,-2.443,-0.802,5.664,93.0,78.0
73005,-0.204,-0.980,0.114,-3.229,-2.679,5.267,93.0,76.0
73053,-0.180,-0.986,0.090,-3.183,-4.817,5.618,93.0,78.0
73100,-0.178,-0.988,0.097,-2.824,-0.641,6.550,93.0,77.0
73148,-0.197,-0.990,0.095,-2.557,-1.275,5.229,93.0,78.0
73195,-0.190,-0.969,0.106,-1.863,-0.244,5.237,93.0,80.0
73243,-0.187,-0.989,0.095,-1.840,1.053,5.985,94.0,87.0
73290,-0.195,-0.993,0.094,-1.565,0.107,4.962,94.0,64.0
73337,-0.187,-0.978,0.094,-1.435,-0.069,4.924,94.0,62.0
73383,-0.196,-0.983,0.092,-2.641,-0.237,4.939,94.0,62.0
73434,-0.205,-0.983,0.093,-1.985,-1.420,4.519,94.0,63.0
73481,-0.178,-0.981,0.079,-2.550,-0.481,4.824,95.0,64.0
73529,-0.202,-0.972,0.099,-3.023,2.962,5.237,94.0,87.0
73577,-0.213,-0.986,0.099,-3.115,-2.336,3.282,95.0,86.0
73625,-0.185,-0.965,0.077,-2.687,-1.885,4.573,94.0,86.0
73673,-0.198,-0.990,0.097,-3.580,0.321,5.282,95.0,86.0
73721,-0.200,-0.988,0.080,-2.893,-2.305,4.084,95.0,86.0
73769,-0.191,-0.973,0.081,-3.176,0.221,4.802,95.0,86.0
73819,-0.206,-0.985,0.087,-4.198,-1.824,4.504,95.0,86.0
73869,-0.185,-0.990,0.069,-2.893,-1.130,4.374,95.0,63.0
73915,-0.205,-0.990,0.088,-3.649,-1.092,6.458,95.0,63.0
73962,-0.195,-0.999,0.089,-2.947,-1.397,7.137,95.0,60.0
74009,-0.196,-0.983,0.108,-1.466,-1.405,6.221,95.0,60.0
74055,-0.202,-0.981,0.095,-2.427,-3.107,5.084,95.0,51.0
74101,-0.192,-0.984,0.091,-2.328,-5.779,4.557,95.0,51.0
74147,-0.164,-0.979,0.071,-2.344,-3.313,3.725,95.0,50.0
74194,-0.169,-0.979,0.063,-2.573,0.878,3.321,95.0,51.0
74241,-0.182,-0.975,0.073,-3.855,0.611,2.206,95.0,51.0
74290,-0.197,-0.978,0.076,-5.053,-1.176,1.779,95.0,49.0
74336,-0.173,-0.982,0.065,-5.924,-3.115,1.969,95.0,50.0
74383,-0.174,-0.984,0.060,-4.710,3.382,3.489,96.0,58.0
74430,-0.198,-0.996,0.079,-4.687,1.634,3.878,97.0,59.0
74477,-0.188,-1.003,0.064,-3.954,0.328,3.977,97.0,59.0
74524,-0.170,-0.982,0.073,-3.382,8.359,6.053,97.0,61.0
74571,-0.216,-0.985,0.107,-4.130,4.344,6.359,98.0,62.0
74619,-0.195,-0.989,0.073,-2.481,-2.565,4.565,98.0,86.0
74668,-0.180,-0.972,0.069,-3.137,-1.458,4.176,97.0,85.0
74720,-0.181,-0.999,0.046,-3.290,-1.130,4.214,98.0,85.0
74812,-0.180,-0.982,0.068,-4.916,0.832,4.420,99.0,85.0
74859,-0.200,-1.004,0.077,-4.252,-1.878,3.534,99.0,61.0
74906,-0.168,-0.990,0.050,-3.008,0.344,4.351,98.0,62.0
74954,-0.191,-0.982,0.075,-3.305,3.809,6.153,98.0,73.0
75001,-0.189,-0.990,0.067,-2.527,-1.634,7.115,98.0,72.0
75048,-0.166,-0.978,0.047,-2.107,3.176,8.191,97.0,49.0
75101,-0.181,-0.988,0.057,-3.031,3.313,6.794,97.0,49.0
75146,-0.178,-0.986,0.061,-3.840,0.145,5.595,97.0,48.0
75194,-0.152,-0.992,0.025,-4.023,4.038,4.229,96.0,48.0
75239,-0.183,-0.994,0.065,-4.221,7.771,4.298,97.0,48.0
75286,-0.195,-1.009,0.067,-5.145,4.672,3.931,123.0,49.0
75333,-0.188,-0.988,0.064,-3.534,3.084,2.740,123.0,48.0
75380,-0.194,-0.994,0.070,-2.336,2.634,2.626,123.0,49.0
75426,-0.187,-0.998,0.039,-0.511,4.664,3.046,124.0,48.0
75473,-0.196,-0.986,0.063,-0.695,5.435,4.351,123.0,48.0
75521,-0.201,-0.990,0.056,-0.626,1.710,3.771,123.0,48.0
75568,-0.189,-0.982,0.048,-1.496,-2.794,3.725,123.0,48.0
75618,-0.166,-0.989,0.034,-1.336,1.229,4.275,123.0,49.0
75664,-0.197,-0.986,0.055,-1.786,1.191,4.481,123.0,49.0
75711,-0.191,-0.991,0.057,-2.847,-3.519,4.435,123.0,48.0
75758,-0.164,-0.983,0.030,-1.580,1.282,4.870,123.0,49.0
75805,-0.195,-0.988,0.068,-2.328,2.214,5.702,123.0,48.0
75852,-0.179,-1.006,0.047,-2.198,-2.748,5.977,123.0,48.0
75898,-0.171,-0.981,0.054,-1.519,1.649,6.611,98.0,49.0
75943,-0.184,-0.996,0.062,-1.740,1.008,5.588,98.0,48.0
75988,-0.176,-0.988,0.050,-0.542,-1.168,4.824,98.0,49.0
76038,-0.175,-0.984,0.045,-2.130,-1.176,4.595,98.0,48.0
76083,-0.178,-1.000,0.048,-1.534,-0.771,4.634,97.0,49.0
76129,-0.186,-0.984,0.065,-2.595,-2.053,5.290,97.0,48.0
76174,-0.175,-1.009,0.037,-1.977,-2.038,5.145,97.0,48.0
76220,-0.184,-0.986,0.064,-1.595,0.153,5.099,98.0,48.0
76265,-0.188,-0.987,0.068,-2.031,-3.947,5.695,98.0,49.0
76311,-0.167,-0.998,0.054,-0.542,-4.611,5.786,98.0,49.0
76357,-0.161,-0.994,0.042,0.137,0.939,5.588,99.0,49.0
76403,-0.172,-0.985,0.060,-0.107,1.427,5.458,122.0,49.0
76453,-0.184,-0.989,0.063,-1.718,-4.229,4.832,100.0,73.0
76500,-0.164,-0.982,0.042,-0.687,-1.901,4.977,99.0,73.0
76548,-0.179,-0.986,0.047,-1.214,2.985,6.466,99.0,73.0
76595,-0.182,-0.991,0.058,-0.809,0.832,6.534,98.0,73.0
76643,-0.177,-0.979,0.050,-0.298,0.153,4.878,98.0,85.0
76689,-0.177,-0.982,0.062,-0.985,0.870,5.733,98.0,62.0
76736,-0.184,-0.998,0.061,-0.550,0.405,5.275,98.0,62.0
76782,-0.178,-0.984,0.054,-0.351,1.985,4.901,98.0,61.0
76828,-0.178,-0.989,0.057,-0.733,2.672,4.779,98.0,61.0
76878,-0.190,-0.978,0.073,-0.847,1.733,4.809,98.0,61.0
76924,-0.194,-0.983,0.072,-1.626,-1.321,5.405,98.0,60.0
76971,-0.171,-0.985,0.060,-1.443,2.191,6.290,97.0,61.0
77018,-0.207,-0.980,0.085,-2.298,2.481,6.618,99.0,62.0
77064,-0.181,-1.007,0.073,-1.931,-1.893,5.366,99.0,62.0
77110,-0.184,-0.975,0.076,-1.191,-0.206,4.473,98.0,60.0
77201,-0.170,-0.992,0.060,-0.954,1.023,5.481,123.0,61.0
77249,-0.189,-0.981,0.080,-2.084,0.336,4.931,123.0,62.0
77297,-0.176,-0.991,0.067,-2.122,-1.267,4.870,123.0,60.0
77348,-0.184,-0.981,0.078,-2.947,-0.733,4.603,122.0,60.0
77396,-0.187,-0.987,0.063,-2.160,-0.260,4.863,123.0,59.0
77445,-0.184,-0.987,0.079,-3.450,-1.695,5.832,123.0,60.0
77492,-0.179,-1.003,0.065,-1.809,0.382,5.626,122.0,59.0
77540,-0.190,-0.983,0.092,-1.405,-0.351,3.878,122.0,60.0
77588,-0.188,-0.980,0.083,-2.183,-2.542,4.740,122.0,59.0
77634,-0.176,-0.992,0.068,-1.954,-2.122,4.786,97.0,60.0
77681,-0.169,-0.991,0.073,-1.557,1.290,4.786,98.0,59.0
77727,-0.189,-0.987,0.083,-2.069,-0.618,3.679,97.0,59.0
77776,-0.175,-0.989,0.069,-1.664,-3.313,3.366,98.0,59.0
77824,-0.182,-0.989,0.069,-1.611,0.145,4.115,97.0,60.0
77870,-0.181,-0.993,0.070,-1.977,-0.634,5.092,96.0,59.0
77916,-0.183,-0.982,0.087,-2.527,-1.748,5.267,97.0,59.0
77963,-0.170,-0.991,0.074,-1.550,-1.298,5.046,97.0,59.0
78009,-0.191,-0.979,0.067,-1.885,0.191,5.168,96.0,60.0
78055,-0.173,-0.993,0.078,-2.565,-2.611,5.847,96.0,60.0
78102,-0.165,-0.986,0.070,-2.084,-1.076,5.649,96.0,59.0
78148,-0.179,-0.987,0.078,-2.595,-0.962,4.893,96.0,59.0
78206,-0.172,-0.985,0.086,-2.092,-1.351,4.496,96.0,59.0
78256,-0.177,-0.991,0.075,-2.595,-0.656,4.580,96.0,59.0
78305,-0.177,-0.992,0.073,-2.153,-0.374,4.473,96.0,59.0
78354,-0.179,-0.981,0.082,-2.832,-0.618,4.969,96.0,59.0
78402,-0.176,-0.991,0.077,-1.557,-0.053,4.931,96.0,60.0
78451,-0.183,-0.983,0.080,-2.328,-1.389,5.321,97.0,59.0
78500,-0.167,-0.986,0.073,-2.649,-2.191,5.580,96.0,59.0
78550,-0.169,-0.986,0.080,-2.588,-1.099,5.977,96.0,59.0
78599,-0.174,-0.985,0.074,-2.618,-1.847,5.420,96.0,60.0
78650,-0.172,-0.986,0.082,-2.252,-0.779,5.069,96.0,58.0
78699,-0.177,-0.991,0.082,-2.046,-2.206,5.374,97.0,59.0
78748,-0.165,-0.994,0.069,-2.611,-2.191,5.298,97.0,59.0
78806,-0.183,-0.977,0.085,-2.145,-0.489,5.908,97.0,60.0
78856,-0.173,-0.990,0.083,-2.344,-2.656,4.885,120.0,59.0
78905,-0.170,-0.993,0.063,-1.992,-2.863,4.046,120.0,59.0
78955,-0.178,-0.988,0.081,-2.115,-1.214,5.534,121.0,60.0
79004,-0.182,-0.995,0.090,-1.908,-5.977,4.992,120.0,59.0
79053,-0.221,-0.990,0.114,-1.458,-16.924,3.878,121.0,50.0
79106,-0.239,-0.992,0.130,-1.679,-39.443,1.733,121.0,50.0
79155,-0.263,-1.016,0.153,-1.046,-60.260,1.924,120.0,49.0
79203,-0.256,-1.001,0.140,0.603,-77.824,7.237,95.0,50.0
79250,-0.314,-1.021,0.163,1.580,-96.351,11.969,83.0,52.0
79297,-0.201,-1.004,0.122,3.595,-93.954,17.237,80.0,52.0
79344,-0.218,-1.003,0.187,7.634,-74.634,30.786,77.0,52.0
79393,-0.397,-1.063,0.367,14.160,-104.550,39.893,75.0,94.0
79444,-0.279,-1.089,0.295,25.702,-131.298,41.489,73.0,132.0
79497,-0.220,-1.086,0.321,39.206,-123.802,44.473,71.0,140.0
79549,-0.158,-1.060,0.292,51.779,-108.168,40.626,70.0,103.0
79599,-0.166,-1.018,0.390,63.443,-86.298,33.466,70.0,107.0
