Timestamp(ms),AccelX(g),AccelY(g),AccelZ(g),GyroX(deg/s),GyroY(deg/s),GyroZ(deg/s),DistanceLeft(cm),DistanceRight(cm)
38906,1.163,0.132,0.549,14.229,18.084,-42.687,165.0,0.0
38952,0.007,0.057,0.855,-10.565,223.092,-36.092,0.0,0.0
39000,-0.790,0.060,1.309,-17.725,83.191,12.969,0.0,0.0
39046,-0.609,-0.042,1.285,-26.206,-159.756,39.046,0.0,0.0
39092,0.599,-0.283,0.704,11.275,-211.550,-0.947,0.0,0.0
39139,1.230,0.062,0.456,21.160,50.550,-42.305,0.0,0.0
39185,0.169,0.120,0.798,0.069,236.198,-46.191,0.0,0.0
39234,-0.781,0.120,1.223,-15.229,130.221,3.351,0.0,0.0
39280,-0.850,-0.081,1.181,-26.771,-115.832,31.069,0.0,0.0
39327,0.063,-0.211,0.968,-7.061,-228.756,27.947,0.0,0.0
39373,1.220,-0.023,0.434,32.748,-39.443,-47.519,0.0,0.0
39418,0.298,0.282,0.656,-8.748,226.809,-17.863,162.0,0.0
39478,-0.933,0.133,1.403,-50.786,126.794,63.740,0.0,0.0
39523,-0.337,-0.416,1.068,-4.756,-250.137,13.603,172.0,0.0
39583,1.369,0.018,0.289,39.359,-151.420,-49.519,0.0,0.0
39627,0.333,0.125,0.616,-13.656,250.130,-28.924,150.0,0.0
39687,-0.858,0.096,1.362,-35.420,159.687,31.321,138.0,0.0
39731,-0.534,-0.294,1.230,-16.015,-238.748,18.901,137.0,0.0
39791,1.121,-0.075,0.421,35.092,-179.634,-54.802,0.0,0.0
39837,0.467,0.159,0.592,-11.122,233.634,-31.130,0.0,0.0
39884,-0.789,0.068,1.250,-39.840,174.076,23.206,0.0,0.0
39930,-0.879,-0.261,1.443,-32.977,-159.931,31.763,0.0,0.0
39977,0.653,-0.239,0.610,22.008,-231.809,-45.023,0.0,0.0
40022,1.042,0.166,0.400,4.122,94.672,-36.015,164.0,0.0
40079,-0.158,0.089,0.863,-39.183,228.321,9.176,138.0,0.0
40125,-0.946,-0.326,1.604,-30.115,-96.611,37.382,139.0,0.0
40182,0.298,-0.262,0.831,21.710,-221.160,-33.412,138.0,0.0
40225,0.881,0.084,0.521,3.878,101.557,-26.916,143.0,0.0
40286,-0.144,0.001,0.975,-24.756,199.405,11.244,0.0,0.0
40330,-0.567,-0.289,1.313,-1.511,-55.443,3.550,141.0,0.0
40387,0.149,-0.017,0.885,8.443,-117.687,-11.496,143.0,0.0
40430,0.500,-0.092,0.738,-0.069,51.275,-11.282,143.0,0.0
40491,-0.047,-0.080,0.964,-5.733,109.878,-4.298,0.0,0.0
40535,-0.508,-0.082,1.246,-14.145,-21.420,26.840,140.0,0.0
40595,0.089,-0.246,0.959,2.916,-106.244,2.542,142.0,0.0
40641,0.502,-0.007,0.721,9.260,36.015,-16.611,0.0,0.0
40688,-0.100,-0.061,0.953,-17.481,108.115,-0.496,0.0,0.0
40735,-0.454,-0.170,1.234,-16.496,8.160,14.282,0.0,0.0
40781,0.030,-0.225,1.067,8.870,-83.275,-7.962,0.0,0.0
40825,0.569,-0.104,0.709,27.832,26.435,-45.321,145.0,0.0
40886,-0.033,0.108,0.861,-0.679,146.977,-13.641,0.0,0.0
40933,-0.831,-0.209,1.336,-28.053,-31.954,36.328,0.0,0.0
40979,-0.014,-0.356,0.925,8.099,-169.374,-12.847,0.0,0.0
41029,0.702,0.021,0.565,27.229,7.802,-34.786,0.0,0.0
41076,-0.125,0.081,0.846,-20.458,151.931,12.015,0.0,0.0
41119,-0.790,-0.182,1.322,-32.153,4.092,40.198,141.0,0.0
41177,-0.122,-0.380,1.041,6.931,-154.969,-9.389,143.0,0.0
41221,0.765,0.063,0.549,24.267,43.992,-41.595,144.0,0.0
41281,-0.062,0.042,0.745,-16.069,207.099,-9.855,0.0,0.0
41328,-1.130,-0.173,1.468,-38.611,-33.435,49.267,0.0,0.0
41432,1.053,-0.054,0.453,46.580,-102.740,-49.137,0.0,0.0
41479,0.109,0.053,0.701,-9.802,239.298,-15.252,0.0,0.0
41546,-1.033,-0.020,1.271,-25.336,121.733,30.389,0.0,0.0
41593,-0.587,-0.401,1.030,-18.870,-250.137,29.046,0.0,0.0
41640,1.091,-0.188,0.380,43.214,-164.412,-44.275,0.0,0.0
41687,0.761,0.118,0.532,8.496,178.420,-29.275,0.0,0.0
41734,-0.527,-0.006,1.054,-28.870,229.511,3.336,0.0,0.0
41781,-1.102,-0.217,1.464,-28.328,-44.229,29.214,0.0,0.0
41828,-0.195,-0.325,0.954,-4.038,-232.160,-8.061,0.0,0.0
41875,1.203,-0.144,0.405,42.794,-50.924,-60.939,0.0,0.0
41922,0.406,0.063,0.552,9.702,250.130,-53.229,0.0,0.0
41972,-1.156,0.153,1.169,-33.718,215.321,33.786,0.0,0.0
42018,-1.503,-0.420,1.370,-45.092,-189.443,55.069,0.0,0.0
42065,-0.214,-0.395,0.721,-2.817,-250.137,7.053,0.0,0.0
42113,1.748,0.072,0.137,54.679,-89.664,-57.588,0.0,0.0
42158,0.556,0.112,0.392,-11.740,250.130,-32.863,167.0,0.0
42219,-0.968,0.009,1.017,-35.756,250.130,27.687,0.0,0.0
42266,-1.211,-0.405,1.357,-36.771,-245.550,46.115,0.0,0.0
42313,0.520,-0.351,0.601,16.794,-250.137,-38.214,0.0,0.0
42360,1.783,0.061,0.126,31.290,74.046,-73.595,0.0,0.0
42428,-0.082,0.053,0.487,-36.931,250.130,-36.870,0.0,0.0
42475,-1.764,-0.267,1.785,-46.313,-11.527,49.763,0.0,0.0
42522,-0.930,-0.353,1.000,-14.557,-250.137,17.649,0.0,0.0
42568,1.383,-0.336,-0.172,45.802,-250.137,-69.519,175.0,0.0
42626,1.201,0.046,0.292,-1.489,233.687,-48.382,144.0,0.0
42673,-1.052,0.008,0.928,-48.679,250.130,31.802,0.0,0.0
42720,-1.763,-0.415,1.770,-62.053,-171.244,86.191,0.0,0.0
42764,-0.377,-0.614,0.618,-8.046,-250.137,2.977,142.0,0.0
42826,2.000,0.167,-0.032,53.939,-142.664,-66.275,169.0,0.0
42871,0.345,0.056,0.481,-37.313,250.130,-24.298,163.0,0.0
42933,-1.141,-0.141,1.264,-39.176,242.893,35.504,0.0,0.0
42980,-0.965,-0.470,1.285,-4.916,-250.137,23.450,0.0,0.0
43027,1.085,-0.294,0.347,41.733,-250.137,-56.588,0.0,0.0
43073,1.354,-0.008,0.233,23.244,181.893,-68.153,176.0,0.0
43134,-0.362,0.168,0.611,-41.122,250.130,-5.061,0.0,0.0
43182,-1.567,-0.465,1.837,-35.565,-102.443,73.420,0.0,0.0
43229,-0.335,-0.490,0.698,21.603,-250.137,-26.069,0.0,0.0
43279,1.460,0.246,0.154,27.763,-62.618,-24.221,0.0,0.0
43327,0.298,-0.043,0.702,-31.802,210.168,20.092,0.0,0.0
43374,-0.521,-0.338,1.331,-12.168,119.489,15.916,0.0,0.0
43421,-0.301,-0.190,1.194,18.260,-74.298,-21.550,0.0,0.0
43465,0.299,-0.084,0.747,3.305,-48.344,-11.015,152.0,0.0
43527,0.161,-0.150,0.911,-9.328,43.664,6.634,0.0,0.0
43574,-0.159,-0.220,1.086,1.885,16.115,-1.565,0.0,0.0
43621,-0.038,-0.205,0.983,4.939,-20.198,1.977,0.0,0.0
43668,0.119,-0.223,0.917,5.672,-7.008,1.298,0.0,0.0
43737,0.066,-0.130,0.935,8.496,37.618,-3.855,0.0,0.0
43784,-0.137,-0.140,1.011,5.893,31.466,-1.237,0.0,0.0
43831,-0.135,-0.158,1.026,1.763,-4.802,3.832,0.0,0.0
43878,0.101,-0.198,0.921,10.832,8.267,-5.656,0.0,0.0
43982,-0.334,0.031,0.935,10.939,145.397,-20.718,0.0,0.0
44029,-0.871,-0.124,1.204,-23.053,-29.244,22.817,0.0,0.0
44078,-0.514,-0.204,1.123,-21.534,-208.534,26.015,0.0,0.0
44123,0.571,-0.312,0.637,24.160,-156.840,-22.985,159.0,0.0
44183,0.792,-0.060,0.579,34.061,75.969,-38.015,0.0,0.0
44234,-0.403,-0.080,0.938,-1.542,199.504,-17.061,0.0,0.0
44281,-0.902,0.011,1.163,-5.473,40.756,-1.412,0.0,0.0
44329,-0.778,-0.123,1.071,-35.725,-160.359,35.595,0.0,0.0
44377,0.123,-0.349,0.720,-14.366,-204.870,17.504,0.0,0.0
44424,0.896,-0.152,0.571,17.763,-15.321,-20.061,0.0,0.0
44472,0.167,0.015,0.807,-11.695,176.237,-18.489,0.0,0.0
44519,-0.766,-0.106,1.283,-24.534,89.687,19.244,0.0,0.0
44566,-0.744,-0.233,1.237,-17.618,-142.130,22.443,0.0,0.0
44611,0.397,-0.384,0.714,9.748,-173.489,-3.366,153.0,0.0
44674,0.813,0.011,0.569,23.542,86.023,-25.366,149.0,0.0
44721,-0.464,-0.082,1.047,-19.023,178.206,12.802,0.0,0.0
44769,-0.934,-0.236,1.415,-18.542,-56.458,29.740,0.0,0.0
44816,-0.109,-0.334,0.880,3.015,-208.122,-2.168,0.0,0.0
44863,0.916,-0.127,0.539,25.427,-39.603,-27.305,0.0,0.0
44911,0.276,-0.024,0.696,3.252,194.969,-20.931,0.0,0.0
44958,-0.706,-0.083,1.211,-16.405,141.893,13.489,0.0,0.0
45002,-0.890,-0.271,1.310,-10.435,-124.023,20.115,141.0,0.0
45064,0.048,-0.271,0.798,3.099,-212.084,-0.458,0.0,0.0
45112,0.649,-0.038,0.638,6.664,78.176,-15.260,148.0,0.0
45170,-0.168,-0.049,0.970,-18.542,162.618,5.641,147.0,0.0
45221,-0.523,-0.333,1.236,-3.160,-60.733,0.313,148.0,0.0
45279,0.114,-0.109,0.844,10.015,-93.496,-19.023,147.0,0.0
45323,0.188,-0.129,0.826,-8.229,41.550,3.939,147.0,0.0
45382,-0.165,-0.220,1.052,-6.977,49.695,5.641,0.0,0.0
45426,-0.132,-0.156,1.029,1.481,-25.893,-2.023,153.0,0.0
45484,0.056,-0.146,0.918,-1.824,-15.702,-1.305,148.0,0.0
45528,-0.027,-0.187,0.978,-3.656,20.275,-0.260,150.0,0.0
45590,-0.117,-0.188,1.014,-0.863,8.740,1.107,0.0,0.0
45637,-0.041,-0.172,0.969,0.809,-5.122,2.359,0.0,0.0
45683,-0.013,-0.188,0.980,0.924,3.053,2.321,0.0,0.0
45726,-0.061,-0.172,0.979,2.351,9.206,1.046,150.0,0.0
45784,-0.094,-0.166,0.996,0.244,2.092,2.000,150.0,0.0
45828,-0.068,-0.192,0.979,3.389,-3.916,3.664,149.0,0.0
45885,-0.051,-0.180,0.971,2.656,-3.153,4.489,151.0,0.0
45929,-0.044,-0.168,0.973,3.344,2.092,3.473,153.0,0.0
45988,-0.055,-0.157,0.990,4.191,2.420,0.511,0.0,0.0
46035,-0.024,-0.186,0.967,2.687,4.695,-3.359,162.0,0.0
46096,-0.062,-0.144,0.966,3.924,13.863,-2.382,0.0,0.0
46143,-0.104,-0.172,1.000,3.053,2.634,-2.435,0.0,0.0
46189,-0.040,-0.163,0.977,5.374,-2.321,-4.137,0.0,0.0
46236,-0.049,-0.135,1.012,8.450,8.702,-5.275,0.0,0.0
46282,-0.237,-0.197,0.995,14.641,11.122,-12.359,0.0,0.0
46328,-0.419,0.015,1.044,-0.176,-48.740,16.740,0.0,0.0
46375,-0.328,-0.132,0.929,-19.069,-128.298,49.824,0.0,0.0
46422,0.274,-0.312,0.900,-10.878,-176.588,32.183,0.0,0.0
46525,0.583,-0.054,0.656,3.191,209.779,-52.794,0.0,0.0
46575,-0.707,-0.135,1.069,-6.321,180.176,-18.298,0.0,0.0
46622,-0.986,-0.066,1.314,-30.527,-63.618,23.939,0.0,0.0
46665,-0.318,-0.377,0.956,-24.656,-246.427,31.244,153.0,0.0
46724,0.989,-0.236,0.529,23.924,-129.053,-23.702,152.0,0.0
46768,0.520,-0.121,0.682,-3.733,199.969,-33.282,153.0,0.0
46826,-0.528,-0.026,1.010,-17.527,217.679,-3.244,156.0,0.0
46870,-1.058,-0.264,1.299,-31.939,-111.405,39.786,157.0,0.0
46928,-0.276,-0.325,0.932,-16.992,-250.137,19.176,155.0,0.0
46976,1.099,-0.202,0.455,42.725,-30.634,-28.008,155.0,0.0
47033,0.480,0.009,0.679,0.603,204.099,-21.229,153.0,0.0
47078,-0.722,-0.053,1.217,-16.489,164.626,8.802,158.0,0.0
47136,-0.899,-0.266,1.368,-20.718,-89.863,21.863,158.0,0.0
47180,0.366,-0.361,0.732,18.191,-176.969,-27.855,154.0,0.0
47239,0.898,-0.129,0.500,30.656,42.947,-34.183,154.0,0.0
47283,-0.240,-0.013,0.816,-15.931,218.847,-2.824,156.0,0.0
47341,-1.083,-0.136,1.420,-36.824,27.939,44.527,157.0,0.0
47385,-0.330,-0.444,0.868,-6.870,-250.137,9.733,156.0,0.0
47449,0.980,-0.152,0.472,30.290,-118.870,-24.252,0.0,0.0
47494,0.276,0.001,0.732,-11.198,201.886,-5.153,155.0,0.0
47551,-0.610,-0.148,1.233,-26.794,137.275,29.557,156.0,0.0
47598,-0.533,-0.333,1.194,-14.191,-152.458,15.969,0.0,0.0
47645,0.423,-0.233,0.719,14.450,-144.870,-17.061,0.0,0.0
47689,0.665,-0.182,0.663,10.969,37.710,-10.191,156.0,0.0
47751,0.128,-0.165,0.920,-2.206,144.405,-8.573,0.0,0.0
47795,-0.380,-0.254,1.150,6.702,49.740,-7.885,151.0,0.0
47855,-0.162,-0.195,0.973,13.313,-20.786,-21.534,0.0,0.0
47905,0.005,-0.177,0.865,-1.824,9.733,-3.420,0.0,0.0
47952,-0.171,-0.216,0.991,-4.252,14.924,4.779,0.0,0.0
47998,-0.121,-0.218,0.979,-0.687,-11.748,2.511,0.0,0.0
48046,-0.020,-0.167,0.947,-2.160,-9.588,0.260,0.0,0.0
48093,-0.029,-0.175,0.957,-4.267,6.282,0.977,0.0,0.0
48139,-0.080,-0.199,0.966,-3.779,7.718,-1.344,0.0,0.0
48186,-0.092,-0.181,1.003,-3.328,-3.855,-0.412,0.0,0.0
48233,-0.047,-0.209,0.973,-0.427,-2.290,-0.466,0.0,0.0
48280,-0.057,-0.211,0.994,-0.160,4.527,0.840,0.0,0.0
48347,-0.041,-0.192,0.995,4.756,10.702,-1.740,0.0,0.0
48394,-0.027,-0.190,0.980,10.084,19.130,-7.298,0.0,0.0
48441,0.002,-0.219,0.930,16.053,41.496,-18.489,0.0,0.0
48488,-0.188,-0.113,0.844,18.771,88.023,-32.351,0.0,0.0
48535,-0.717,0.062,1.016,-16.771,47.573,12.542,0.0,0.0
48582,-0.933,-0.214,1.112,-49.977,-165.886,54.466,0.0,0.0
48629,-0.134,-0.572,0.898,-22.206,-250.137,24.305,0.0,0.0
48676,1.442,-0.148,0.334,52.527,-139.374,-39.450,0.0,0.0
48723,0.827,-0.030,0.546,-5.344,203.809,-36.496,0.0,0.0
48774,-0.446,-0.146,0.864,-18.153,250.130,-15.962,0.0,0.0
48821,-1.224,-0.243,1.451,-33.389,-7.931,37.122,0.0,0.0
48868,-0.568,-0.391,1.012,-24.359,-250.137,38.916,0.0,0.0
48915,1.085,-0.396,0.371,34.450,-203.718,-8.863,0.0,0.0
48959,1.105,0.052,0.597,23.542,125.756,-25.122,158.0,0.0
49061,-0.801,-0.229,1.185,1.237,137.809,-2.084,163.0,0.0
49108,-0.758,-0.264,1.143,-20.496,-193.038,37.588,0.0,0.0
49156,0.324,-0.462,0.731,11.282,-250.137,30.038,0.0,0.0
49200,1.314,-0.056,0.436,50.031,-42.565,-34.679,150.0,0.0
49261,0.615,0.005,0.586,-10.725,238.870,-42.420,151.0,0.0
49308,-0.784,-0.097,1.099,-18.832,195.061,2.015,0.0,0.0
49355,-1.122,-0.301,1.417,-29.672,-134.656,44.893,0.0,0.0
49400,0.028,-0.488,0.797,-0.382,-250.137,22.740,156.0,0.0
49461,1.512,-0.165,0.237,57.450,-121.481,-49.130,191.0,0.0
49508,0.504,0.047,0.464,-29.298,250.130,-51.206,0.0,0.0
49556,-0.970,-0.203,1.115,-33.115,250.130,9.725,0.0,0.0
49600,-1.328,-0.365,1.535,-16.046,-134.489,48.870,158.0,0.0
49660,-0.212,-0.354,0.784,3.832,-250.137,13.160,192.0,0.0
49710,1.459,-0.080,0.247,37.695,-5.000,-27.260,160.0,0.0
49770,0.518,0.021,0.537,-24.214,250.130,-32.740,0.0,0.0
49815,-0.979,-0.264,1.374,-29.069,132.069,30.534,154.0,0.0
49874,-0.750,-0.451,1.198,3.885,-155.313,6.420,163.0,0.0
49918,0.717,-0.057,0.606,20.153,-120.519,-22.382,154.0,0.0
49978,0.501,-0.068,0.704,1.252,92.000,-0.870,157.0,0.0
50025,-0.371,-0.180,1.202,-23.282,99.664,27.145,0.0,0.0
50072,-0.296,-0.354,1.160,6.947,-64.466,8.084,0.0,0.0
50122,0.342,-0.109,0.780,16.450,-46.679,-22.069,0.0,0.0
50170,0.192,-0.114,0.847,-4.878,66.588,0.473,0.0,0.0
50214,-0.137,-0.236,1.060,-6.046,63.000,3.405,162.0,0.0
50274,-0.226,-0.173,1.103,2.412,-4.687,-7.420,161.0,0.0
50321,0.043,-0.199,0.909,0.687,-25.412,-4.908,0.0,0.0
50368,0.072,-0.184,0.929,1.198,16.695,-2.008,0.0,0.0
50416,-0.092,-0.175,1.003,2.588,28.214,2.237,0.0,0.0
50463,-0.115,-0.206,1.010,5.366,3.344,1.481,0.0,0.0
50510,-0.067,-0.161,0.962,4.374,-8.580,4.695,0.0,0.0
50557,-0.060,-0.143,0.972,0.588,-5.794,8.817,0.0,0.0
50608,-0.040,-0.173,0.985,2.733,-7.664,7.855,0.0,0.0
50656,-0.040,-0.158,1.068,-0.069,-21.183,11.160,0.0,0.0
50703,0.094,-0.171,1.092,8.878,-23.061,3.710,0.0,0.0
50750,0.366,-0.238,0.987,39.267,15.817,-32.000,0.0,0.0
50797,0.092,-0.029,0.803,42.985,120.550,-50.992,0.0,0.0
50845,-0.659,0.201,0.861,0.160,116.183,11.863,0.0,0.0
50892,-1.339,-0.154,1.405,-66.939,-155.214,84.153,0.0,0.0
50939,-0.335,-0.618,0.639,-22.244,-250.137,51.107,0.0,0.0
50984,1.489,-0.135,0.056,40.580,-203.435,-43.817,152.0,0.0
51048,1.170,0.042,0.296,-7.008,241.962,-58.107,176.0,0.0
51093,-0.681,-0.104,0.987,-24.382,250.130,-15.397,160.0,0.0
51154,-1.270,-0.219,1.469,-27.855,4.115,28.618,0.0,0.0
51201,-0.367,-0.383,0.940,-33.939,-250.137,40.183,172.0,0.0
51259,1.478,-0.500,-0.010,50.802,-159.878,-69.038,155.0,0.0
51306,0.668,0.090,0.406,-23.908,250.130,-51.519,173.0,0.0
51366,-0.882,-0.024,1.122,-48.809,250.130,15.397,0.0,0.0
51415,-1.240,-0.423,1.555,-24.649,-221.023,43.534,0.0,0.0
51483,0.603,-0.446,0.409,13.076,-250.137,-40.725,0.0,0.0
51528,1.257,0.010,0.315,6.878,209.519,-52.992,159.0,0.0
51633,-1.307,-0.265,1.487,-39.947,135.573,67.565,0.0,0.0
51681,-0.818,-0.386,1.091,-20.824,-250.137,24.031,0.0,0.0
51745,1.184,-0.305,0.094,47.687,-204.046,-72.893,160.0,0.0
51792,0.750,0.052,0.476,-18.359,233.954,-21.298,0.0,0.0
51838,-0.631,-0.107,1.103,-47.550,250.023,36.099,0.0,0.0
51883,-0.987,-0.494,1.561,-12.580,-84.481,62.153,161.0,0.0
51942,-0.006,-0.399,0.894,27.191,-217.672,-25.107,175.0,0.0
51989,0.972,0.052,0.476,19.672,46.931,-28.489,161.0,0.0
52049,0.092,-0.003,0.742,-26.534,202.382,1.756,0.0,0.0
52093,-0.746,-0.462,1.447,-31.420,-26.595,42.603,168.0,0.0
52154,-0.044,-0.400,0.898,19.672,-151.626,-29.855,0.0,0.0
52198,0.615,0.006,0.642,-3.427,16.504,-13.321,158.0,0.0
52258,0.087,-0.202,0.960,-24.313,104.794,13.656,0.0,0.0
52305,-0.295,-0.317,1.177,0.405,2.290,-0.198,0.0,0.0
52352,0.041,-0.164,0.946,6.847,-41.252,-13.038,0.0,0.0
52398,0.157,-0.168,0.898,-5.275,3.115,-1.817,0.0,0.0
52447,-0.005,-0.249,1.010,-3.008,20.198,5.008,0.0,0.0
52491,-0.020,-0.204,1.001,3.374,2.305,-1.916,157.0,0.0
52548,0.042,-0.193,0.941,0.855,5.458,-2.023,156.0,0.0
52595,0.034,-0.220,0.959,1.908,17.969,-1.649,0.0,0.0
52641,0.012,-0.232,1.003,2.679,16.710,-1.168,0.0,0.0
52688,0.035,-0.165,0.978,4.260,20.931,-2.580,0.0,0.0
52734,-0.012,-0.196,0.978,-3.702,26.229,-1.397,0.0,0.0
52781,-0.054,-0.267,1.005,0.153,11.084,-8.397,0.0,0.0
52828,-0.075,-0.194,0.990,6.511,7.916,-10.634,0.0,0.0
52874,-0.016,-0.241,0.919,7.504,17.298,-7.046,0.0,0.0
52940,-0.086,-0.161,0.913,9.443,48.260,-10.435,0.0,0.0
52987,-0.523,0.016,1.042,-27.519,25.695,28.718,0.0,0.0
53033,-0.871,-0.309,1.274,-58.824,-161.878,58.061,0.0,0.0
53079,-0.273,-0.586,0.888,-11.817,-250.137,28.534,155.0,0.0
53139,1.225,-0.359,0.307,55.450,-250.137,-45.321,0.0,0.0
53183,1.315,-0.038,0.137,2.702,250.130,-77.634,157.0,0.0
53243,-0.146,-0.115,0.476,-20.313,250.130,-49.618,0.0,0.0
53291,-1.524,-0.166,1.440,-21.214,116.664,31.489,0.0,0.0
53357,-1.235,-0.265,1.300,-44.924,-250.137,43.870,0.0,0.0
53402,1.154,-0.689,-0.162,75.351,-250.137,-89.527,156.0,0.0
53459,1.915,0.169,-0.014,25.008,179.908,-68.008,155.0,0.0
53507,-0.510,0.057,0.439,-50.405,250.130,-18.802,0.0,0.0
53554,-1.682,-0.308,1.431,-40.420,158.542,67.992,0.0,0.0
53600,-1.567,-0.282,1.498,-46.053,-250.137,36.290,0.0,0.0
53647,0.134,-0.694,0.030,-6.985,-250.137,-39.084,0.0,0.0
53694,2.000,0.464,0.048,40.076,-61.000,-47.053,0.0,0.0
53740,0.578,0.067,0.322,-44.443,250.130,-29.397,0.0,0.0
53790,-1.120,-0.187,1.080,-43.931,250.130,49.336,0.0,0.0
53837,-1.700,-0.427,1.756,-24.443,-139.031,71.534,0.0,0.0
53881,-0.437,-0.520,0.745,-10.336,-250.137,3.458,155.0,0.0
53939,1.447,-0.064,0.028,59.290,-191.427,-95.977,154.0,0.0
53984,0.741,0.033,0.444,-26.328,250.130,-24.626,164.0,0.0
54045,-0.666,-0.122,1.060,-45.840,250.130,25.076,0.0,0.0
54091,-1.152,-0.441,1.449,-17.053,-152.168,53.573,0.0,0.0
54194,1.502,-0.167,0.177,63.443,-129.473,-72.847,173.0,0.0
54239,0.573,0.023,0.544,-30.015,250.130,-32.366,151.0,0.0
54299,-0.878,-0.310,1.203,-23.397,200.687,21.321,153.0,0.0
54344,-0.810,-0.344,1.331,-5.275,-240.908,32.931,157.0,0.0
54403,0.745,-0.347,0.413,23.061,-250.137,-20.855,172.0,0.0
54448,0.977,0.015,0.467,-0.702,151.634,-22.847,160.0,0.0
54506,-0.114,-0.117,1.040,-39.298,224.565,20.511,160.0,0.0
54551,-0.540,-0.492,1.255,12.817,-41.076,3.267,162.0,0.0
54609,0.187,-0.087,0.862,11.000,-95.519,-22.290,162.0,0.0
54654,0.338,-0.216,0.836,-5.351,23.359,16.618,166.0,0.0
54713,0.106,-0.249,1.003,-0.847,43.107,10.748,155.0,0.0
54761,0.049,-0.221,1.001,3.786,-5.496,-0.305,159.0,0.0
54818,0.141,-0.157,0.943,-1.977,-4.336,-3.634,154.0,0.0
54864,0.125,-0.242,0.964,-5.168,10.893,-1.366,175.0,0.0
54925,0.071,-0.208,0.994,-1.382,4.023,1.611,0.0,0.0
54972,0.128,-0.216,0.965,-0.290,-4.977,1.282,0.0,0.0
55019,0.131,-0.218,0.958,-1.832,3.817,0.321,0.0,0.0
55063,0.091,-0.223,0.975,-1.779,8.542,0.023,160.0,0.0
55124,0.039,-0.230,1.001,-1.504,0.985,1.031,0.0,0.0
55169,0.109,-0.216,1.011,-1.099,-9.489,2.366,165.0,0.0
55233,0.142,-0.220,0.947,1.947,-2.840,2.061,0.0,0.0
55278,0.104,-0.204,0.977,-0.252,8.420,0.840,169.0,0.0
55339,0.060,-0.224,0.992,1.145,-1.710,0.718,0.0,0.0
55385,0.119,-0.216,0.940,2.046,3.191,1.160,173.0,0.0
55445,0.107,-0.216,0.966,1.924,9.031,-0.069,0.0,0.0
55492,0.104,-0.240,0.959,3.321,3.328,-2.481,0.0,0.0
55539,0.130,-0.224,1.013,3.603,6.489,-2.160,0.0,0.0
55586,0.030,-0.228,1.074,13.053,9.481,-9.092,0.0,0.0
55632,-0.085,-0.146,1.081,14.969,-24.046,-1.603,0.0,0.0
55681,-0.250,-0.182,1.090,-0.237,-102.397,35.985,157.0,0.0
55739,-0.062,-0.260,0.999,-5.511,-196.420,61.832,151.0,0.0
55784,1.296,-0.437,0.359,49.237,-107.748,-25.511,170.0,0.0
55842,1.168,-0.002,0.323,25.260,191.130,-58.290,153.0,0.0
55890,-0.270,-0.002,0.800,-17.290,250.130,-22.008,0.0,0.0
55959,-1.073,-0.226,1.371,-26.000,4.275,13.588,0.0,0.0
56006,0.046,-0.366,0.796,-17.947,-247.443,-2.267,0.0,0.0
56052,1.194,-0.167,0.441,21.687,-64.718,-24.282,0.0,0.0
56096,0.595,-0.035,0.659,-10.863,195.107,-20.672,153.0,0.0
56157,-0.457,-0.113,1.168,-28.160,183.336,8.328,153.0,0.0
56204,-0.594,-0.343,1.300,-13.405,-106.603,6.061,0.0,0.0
56250,0.306,-0.222,0.830,5.542,-144.939,-11.580,0.0,0.0
56294,0.619,-0.174,0.698,9.664,8.878,-0.115,151.0,0.0
56351,0.146,-0.133,0.971,-8.366,93.275,12.595,154.0,0.0
56394,-0.165,-0.315,1.130,2.725,-3.771,6.405,148.0,0.0
56452,0.125,-0.145,0.910,6.046,-33.603,-10.405,149.0,0.0
56497,0.142,-0.228,0.892,-9.061,13.947,5.992,172.0,0.0
56554,0.018,-0.262,0.999,-4.908,7.916,8.679,151.0,0.0
56603,0.127,-0.181,0.957,-0.802,-10.748,-0.107,0.0,0.0
56650,0.153,-0.201,0.945,-5.237,6.191,-2.908,0.0,0.0
56696,0.060,-0.221,1.000,-5.069,10.580,-3.183,0.0,0.0
56797,0.072,-0.224,0.993,-0.305,-5.481,0.962,151.0,0.0
56841,0.131,-0.232,0.957,2.511,1.015,0.130,149.0,0.0
56897,0.072,-0.225,0.976,2.084,8.664,1.252,150.0,0.0
56941,0.073,-0.245,0.961,4.260,1.855,1.008,149.0,0.0
57000,0.025,-0.208,0.964,2.740,1.802,0.023,193.0,0.0
57048,-0.229,-0.188,1.099,-11.252,-56.237,30.473,0.0,0.0
57114,0.068,-0.381,1.087,-4.145,-156.305,40.992,0.0,0.0
57161,1.041,-0.277,0.693,51.443,-61.588,-40.603,0.0,0.0
57207,0.831,0.009,0.520,27.901,167.344,-79.290,0.0,0.0
57254,-0.193,0.040,0.755,-14.107,244.321,-30.466,0.0,0.0
57300,-0.972,-0.232,1.303,-36.466,44.832,29.366,0.0,0.0
57346,-0.404,-0.424,1.151,-17.595,-234.336,4.969,155.0,0.0
57406,1.176,-0.180,0.272,31.305,-121.305,-72.328,0.0,0.0
57450,0.070,0.112,0.697,-40.557,228.427,14.702,149.0,0.0
57507,-0.990,-0.360,1.534,-51.573,47.969,76.053,149.0,0.0
57556,0.330,-0.439,0.737,32.206,-221.947,-61.794,0.0,0.0
57604,0.981,0.132,0.451,0.252,27.580,-13.740,0.0,0.0
57650,0.037,-0.200,1.042,-38.397,141.374,31.328,0.0,0.0
57697,-0.325,-0.496,1.275,3.496,-13.695,9.023,0.0,0.0
57741,0.264,-0.111,0.920,12.153,-78.527,-16.885,147.0,0.0
57799,0.443,-0.141,0.773,-3.840,13.405,1.656,173.0,0.0
57846,0.034,-0.319,1.025,-0.153,34.122,4.832,0.0,0.0
57892,0.046,-0.206,1.010,3.183,-5.321,-1.786,0.0,0.0
57937,0.181,-0.200,0.911,-0.229,-5.244,1.611,171.0,0.0
58001,0.177,-0.228,0.933,-3.275,11.382,2.565,0.0,0.0
58048,0.089,-0.240,0.996,-2.626,6.298,1.450,0.0,0.0
58094,0.139,-0.260,0.966,-1.427,-7.084,3.405,0.0,0.0
58141,0.165,-0.214,0.949,1.008,1.679,0.916,0.0,0.0
58187,0.135,-0.260,0.972,-1.427,5.649,2.489,0.0,0.0
58234,0.120,-0.229,0.964,1.893,7.389,-1.000,0.0,0.0
58280,0.111,-0.248,0.977,1.092,1.298,1.863,0.0,0.0
58328,0.127,-0.232,0.957,4.542,8.580,0.710,0.0,0.0
58375,0.110,-0.206,0.961,4.656,18.405,1.824,0.0,0.0
58421,-0.030,-0.168,1.023,-3.214,1.344,12.336,0.0,0.0
58488,-0.163,-0.159,1.099,-16.153,-68.695,27.527,0.0,0.0
58535,0.318,-0.578,0.958,6.588,-219.824,21.656,0.0,0.0
58582,1.243,-0.177,0.599,43.672,-94.855,-46.031,0.0,0.0
58627,0.797,-0.083,0.487,7.641,168.580,-46.046,170.0,0.0
58685,-0.320,-0.086,0.875,-14.840,209.840,6.122,154.0,0.0
58729,-0.780,-0.350,1.371,-19.595,-126.641,54.595,153.0,0.0
58790,0.433,-0.555,0.718,21.237,-250.137,4.924,0.0,0.0
58836,1.513,0.110,0.251,32.740,84.985,-54.122,0.0,0.0
58884,0.349,0.012,0.461,-33.038,250.130,-31.779,0.0,0.0
58934,-0.979,-0.243,1.251,-41.763,181.481,28.840,0.0,0.0
58981,-0.907,-0.425,1.573,-23.962,-209.183,36.779,0.0,0.0
59028,0.784,-0.509,0.330,49.649,-250.137,-68.473,0.0,0.0
59075,1.444,0.084,0.227,13.916,81.580,-46.389,0.0,0.0
59120,0.069,0.059,0.500,-55.557,250.130,-2.275,174.0,0.0
59179,-1.268,-0.354,1.622,-72.626,100.313,73.427,153.0,0.0
59226,-0.315,-0.776,0.964,10.275,-250.137,-21.565,0.0,0.0
59329,0.896,0.154,0.259,-18.176,250.130,-37.908,0.0,0.0
59376,-1.118,-0.334,1.412,-73.603,188.252,59.863,0.0,0.0
59444,-0.946,-0.793,1.354,0.634,-250.137,9.786,0.0,0.0
59490,1.624,0.385,0.305,44.672,-88.542,-71.313,172.0,0.0
59550,0.476,0.012,0.470,-33.023,236.069,-4.366,0.0,0.0
59594,-1.070,-0.485,1.720,-56.397,26.191,72.878,147.0,0.0
59653,-0.363,-0.733,1.066,17.053,-250.137,-13.168,157.0,0.0
59700,1.230,0.114,0.331,27.855,-51.771,-30.710,0.0,0.0
59747,0.283,-0.052,0.658,-34.038,185.359,23.160,0.0,0.0
59791,-0.514,-0.450,1.382,-37.962,66.069,51.969,148.0,0.0
59852,-0.181,-0.497,1.161,19.901,-118.863,-5.374,0.0,0.0
59902,0.775,-0.131,0.639,21.198,-20.634,-11.382,0.0,0.0
59950,0.359,-0.200,0.842,-2.611,114.817,-0.275,0.0,0.0
59994,-0.122,-0.304,1.066,3.725,88.344,0.702,153.0,0.0
60055,-0.194,-0.221,1.085,5.679,-6.168,5.893,0.0,0.0
60102,0.171,-0.256,0.893,4.389,-55.107,4.603,0.0,0.0
60149,0.310,-0.249,0.864,3.794,-12.626,3.481,0.0,0.0
60196,0.202,-0.221,0.938,-2.412,19.710,1.893,0.0,0.0
60242,0.120,-0.249,0.986,-2.252,13.160,-3.969,0.0,0.0
60288,0.168,-0.244,0.963,-0.137,2.252,-8.473,152.0,0.0
60348,0.190,-0.233,0.932,-1.382,20.603,-7.405,144.0,0.0
60395,0.123,-0.259,0.960,1.527,34.069,-8.756,0.0,0.0
60442,0.127,-0.248,0.971,2.710,32.695,-14.779,0.0,0.0
60490,0.011,-0.199,0.953,5.061,44.344,-18.374,0.0,0.0
60537,-0.311,-0.127,1.027,-11.969,9.107,7.756,0.0,0.0
60584,-0.713,-0.253,1.239,-37.626,-150.863,55.802,0.0,0.0
60632,0.151,-0.780,0.829,-0.855,-250.137,38.969,0.0,0.0
60676,1.672,-0.066,0.343,70.244,-124.656,-53.786,153.0,0.0
60735,1.121,-0.002,0.292,5.763,232.870,-56.076,171.0,0.0
60783,-0.701,-0.135,1.109,-31.359,249.374,8.756,147.0,0.0
60840,-1.219,-0.389,1.578,-34.092,-101.779,38.695,144.0,0.0
60887,0.595,-0.685,0.467,29.550,-250.137,-33.214,172.0,0.0
60946,1.822,0.157,0.142,45.740,30.115,-62.794,170.0,0.0
60994,-0.099,0.052,0.623,-53.130,250.130,1.496,0.0,0.0
61041,-1.354,-0.397,1.648,-53.748,68.374,57.672,0.0,0.0
61088,-0.789,-0.604,1.158,-9.855,-250.137,19.229,0.0,0.0
61135,1.352,-0.201,0.070,60.733,-250.137,-59.427,0.0,0.0
61180,1.329,0.004,0.291,6.252,150.244,-18.374,152.0,0.0
61242,-0.140,-0.080,0.911,-41.588,250.130,19.450,153.0,0.0
61287,-0.876,-0.454,1.543,-8.969,-92.344,33.130,152.0,0.0
61345,0.314,-0.447,0.891,26.924,-243.595,-19.985,151.0,0.0
61390,1.535,0.017,0.213,51.198,124.107,-71.977,152.0,0.0
61451,0.038,0.278,0.447,-30.206,250.130,-3.206,0.0,0.0
61496,-1.426,-0.452,2.000,-67.886,-58.122,83.305,146.0,0.0
61557,-0.325,-1.015,0.672,34.962,-250.137,-46.832,0.0,0.0
61601,1.353,0.391,0.068,14.374,42.763,-21.534,152.0,0.0
61664,-0.289,-0.042,0.918,-83.595,212.122,78.046,160.0,0.0
61709,-0.168,-1.097,1.142,22.351,-138.137,11.237,152.0,0.0
61767,1.287,0.262,0.582,96.626,-29.176,-142.565,153.0,0.0
61815,-0.366,0.497,0.657,-68.496,250.130,29.466,0.0,0.0
61918,-0.417,-1.688,0.608,20.183,-250.137,13.931,170.0,0.0
61964,1.869,1.270,0.359,48.710,45.244,-88.901,171.0,0.0
62022,-0.261,0.399,0.733,-81.550,250.130,65.237,156.0,0.0
62070,-0.349,-1.086,1.132,-26.038,-77.115,76.763,0.0,0.0
62118,0.308,0.306,0.838,125.099,-27.206,-157.847,0.0,0.0
62169,-0.308,0.240,0.955,-56.542,51.580,36.519,0.0,0.0
62217,-0.215,-0.622,1.493,-63.794,-191.229,105.153,0.0,0.0
62262,0.889,-0.755,0.276,110.664,-31.015,-158.489,153.0,0.0
62321,0.421,0.616,0.393,-3.031,227.870,-48.122,167.0,0.0
62368,-1.110,-0.176,1.695,-107.725,38.626,121.092,0.0,0.0
62416,-0.163,-1.250,0.686,-29.573,-250.137,88.107,0.0,0.0
62470,0.938,0.515,0.578,106.664,83.221,-172.084,0.0,0.0
62516,-0.245,0.418,0.819,-52.206,230.519,-17.763,0.0,0.0
62563,-0.932,-0.180,1.935,-111.809,-108.321,97.992,0.0,0.0
62612,0.229,-1.667,0.205,12.840,-220.733,-67.313,0.0,0.0
62655,1.269,0.986,0.782,73.130,27.626,-143.344,145.0,0.0
62712,-0.337,0.172,1.046,-61.313,153.504,38.878,152.0,0.0
62757,-0.122,-0.771,1.247,-50.809,-219.214,127.137,165.0,0.0
62816,0.879,-0.808,0.213,136.664,-4.977,-176.076,175.0,0.0
62860,-0.293,0.484,0.773,-39.046,250.130,27.168,147.0,0.0
62917,-0.894,-0.369,2.000,-78.237,-65.969,109.198,149.0,0.0
62963,0.533,-0.931,0.201,101.847,-86.771,-162.237,0.0,0.0
63010,0.339,0.788,0.546,-26.733,139.924,-12.756,0.0,0.0
63059,-0.664,-0.440,1.885,-89.359,-52.053,104.840,0.0,0.0
63106,0.498,-1.736,0.075,63.206,-130.405,-44.473,0.0,0.0
63153,0.890,1.264,0.753,38.779,134.855,-90.809,0.0,0.0
63199,-0.874,0.052,1.295,-88.985,136.786,66.840,0.0,0.0
63243,-0.554,-0.834,1.315,-46.786,-250.137,107.863,150.0,0.0
63300,0.753,-0.379,0.224,126.221,-57.305,-203.840,150.0,0.0
63344,-0.137,0.228,0.889,-62.634,180.374,41.611,149.0,0.0
63405,-0.363,-0.416,1.700,-72.824,-78.382,115.092,0.0,0.0
63452,0.687,-0.220,0.348,127.397,105.649,-168.397,160.0,0.0
63512,-0.261,0.605,0.673,-36.260,250.130,35.160,0.0,0.0
63559,-1.016,-0.331,2.000,-79.893,-190.542,138.886,0.0,0.0
63605,0.426,-1.471,-0.088,133.855,-135.183,-151.366,0.0,0.0
63652,0.549,1.426,0.620,1.977,112.061,-15.374,0.0,0.0
63698,-0.595,-0.099,1.434,-105.695,47.031,86.656,0.0,0.0
63746,-0.023,-1.312,0.466,-2.450,-114.115,28.794,0.0,0.0
63792,0.481,0.862,0.959,81.435,57.298,-111.061,0.0,0.0
63836,-0.607,0.056,1.283,-68.977,50.656,47.824,149.0,0.0
63895,-0.159,-0.764,0.906,-34.977,-163.198,53.267,142.0,0.0
63939,0.721,0.742,1.037,66.282,-16.397,-68.733,141.0,0.0
64000,0.058,0.062,0.855,-22.718,88.947,25.847,0.0,0.0
64047,-0.432,-0.508,1.243,7.702,-59.351,25.824,0.0,0.0
64093,0.270,0.010,0.877,29.252,-90.664,-2.916,0.0,0.0
64140,0.406,-0.015,0.783,4.809,17.115,16.153,0.0,0.0
64186,0.012,-0.138,1.089,2.748,39.290,17.412,0.0,0.0
64233,0.040,-0.121,1.014,12.954,-9.779,0.298,0.0,0.0
64279,0.122,-0.023,0.977,2.168,-8.504,2.397,0.0,0.0
64329,0.109,-0.104,0.964,-0.931,6.137,3.031,0.0,0.0
64432,0.152,-0.090,0.966,3.458,-0.969,0.924,0.0,0.0
64476,0.099,-0.093,0.997,-0.496,4.969,0.733,148.0,0.0
64536,0.091,-0.083,0.992,-0.542,4.626,-1.290,0.0,0.0
64583,0.098,-0.103,0.972,-0.191,0.702,-1.985,0.0,0.0
64629,0.093,-0.106,0.991,-1.115,4.901,-2.267,0.0,0.0
64676,0.085,-0.086,1.006,0.450,4.824,-4.321,0.0,0.0
64722,0.158,-0.116,0.990,1.359,6.168,-5.527,0.0,0.0
64770,0.128,-0.034,0.991,1.137,26.046,-13.527,0.0,0.0
64817,-0.323,0.185,1.221,-20.473,-16.130,4.969,0.0,0.0
64864,-0.563,-0.228,1.220,-43.817,-220.092,30.321,156.0,0.0
64922,0.158,-0.262,0.772,-20.809,-250.137,5.664,170.0,0.0
64968,1.625,0.127,0.289,-27.160,-139.053,-47.748,171.0,0.0
65027,1.474,-0.462,0.189,-37.473,156.061,-68.794,171.0,0.0
65074,0.209,-0.144,0.325,-12.160,250.130,-58.458,0.0,0.0
65121,-0.945,-0.101,1.081,-22.588,250.130,3.115,0.0,0.0
65168,-1.439,-0.205,1.601,-17.244,-100.817,25.458,0.0,0.0
65215,-0.544,-0.413,0.732,2.321,-250.137,43.176,0.0,0.0
65259,1.433,-0.357,0.002,62.305,-250.137,10.748,159.0,0.0
65317,1.912,0.140,0.174,24.809,94.427,-6.947,0.0,0.0
65362,0.319,-0.049,0.601,-30.053,250.130,-37.603,164.0,0.0
65423,-0.769,-0.212,1.101,-8.221,250.130,-19.145,0.0,0.0
65467,-1.297,-0.102,1.451,-25.595,-153.634,16.740,145.0,0.0
65526,-0.487,-0.481,0.783,-10.206,-250.137,56.939,164.0,0.0
65571,1.767,-0.055,0.138,75.748,-180.527,-6.809,173.0,0.0
65630,1.386,0.190,0.255,8.336,232.183,-16.405,165.0,0.0
65678,-0.265,-0.057,0.883,-27.977,250.130,-6.145,0.0,0.0
65744,-1.095,-0.213,1.461,-13.176,51.420,18.901,0.0,0.0
65792,-0.141,-0.373,0.791,2.191,-250.137,6.481,0.0,0.0
65839,1.313,-0.080,0.328,43.794,-173.618,-20.389,0.0,0.0
65885,1.112,0.135,0.409,-9.557,172.420,-22.015,172.0,0.0
65945,0.007,-0.063,0.880,-40.748,250.130,-1.656,0.0,0.0
65992,-0.698,-0.348,1.351,3.046,21.275,-2.069,0.0,0.0
66039,-0.165,-0.130,1.038,5.710,-137.412,-11.298,0.0,0.0
66084,0.450,-0.132,0.740,6.634,-100.374,5.939,175.0,0.0
66143,0.485,-0.125,0.837,-2.267,8.321,15.855,155.0,0.0
66190,0.170,-0.147,1.014,-1.420,47.672,4.779,145.0,0.0
66251,0.058,-0.116,1.045,-1.817,18.206,-3.244,0.0,0.0
66295,0.138,-0.165,0.970,-4.901,-15.252,-0.137,156.0,0.0
66354,0.197,-0.143,0.958,-4.290,-13.008,2.794,157.0,0.0
66399,0.229,-0.160,0.951,-0.389,4.641,-0.542,161.0,0.0
66458,0.178,-0.171,0.991,-1.748,12.191,-1.771,166.0,0.0
66505,0.193,-0.161,0.964,3.023,19.000,-3.519,0.0,0.0
66552,0.170,-0.143,0.967,1.595,33.443,-2.366,0.0,0.0
66597,0.139,-0.134,0.988,3.832,43.565,-6.771,167.0,0.0
66661,0.130,-0.181,1.045,8.725,37.290,-15.275,0.0,0.0
66708,0.118,-0.093,0.924,22.962,83.725,-33.771,0.0,0.0
66756,-0.392,0.047,1.047,-4.496,65.450,-1.183,0.0,0.0
66803,-0.974,-0.086,1.196,-36.023,-111.947,56.160,0.0,0.0
66850,-0.709,-0.477,1.034,-33.679,-250.137,83.824,0.0,0.0
66895,1.135,-0.448,0.032,60.779,-250.137,-19.542,167.0,0.0
66998,0.959,0.008,0.252,-30.809,250.130,-53.809,174.0,0.0
67045,-0.631,-0.198,0.899,-13.122,250.130,-31.160,0.0,0.0
67093,-1.147,-0.008,1.382,-17.794,42.183,8.405,0.0,0.0
67142,-0.868,-0.230,1.146,-48.954,-250.137,53.183,176.0,0.0
67201,0.642,-0.668,0.296,17.130,-250.137,32.473,153.0,0.0
67245,2.000,0.221,0.141,26.527,85.870,-42.160,153.0,0.0
67304,0.795,0.027,0.265,-32.565,250.130,-53.901,173.0,0.0
67352,-0.911,-0.033,0.784,-24.023,250.130,2.313,0.0,0.0
67399,-1.940,-0.213,1.772,-28.237,18.718,52.557,0.0,0.0
67446,-1.307,-0.323,1.166,-39.878,-250.137,39.298,0.0,0.0
67493,0.591,-0.870,-0.204,46.092,-250.137,-82.947,0.0,0.0
67538,2.000,0.354,-0.130,34.809,34.969,-29.969,154.0,0.0
67601,0.477,0.078,0.166,-49.603,250.130,-27.412,174.0,0.0
67649,-1.225,-0.208,1.118,-41.588,250.130,61.519,0.0,0.0
67696,-1.890,-0.317,1.763,-20.733,-174.443,44.557,0.0,0.0
67744,-0.601,-0.417,0.555,-23.740,-250.137,8.710,0.0,0.0
67791,1.472,-0.289,-0.120,68.198,-248.336,-101.794,0.0,0.0
67836,1.531,0.166,0.250,0.015,211.702,-42.275,162.0,0.0
67898,0.142,-0.007,0.441,-50.084,250.130,-26.046,0.0,0.0
67945,-1.408,-0.382,1.323,-26.031,189.168,50.954,0.0,0.0
67993,-1.603,-0.189,1.649,-22.076,-250.137,36.023,0.0,0.0
68050,0.133,-0.671,0.125,4.115,-250.137,0.053,164.0,0.0
68112,2.000,0.621,0.300,67.824,-143.496,-30.244,154.0,0.0
68160,0.777,0.054,0.344,-38.412,250.130,-38.244,165.0,0.0
68224,-0.527,-0.141,0.883,-39.916,250.130,-23.374,0.0,0.0
68274,-1.807,-0.342,1.769,-7.397,-173.260,37.504,0.0,0.0
68340,-0.414,-0.379,0.427,-13.748,-250.137,25.473,0.0,0.0
68388,2.000,0.264,-0.073,28.435,-29.634,-12.115,166.0,0.0
68451,0.761,0.034,0.361,-40.191,250.130,-34.397,164.0,0.0
68501,-0.949,-0.174,1.245,-22.382,230.267,3.580,0.0,0.0
68568,-1.222,-0.185,1.533,-5.565,-219.855,37.275,0.0,0.0
68616,0.621,-0.517,0.330,23.908,-250.137,44.519,171.0,0.0
68678,2.000,0.160,0.049,44.611,-54.229,-28.908,169.0,0.0
68728,0.574,-0.005,0.335,-38.756,250.130,-53.176,0.0,0.0
68795,-0.876,-0.177,1.073,-22.351,250.130,-14.145,0.0,0.0
68844,-1.383,-0.130,1.549,-17.702,-250.137,47.519,165.0,0.0
68912,0.409,-0.685,0.205,6.740,-250.137,38.496,168.0,0.0
68959,2.000,0.281,-0.084,17.122,114.229,-49.626,170.0,0.0
69024,0.360,-0.012,0.374,-43.588,250.130,-47.626,0.0,0.0
69073,-1.210,-0.296,1.177,-6.695,199.282,15.244,0.0,0.0
69123,-1.297,-0.056,1.539,-35.008,-237.313,33.031,0.0,0.0
69169,-0.031,-0.557,0.374,-21.160,-250.137,38.504,163.0,0.0
69230,2.000,0.084,0.206,67.740,-183.634,-62.588,170.0,0.0
69276,0.879,0.166,0.388,-39.565,250.130,-45.763,153.0,0.0
69339,-0.514,-0.172,0.877,-45.046,250.130,-17.000,0.0,0.0
69388,-1.392,-0.282,1.620,-14.153,-133.153,38.664,0.0,0.0
69437,-0.300,-0.409,0.721,-8.519,-250.137,41.450,0.0,0.0
69487,1.860,-0.082,0.133,70.718,-191.962,-43.656,171.0,0.0
69547,1.297,0.221,0.322,-5.885,246.435,-41.351,151.0,0.0
69593,-0.511,-0.151,0.994,-27.863,250.130,-3.466,151.0,0.0
