Timestamp(ms),AccelX(g),AccelY(g),AccelZ(g),GyroX(deg/s),GyroY(deg/s),GyroZ(deg/s),DistanceLeft(cm),DistanceRight(cm)
135925,0.114,0.969,0.363,99.115,-16.756,10.260,157.0,62.0
135979,0.216,1.152,0.311,70.656,-23.763,11.603,157.0,79.0
136033,0.239,1.061,0.216,69.687,-19.679,23.786,158.0,79.0
136086,0.260,1.169,0.176,8.748,-8.290,30.023,157.0,80.0
136134,0.302,1.135,0.178,-16.863,-1.214,41.298,156.0,9.0
136183,0.304,1.028,0.253,-80.397,5.863,40.168,155.0,9.0
136232,0.328,0.894,0.331,-84.420,9.748,38.992,154.0,16.0
136283,0.381,0.744,0.468,-32.573,17.641,43.160,153.0,16.0
136334,0.378,0.844,0.379,-13.260,6.176,47.710,153.0,48.0
136386,0.359,0.659,0.351,-7.985,-7.244,30.344,152.0,49.0
136436,0.269,0.557,0.362,33.137,-16.076,5.550,152.0,16.0
136485,0.339,0.634,0.309,93.863,-11.198,-12.962,151.0,16.0
136539,0.351,0.922,0.195,96.092,-16.405,-9.237,152.0,13.0
136588,0.468,1.041,0.208,57.710,-9.954,1.389,152.0,11.0
136637,0.492,0.996,0.271,43.504,2.000,13.382,153.0,11.0
136687,0.484,0.971,0.235,38.802,10.366,22.359,153.0,11.0
136736,0.451,0.916,0.157,30.885,13.191,30.573,153.0,16.0
136786,0.447,0.914,0.121,23.481,22.565,30.924,153.0,12.0
136837,0.437,0.885,0.139,15.985,31.489,26.847,153.0,16.0
136886,0.477,0.843,0.206,16.489,26.710,21.771,153.0,17.0
136936,0.500,0.825,0.237,28.489,22.695,13.153,153.0,17.0
136989,0.514,0.857,0.206,31.420,18.588,9.588,153.0,17.0
137039,0.520,0.852,0.171,30.130,17.069,9.489,153.0,16.0
137089,0.500,0.859,0.140,32.534,14.519,13.527,154.0,16.0
137139,0.475,0.840,0.146,40.885,10.863,6.282,154.0,16.0
137189,0.493,0.855,0.098,42.931,17.008,0.542,154.0,16.0
137239,0.452,0.912,0.098,37.832,10.534,-6.939,154.0,17.0
137288,0.485,0.801,0.128,59.191,8.328,-8.725,154.0,11.0
137338,0.473,0.976,0.015,51.099,4.931,-14.099,155.0,10.0
137388,0.415,0.909,0.065,55.649,10.466,-22.527,155.0,9.0
137441,0.431,0.935,0.024,40.076,12.641,-26.496,155.0,8.0
137490,0.397,1.012,0.013,21.863,8.916,-29.069,155.0,8.0
137539,0.332,1.085,0.016,3.840,5.305,-11.084,155.0,6.0
137589,0.365,0.964,0.079,-20.779,-9.313,-5.427,156.0,7.0
137638,0.389,0.949,0.042,-11.023,-16.000,-13.290,155.0,8.0
137689,0.363,1.021,0.079,-25.656,-15.450,-16.901,155.0,6.0
137738,0.333,0.985,0.056,-17.122,-23.191,-4.473,155.0,7.0
137788,0.402,1.019,-0.033,-66.244,-26.756,1.313,155.0,7.0
137837,0.413,0.870,0.038,-71.672,-14.046,7.641,155.0,8.0
137895,0.453,0.855,0.138,-102.145,7.389,14.046,155.0,9.0
137944,0.343,0.669,0.315,-26.977,22.870,12.244,155.0,10.0
137993,0.401,0.843,0.362,-9.176,15.481,6.901,155.0,9.0
138041,0.422,0.757,0.381,22.748,9.473,3.817,156.0,9.0
138090,0.384,0.914,0.368,45.786,13.786,4.725,156.0,9.0
138138,0.358,0.913,0.354,30.214,3.527,5.817,156.0,9.0
138187,0.337,1.021,0.353,11.863,0.031,-2.481,156.0,10.0
138236,0.338,1.077,0.356,-71.183,-11.672,-5.626,157.0,9.0
138285,0.356,0.641,0.504,-35.893,-14.275,-14.267,157.0,10.0
138337,0.386,0.993,0.323,33.580,-3.908,-12.191,157.0,9.0
138386,0.331,1.100,0.309,-79.985,-16.389,-14.420,157.0,10.0
138479,0.448,0.671,0.468,-62.450,3.214,-10.443,168.0,16.0
138529,0.418,0.740,0.522,7.359,26.397,5.176,168.0,16.0
138580,0.326,0.926,0.527,11.038,33.939,5.237,169.0,47.0
138633,0.297,0.796,0.642,-49.763,4.031,7.145,0.0,16.0
138689,0.418,0.797,0.658,-59.725,-6.115,14.466,0.0,46.0
138743,0.429,0.595,0.683,-23.496,10.824,31.206,0.0,47.0
138797,0.389,0.701,0.592,-14.656,34.885,40.038,0.0,50.0
138842,0.368,0.559,0.726,-78.382,38.206,27.420,16.0,29.0
138885,0.342,0.460,0.812,-53.313,27.328,26.427,21.0,30.0
138927,0.346,0.380,0.893,-31.954,19.122,27.916,18.0,29.0
138969,0.354,0.428,0.815,6.000,16.107,30.840,16.0,30.0
139011,0.356,0.573,0.768,-28.458,20.076,19.435,13.0,30.0
139053,0.295,0.351,0.838,-34.542,26.374,12.511,16.0,30.0
139095,0.299,0.438,0.860,-21.206,24.252,8.481,16.0,26.0
139137,0.225,0.237,0.938,-1.519,14.412,6.687,21.0,30.0
139179,0.327,0.569,0.777,0.832,13.176,-2.198,20.0,25.0
139224,0.173,0.077,1.036,15.542,1.305,-19.878,16.0,26.0
139266,0.232,0.388,0.853,50.427,0.336,-29.710,16.0,30.0
139309,0.204,0.303,0.937,31.450,0.496,-44.321,28.0,30.0
139351,0.240,0.194,0.828,97.870,-0.473,-60.756,16.0,29.0
139395,0.203,0.388,0.837,194.779,8.435,-63.969,19.0,50.0
139438,0.194,0.692,0.698,197.221,3.824,-58.023,21.0,50.0
139482,0.163,1.014,0.461,169.786,-7.336,-15.427,22.0,47.0
139524,0.277,0.936,0.553,96.603,-11.931,-14.595,28.0,10.0
139568,0.230,0.816,0.489,117.260,-6.985,-0.794,30.0,10.0
139611,0.254,1.064,0.411,103.527,-11.221,18.489,36.0,6.0
139659,0.231,1.069,0.364,47.519,-19.038,8.008,157.0,5.0
139708,0.236,0.932,0.432,16.809,-18.038,13.824,157.0,5.0
139757,0.271,0.933,0.451,43.618,-19.466,25.969,157.0,6.0
139805,0.312,1.009,0.288,40.466,-23.275,30.840,156.0,6.0
139854,0.318,0.869,0.294,11.260,-20.435,21.206,155.0,7.0
139904,0.355,0.932,0.256,27.870,-10.389,15.282,155.0,10.0
139953,0.391,1.265,0.035,-68.725,2.588,13.206,155.0,9.0
139998,0.429,0.922,0.293,-172.992,36.168,14.511,30.0,12.0
140050,0.351,0.708,0.487,-148.290,57.221,39.321,0.0,16.0
140107,0.302,0.594,0.715,-120.641,50.458,44.168,0.0,36.0
140150,0.244,0.526,0.828,-95.389,27.153,39.672,24.0,34.0
140193,0.271,0.513,0.891,-90.573,9.725,24.763,17.0,51.0
140236,0.290,0.380,0.918,-53.450,-1.321,14.053,17.0,38.0
140279,0.204,0.478,0.868,-43.771,-6.992,6.214,24.0,31.0
140322,0.373,0.311,0.818,-11.802,-8.084,1.481,16.0,37.0
140365,0.449,0.411,0.638,6.496,25.725,4.656,25.0,32.0
140410,0.364,0.403,0.688,3.771,47.573,4.405,22.0,36.0
140454,0.308,0.355,0.857,-5.130,37.710,0.641,21.0,41.0
140496,0.273,0.380,0.927,13.046,13.863,2.244,16.0,33.0
140539,0.330,0.381,0.908,15.985,1.863,5.611,18.0,38.0
140582,0.296,0.465,0.814,-1.985,7.748,8.618,17.0,33.0
140624,0.297,0.252,0.954,-18.901,12.855,5.481,19.0,34.0
140667,0.287,0.290,0.937,25.389,18.176,9.397,17.0,34.0
140710,0.238,0.432,0.928,22.756,10.214,8.153,17.0,36.0
140795,0.200,0.193,1.003,-14.298,-2.069,-7.557,15.0,36.0
140841,0.213,0.316,0.896,31.221,-4.221,-15.344,16.0,39.0
140884,0.185,0.361,0.923,26.718,0.237,-32.145,17.0,37.0
140928,0.175,0.304,0.938,52.992,-1.374,-32.527,16.0,35.0
140971,0.259,0.491,0.786,48.443,0.603,-32.359,16.0,37.0
141014,0.343,0.250,0.907,88.802,-0.679,-36.168,17.0,37.0
141057,0.292,0.377,0.719,171.198,-4.061,-33.519,17.0,36.0
141100,0.277,0.767,0.696,117.282,-6.489,-48.504,28.0,40.0
141145,0.173,0.663,0.777,151.550,-12.092,-28.389,26.0,47.0
141189,0.247,1.053,0.603,96.122,-17.511,-12.046,28.0,45.0
141236,0.201,0.793,0.723,68.725,-16.702,-5.992,30.0,47.0
141280,0.245,0.781,0.698,114.328,-19.824,18.122,30.0,46.0
141331,0.291,1.088,0.432,93.733,-23.122,27.122,157.0,46.0
141383,0.286,1.091,0.400,-16.412,-23.992,26.046,157.0,46.0
141435,0.287,0.759,0.499,-40.145,-19.008,29.466,166.0,46.0
141488,0.327,0.933,0.460,5.282,-5.847,29.641,165.0,45.0
141540,0.293,1.001,0.357,-85.427,9.901,9.992,165.0,47.0
141584,0.249,0.539,0.526,-125.489,35.580,-5.397,28.0,50.0
141637,0.295,0.399,0.676,-22.954,45.824,-0.550,192.0,36.0
141685,0.247,0.623,0.640,16.267,23.038,-13.916,28.0,49.0
141729,0.238,0.676,0.711,10.061,2.160,-21.015,30.0,48.0
141773,0.264,0.642,0.715,35.221,-8.962,-12.977,25.0,50.0
141818,0.269,0.781,0.631,47.718,-0.443,-4.282,30.0,49.0
141862,0.292,0.871,0.609,20.023,6.779,-5.000,27.0,50.0
141906,0.276,0.735,0.665,0.977,6.229,-0.198,26.0,50.0
141950,0.314,0.751,0.699,-11.290,4.901,-1.924,25.0,51.0
141996,0.220,0.660,0.738,-9.489,0.985,0.725,25.0,50.0
142040,0.317,0.682,0.700,11.718,1.802,2.435,26.0,50.0
142087,0.219,0.710,0.663,5.611,4.771,4.718,26.0,50.0
142131,0.252,0.650,0.683,19.122,-5.557,3.618,24.0,50.0
142175,0.308,0.648,0.641,29.473,-1.908,-1.412,23.0,50.0
142220,0.256,0.724,0.626,24.595,9.824,-0.786,30.0,49.0
142264,0.255,0.642,0.693,30.931,11.008,-1.893,28.0,47.0
142318,0.276,0.761,0.625,65.473,15.069,5.748,0.0,47.0
142362,0.173,0.804,0.632,27.504,16.282,6.290,28.0,45.0
142407,0.224,0.786,0.618,51.611,14.595,9.137,27.0,46.0
142451,0.130,0.869,0.593,41.618,9.000,8.282,30.0,45.0
142498,0.190,0.953,0.573,-8.481,2.115,4.733,29.0,46.0
142542,0.242,0.717,0.645,-7.252,9.397,4.198,27.0,46.0
142587,0.126,0.797,0.633,18.328,4.023,10.237,28.0,46.0
142631,0.229,0.802,0.641,17.588,-5.817,5.809,27.0,47.0
142675,0.236,0.865,0.602,-7.176,-7.000,2.107,30.0,47.0
142721,0.240,0.719,0.644,-10.527,-9.221,0.878,27.0,47.0
142774,0.287,0.730,0.586,12.641,-4.008,-2.634,193.0,49.0
142819,0.274,0.713,0.550,11.916,4.939,-5.176,29.0,48.0
142863,0.317,0.690,0.567,27.557,9.473,-3.328,29.0,48.0
142911,0.271,0.745,0.548,37.427,11.443,-5.733,28.0,50.0
142956,0.220,0.818,0.538,41.893,13.931,1.672,30.0,50.0
143001,0.211,0.807,0.520,38.183,12.481,-1.061,29.0,57.0
143046,0.184,0.728,0.553,62.137,9.008,-1.389,28.0,57.0
143135,0.204,0.894,0.589,74.099,0.382,1.260,31.0,81.0
143190,0.144,0.995,0.569,23.687,-13.664,-3.420,159.0,80.0
143237,0.271,0.888,0.522,36.954,-20.427,4.557,35.0,80.0
143284,0.297,1.087,0.322,3.198,-5.450,9.290,38.0,80.0
143337,0.365,0.856,0.389,-34.840,16.015,9.260,158.0,81.0
143395,0.190,0.674,0.495,3.611,28.176,3.672,159.0,82.0
143441,0.148,1.005,0.480,10.695,5.053,10.069,30.0,81.0
143489,0.182,0.946,0.482,-39.977,-8.427,16.321,29.0,82.0
143535,0.232,0.752,0.577,-20.695,-2.107,13.160,30.0,82.0
143582,0.208,0.903,0.506,-14.832,3.656,18.931,28.0,83.0
143629,0.275,0.716,0.580,-28.626,1.855,5.641,29.0,85.0
143685,0.280,0.682,0.554,10.466,-1.290,2.656,0.0,95.0
143741,0.363,0.677,0.506,35.145,-0.916,-4.198,180.0,92.0
143797,0.273,0.813,0.573,28.977,7.374,-4.229,174.0,86.0
143847,0.204,0.763,0.688,44.977,4.038,-4.664,25.0,84.0
143902,0.125,0.897,0.619,60.588,-1.573,-2.916,173.0,84.0
143961,0.204,0.934,0.463,85.611,-17.695,2.985,159.0,82.0
144014,0.306,1.198,0.241,-17.198,-11.137,-5.008,158.0,81.0
144060,0.285,0.720,0.416,-40.481,8.664,-2.618,30.0,82.0
144113,0.316,0.879,0.385,-0.046,10.611,14.130,165.0,83.0
144167,0.283,0.819,0.455,-27.237,11.916,8.351,163.0,84.0
144212,0.293,0.695,0.606,-6.901,7.260,5.084,29.0,83.0
144269,0.248,0.761,0.564,0.656,10.695,0.740,0.0,85.0
144318,0.267,0.752,0.597,37.366,-1.626,-2.252,30.0,90.0
144373,0.291,0.708,0.549,48.458,-3.763,-9.374,0.0,86.0
144428,0.250,0.920,0.521,39.244,-7.695,-9.893,175.0,81.0
144473,0.264,0.908,0.512,55.206,-8.557,2.092,30.0,79.0
144519,0.272,0.970,0.466,21.603,-1.954,3.252,30.0,79.0
144564,0.263,0.863,0.448,27.473,5.664,2.718,25.0,79.0
144610,0.206,0.954,0.454,20.840,15.000,5.534,30.0,79.0
144655,0.183,0.895,0.473,17.519,13.847,5.000,34.0,79.0
144701,0.161,0.776,0.466,44.061,6.557,3.748,30.0,79.0
144749,0.159,0.947,0.344,71.198,2.710,15.031,29.0,78.0
144795,0.273,1.077,0.241,11.015,10.496,4.107,30.0,78.0
144840,0.214,0.890,0.359,-15.450,12.000,-2.321,30.0,79.0
144886,0.264,0.895,0.367,-28.702,0.260,-4.221,37.0,79.0
144932,0.294,0.800,0.411,-1.885,0.656,3.969,37.0,79.0
144978,0.320,0.782,0.446,9.779,4.061,-5.427,34.0,79.0
145025,0.243,0.914,0.408,21.786,10.252,-4.061,36.0,79.0
145070,0.220,0.880,0.452,8.748,8.511,-6.229,31.0,78.0
145116,0.200,0.858,0.416,31.168,2.679,0.824,32.0,78.0
145162,0.213,0.877,0.427,30.504,1.679,0.076,33.0,78.0
145210,0.185,0.904,0.398,32.779,-0.878,-1.229,30.0,77.0
145256,0.210,0.940,0.407,40.443,-1.405,0.573,31.0,77.0
145302,0.219,0.972,0.374,32.176,-2.076,4.046,36.0,77.0
145347,0.212,1.043,0.386,22.718,-5.542,12.832,36.0,77.0
145393,0.240,0.925,0.378,21.107,-10.023,13.282,36.0,77.0
145440,0.257,0.965,0.376,18.244,-11.679,14.733,38.0,78.0
145486,0.313,0.948,0.385,12.863,-15.275,19.565,37.0,79.0
145532,0.317,0.933,0.333,5.901,-12.840,23.412,38.0,79.0
145629,0.374,0.883,0.343,-1.145,-10.550,20.481,158.0,81.0
145685,0.377,0.785,0.359,-0.992,-8.565,9.458,157.0,82.0
145738,0.367,0.864,0.325,28.023,-10.672,11.878,157.0,82.0
145790,0.397,0.888,0.329,26.061,-14.099,17.832,157.0,58.0
145843,0.424,0.914,0.311,21.679,-15.366,22.611,157.0,57.0
145892,0.464,0.859,0.314,30.145,-9.649,32.244,156.0,16.0
145944,0.490,0.950,0.264,14.374,-2.855,29.565,156.0,48.0
145995,0.478,0.873,0.253,17.939,0.779,33.053,155.0,48.0
146046,0.463,0.897,0.207,15.947,2.122,33.450,154.0,47.0
146101,0.458,0.730,0.256,27.069,3.023,22.870,154.0,50.0
146152,0.459,0.845,0.220,37.588,6.153,19.305,154.0,50.0
146203,0.539,0.832,0.265,33.366,6.458,16.962,179.0,16.0
146254,0.532,0.938,0.219,28.298,-3.305,32.176,153.0,53.0
146304,0.583,0.844,0.223,3.290,-7.511,40.023,153.0,16.0
146355,0.611,0.839,0.183,3.405,-5.870,44.275,168.0,19.0
146406,0.601,0.806,0.212,-14.771,-1.786,42.382,168.0,37.0
146459,0.595,0.730,0.237,-11.321,-0.115,37.641,0.0,30.0
146515,0.607,0.701,0.208,-12.992,4.160,28.237,0.0,30.0
146571,0.623,0.686,0.270,-1.298,3.099,13.870,0.0,23.0
146627,0.681,0.656,0.289,-3.000,-0.595,2.153,0.0,21.0
146678,0.726,0.737,0.268,11.947,2.740,3.809,171.0,21.0
146728,0.696,0.760,0.254,6.122,3.870,7.374,171.0,21.0
146781,0.677,0.698,0.247,3.076,2.763,13.725,0.0,22.0
146837,0.645,0.599,0.269,0.466,3.557,7.687,0.0,22.0
146889,0.648,0.636,0.215,15.733,10.115,-3.466,0.0,22.0
146946,0.583,0.584,0.256,17.771,8.672,-13.412,0.0,22.0
146997,0.596,0.552,0.233,39.878,6.511,-31.611,169.0,21.0
147051,0.552,0.611,0.202,45.183,6.947,-46.649,0.0,56.0
147107,0.625,0.730,0.224,76.031,18.328,-71.886,0.0,37.0
147161,0.580,0.785,0.221,66.580,13.824,-70.901,178.0,57.0
147211,0.521,1.028,0.201,52.305,12.450,-59.733,154.0,11.0
147260,0.545,0.944,0.247,47.687,8.008,-43.298,155.0,10.0
147309,0.455,1.074,0.155,30.412,4.855,-22.794,156.0,7.0
147358,0.482,0.987,0.166,31.214,4.137,-6.496,156.0,7.0
147407,0.446,1.014,0.124,20.344,6.053,6.817,157.0,6.0
147457,0.443,0.970,0.142,20.595,6.901,15.992,156.0,7.0
147506,0.447,0.970,0.093,19.802,9.863,23.427,156.0,8.0
147553,0.424,0.950,0.096,12.015,10.351,26.168,156.0,8.0
147602,0.439,0.862,0.104,14.084,8.260,21.878,156.0,8.0
147651,0.464,0.894,0.093,14.298,9.885,12.817,156.0,9.0
147700,0.460,0.825,0.109,19.641,9.893,2.176,155.0,9.0
147749,0.463,0.893,0.075,23.534,9.954,-0.244,156.0,9.0
147799,0.466,0.907,0.071,17.366,7.954,2.382,156.0,10.0
147848,0.475,0.892,0.083,18.542,3.573,6.076,156.0,10.0
147897,0.479,0.923,0.069,22.366,6.336,10.206,156.0,10.0
147947,0.500,0.892,0.076,18.214,11.511,12.359,156.0,9.0
147999,0.500,0.919,0.080,24.198,10.870,14.115,156.0,9.0
148048,0.516,0.873,0.081,16.679,14.130,16.397,155.0,10.0
148098,0.547,0.861,0.083,26.260,13.489,13.901,155.0,11.0
148148,0.533,0.856,0.054,24.122,16.359,12.160,155.0,10.0
148251,0.509,0.795,0.017,49.351,16.450,-0.466,155.0,0.0
148301,0.444,0.892,0.005,41.855,16.511,-8.435,155.0,19.0
148350,0.460,0.896,0.000,41.977,13.504,-3.168,155.0,9.0
148400,0.477,0.986,0.027,31.649,5.069,-12.557,156.0,9.0
148449,0.468,0.982,0.024,26.962,-0.992,-8.275,156.0,10.0
148502,0.402,0.962,0.049,-3.443,-4.466,-7.580,155.0,8.0
148551,0.449,0.928,0.006,-10.183,-11.519,-10.924,156.0,8.0
148600,0.414,0.927,-0.003,-6.969,-17.573,-10.634,156.0,7.0
148651,0.363,0.949,-0.006,-23.817,-30.985,-6.489,156.0,7.0
148700,0.464,0.894,-0.031,-41.580,-37.924,-6.198,156.0,10.0
148749,0.474,1.021,-0.132,-57.763,-19.710,7.870,156.0,8.0
148799,0.501,0.805,0.034,-71.824,-0.855,13.794,156.0,10.0
148848,0.492,0.877,0.126,-55.710,10.634,13.496,156.0,10.0
148901,0.448,0.764,0.265,-70.771,16.634,1.023,156.0,11.0
148952,0.457,0.797,0.316,-46.855,8.252,-1.443,156.0,17.0
149002,0.446,0.635,0.384,-9.878,3.504,-10.588,156.0,16.0
149051,0.551,0.809,0.348,43.336,12.573,-9.481,157.0,9.0
149101,0.455,0.875,0.293,37.305,14.359,-5.359,157.0,8.0
149161,0.494,0.848,0.382,49.160,12.221,4.794,157.0,0.0
149211,0.454,0.896,0.366,33.122,-1.924,14.740,157.0,7.0
149261,0.422,0.930,0.292,37.168,-12.008,27.504,157.0,9.0
149310,0.491,0.858,0.243,9.985,-12.458,22.771,157.0,9.0
149374,0.463,0.909,0.239,2.160,-4.542,12.366,157.0,0.0
149427,0.480,0.814,0.297,-20.710,-4.405,-4.771,158.0,54.0
149476,0.490,0.838,0.259,2.328,-4.626,-15.649,158.0,7.0
149526,0.453,1.021,0.180,-15.450,1.664,-11.641,158.0,8.0
149576,0.444,0.972,0.257,-43.802,4.588,-6.840,158.0,10.0
149625,0.428,0.842,0.334,-54.863,-1.229,-9.008,158.0,9.0
149677,0.455,0.764,0.407,-18.962,-2.435,-7.748,165.0,16.0
149729,0.454,0.802,0.390,12.885,2.351,-3.214,167.0,45.0
149781,0.462,0.858,0.354,17.863,5.695,2.382,169.0,45.0
149836,0.449,0.858,0.332,-6.756,10.397,1.458,166.0,45.0
149890,0.490,0.763,0.405,-8.802,20.832,2.847,164.0,45.0
149944,0.407,0.792,0.401,-18.038,24.351,4.374,0.0,47.0
149996,0.416,0.763,0.519,-19.656,6.672,2.092,158.0,47.0
150049,0.437,0.753,0.540,-10.328,-3.656,7.504,172.0,48.0
150103,0.455,0.705,0.541,16.153,1.954,12.542,172.0,48.0
150156,0.450,0.734,0.499,5.466,8.160,0.122,173.0,48.0
150209,0.410,0.708,0.490,3.939,7.473,-12.458,190.0,49.0
150262,0.418,0.649,0.534,31.748,5.305,-22.947,171.0,48.0
150319,0.406,0.706,0.453,65.145,5.290,-24.557,168.0,49.0
150372,0.355,0.904,0.407,74.038,0.977,-26.817,159.0,57.0
150424,0.369,0.952,0.367,43.313,-1.267,-20.420,159.0,58.0
150484,0.410,0.950,0.409,12.305,5.824,-8.160,159.0,80.0
150537,0.406,0.850,0.412,19.344,11.656,-6.763,159.0,80.0
150583,0.340,0.902,0.361,13.725,11.038,-3.206,30.0,80.0
150636,0.325,0.840,0.386,10.618,9.084,-8.351,159.0,80.0
150689,0.247,0.901,0.368,11.710,2.405,-6.313,159.0,80.0
150735,0.317,0.863,0.365,27.733,0.679,-7.641,37.0,79.0
150791,0.299,0.985,0.325,17.420,6.969,-2.992,159.0,79.0
150887,0.281,0.891,0.375,25.878,3.733,-7.588,159.0,79.0
150933,0.293,0.930,0.349,12.702,-3.130,-6.756,31.0,79.0
150985,0.292,0.902,0.361,7.702,-1.313,-6.504,159.0,78.0
151038,0.294,0.935,0.358,9.542,0.779,-2.435,160.0,78.0
151092,0.241,0.906,0.395,4.557,-1.252,-4.840,160.0,78.0
151138,0.249,0.883,0.407,15.115,-1.221,2.794,30.0,78.0
151183,0.264,0.953,0.371,10.328,-0.870,0.168,30.0,78.0
151229,0.219,0.930,0.375,5.832,1.611,-2.008,30.0,78.0
151284,0.208,0.940,0.390,10.664,6.206,2.458,160.0,78.0
151330,0.202,0.865,0.402,23.084,6.824,4.992,30.0,78.0
151376,0.239,0.872,0.374,46.298,0.809,7.336,38.0,78.0
151422,0.259,0.938,0.338,49.519,-0.695,2.061,37.0,77.0
151468,0.299,0.909,0.305,41.641,0.985,-4.237,36.0,77.0
151514,0.278,0.970,0.263,41.053,0.649,-8.130,37.0,76.0
151560,0.242,0.955,0.283,40.435,-0.656,-10.786,36.0,76.0
151613,0.265,1.078,0.163,48.443,-0.176,4.115,160.0,76.0
151666,0.253,1.020,0.254,-16.824,2.473,-4.870,160.0,76.0
151721,0.273,0.861,0.289,44.969,9.977,4.702,160.0,76.0
151775,0.232,1.008,0.195,20.046,14.061,-5.603,160.0,76.0
151828,0.217,1.010,0.213,-12.710,3.603,-10.893,160.0,76.0
151881,0.261,1.052,0.209,-13.702,3.817,-2.588,160.0,77.0
151934,0.258,0.914,0.279,-43.214,6.763,-1.550,160.0,78.0
151981,0.232,0.902,0.327,-10.550,6.580,-1.679,29.0,78.0
152027,0.204,0.850,0.366,-1.695,5.733,0.313,36.0,78.0
152073,0.197,0.919,0.356,11.550,1.779,-6.496,35.0,78.0
152119,0.179,0.935,0.348,9.779,0.000,-2.824,33.0,78.0
152167,0.204,0.977,0.336,16.084,1.718,6.122,30.0,77.0
152213,0.215,0.935,0.366,0.618,2.015,-0.023,31.0,77.0
152265,0.208,0.928,0.383,1.985,-0.092,4.397,160.0,77.0
152312,0.188,0.970,0.350,-4.802,-1.168,5.382,37.0,77.0
152357,0.204,0.949,0.415,-36.588,-2.237,5.366,30.0,78.0
152403,0.219,0.890,0.404,-12.969,1.924,8.634,30.0,79.0
152450,0.210,0.848,0.441,-14.817,9.580,2.847,28.0,79.0
152495,0.195,0.854,0.462,12.603,7.351,6.015,30.0,79.0
152541,0.186,0.891,0.438,8.679,7.458,5.603,30.0,79.0
152590,0.170,0.798,0.448,44.153,6.145,5.664,28.0,79.0
152635,0.179,0.999,0.394,33.382,7.565,-0.031,32.0,79.0
152681,0.147,0.903,0.424,10.382,6.122,5.137,32.0,79.0
152727,0.237,0.908,0.417,17.015,2.115,3.198,37.0,78.0
152773,0.245,0.814,0.450,13.702,4.389,-3.901,34.0,78.0
152826,0.232,0.901,0.425,36.038,5.076,2.534,160.0,78.0
152872,0.211,0.899,0.403,22.664,2.550,-4.427,31.0,78.0
152926,0.192,0.917,0.382,32.992,-1.244,-1.710,160.0,77.0
152979,0.187,0.984,0.358,26.847,-0.985,2.740,160.0,77.0
153036,0.207,0.915,0.361,41.847,-0.252,9.328,160.0,77.0
153082,0.239,1.025,0.308,23.656,-1.504,10.374,37.0,77.0
153128,0.232,0.978,0.350,7.802,-2.198,12.550,38.0,78.0
153175,0.257,0.914,0.392,9.359,-3.985,14.206,37.0,78.0
153222,0.278,0.885,0.424,20.053,-8.771,14.878,38.0,78.0
153268,0.294,1.037,0.389,15.145,-12.656,22.893,37.0,78.0
153364,0.361,0.991,0.375,-18.046,-16.160,44.885,159.0,80.0
153416,0.426,0.889,0.419,-12.397,-13.832,57.786,158.0,51.0
153467,0.440,0.897,0.353,-15.527,-10.092,58.634,157.0,48.0
153523,0.465,0.735,0.352,-2.198,-8.878,57.443,156.0,47.0
153574,0.458,0.788,0.281,-11.115,-6.809,44.908,161.0,48.0
153626,0.454,0.589,0.358,2.336,-5.275,28.977,166.0,50.0
153678,0.436,0.710,0.267,28.603,-4.626,17.000,161.0,48.0
153730,0.454,0.668,0.300,40.237,-2.565,-6.679,155.0,48.0
153782,0.454,0.793,0.270,60.954,5.786,-16.336,155.0,50.0
153833,0.547,0.882,0.352,30.542,8.908,-22.786,155.0,47.0
153885,0.603,1.005,0.414,29.252,8.015,-2.916,155.0,46.0
153936,0.700,0.961,0.474,14.084,-1.771,20.916,155.0,47.0
153992,0.650,0.918,0.358,-2.015,-1.473,46.214,154.0,51.0
154042,0.625,0.794,0.323,-15.450,-1.611,54.069,158.0,32.0
154095,0.565,0.706,0.298,-15.321,0.573,50.809,174.0,56.0
154146,0.527,0.629,0.283,-9.412,0.366,40.725,172.0,30.0
154200,0.493,0.575,0.262,7.282,1.092,20.160,0.0,30.0
154257,0.486,0.517,0.256,24.687,7.969,-6.176,0.0,30.0
154309,0.488,0.555,0.262,38.206,14.282,-40.313,186.0,29.0
154361,0.538,0.627,0.338,56.206,18.618,-63.618,191.0,23.0
154414,0.515,0.883,0.342,57.298,11.046,-59.969,0.0,16.0
154467,0.531,1.026,0.317,36.267,8.000,-43.557,155.0,16.0
154518,0.544,0.924,0.356,20.061,-0.603,-25.031,155.0,47.0
154568,0.530,0.906,0.279,33.382,-2.824,-12.145,155.0,9.0
154617,0.490,0.925,0.255,13.160,-0.573,-9.786,156.0,16.0
154668,0.474,0.885,0.275,7.992,-2.992,-3.901,156.0,9.0
154717,0.464,0.902,0.257,6.527,-3.901,1.176,156.0,9.0
154766,0.470,0.816,0.274,11.573,-3.427,1.954,156.0,8.0
154815,0.449,0.888,0.237,21.405,-5.031,3.031,156.0,9.0
154864,0.467,0.880,0.223,12.290,-4.122,2.626,157.0,8.0
154917,0.457,0.861,0.222,15.168,-0.695,1.649,157.0,7.0
154967,0.465,0.905,0.228,15.893,0.412,4.008,157.0,9.0
155017,0.470,0.882,0.232,10.298,1.565,2.710,157.0,16.0
155066,0.470,0.870,0.225,19.473,3.397,3.412,158.0,7.0
155115,0.479,0.896,0.229,12.962,3.160,2.267,157.0,9.0
155164,0.461,0.872,0.228,10.336,0.656,3.618,157.0,6.0
155214,0.460,0.870,0.231,17.504,-1.893,7.092,157.0,6.0
155264,0.465,0.906,0.214,15.496,-1.252,7.573,158.0,6.0
155313,0.464,0.870,0.224,15.198,-0.168,5.557,158.0,6.0
155366,0.479,0.900,0.209,17.435,3.267,4.588,158.0,6.0
155415,0.470,0.884,0.217,9.626,5.099,6.412,158.0,6.0
155464,0.488,0.856,0.228,16.038,0.916,7.229,158.0,9.0
155513,0.497,0.871,0.205,22.939,1.641,9.802,158.0,9.0
155564,0.508,0.874,0.181,16.198,4.756,7.374,158.0,9.0
155613,0.495,0.828,0.208,21.695,6.092,2.832,158.0,9.0
155663,0.499,0.875,0.185,21.305,5.771,2.412,158.0,6.0
155712,0.496,0.891,0.195,23.863,6.122,5.794,158.0,9.0
155761,0.509,0.872,0.194,19.969,4.046,5.130,158.0,6.0
155811,0.525,0.854,0.190,24.252,4.153,5.550,158.0,6.0
155864,0.504,0.921,0.150,30.031,1.786,8.786,158.0,7.0
155959,0.531,0.912,0.132,19.382,5.481,11.221,157.0,51.0
156009,0.533,0.833,0.159,23.824,11.947,10.000,157.0,9.0
156069,0.534,0.869,0.130,24.740,15.069,9.473,157.0,0.0
156130,0.559,0.850,0.131,44.023,14.771,9.321,157.0,0.0
156181,0.573,0.919,0.062,58.321,16.725,17.565,157.0,17.0
156241,0.573,0.855,0.073,43.321,18.229,20.000,157.0,0.0
156292,0.581,0.903,0.003,39.496,23.183,28.015,156.0,18.0
156352,0.565,0.846,0.022,17.779,26.580,26.595,155.0,0.0
156417,0.552,0.766,0.044,20.962,28.618,23.366,164.0,0.0
156468,0.572,0.768,0.083,31.183,20.870,15.756,165.0,22.0
156519,0.572,0.792,0.035,35.733,21.336,15.160,167.0,20.0
156569,0.618,0.804,0.053,27.153,17.969,14.305,168.0,18.0
156620,0.635,0.771,0.052,37.321,18.290,16.000,166.0,19.0
156672,0.685,0.797,0.064,22.015,16.420,16.939,169.0,19.0
156723,0.707,0.789,0.036,43.374,19.366,17.267,169.0,17.0
156773,0.720,0.742,0.020,37.031,24.969,14.611,164.0,16.0
156826,0.676,0.710,0.003,41.992,31.214,4.908,155.0,17.0
156877,0.600,0.749,0.033,34.565,22.176,4.504,163.0,19.0
156928,0.644,0.756,0.014,48.069,13.519,-3.855,163.0,18.0
156979,0.547,0.791,0.090,12.443,-1.053,-17.924,164.0,16.0
157036,0.663,0.967,-0.027,11.092,-2.725,-19.382,190.0,17.0
157086,0.542,0.860,0.089,-22.038,-0.824,-16.473,183.0,16.0
157136,0.597,0.916,0.049,-14.527,-15.588,-5.450,164.0,19.0
157186,0.510,0.747,0.038,-33.870,-13.786,-13.992,153.0,21.0
157235,0.491,0.782,0.034,11.084,-30.954,-12.733,153.0,17.0
157287,0.526,0.826,-0.014,-6.374,-39.527,-22.397,153.0,18.0
157336,0.437,0.935,-0.149,-13.679,-44.847,-14.305,154.0,16.0
157385,0.540,0.985,-0.220,-113.183,-36.763,-9.618,154.0,17.0
157437,0.626,0.828,-0.043,-146.305,-19.580,-13.153,169.0,52.0
157491,0.586,0.804,0.135,-124.511,8.908,-4.420,178.0,51.0
157541,0.603,0.553,0.382,-91.252,6.534,-16.458,171.0,19.0
157591,0.625,0.697,0.397,-1.763,4.931,0.412,165.0,29.0
157645,0.632,0.743,0.432,-82.763,3.718,-22.817,0.0,49.0
157689,0.656,0.657,0.554,-38.794,8.237,-16.344,30.0,51.0
157735,0.565,0.626,0.534,-63.603,12.214,-31.802,26.0,49.0
157779,0.510,0.503,0.655,29.344,7.878,-25.924,30.0,48.0
157824,0.417,1.105,0.482,1.626,4.145,-12.710,25.0,47.0
157867,0.502,0.814,0.522,-21.237,-2.191,-5.786,23.0,48.0
157912,0.488,0.802,0.595,-35.939,6.832,-5.427,38.0,48.0
157955,0.467,0.759,0.510,-50.198,15.641,4.740,24.0,50.0
157999,0.454,0.515,0.666,-48.252,6.145,-10.924,25.0,50.0
158053,0.418,0.646,0.634,-16.229,3.237,-7.527,0.0,50.0
158096,0.402,0.623,0.682,-62.229,-0.153,-8.969,38.0,36.0
158142,0.393,0.651,0.680,-56.527,-0.855,-3.939,23.0,33.0
158185,0.379,0.510,0.728,-6.870,-18.748,-2.160,25.0,36.0
158228,0.454,0.667,0.676,-40.420,-20.901,-0.244,26.0,36.0
158281,0.460,0.552,0.733,-52.046,-20.672,4.115,0.0,35.0
158338,0.492,0.333,0.820,-42.092,-5.962,4.618,0.0,35.0
158391,0.503,0.518,0.760,-47.939,-0.870,-3.046,0.0,35.0
158444,0.428,0.240,0.844,-30.511,-5.122,1.015,0.0,35.0
158540,0.487,0.342,0.795,-17.344,-2.351,3.481,0.0,36.0
158594,0.478,0.291,0.819,-28.687,1.901,-1.206,0.0,36.0
158650,0.518,0.250,0.827,-21.008,1.443,1.786,0.0,36.0
158703,0.488,0.256,0.829,-7.466,6.954,2.084,0.0,36.0
158756,0.492,0.211,0.858,-23.679,8.786,2.069,0.0,36.0
158810,0.467,0.240,0.846,-4.809,9.672,-1.145,0.0,36.0
158862,0.458,0.169,0.910,-8.809,5.908,4.038,0.0,36.0
158915,0.475,0.182,0.885,-4.237,5.893,4.870,0.0,37.0
158968,0.463,0.144,0.906,2.527,5.275,3.321,0.0,36.0
159022,0.470,0.182,0.866,9.626,5.053,3.237,0.0,36.0
159075,0.445,0.140,0.902,14.092,0.992,1.618,0.0,37.0
159131,0.493,0.217,0.846,11.824,3.290,5.443,0.0,37.0
159184,0.475,0.145,0.904,13.947,3.870,5.519,0.0,36.0
159238,0.462,0.179,0.878,3.267,2.611,4.656,0.0,37.0
159291,0.474,0.146,0.888,17.725,1.481,3.550,0.0,37.0
159344,0.467,0.136,0.884,9.008,4.290,1.595,0.0,37.0
159397,0.399,0.145,0.902,14.527,1.489,5.527,0.0,37.0
159451,0.490,0.132,0.937,5.962,-5.611,4.588,0.0,37.0
159504,0.431,0.192,0.889,3.786,-10.931,10.122,0.0,36.0
159557,0.493,0.065,0.917,-4.557,-15.832,16.000,0.0,37.0
159604,0.542,0.111,0.839,-17.496,-13.695,16.427,37.0,37.0
159657,0.553,0.064,0.816,-16.046,-12.779,17.405,0.0,36.0
159702,0.561,0.106,0.789,-4.137,-7.420,6.122,38.0,36.0
159746,0.432,0.032,0.783,-7.588,-6.573,12.992,37.0,38.0
159790,0.459,0.018,0.809,6.695,3.511,19.382,36.0,36.0
159843,0.438,-0.174,0.881,82.817,17.595,27.763,0.0,38.0
159896,0.524,0.316,0.742,90.740,22.374,24.718,0.0,37.0
159939,0.526,0.015,0.933,56.771,27.939,9.779,17.0,36.0
159983,0.516,0.240,0.895,76.901,23.427,14.351,30.0,37.0
160030,0.561,0.211,0.956,52.588,16.687,7.267,36.0,37.0
160073,0.572,0.260,0.891,34.985,20.748,19.198,31.0,37.0
160117,0.632,0.287,0.867,-9.641,28.229,20.489,25.0,36.0
160160,0.657,0.112,0.921,-11.115,33.153,16.344,30.0,36.0
160205,0.469,0.178,0.939,-22.641,30.450,26.198,58.0,36.0
160260,0.559,0.063,0.948,-24.649,21.641,20.267,0.0,37.0
160313,0.564,-0.039,0.924,-7.885,29.252,27.573,0.0,36.0
160366,0.509,0.079,0.937,-31.756,36.718,27.840,0.0,35.0
160409,0.428,-0.011,1.025,-42.351,42.435,36.740,24.0,35.0
160466,0.311,-0.043,0.975,-50.122,23.702,21.351,0.0,34.0
160509,0.347,-0.228,0.947,8.031,17.901,18.916,27.0,33.0
160563,0.258,-0.001,0.948,29.557,27.137,28.130,0.0,37.0
160607,0.327,0.004,0.976,21.863,41.336,37.519,30.0,35.0
160650,0.188,-0.030,1.044,-3.931,37.847,30.305,29.0,34.0
160695,0.185,-0.199,1.104,31.870,36.687,31.244,58.0,32.0
160739,0.244,-0.031,0.964,55.198,44.588,31.061,31.0,34.0
160782,0.097,0.000,0.823,75.221,56.656,23.550,29.0,31.0
160826,0.031,0.176,0.843,48.153,54.214,18.496,21.0,37.0
160876,-0.075,0.188,0.844,11.351,41.366,12.275,30.0,101.0
160923,-0.019,0.125,0.963,-27.183,22.527,4.878,31.0,84.0
160969,-0.050,-0.061,1.034,-19.130,9.779,9.344,33.0,91.0
161071,0.045,-0.018,1.055,15.542,-2.947,11.885,0.0,113.0
161118,0.077,-0.053,1.031,29.649,-3.954,18.412,30.0,88.0
161166,0.042,0.032,0.970,27.481,2.756,18.687,30.0,113.0
161214,0.025,0.023,0.960,-0.641,-0.405,17.214,30.0,112.0
161262,0.026,-0.052,0.991,-1.588,-1.336,14.817,29.0,113.0
161310,0.023,-0.094,1.005,4.924,-6.748,10.977,30.0,114.0
161362,0.066,-0.063,1.011,35.122,-6.214,13.420,30.0,115.0
161411,0.018,0.019,0.987,40.489,-6.336,15.695,30.0,116.0
161456,0.055,0.002,0.971,27.321,-4.504,15.870,28.0,58.0
161503,0.056,0.013,1.030,37.313,0.252,17.107,28.0,103.0
161551,0.061,0.034,1.027,32.412,-0.053,13.305,30.0,103.0
161595,0.047,0.015,1.025,34.832,-0.939,13.237,36.0,43.0
161640,0.126,0.066,1.036,51.275,-3.267,13.847,37.0,50.0
161686,0.160,0.042,1.025,62.351,1.015,16.176,58.0,49.0
161731,0.157,0.177,0.968,72.924,11.588,27.374,30.0,44.0
161778,0.164,0.273,0.950,41.534,21.672,28.435,28.0,44.0
161822,0.104,0.282,0.946,-13.580,16.282,20.550,25.0,44.0
161866,0.106,0.093,0.986,-37.290,9.695,12.740,24.0,45.0
161910,0.090,-0.001,1.037,-26.542,13.916,9.313,21.0,46.0
161954,0.058,-0.050,1.047,4.588,14.298,9.588,23.0,45.0
161998,0.075,0.055,1.040,44.771,16.817,12.626,25.0,46.0
162042,0.043,0.206,0.969,30.000,18.527,8.252,18.0,46.0
162086,-0.011,0.198,1.027,11.290,12.969,5.924,26.0,45.0
162130,0.014,0.123,1.023,7.000,5.511,4.344,20.0,45.0
162179,0.044,0.170,0.977,28.733,11.031,7.809,23.0,62.0
162224,0.004,0.168,0.934,5.664,22.557,7.305,26.0,61.0
162270,-0.007,0.165,1.141,17.595,7.214,9.618,24.0,95.0
162318,0.003,0.139,1.003,-8.275,-2.855,1.427,23.0,105.0
162362,-0.004,0.099,0.929,8.634,4.076,-4.542,23.0,45.0
162409,-0.070,0.018,1.024,28.985,2.084,-10.779,22.0,104.0
162456,-0.035,0.153,0.944,53.962,-2.336,-19.817,22.0,104.0
162501,-0.068,0.243,0.939,-0.107,-10.519,-38.038,27.0,43.0
162544,-0.038,0.033,0.947,37.870,-8.260,-51.000,19.0,42.0
162591,-0.034,0.138,1.021,64.641,-11.939,-51.137,18.0,37.0
162634,-0.054,0.272,0.865,101.389,-14.046,-60.092,18.0,31.0
162678,0.025,0.347,0.959,84.939,-10.985,-55.573,21.0,36.0
162722,0.005,0.344,0.966,117.160,-14.069,-47.954,22.0,51.0
162766,0.096,0.506,1.001,105.061,-12.504,-28.794,23.0,29.0
162810,0.090,0.704,1.038,106.817,-9.748,-0.634,30.0,37.0
162854,0.124,0.966,0.954,-12.344,-22.168,9.863,26.0,37.0
162898,0.117,0.508,1.066,-65.473,-34.344,14.511,23.0,42.0
162942,0.137,0.406,0.986,-41.260,-37.229,21.817,23.0,36.0
162989,0.167,0.290,0.878,-19.786,-27.786,21.107,23.0,30.0
163033,0.158,0.343,0.758,-9.947,-15.214,16.977,23.0,30.0
163077,0.170,0.323,0.780,-2.481,-2.863,10.527,23.0,41.0
163120,0.157,0.354,0.783,3.160,10.260,6.221,22.0,41.0
163164,0.090,0.362,0.858,7.130,14.344,8.122,23.0,31.0
163212,0.121,0.426,0.914,23.260,6.870,13.389,22.0,31.0
163254,0.175,0.411,0.906,9.252,3.489,13.374,23.0,31.0
163297,0.190,0.328,0.928,-4.260,2.298,6.328,24.0,32.0
163393,0.135,0.288,1.008,8.954,8.084,-0.405,0.0,45.0
163447,0.121,0.357,0.984,24.282,3.824,0.718,26.0,37.0
163500,0.129,0.379,0.942,13.061,-4.382,-3.336,0.0,40.0
163557,0.147,0.363,0.922,11.031,-9.450,-0.412,0.0,37.0
163600,0.176,0.322,0.925,14.786,-10.107,-6.634,23.0,35.0
163642,0.184,0.318,0.940,24.557,-5.901,-6.374,22.0,36.0
163686,0.164,0.375,0.944,28.061,-6.092,-5.260,25.0,43.0
163728,0.164,0.406,0.934,19.206,-8.595,-4.481,23.0,30.0
163771,0.169,0.383,0.918,18.496,-11.412,-4.534,25.0,36.0
163814,0.194,0.375,0.915,19.489,-13.733,-4.656,24.0,41.0
163860,0.201,0.406,0.895,18.824,-19.611,-4.695,27.0,45.0
163904,0.230,0.381,0.910,19.351,-22.840,-5.802,26.0,42.0
163947,0.253,0.380,0.903,18.511,-19.603,-1.527,22.0,36.0
163989,0.267,0.419,0.868,13.992,-26.603,-5.267,27.0,33.0
164032,0.285,0.359,0.874,15.618,-25.450,-6.420,24.0,32.0
164075,0.281,0.375,0.854,33.198,-26.756,-2.969,26.0,32.0
164117,0.313,0.467,0.829,33.260,-34.168,-5.389,18.0,35.0
164160,0.339,0.463,0.827,32.527,-38.664,-1.817,17.0,37.0
164203,0.365,0.479,0.823,30.176,-43.611,-1.313,17.0,40.0
164249,0.386,0.465,0.795,34.053,-44.977,-0.275,18.0,45.0
164291,0.435,0.478,0.781,44.260,-42.420,-1.473,24.0,31.0
164334,0.467,0.493,0.752,47.084,-32.206,5.573,23.0,37.0
164377,0.528,0.525,0.709,54.466,-21.931,5.664,24.0,34.0
164420,0.487,0.584,0.705,47.794,-17.794,4.824,23.0,38.0
164464,0.471,0.579,0.715,38.573,-18.947,7.427,25.0,51.0
164507,0.484,0.583,0.716,37.985,-17.435,8.359,22.0,32.0
164550,0.476,0.593,0.691,28.916,-17.489,8.061,24.0,50.0
164597,0.531,0.593,0.667,39.397,-19.069,7.573,23.0,48.0
164639,0.533,0.635,0.635,42.580,-11.786,8.244,16.0,32.0
164683,0.532,0.644,0.616,33.588,-6.176,8.069,16.0,49.0
164726,0.550,0.645,0.635,37.107,-1.206,7.496,22.0,46.0
164769,0.537,0.663,0.610,23.107,1.176,6.198,22.0,47.0
164812,0.566,0.617,0.610,25.458,-2.954,4.687,21.0,33.0
164856,0.556,0.661,0.585,28.931,-4.198,4.824,22.0,47.0
164899,0.567,0.698,0.560,16.290,-5.504,2.901,22.0,46.0
164942,0.572,0.686,0.564,13.298,-4.374,4.206,22.0,45.0
164986,0.575,0.701,0.550,1.924,-4.214,7.092,23.0,44.0
165033,0.590,0.660,0.579,-0.206,-7.702,9.809,25.0,49.0
165075,0.617,0.655,0.557,5.924,-11.229,15.664,22.0,32.0
165120,0.644,0.706,0.554,-9.466,-17.008,19.908,22.0,48.0
165164,0.645,0.599,0.587,-17.763,-23.267,22.076,22.0,49.0
165211,0.660,0.594,0.554,-17.137,-25.916,28.771,100.0,33.0
165255,0.701,0.521,0.537,-12.870,-29.473,26.344,21.0,50.0
165298,0.724,0.488,0.505,2.176,-25.885,29.802,20.0,36.0
165340,0.737,0.549,0.456,-3.603,-17.458,30.527,20.0,32.0
165386,0.744,0.499,0.484,-23.557,-10.053,29.298,20.0,36.0
165429,0.760,0.373,0.506,-19.344,-3.405,31.122,20.0,33.0
165472,0.764,0.361,0.522,3.817,3.870,28.534,19.0,35.0
165515,0.731,0.353,0.519,12.221,5.595,21.809,19.0,38.0
165558,0.704,0.373,0.537,10.397,8.221,15.008,19.0,37.0