Timestamp(ms),AccelX(g),AccelY(g),AccelZ(g),GyroX(deg/s),GyroY(deg/s),GyroZ(deg/s),DistanceLeft(cm),DistanceRight(cm)
260456,-0.403,0.829,0.284,-11.351,-1.504,7.076,0.0,62.0
260513,-0.470,0.851,0.297,1.130,-3.519,8.244,0.0,59.0
260566,-0.442,0.831,0.311,5.344,-2.893,6.588,57.0,61.0
260623,-0.439,0.895,0.287,2.992,0.504,8.870,0.0,61.0
260672,-0.481,0.886,0.280,-19.221,0.725,6.412,57.0,61.0
260738,-0.442,0.784,0.326,-15.405,2.603,7.748,0.0,0.0
260795,-0.385,0.858,0.266,-4.313,-0.473,15.939,0.0,59.0
260852,-0.514,0.812,0.330,-12.557,1.267,15.076,0.0,59.0
260910,-0.442,0.817,0.300,11.641,-3.023,14.198,0.0,59.0
260968,-0.417,0.906,0.260,6.000,-10.656,16.053,0.0,58.0
261016,-0.451,0.876,0.281,-2.137,-13.260,16.840,49.0,59.0
261068,-0.499,0.841,0.353,2.023,-13.664,9.092,49.0,59.0
261117,-0.340,0.896,0.270,2.198,-12.153,8.137,46.0,58.0
261166,-0.453,0.880,0.287,-1.855,-4.046,6.489,47.0,60.0
261215,-0.509,0.879,0.304,-1.496,-9.420,0.412,48.0,57.0
261263,-0.426,0.835,0.289,-9.511,-8.252,-1.053,47.0,59.0
261312,-0.402,0.857,0.238,0.168,-19.359,1.809,46.0,58.0
261360,-0.501,0.788,0.346,11.008,-23.962,-0.809,47.0,57.0
261409,-0.387,0.873,0.302,19.870,-25.466,-3.305,49.0,58.0
261457,-0.345,0.948,0.235,15.847,-21.718,0.359,49.0,57.0
261519,-0.460,0.822,0.328,4.458,-13.145,-3.313,0.0,57.0
261576,-0.410,0.875,0.275,10.344,-25.832,-0.076,0.0,58.0
261634,-0.515,0.762,0.386,18.023,-37.229,0.298,0.0,57.0
261691,-0.443,0.906,0.255,13.786,-45.366,-8.527,0.0,57.0
261748,-0.463,0.822,0.295,14.885,-46.160,-16.924,0.0,55.0
261806,-0.491,0.861,0.238,23.122,-53.168,-23.160,0.0,56.0
261864,-0.383,0.901,0.226,22.191,-66.672,-21.885,0.0,57.0
261921,-0.409,0.788,0.415,36.802,-72.863,-22.588,0.0,57.0
261979,-0.436,0.793,0.322,48.099,-60.290,-18.359,0.0,57.0
262040,-0.422,0.892,0.251,65.305,-40.198,-29.534,0.0,57.0
262097,-0.387,1.184,0.116,43.458,-41.511,-20.733,0.0,57.0
262156,-0.471,0.861,0.175,-4.382,-53.832,-18.626,0.0,57.0
262213,-0.492,0.784,0.265,7.847,-53.962,-18.786,0.0,61.0
262272,-0.468,0.862,0.248,12.565,-39.489,-14.824,0.0,58.0
262334,-0.558,0.780,0.317,-1.466,-47.176,-15.076,0.0,58.0
262390,-0.467,0.661,0.240,9.275,-42.901,-8.740,0.0,60.0
262447,-0.493,0.810,0.310,66.450,-55.160,-5.954,0.0,58.0
262507,-0.466,0.945,0.284,33.092,-55.870,-5.015,0.0,59.0
262555,-0.527,0.699,0.427,45.687,-60.282,-8.435,58.0,64.0
262612,-0.502,0.889,0.231,42.863,-54.718,-8.145,0.0,57.0
262669,-0.441,0.946,0.243,36.626,-57.924,-9.053,0.0,57.0
262725,-0.415,0.927,0.221,28.397,-46.885,-14.870,0.0,57.0
262791,-0.424,0.925,0.270,13.557,-35.924,-24.809,0.0,0.0
262847,-0.378,0.837,0.200,13.542,-17.733,-24.962,0.0,60.0
262904,-0.525,0.816,0.179,9.832,-15.405,-13.939,0.0,67.0
262961,-0.571,0.725,0.244,5.489,-16.878,-5.183,58.0,0.0
263013,-0.677,0.816,0.163,6.328,-33.588,1.198,58.0,63.0
263077,-0.586,0.775,0.206,13.092,-36.168,5.595,0.0,0.0
263142,-0.517,0.836,0.262,21.397,-28.183,3.038,0.0,0.0
263191,-0.517,0.820,0.270,8.046,-29.649,7.092,58.0,61.0
263283,-0.472,0.835,0.305,13.954,-5.527,12.000,58.0,58.0
263331,-0.502,0.954,0.225,2.092,-11.267,4.427,58.0,59.0
263397,-0.513,0.875,0.255,-13.695,-8.420,2.168,0.0,0.0
263453,-0.489,0.735,0.305,2.840,3.466,6.565,57.0,0.0
263510,-0.604,0.885,0.175,-12.962,0.954,8.664,57.0,0.0
263569,-0.617,0.790,0.218,-15.466,-15.573,14.641,49.0,0.0
263625,-0.583,0.747,0.240,-1.237,-24.832,14.802,50.0,0.0
263683,-0.587,0.802,0.200,-8.740,-13.130,10.656,0.0,60.0
263747,-0.653,0.612,0.249,13.443,-2.359,-7.214,0.0,0.0
263804,-0.571,0.927,0.096,18.618,-20.000,-2.840,0.0,61.0
263862,-0.527,0.814,0.081,18.305,-42.405,-0.748,0.0,60.0
263918,-0.551,0.901,0.089,31.725,-60.221,-5.992,50.0,0.0
263966,-0.459,0.932,0.104,32.168,-53.840,-13.664,47.0,59.0
264014,-0.432,0.971,0.201,35.733,-50.405,-13.969,47.0,57.0
264066,-0.589,0.787,0.185,23.443,-48.015,-16.168,48.0,64.0
264114,-0.429,0.814,0.215,35.931,-48.695,-20.092,49.0,57.0
264162,-0.606,0.869,0.220,24.336,-59.344,-15.588,49.0,61.0
264210,-0.370,0.906,0.270,28.824,-55.809,-22.229,52.0,58.0
264267,-0.492,0.764,0.211,30.237,-49.725,-27.626,58.0,0.0
264324,-0.470,0.865,0.225,22.908,-40.901,-27.870,58.0,0.0
264389,-0.565,0.799,0.193,23.130,-42.870,-16.794,0.0,0.0
264455,-0.334,0.818,0.296,30.611,-50.924,-15.611,0.0,0.0
264519,-0.413,0.816,0.294,16.015,-46.817,-15.954,0.0,0.0
264580,-0.458,0.802,0.349,23.160,-36.313,-15.351,0.0,60.0
264636,-0.490,0.811,0.376,18.099,-28.206,-8.641,0.0,58.0
264701,-0.453,0.759,0.357,30.252,-29.130,-5.015,0.0,0.0
264767,-0.538,0.939,0.318,5.504,-36.206,-0.718,0.0,0.0
264832,-0.417,0.701,0.395,42.366,-33.053,-7.534,0.0,0.0
264897,-0.578,0.778,0.398,0.908,-20.534,-6.267,0.0,0.0
264962,-0.582,0.765,0.283,2.870,-15.595,-3.198,0.0,0.0
265019,-0.656,0.694,0.264,-5.168,-17.832,-3.771,0.0,60.0
265076,-0.671,0.657,0.338,8.450,-16.031,-14.817,0.0,61.0
265137,-0.763,0.552,0.202,44.641,-24.481,-9.168,0.0,62.0
265194,-0.689,0.903,0.199,35.198,-36.374,-7.504,0.0,62.0
265259,-0.583,0.729,0.183,17.641,-37.328,-0.580,0.0,0.0
265324,-0.584,0.803,0.157,17.458,-21.779,2.244,0.0,0.0
265390,-0.559,0.723,0.259,4.985,-27.038,7.779,0.0,0.0
265454,-0.598,0.673,0.156,13.260,-27.000,5.397,0.0,0.0
265512,-0.600,0.767,0.181,16.847,-27.046,8.435,0.0,71.0
265577,-0.667,0.744,0.248,4.626,-30.313,0.534,0.0,0.0
265634,-0.540,0.787,0.442,11.611,-24.053,-1.641,0.0,60.0
265703,-0.627,0.817,0.357,-9.153,-11.412,-0.427,0.0,0.0
265768,-0.526,0.873,0.402,-20.626,7.122,2.069,0.0,0.0
265833,-0.479,0.768,0.399,-13.748,14.137,-1.733,0.0,0.0
265899,-0.501,0.806,0.225,-7.947,8.817,1.511,0.0,0.0
265964,-0.699,0.677,0.534,0.328,-1.366,6.511,0.0,0.0
266029,-0.631,0.781,0.367,-27.947,0.603,-3.763,0.0,0.0
266094,-0.412,0.775,0.448,-1.504,3.885,-9.115,0.0,0.0
266160,-0.594,0.653,0.363,-6.611,2.595,-1.985,0.0,0.0
266224,-0.481,0.798,0.286,-2.183,-5.794,-4.534,0.0,0.0
266336,-0.523,0.762,0.261,27.321,1.160,3.137,0.0,0.0
266401,-0.468,0.517,0.404,23.137,-3.947,2.649,0.0,0.0
266467,-0.564,0.728,0.238,30.519,-23.137,3.786,0.0,0.0
266532,-0.596,0.726,0.226,33.176,-24.031,8.351,0.0,0.0
266590,-0.688,0.740,0.127,-0.275,-13.504,-1.382,0.0,61.0
266654,-0.630,0.634,0.085,5.298,-11.244,-5.710,0.0,0.0
266720,-0.666,0.859,0.032,-0.053,-24.260,4.328,0.0,0.0
266785,-0.434,0.645,0.127,37.931,-34.137,-9.618,0.0,0.0
266851,-0.442,0.801,0.203,39.336,-34.046,-7.802,0.0,0.0
266919,-0.406,0.853,0.222,22.618,-30.939,6.069,0.0,0.0
266984,-0.575,0.758,0.305,27.802,-29.458,0.542,0.0,0.0
267042,-0.535,0.915,0.433,1.962,-21.977,-10.588,0.0,73.0
267108,-0.436,0.845,0.275,14.588,-25.908,-17.947,0.0,0.0
267173,-0.699,0.734,0.384,10.015,-19.771,-5.053,0.0,0.0
267239,-0.567,0.683,0.294,37.969,-28.000,-10.221,0.0,0.0
267304,-0.452,0.809,0.321,46.420,-36.244,1.443,0.0,0.0
267370,-0.590,0.809,0.225,19.504,-34.885,3.313,0.0,0.0
267436,-0.498,0.791,0.327,10.481,-28.664,-5.061,0.0,0.0
267496,-0.460,0.903,0.236,23.550,-33.679,-6.534,0.0,70.0
267561,-0.607,0.669,0.323,1.687,-26.710,-22.847,0.0,0.0
267627,-0.558,0.769,0.455,4.679,-21.443,-6.573,0.0,0.0
267693,-0.674,0.736,0.219,12.840,-27.031,-8.924,0.0,0.0
267743,-0.760,0.817,0.059,6.214,-32.977,3.901,58.0,80.0
267800,-0.522,0.774,0.240,46.405,-38.076,-1.511,58.0,0.0
267857,-0.637,0.854,0.153,1.817,-37.420,-0.588,58.0,0.0
267916,-0.590,0.696,0.227,9.809,-18.229,-5.176,0.0,66.0
267966,-0.658,0.745,0.286,34.489,-20.443,-7.527,60.0,68.0
268018,-0.653,0.767,0.080,5.160,-30.160,-7.870,61.0,64.0
268076,-0.674,0.793,0.236,24.084,-40.496,-8.725,60.0,0.0
268141,-0.694,0.727,0.242,26.458,-38.618,-11.008,0.0,0.0
268198,-0.657,0.885,0.187,9.481,-31.397,-7.664,58.0,0.0
268249,-0.621,0.667,0.161,26.786,-33.786,-7.366,59.0,67.0
268306,-0.502,0.765,0.198,24.557,-36.611,-22.053,58.0,0.0
268363,-0.484,0.740,0.290,62.496,-37.122,-9.580,60.0,0.0
268422,-0.590,0.780,0.309,19.931,-36.450,-7.229,0.0,65.0
268479,-0.468,0.796,0.263,37.710,-41.687,-6.191,58.0,0.0
268540,-0.572,0.815,0.388,12.748,-40.985,-13.076,59.0,0.0
268598,-0.662,0.814,0.347,25.702,-36.260,-8.931,59.0,0.0
268663,-0.515,0.729,0.215,10.466,-33.282,-18.038,0.0,0.0
268729,-0.536,0.760,0.427,55.191,-41.122,-1.412,0.0,0.0
268794,-0.675,0.760,0.454,20.840,-38.191,-13.252,0.0,0.0
268853,-0.578,0.622,0.281,47.305,-43.000,-17.321,0.0,69.0
268918,-0.594,0.841,0.164,36.695,-42.763,-18.260,0.0,0.0
268977,-0.450,0.856,0.152,40.626,-52.824,-5.244,59.0,0.0
269042,-0.543,0.838,0.124,37.725,-50.466,-11.641,0.0,0.0
269103,-0.515,0.884,0.150,29.969,-27.260,-5.534,58.0,0.0
269160,-0.675,0.795,0.115,15.191,-35.779,-13.725,58.0,0.0
269218,-0.535,0.644,0.160,31.969,-49.260,-22.336,58.0,0.0
269284,-0.655,0.808,0.186,44.237,-49.145,-18.290,0.0,0.0
269341,-0.554,0.705,0.255,23.115,-48.374,-21.832,57.0,0.0
269451,-0.356,1.040,0.243,40.947,-53.160,3.359,0.0,0.0
269516,-0.545,0.727,0.497,16.092,-40.313,-6.153,0.0,0.0
269574,-0.458,0.990,0.305,22.260,-22.084,-12.038,58.0,0.0
269635,-0.539,0.663,0.361,3.511,-24.771,-17.779,58.0,0.0
269701,-0.620,0.774,0.291,14.641,-31.908,-11.359,0.0,0.0
269766,-0.635,0.675,0.292,35.023,-41.145,-14.069,0.0,0.0
269833,-0.555,0.716,0.314,41.756,-29.908,-10.443,0.0,0.0
269898,-0.749,0.609,0.202,1.313,-32.130,-13.702,0.0,0.0
269964,-0.641,0.751,0.245,49.588,-37.656,-4.847,0.0,0.0
270029,-0.579,0.655,0.366,29.939,-38.878,-12.863,0.0,0.0
270096,-0.646,0.713,0.251,32.412,-39.748,-4.176,0.0,0.0
270158,-0.634,0.754,0.117,24.985,-31.634,-2.870,60.0,0.0
270218,-0.635,0.815,0.199,0.099,-23.687,-5.420,57.0,0.0
270282,-0.702,0.716,0.220,33.847,-27.153,-6.168,0.0,0.0
270348,-0.560,0.885,0.168,32.397,-37.130,-6.031,0.0,0.0
270412,-0.526,0.800,0.364,18.160,-38.687,-7.282,0.0,0.0
270469,-0.573,0.799,0.483,34.931,-34.489,-11.969,58.0,0.0
270526,-0.562,0.693,0.254,31.939,-36.733,-16.244,58.0,0.0
270582,-0.369,0.962,0.363,15.427,-38.015,-6.374,58.0,0.0
270640,-0.556,0.869,0.289,-9.122,-23.473,-2.443,62.0,0.0
270704,-0.656,0.828,0.302,-24.038,-6.374,-16.412,0.0,0.0
270772,-0.540,0.780,0.433,19.099,-4.008,-21.107,0.0,0.0
270836,-0.636,0.713,0.258,-0.229,-9.221,-21.824,0.0,0.0
270902,-0.557,0.578,0.215,45.115,-21.313,-20.443,0.0,0.0
270966,-0.549,0.797,0.237,61.664,-34.160,-3.145,0.0,0.0
271032,-0.658,0.609,0.385,18.863,-38.237,-1.427,0.0,0.0
271096,-0.707,0.680,0.383,7.221,-20.229,-0.168,0.0,0.0
271161,-0.666,0.765,0.181,10.580,-18.076,-0.802,0.0,0.0
271226,-0.665,0.723,0.186,14.099,-22.603,-0.634,0.0,0.0
271291,-0.640,0.701,0.332,14.397,-21.603,-2.412,0.0,0.0
271358,-0.678,0.727,0.403,16.588,-16.702,-3.550,0.0,0.0
271423,-0.570,0.660,0.123,16.099,-11.519,-5.244,0.0,0.0
271489,-0.644,0.697,0.143,-7.053,-13.130,5.374,0.0,0.0
271553,-0.516,0.723,0.289,10.069,-18.565,9.366,0.0,0.0
271619,-0.494,0.784,0.170,26.656,-18.664,9.405,0.0,0.0
271683,-0.583,0.775,0.115,5.878,-14.641,10.916,0.0,0.0
271748,-0.411,0.837,0.340,31.344,-7.015,6.809,0.0,0.0
271813,-0.642,0.798,0.244,-17.763,-2.076,10.954,0.0,0.0
271878,-0.620,0.661,0.227,9.534,5.679,3.115,0.0,0.0
271945,-0.592,0.753,0.371,-1.725,1.634,3.176,0.0,0.0
272011,-0.625,0.867,0.245,-12.794,-4.290,0.702,0.0,0.0
272075,-0.484,0.744,0.334,37.313,-15.443,10.939,0.0,0.0
272141,-0.691,0.872,0.071,12.588,-21.435,9.267,0.0,0.0
272205,-0.581,0.894,0.303,-17.832,-16.092,-6.687,0.0,0.0
272263,-0.596,0.695,0.211,18.664,-12.595,-1.099,0.0,70.0
272328,-0.687,0.708,0.229,-8.374,-10.313,-2.504,0.0,0.0
272393,-0.672,0.709,0.316,5.840,-15.450,-2.550,0.0,0.0
272458,-0.693,0.677,0.205,34.511,-22.740,6.191,0.0,0.0
272526,-0.621,0.653,0.266,13.527,-22.313,-1.458,0.0,0.0
272591,-0.675,0.750,0.112,18.328,-31.878,-3.344,0.0,0.0
272700,-0.629,0.756,0.279,25.679,-38.160,-1.214,0.0,0.0
272764,-0.647,0.705,0.242,32.267,-42.603,-3.412,0.0,0.0
272830,-0.656,0.720,0.328,18.221,-51.870,-9.794,0.0,0.0
272887,-0.605,0.721,0.344,31.137,-51.748,-12.000,0.0,71.0
272953,-0.642,0.691,0.294,43.366,-42.481,-13.214,0.0,0.0
273017,-0.589,0.817,0.279,35.924,-31.588,-4.504,0.0,0.0
273075,-0.567,0.847,0.179,24.420,-27.573,5.748,53.0,0.0
273135,-0.625,0.799,0.201,18.153,-33.595,-2.038,0.0,61.0
273192,-0.533,0.775,0.181,24.366,-37.176,2.710,0.0,63.0
273249,-0.504,0.844,0.176,26.740,-39.092,11.206,0.0,59.0
273314,-0.588,0.777,0.308,27.351,-40.740,3.580,0.0,0.0
273372,-0.625,0.824,0.207,35.115,-27.405,4.420,0.0,59.0
273428,-0.593,0.851,0.187,1.198,-27.947,-0.817,0.0,58.0
273485,-0.637,0.707,0.305,-2.954,-27.031,-3.534,0.0,60.0
273543,-0.607,0.736,0.273,3.061,-23.740,-2.275,0.0,59.0
273600,-0.588,0.796,0.215,7.328,-18.374,-0.176,0.0,60.0
273660,-0.512,0.726,0.323,16.160,-19.313,-3.489,0.0,60.0
273718,-0.471,0.895,0.302,5.168,-10.794,9.038,0.0,68.0
273783,-0.475,0.796,0.285,-1.267,-10.710,8.198,0.0,0.0
273848,-0.534,0.851,0.254,3.634,-17.863,14.733,0.0,0.0
273913,-0.611,0.722,0.301,3.878,-23.542,13.458,0.0,0.0
273979,-0.479,0.843,0.303,21.908,-26.710,7.443,0.0,0.0
274027,-0.482,0.750,0.407,21.229,-27.573,-3.336,49.0,60.0
274083,-0.491,0.865,0.336,16.611,-21.321,-5.481,50.0,0.0
274141,-0.587,0.861,0.222,11.656,-18.786,-9.321,49.0,0.0
274200,-0.510,0.833,0.250,9.000,-16.145,-8.076,48.0,0.0
274249,-0.529,0.764,0.267,7.725,-17.046,-8.282,57.0,59.0
274315,-0.603,0.744,0.290,-3.702,-16.099,-7.634,0.0,0.0
274379,-0.662,0.714,0.329,-5.809,-22.634,-9.405,0.0,0.0
274445,-0.577,0.689,0.312,40.427,-24.321,-4.282,0.0,0.0
274502,-0.414,0.788,0.298,53.740,-31.710,9.420,0.0,58.0
274560,-0.341,0.981,0.171,52.244,-30.832,18.313,0.0,58.0
274617,-0.329,0.994,0.245,23.771,-24.130,19.771,0.0,58.0
274674,-0.356,0.959,0.244,9.611,-9.809,18.115,0.0,58.0
274735,-0.423,0.934,0.219,-7.122,-6.183,8.069,0.0,57.0
274791,-0.498,0.903,0.216,-3.817,-8.267,-2.641,0.0,57.0
274848,-0.517,0.893,0.218,-24.771,-12.985,-9.344,0.0,57.0
274906,-0.566,0.863,0.160,-28.626,-13.985,-15.198,0.0,57.0
274963,-0.501,0.645,0.353,-8.931,-5.878,-20.649,0.0,59.0
275028,-0.491,0.787,0.243,18.947,-3.382,-9.702,0.0,0.0
275086,-0.547,0.766,0.221,1.893,-9.786,1.397,0.0,57.0
275143,-0.559,0.784,0.197,14.962,-17.756,7.023,0.0,58.0
275201,-0.599,0.739,0.255,20.244,-29.122,5.634,0.0,58.0
275253,-0.575,0.786,0.216,24.740,-34.000,4.214,51.0,57.0
275301,-0.569,0.955,0.207,25.718,-39.420,-4.191,46.0,57.0
275358,-0.526,0.856,0.268,13.527,-40.588,-12.092,0.0,57.0
275416,-0.503,0.799,0.317,29.931,-37.244,-10.023,0.0,58.0
275465,-0.580,0.733,0.315,1.641,-34.802,-21.168,58.0,57.0
275522,-0.468,0.804,0.201,35.618,-34.985,-13.924,0.0,60.0
275579,-0.512,0.797,0.281,23.290,-40.580,-12.511,0.0,57.0
275680,-0.469,0.808,0.208,37.000,-38.092,-8.397,0.0,57.0
275737,-0.571,0.841,0.265,33.366,-44.527,-13.008,0.0,59.0
275799,-0.454,0.878,0.275,43.733,-38.710,-14.840,0.0,58.0
275864,-0.466,0.933,0.207,25.519,-28.817,-4.763,0.0,0.0
275930,-0.564,0.831,0.187,-4.885,-21.305,-4.832,0.0,0.0
275987,-0.622,0.735,0.239,10.809,-32.305,-2.573,0.0,58.0
276044,-0.711,0.851,0.191,-18.344,-39.847,-11.511,0.0,58.0
276102,-0.514,0.606,0.250,18.290,-44.779,-11.695,0.0,59.0
276159,-0.565,0.741,0.278,56.489,-47.160,-11.824,0.0,59.0
276208,-0.407,0.795,0.271,44.221,-36.435,-0.481,52.0,60.0
276265,-0.412,0.886,0.270,43.466,-30.183,7.870,51.0,0.0
276326,-0.493,1.111,0.208,5.076,-26.145,7.191,49.0,0.0
276383,-0.593,0.749,0.269,-14.771,-27.626,-0.977,0.0,59.0
276441,-0.509,0.799,0.239,25.481,-31.313,-6.924,0.0,59.0
276490,-0.581,0.816,0.303,8.733,-35.092,-14.176,58.0,60.0
276547,-0.529,0.841,0.250,16.061,-30.427,-10.740,51.0,0.0
276604,-0.600,0.691,0.315,15.626,-32.053,-13.389,51.0,0.0
276670,-0.461,0.877,0.246,31.809,-30.473,-4.588,0.0,0.0
276736,-0.548,0.838,0.289,9.443,-29.634,-6.840,0.0,0.0
276797,-0.446,0.961,0.243,10.374,-19.046,-10.176,58.0,0.0
276862,-0.434,0.814,0.327,-6.237,-4.893,-8.588,0.0,0.0
276928,-0.531,0.868,0.321,-27.908,15.084,-4.092,0.0,0.0
276985,-0.535,0.728,0.245,-47.031,18.122,7.092,57.0,0.0
277051,-0.632,0.729,0.239,-32.328,10.321,11.282,0.0,0.0
277108,-0.644,0.658,0.282,-14.267,-3.336,11.626,51.0,0.0
277174,-0.598,0.759,0.273,6.000,-10.626,14.824,0.0,0.0
277239,-0.549,0.734,0.332,15.473,-22.794,15.084,0.0,0.0
277305,-0.550,0.785,0.396,12.191,-19.260,11.969,0.0,0.0
277374,-0.488,0.799,0.362,-10.664,-9.832,11.794,0.0,0.0
277440,-0.527,0.768,0.374,-9.107,5.840,14.382,0.0,0.0
277506,-0.466,0.844,0.334,-1.374,4.450,11.176,0.0,0.0
277563,-0.572,0.827,0.340,-25.053,10.153,8.916,54.0,0.0
277628,-0.506,0.788,0.271,-21.832,0.901,4.344,0.0,0.0
277695,-0.547,0.795,0.299,-0.221,-1.466,3.206,0.0,0.0
277752,-0.529,0.724,0.336,-0.344,-0.847,4.580,58.0,0.0
277810,-0.518,0.763,0.309,9.153,-7.809,9.359,57.0,0.0
277875,-0.549,0.792,0.330,9.939,-11.885,10.855,0.0,0.0
277941,-0.481,0.798,0.316,9.351,-12.305,13.000,0.0,0.0
278014,-0.464,0.851,0.344,20.015,-18.244,14.878,0.0,0.0
278063,-0.498,0.796,0.404,6.298,-9.664,12.298,58.0,59.0
278127,-0.422,0.837,0.351,8.802,-9.992,8.466,0.0,0.0
278176,-0.490,0.837,0.346,-4.008,-1.954,7.832,58.0,60.0
278233,-0.494,0.833,0.355,-2.153,-3.153,4.611,0.0,60.0
278289,-0.486,0.860,0.297,-1.603,0.847,3.611,0.0,58.0
278338,-0.415,0.826,0.331,-2.809,-13.160,4.382,59.0,60.0
278394,-0.516,0.769,0.388,0.840,-3.817,0.237,0.0,60.0
278452,-0.480,0.886,0.265,-10.878,-5.206,0.748,0.0,59.0
278503,-0.431,0.890,0.293,6.366,-10.000,1.191,57.0,59.0
278551,-0.521,0.817,0.312,-3.718,-6.718,3.359,58.0,59.0
278599,-0.431,0.875,0.304,-4.321,-14.084,-2.534,57.0,58.0
278691,-0.492,0.805,0.331,-3.687,-3.718,-4.542,58.0,58.0
278740,-0.500,0.888,0.353,4.321,1.351,-2.511,58.0,58.0
278797,-0.491,0.754,0.344,-4.511,4.160,0.954,0.0,58.0
278854,-0.509,0.785,0.310,-7.733,4.588,2.504,0.0,67.0
278919,-0.543,0.700,0.385,-2.145,-2.947,0.359,0.0,0.0
278976,-0.597,0.735,0.337,-11.489,-1.351,6.695,0.0,67.0
279035,-0.538,0.710,0.370,-16.427,6.282,3.229,0.0,60.0
279093,-0.456,0.760,0.355,3.611,0.183,8.145,0.0,60.0
279149,-0.583,0.794,0.361,-4.855,1.336,9.947,59.0,0.0
279198,-0.533,0.879,0.241,-12.710,1.168,10.779,59.0,59.0
279255,-0.516,0.729,0.344,12.740,-6.595,12.015,0.0,59.0
279304,-0.500,0.819,0.351,-5.527,3.649,11.687,61.0,59.0
279352,-0.538,0.772,0.368,-16.740,3.267,9.832,58.0,59.0
279409,-0.504,0.752,0.335,-6.053,7.786,11.038,55.0,0.0
279457,-0.584,0.849,0.239,-10.389,7.092,10.855,55.0,58.0
279508,-0.468,0.832,0.277,-0.435,-4.298,12.954,56.0,59.0
279558,-0.445,0.860,0.299,-8.115,-5.290,14.069,57.0,59.0
279606,-0.567,0.810,0.370,-4.687,-0.595,9.153,58.0,60.0
279663,-0.434,0.838,0.242,-15.000,0.290,9.855,0.0,59.0
279719,-0.549,0.712,0.430,17.794,-1.565,10.901,0.0,58.0
279777,-0.496,0.749,0.355,-3.298,-4.573,6.290,0.0,60.0
279833,-0.485,0.869,0.296,8.183,-4.496,8.618,0.0,59.0
279882,-0.435,0.861,0.320,-5.779,-6.702,12.603,50.0,58.0
279930,-0.472,0.734,0.480,10.183,-1.595,6.069,50.0,58.0
279982,-0.429,0.884,0.289,-11.603,4.137,3.618,51.0,59.0
280038,-0.494,0.838,0.320,-6.908,-1.435,10.931,0.0,59.0
280095,-0.526,0.779,0.356,-0.397,-4.740,7.084,0.0,59.0
280152,-0.471,0.584,0.427,6.481,-4.107,-4.092,0.0,57.0
280209,-0.475,0.957,0.290,-0.565,0.168,0.221,0.0,57.0
280265,-0.508,0.874,0.264,-10.053,2.840,5.122,0.0,57.0
280323,-0.446,0.835,0.308,0.634,-1.412,8.137,0.0,57.0
280371,-0.542,0.764,0.346,-6.069,0.763,3.824,51.0,57.0
280419,-0.557,0.842,0.247,-10.679,0.626,4.718,51.0,58.0
280470,-0.503,0.698,0.381,1.794,-7.832,8.695,48.0,58.0
280518,-0.538,0.862,0.253,-9.992,-0.557,6.466,53.0,57.0
280576,-0.562,0.772,0.365,-3.168,-1.656,8.489,50.0,0.0
280624,-0.436,0.766,0.317,-5.634,-1.710,5.733,50.0,61.0
280681,-0.543,0.832,0.332,4.053,-0.015,7.336,0.0,58.0
280729,-0.516,0.780,0.323,-6.473,-0.817,5.924,51.0,58.0
280785,-0.496,0.803,0.305,-2.084,-0.634,8.053,0.0,58.0
280843,-0.492,0.823,0.321,-4.595,-5.664,11.565,0.0,58.0
280891,-0.474,0.786,0.348,-2.489,-8.038,12.626,51.0,57.0
280943,-0.465,0.813,0.351,2.489,-12.496,13.771,50.0,58.0
280991,-0.453,0.804,0.365,10.389,-18.366,11.534,51.0,60.0
281049,-0.439,0.716,0.382,0.595,-22.076,-1.878,0.0,57.0
281105,-0.433,0.655,0.381,39.389,-26.344,-10.061,0.0,57.0
281162,-0.427,0.823,0.324,-9.641,-36.153,-49.275,0.0,57.0
281228,-0.487,0.657,0.392,-5.229,-26.443,-83.153,0.0,0.0
281293,-0.641,0.782,0.317,3.435,-7.626,-104.573,0.0,0.0
281350,-0.652,0.594,0.307,-2.534,6.153,-95.031,58.0,0.0
281451,-0.854,0.539,0.232,2.611,19.817,-113.824,59.0,0.0
281511,-0.989,0.409,0.301,-9.076,17.450,-105.099,61.0,0.0
281569,-1.025,0.338,0.323,10.641,11.580,-88.840,61.0,0.0
281626,-1.012,0.360,0.319,23.573,4.534,-64.557,63.0,0.0
281683,-0.928,0.368,0.292,12.977,-1.588,-40.550,68.0,0.0
281742,-0.947,0.386,0.290,8.145,0.901,-14.992,67.0,0.0
281799,-0.957,0.324,0.305,-19.824,-2.763,2.122,66.0,0.0
281857,-0.932,0.227,0.328,-19.229,-5.847,17.183,69.0,0.0
281915,-0.937,0.197,0.306,-15.664,-8.130,27.481,68.0,0.0
281972,-0.923,0.188,0.281,-16.580,-5.656,27.863,63.0,0.0
282033,-0.929,0.190,0.278,-26.260,-2.237,23.847,62.0,0.0
282090,-0.935,0.136,0.273,-17.718,-4.359,16.748,61.0,0.0
282147,-0.905,0.154,0.265,-0.824,-4.061,14.244,61.0,0.0
282205,-0.893,0.189,0.255,-2.794,-0.115,3.893,61.0,0.0
282262,-0.936,0.198,0.271,-0.565,5.878,-0.992,62.0,0.0
282319,-0.896,0.194,0.260,-4.405,5.053,1.046,60.0,0.0
282378,-0.901,0.228,0.278,11.282,6.611,-0.565,64.0,0.0
282435,-0.950,0.263,0.274,5.466,9.779,4.489,60.0,0.0
282489,-0.921,0.250,0.280,-9.122,12.221,2.374,20.0,0.0
282548,-0.939,0.248,0.290,-15.878,11.260,2.076,20.0,0.0
282603,-0.959,0.165,0.320,-9.847,-0.573,6.397,20.0,0.0
282658,-0.952,0.224,0.266,12.198,-6.382,6.786,23.0,0.0
282714,-0.929,0.250,0.264,6.603,-5.458,6.527,20.0,0.0
282769,-0.957,0.262,0.235,-6.611,-1.282,5.870,21.0,0.0
282824,-0.938,0.238,0.240,-18.328,0.802,5.267,20.0,0.0
282880,-0.918,0.179,0.258,-15.183,-0.053,9.718,23.0,0.0
282937,-0.919,0.187,0.245,-6.733,-2.359,9.389,60.0,0.0
283000,-0.987,0.215,0.236,0.901,-1.115,6.542,20.0,0.0
283058,-0.959,0.199,0.240,-21.611,-2.718,0.992,19.0,0.0
283114,-0.885,0.129,0.280,-0.252,-1.702,1.290,61.0,0.0
283170,-0.942,0.247,0.225,-3.954,2.817,-6.634,59.0,0.0
283226,-0.938,0.156,0.260,-17.748,-0.115,-7.435,19.0,0.0
283280,-0.889,0.149,0.257,8.084,-1.870,3.985,23.0,0.0
283334,-0.983,0.275,0.224,1.198,-1.412,1.664,20.0,0.0
283386,-0.939,0.162,0.256,-10.534,-1.718,5.351,20.0,159.0
283441,-0.929,0.207,0.244,-0.748,2.168,8.870,20.0,0.0
283495,-0.947,0.209,0.238,-17.321,4.931,5.519,19.0,0.0
283552,-0.942,0.140,0.264,-10.504,4.473,4.511,19.0,0.0
283607,-0.944,0.178,0.241,-5.267,2.031,6.412,19.0,0.0
283661,-0.976,0.190,0.234,-11.595,1.832,6.893,18.0,0.0
283715,-0.946,0.149,0.253,-10.481,-0.718,8.794,19.0,0.0
283769,-0.928,0.165,0.239,-3.374,-3.099,8.527,18.0,0.0
283825,-0.936,0.172,0.234,1.924,-3.374,8.107,18.0,0.0
283879,-0.950,0.192,0.232,-1.221,-2.214,8.603,18.0,0.0
283933,-0.951,0.188,0.235,-4.076,-1.794,5.473,22.0,0.0
283987,-0.966,0.160,0.232,3.351,-3.122,7.221,18.0,0.0
284045,-0.919,0.204,0.208,-2.466,-1.695,4.687,18.0,0.0
284099,-0.937,0.185,0.230,-3.176,2.244,3.183,18.0,0.0
284153,-0.935,0.164,0.242,-8.817,0.786,3.733,18.0,0.0
284209,-0.973,0.199,0.228,-3.679,0.076,6.084,18.0,0.0
284306,-0.935,0.199,0.230,2.634,0.962,6.206,23.0,0.0
284360,-0.945,0.192,0.239,-9.160,1.969,5.359,18.0,0.0
284416,-0.948,0.172,0.237,-3.481,1.076,4.893,17.0,0.0
284470,-0.955,0.168,0.234,-0.626,-1.710,6.321,23.0,0.0
284524,-0.942,0.179,0.209,-3.679,-2.458,7.290,18.0,0.0
284578,-0.965,0.176,0.220,2.565,-1.366,8.336,18.0,0.0
284637,-0.956,0.210,0.211,-6.061,-2.290,3.160,19.0,0.0
284691,-0.986,0.145,0.237,5.198,-7.786,3.534,18.0,0.0
284747,-0.916,0.222,0.222,23.229,-8.939,5.092,60.0,0.0
284803,-0.925,0.280,0.241,6.542,-3.069,7.405,20.0,0.0
284857,-1.097,0.159,0.293,-19.710,-8.336,16.664,19.0,0.0
284914,-0.914,0.079,0.346,-8.534,-18.511,11.366,59.0,0.0
284972,-0.922,0.157,0.306,16.412,-22.046,-10.496,63.0,0.0
285028,-0.925,0.243,0.260,10.473,-21.580,-9.863,62.0,0.0
285083,-0.917,0.207,0.239,-1.924,-19.969,-4.374,61.0,158.0
285144,-0.873,0.225,0.260,7.176,-14.038,3.473,62.0,0.0
285200,-0.907,0.260,0.221,-6.756,-6.023,5.031,44.0,0.0
285255,-0.889,0.146,0.264,-11.779,-2.557,12.198,46.0,0.0
285312,-0.944,0.173,0.238,-1.183,0.664,16.489,46.0,0.0
285369,-0.941,0.163,0.257,5.321,6.916,13.725,61.0,0.0
285425,-0.919,0.188,0.237,-7.076,15.847,3.863,45.0,0.0
285479,-0.878,0.193,0.235,-10.664,22.656,-1.634,62.0,158.0
285533,-0.937,0.203,0.257,-19.649,27.038,-0.160,23.0,159.0
285590,-0.964,0.206,0.245,-32.412,28.046,-2.702,23.0,0.0
285645,-1.002,0.144,0.280,-31.435,24.855,1.794,19.0,0.0
285700,-0.959,0.184,0.268,-22.389,19.443,0.275,18.0,0.0
285755,-0.971,0.172,0.270,-20.771,10.115,4.649,17.0,0.0
285809,-0.986,0.161,0.246,-15.863,1.160,11.466,19.0,0.0
285864,-0.944,0.149,0.241,-7.214,-8.053,17.206,17.0,0.0
285919,-0.991,0.185,0.236,-0.588,-15.336,19.641,17.0,0.0
285974,-0.965,0.161,0.202,-0.748,-18.099,24.282,16.0,0.0
286028,-0.963,0.213,0.183,-4.290,-16.244,26.237,17.0,0.0
286093,-0.991,0.187,0.177,-21.565,-14.282,31.649,17.0,162.0
286145,-0.954,0.183,0.194,-29.504,-17.359,43.618,17.0,162.0
286199,-0.808,0.204,0.225,-8.137,-18.588,31.939,16.0,0.0
286255,-0.831,0.234,0.246,23.321,-11.550,15.679,16.0,0.0
286309,-0.921,0.328,0.232,18.573,1.023,8.718,17.0,0.0
286364,-0.947,0.310,0.241,-14.206,8.046,6.763,17.0,0.0
286418,-0.882,0.224,0.281,-2.748,6.046,1.290,17.0,0.0
286474,-0.921,0.259,0.259,27.908,-0.519,-5.336,17.0,0.0
286528,-0.937,0.289,0.264,42.023,-4.443,-7.931,16.0,0.0
286586,-0.971,0.345,0.227,24.595,-5.557,-5.252,17.0,0.0
286641,-0.938,0.299,0.253,16.344,-8.763,-3.916,19.0,0.0
286696,-0.910,0.355,0.228,15.053,-2.344,1.237,19.0,0.0
286751,-0.976,0.597,0.073,-101.496,22.740,-0.580,19.0,0.0
286806,-1.100,0.160,0.085,-250.137,29.153,-11.145,17.0,0.0
286861,-1.138,-0.421,0.316,-179.008,-4.496,8.626,18.0,0.0
286926,-0.916,-0.217,0.340,22.748,-22.473,14.702,0.0,0.0
286982,-0.694,0.148,0.300,142.504,-15.603,-15.252,20.0,0.0
287034,-0.672,0.415,0.289,127.504,-39.344,-63.221,24.0,154.0
287133,-0.914,0.324,0.256,144.489,-13.641,-55.229,30.0,150.0
287190,-1.033,0.338,0.212,133.466,-12.817,-30.237,30.0,0.0
287245,-1.015,0.382,0.203,83.115,5.298,9.863,30.0,0.0
287302,-1.060,0.471,0.150,-40.344,13.061,36.519,51.0,0.0
287358,-1.004,0.107,0.333,-69.053,1.366,42.107,50.0,0.0
287415,-0.973,0.067,0.335,-15.198,-3.153,53.802,48.0,0.0
287472,-0.955,0.202,0.289,1.985,-2.557,55.664,46.0,0.0
287528,-0.900,0.268,0.267,-18.924,5.786,44.603,45.0,0.0
287584,-0.846,0.270,0.232,-39.947,12.924,32.931,22.0,0.0
287644,-0.894,0.237,0.253,-37.832,16.153,16.038,63.0,0.0
287699,-0.905,0.218,0.242,-25.252,14.901,6.550,23.0,0.0
287755,-0.846,0.240,0.249,-4.053,15.969,-2.664,18.0,0.0
287810,-0.925,0.279,0.205,2.962,18.221,-10.855,18.0,0.0
287867,-0.979,0.285,0.219,-0.916,15.489,-15.008,62.0,0.0
287923,-0.975,0.260,0.224,-5.855,10.641,-8.260,17.0,0.0
287977,-0.927,0.269,0.237,-6.763,7.443,-2.977,18.0,0.0
288032,-0.920,0.272,0.233,-1.198,1.710,-6.359,18.0,0.0
288088,-0.944,0.269,0.229,12.557,-2.038,-9.489,18.0,0.0
288146,-0.940,0.290,0.214,7.786,-3.023,0.611,18.0,0.0
288201,-0.968,0.294,0.196,-4.756,-4.840,8.771,19.0,0.0
288256,-0.939,0.265,0.190,-1.573,-7.443,9.786,19.0,0.0
288311,-0.930,0.281,0.188,2.122,-5.374,14.473,19.0,0.0
288369,-0.919,0.281,0.172,-11.931,-3.641,19.504,63.0,0.0
288424,-0.926,0.246,0.185,-8.985,-3.389,19.962,18.0,0.0
288482,-0.932,0.273,0.181,0.924,-1.107,14.916,58.0,0.0
288539,-0.954,0.289,0.177,-9.672,3.053,13.344,62.0,0.0
288596,-0.918,0.249,0.200,-18.511,3.053,10.824,61.0,0.0
288657,-0.961,0.232,0.200,-3.916,-0.389,4.885,59.0,0.0
288712,-0.921,0.258,0.205,10.282,-1.634,0.656,17.0,0.0
288768,-0.917,0.305,0.176,0.389,0.847,-3.260,16.0,0.0
288823,-0.917,0.275,0.197,-9.031,1.450,-6.443,17.0,0.0
288878,-0.938,0.249,0.204,5.389,-2.206,-7.305,17.0,0.0
288932,-0.941,0.300,0.178,10.321,-0.618,-4.573,18.0,0.0
288988,-0.942,0.298,0.183,-9.000,0.817,0.878,19.0,0.0
289043,-0.933,0.256,0.189,-7.290,-0.656,5.626,19.0,0.0
289098,-0.952,0.282,0.196,5.053,-1.878,6.198,19.0,0.0
289157,-0.953,0.295,0.173,-9.435,0.206,9.443,18.0,0.0
289212,-0.930,0.253,0.193,-16.191,0.015,12.718,17.0,0.0
289267,-0.948,0.237,0.196,-6.313,-5.519,11.328,18.0,0.0
289323,-0.937,0.250,0.193,11.084,-7.282,11.069,17.0,0.0
289378,-0.935,0.315,0.160,-2.191,-2.565,9.580,17.0,0.0
289433,-0.917,0.254,0.179,-16.840,-1.282,7.985,17.0,0.0
289488,-0.927,0.235,0.194,0.191,-2.840,5.122,16.0,0.0
289544,-0.950,0.288,0.184,5.374,-2.435,3.420,17.0,0.0
289599,-0.933,0.270,0.183,-9.458,-2.038,3.939,17.0,0.0
289657,-0.932,0.257,0.203,-0.145,-1.641,4.542,17.0,0.0
289713,-0.922,0.286,0.180,1.527,-1.305,1.908,17.0,0.0
289768,-0.946,0.276,0.180,-4.718,0.015,2.786,18.0,0.0
289823,-0.933,0.257,0.195,-2.603,-1.115,7.031,18.0,0.0
289879,-0.940,0.280,0.176,1.275,-1.710,5.527,17.0,0.0
289977,-0.926,0.297,0.178,-6.443,1.466,5.046,17.0,0.0
290032,-0.936,0.257,0.186,-11.366,0.496,6.824,17.0,0.0
290093,-0.963,0.271,0.187,-3.229,-1.176,5.000,19.0,0.0
290147,-0.922,0.258,0.195,-10.969,-4.649,3.298,17.0,0.0
290204,-0.892,0.236,0.194,7.092,-3.985,5.870,18.0,0.0
290258,-0.893,0.303,0.163,2.466,-1.496,5.580,17.0,0.0
290313,-0.932,0.278,0.169,-3.611,1.092,5.656,17.0,0.0
290368,-0.987,0.308,0.152,-6.069,3.649,6.458,30.0,0.0
290422,-0.964,0.243,0.191,-12.481,1.618,10.252,18.0,0.0
290477,-0.915,0.256,0.189,-1.260,0.099,8.382,17.0,0.0
290531,-0.933,0.275,0.173,-1.595,-0.947,3.702,17.0,0.0
290585,-0.958,0.260,0.177,-3.046,-1.603,3.130,17.0,0.0
290639,-0.939,0.276,0.177,-5.840,-2.588,4.809,17.0,0.0
290694,-0.922,0.259,0.185,-3.206,-2.710,3.863,16.0,0.0
290751,-0.944,0.281,0.168,-0.924,-2.802,2.221,16.0,0.0
290805,-0.934,0.269,0.176,-1.725,-2.290,3.252,17.0,0.0
290860,-0.923,0.277,0.174,-3.695,-1.878,6.221,17.0,0.0
290914,-0.939,0.264,0.167,-1.977,-2.893,7.481,19.0,0.0
290968,-0.953,0.284,0.168,2.191,-3.145,7.595,16.0,0.0
291022,-0.945,0.290,0.165,-5.519,-0.458,7.847,18.0,0.0
291077,-0.928,0.259,0.182,-11.687,0.656,8.031,19.0,0.0
291132,-0.942,0.239,0.189,-1.344,-2.550,5.947,17.0,0.0
291186,-0.958,0.284,0.176,6.618,-5.229,3.870,17.0,0.0
291244,-0.944,0.275,0.183,1.565,-3.931,5.924,17.0,0.0
291298,-0.920,0.280,0.170,-9.160,-1.550,5.130,17.0,0.0
291352,-0.930,0.260,0.198,-7.885,-1.763,2.802,17.0,0.0
291406,-0.946,0.252,0.189,3.092,-6.489,2.229,16.0,0.0
291461,-0.935,0.293,0.180,5.771,-4.939,7.099,17.0,0.0
291515,-0.915,0.290,0.174,-9.160,-1.443,5.458,17.0,0.0
291569,-0.955,0.258,0.187,-6.069,-1.527,3.908,17.0,0.0
291624,-0.944,0.260,0.197,4.176,-3.870,7.840,17.0,0.0
291679,-0.925,0.290,0.173,-7.038,-2.298,6.786,25.0,0.0
291736,-0.906,0.238,0.208,-7.458,-1.450,4.863,16.0,0.0
291790,-0.932,0.263,0.185,1.198,-1.550,2.046,17.0,0.0
291845,-0.936,0.277,0.180,-1.466,0.672,3.962,17.0,0.0
291900,-0.928,0.278,0.178,-7.824,4.527,6.168,17.0,0.0
291954,-0.955,0.239,0.178,-11.649,0.260,1.611,16.0,0.0
292008,-0.950,0.220,0.194,17.145,-4.221,6.672,17.0,0.0
292063,-0.936,0.343,0.147,2.420,-0.153,6.061,18.0,0.0
292118,-0.918,0.234,0.191,-21.802,2.137,4.733,17.0,0.0
292172,-0.953,0.211,0.194,3.092,-2.603,2.977,18.0,0.0
292230,-0.964,0.284,0.179,10.733,-4.496,2.756,16.0,0.0
292284,-0.921,0.301,0.166,-12.328,-0.221,3.656,17.0,0.0
292339,-0.921,0.231,0.190,-12.405,-0.366,2.588,17.0,0.0
292393,-0.952,0.242,0.188,7.023,-5.412,4.504,18.0,0.0
292448,-0.960,0.299,0.167,7.198,-4.267,6.916,17.0,0.0
292503,-0.921,0.281,0.168,-12.763,0.053,8.275,17.0,0.0
292557,-0.934,0.240,0.186,-10.069,-0.221,5.863,19.0,0.0
292612,-0.950,0.234,0.189,2.908,-4.756,5.924,16.0,0.0
292667,-0.937,0.292,0.175,1.130,-2.893,7.244,16.0,0.0
292767,-0.937,0.224,0.203,-3.870,-1.595,4.313,18.0,0.0
292823,-0.944,0.290,0.171,-0.420,-1.786,3.893,18.0,0.0
292877,-0.931,0.248,0.182,-5.168,-2.053,6.939,18.0,0.0
292932,-0.937,0.283,0.170,-4.260,-0.664,5.519,19.0,0.0
292986,-0.955,0.238,0.188,-6.031,-3.649,6.542,17.0,0.0
293041,-0.941,0.271,0.181,4.290,-3.565,6.710,17.0,0.0
293096,-0.938,0.268,0.179,-7.885,-2.824,6.611,18.0,0.0
293150,-0.922,0.243,0.191,-4.405,-1.389,5.038,17.0,0.0
293206,-0.940,0.254,0.177,0.695,-2.000,4.168,17.0,0.0
293260,-0.941,0.288,0.186,-4.573,0.366,4.008,17.0,0.0
293317,-0.941,0.246,0.193,-12.031,-0.779,5.397,18.0,0.0
293372,-0.931,0.231,0.184,5.534,-4.420,7.191,18.0,0.0
293427,-0.937,0.310,0.168,2.855,-2.313,5.550,17.0,0.0
293484,-0.928,0.258,0.179,-11.595,0.863,6.328,62.0,0.0
293539,-0.931,0.229,0.190,-2.183,-0.954,6.130,17.0,0.0
293594,-0.947,0.274,0.175,5.611,-1.695,5.481,17.0,0.0
293649,-0.951,0.279,0.178,-5.115,0.168,4.626,17.0,0.0
293703,-0.931,0.258,0.195,-6.725,1.305,5.153,17.0,0.0
293758,-0.932,0.249,0.200,-3.679,-0.977,3.405,17.0,0.0
293816,-0.962,0.258,0.182,2.603,-2.519,3.473,17.0,0.0
293871,-0.946,0.284,0.171,-3.366,0.374,3.412,17.0,0.0
293925,-0.924,0.253,0.187,-12.069,0.412,4.580,17.0,0.0
293981,-0.947,0.245,0.191,-2.611,-1.137,5.389,17.0,0.0
294035,-0.947,0.282,0.169,2.008,-2.947,7.389,17.0,0.0
294090,-0.938,0.287,0.176,-6.130,-0.321,7.214,18.0,0.0
294145,-0.934,0.266,0.186,-15.504,-0.496,9.031,16.0,0.0
294200,-0.941,0.242,0.170,-9.672,-1.977,7.489,17.0,0.0
294254,-0.938,0.254,0.171,-4.710,-1.382,6.168,17.0,0.0
294312,-0.938,0.287,0.154,-14.107,2.130,6.458,16.0,0.0
294368,-0.933,0.243,0.194,-23.176,0.405,5.725,17.0,0.0
294422,-0.947,0.225,0.191,-10.214,-0.351,5.275,17.0,0.0
294477,-0.949,0.266,0.192,-0.542,-0.298,5.901,17.0,0.0
294532,-0.935,0.278,0.183,-11.382,1.130,5.191,16.0,0.0
294585,-0.917,0.243,0.183,-19.061,0.977,2.573,16.0,163.0
294637,-0.941,0.225,0.194,-11.191,-1.550,1.527,16.0,162.0
294690,-0.943,0.257,0.195,1.794,-0.962,4.183,16.0,162.0
294743,-0.946,0.276,0.165,-7.214,0.092,5.893,16.0,163.0
294798,-0.930,0.259,0.181,-13.695,0.405,4.504,17.0,162.0
294851,-0.949,0.237,0.188,-8.473,-0.061,5.122,16.0,163.0
294903,-0.961,0.261,0.171,-8.046,0.145,7.061,16.0,163.0
294957,-0.944,0.239,0.175,-15.924,0.504,8.878,17.0,163.0
295009,-0.942,0.212,0.183,-12.832,-1.405,7.466,16.0,163.0
295062,-0.960,0.213,0.187,-1.198,-2.221,6.817,22.0,163.0
295114,-0.946,0.238,0.201,4.718,-3.221,8.748,17.0,164.0
295168,-0.935,0.240,0.194,1.221,-3.832,9.718,17.0,163.0
295220,-0.940,0.243,0.184,-2.588,-2.893,7.344,17.0,163.0
295276,-0.956,0.235,0.189,4.450,-2.595,4.313,20.0,163.0
295329,-0.944,0.254,0.177,3.588,-2.786,5.183,16.0,163.0
295382,-0.936,0.241,0.166,-1.153,-2.641,3.725,16.0,163.0
295435,-0.936,0.239,0.174,1.618,-2.351,0.924,17.0,163.0
