Timestamp(ms),AccelX(g),AccelY(g),AccelZ(g),GyroX(deg/s),GyroY(deg/s),GyroZ(deg/s),DistanceLeft(cm),DistanceRight(cm)
280783,0.254,0.842,0.527,13.573,-1.878,3.985,30.0,45.0
280836,0.267,0.770,0.498,25.534,5.351,2.504,158.0,46.0
280880,0.225,0.967,0.443,28.397,12.672,1.779,37.0,47.0
280931,0.227,0.884,0.476,-0.840,6.832,2.832,158.0,45.0
280975,0.254,0.865,0.451,4.595,5.130,1.748,30.0,46.0
281019,0.259,0.768,0.466,12.519,8.573,0.718,29.0,45.0
281063,0.267,0.821,0.468,29.137,17.595,-0.183,30.0,46.0
281107,0.198,0.776,0.482,48.130,17.779,-2.534,30.0,46.0
281149,0.197,0.933,0.406,58.656,15.908,-1.282,30.0,9.0
281200,0.183,0.912,0.398,41.397,15.847,0.473,158.0,51.0
281247,0.182,0.901,0.409,32.275,10.122,-1.779,29.0,52.0
281299,0.212,0.898,0.384,42.679,10.618,-0.145,158.0,55.0
281349,0.172,1.014,0.381,31.565,5.519,1.893,158.0,6.0
281402,0.195,0.942,0.364,25.176,-0.588,2.405,159.0,81.0
281451,0.203,0.896,0.345,34.084,5.473,-2.626,159.0,5.0
281504,0.151,0.997,0.290,31.878,3.916,-4.252,159.0,79.0
281558,0.153,0.930,0.302,29.634,-6.107,-1.481,159.0,80.0
281612,0.174,0.927,0.303,46.710,-11.298,1.580,159.0,79.0
281658,0.208,0.980,0.258,52.328,-11.443,3.649,37.0,79.0
281713,0.195,1.015,0.219,33.931,-15.626,7.023,159.0,59.0
281766,0.190,0.982,0.236,21.557,-21.992,11.038,159.0,78.0
281820,0.249,0.959,0.242,38.565,-28.305,20.061,159.0,78.0
281874,0.322,1.016,0.190,43.786,-26.947,21.504,159.0,78.0
281927,0.361,1.109,0.101,11.954,-14.611,26.954,158.0,78.0
281976,0.386,0.977,0.148,-10.641,-6.397,26.878,158.0,6.0
282025,0.360,0.955,0.134,-1.374,2.718,26.947,158.0,9.0
282075,0.378,0.897,0.143,1.817,7.031,26.374,157.0,6.0
282127,0.372,0.881,0.145,2.351,9.817,29.565,156.0,8.0
282176,0.407,0.861,0.169,11.015,8.534,30.443,155.0,7.0
282225,0.427,0.883,0.184,19.763,3.160,31.260,155.0,10.0
282274,0.466,0.914,0.139,28.328,2.137,28.084,155.0,9.0
282323,0.458,0.931,0.122,32.237,14.038,32.366,155.0,10.0
282374,0.475,0.910,0.107,21.992,23.992,32.511,154.0,12.0
282423,0.473,0.876,0.101,28.954,34.237,35.359,154.0,17.0
282473,0.495,0.908,0.114,20.443,34.305,35.534,153.0,17.0
282522,0.470,0.817,0.157,24.908,27.924,28.405,153.0,17.0
282574,0.474,0.866,0.138,13.069,24.893,22.908,152.0,16.0
282635,0.502,0.830,0.167,10.527,23.863,16.183,152.0,0.0
282685,0.500,0.823,0.198,18.328,17.023,7.855,152.0,17.0
282744,0.536,0.884,0.169,14.313,18.840,6.221,152.0,0.0
282795,0.569,0.882,0.156,9.328,21.725,15.458,152.0,19.0
282845,0.583,0.869,0.188,3.939,25.443,15.168,160.0,23.0
282895,0.584,0.832,0.212,3.947,27.863,18.718,161.0,23.0
282955,0.557,0.746,0.255,9.687,30.107,12.069,162.0,0.0
283009,0.543,0.734,0.269,18.046,24.313,9.977,0.0,23.0
283063,0.588,0.821,0.228,24.298,18.267,7.611,163.0,23.0
283113,0.533,0.739,0.245,28.267,15.053,8.939,162.0,17.0
283163,0.601,0.839,0.215,38.153,10.519,9.053,163.0,21.0
283213,0.571,0.699,0.269,41.893,12.878,-1.107,151.0,21.0
283262,0.484,0.931,0.180,47.740,3.374,2.260,151.0,17.0
283356,0.538,0.919,0.088,54.458,0.977,-17.328,151.0,18.0
283405,0.516,0.854,0.158,50.756,0.664,-24.985,151.0,17.0
283455,0.524,0.994,0.073,33.794,6.229,-20.710,151.0,16.0
283504,0.492,0.885,0.206,19.374,-0.649,-20.244,152.0,16.0
283557,0.510,1.060,0.147,-21.107,-8.481,-23.107,151.0,16.0
283607,0.243,0.671,0.277,-4.321,-33.977,-23.679,151.0,13.0
283657,0.334,1.148,0.120,-36.008,-57.099,-36.443,151.0,13.0
283706,0.295,0.824,0.053,-24.122,-73.130,-42.076,152.0,11.0
283755,0.408,1.337,-0.271,-91.573,-48.603,-16.794,152.0,11.0
283805,0.434,0.935,-0.031,-148.267,-33.092,-1.489,152.0,13.0
283855,0.407,0.781,0.150,-112.863,-7.420,16.527,152.0,16.0
283906,0.417,0.580,0.387,-81.176,4.947,-3.641,156.0,17.0
283958,0.448,0.709,0.520,-11.947,24.947,-14.809,0.0,16.0
284014,0.356,0.589,0.711,-14.130,-3.763,-38.015,170.0,50.0
284064,0.429,0.626,0.628,83.198,-21.069,-38.794,157.0,17.0
284114,0.379,0.899,0.438,82.924,-27.710,-44.588,156.0,16.0
284167,0.439,0.952,0.333,83.550,-20.649,-28.000,157.0,52.0
284220,0.378,1.060,0.247,55.115,-6.817,-16.321,157.0,80.0
284274,0.380,1.044,0.304,7.038,-12.534,-5.290,158.0,81.0
284328,0.396,0.883,0.344,0.305,-7.809,-1.702,158.0,79.0
284382,0.357,0.914,0.339,32.496,0.672,4.901,158.0,80.0
284434,0.350,0.941,0.244,34.908,4.718,3.794,158.0,50.0
284491,0.374,1.002,0.263,23.015,9.962,-4.015,159.0,79.0
284544,0.323,0.943,0.296,15.672,12.939,2.023,159.0,47.0
284598,0.305,0.972,0.296,-9.458,6.756,14.198,158.0,80.0
284650,0.281,0.846,0.307,-6.634,4.939,21.740,159.0,48.0
284701,0.301,0.861,0.298,15.489,2.031,22.595,158.0,46.0
284753,0.261,0.898,0.256,31.511,-2.695,14.611,158.0,49.0
284808,0.294,0.898,0.257,22.733,-6.366,6.267,158.0,81.0
284862,0.311,0.898,0.263,21.985,-8.969,3.840,159.0,76.0
284915,0.360,0.938,0.267,28.473,-14.191,1.115,159.0,80.0
284974,0.409,0.908,0.229,19.733,-10.313,1.931,159.0,79.0
285027,0.415,0.940,0.204,21.901,-6.145,3.672,159.0,78.0
285081,0.397,0.925,0.209,13.336,-8.061,3.214,160.0,78.0
285135,0.399,0.916,0.198,19.290,-5.397,6.878,160.0,77.0
285190,0.387,0.944,0.190,16.504,-6.649,6.496,160.0,77.0
285243,0.370,0.944,0.165,17.206,-4.962,4.885,160.0,77.0
285297,0.425,0.912,0.170,15.076,0.023,1.115,160.0,77.0
285351,0.434,0.898,0.167,12.176,5.298,-4.435,160.0,76.0
285405,0.418,0.883,0.183,16.611,3.550,-4.267,161.0,76.0
285463,0.410,0.966,0.150,20.939,6.878,1.664,161.0,76.0
285516,0.363,0.987,0.145,14.702,8.443,5.351,161.0,77.0
285569,0.359,0.938,0.157,7.397,10.305,8.153,161.0,45.0
285623,0.359,0.906,0.167,13.863,8.794,2.924,161.0,77.0
285677,0.372,0.923,0.176,14.771,5.954,0.221,161.0,77.0
285731,0.363,0.937,0.186,15.366,2.565,0.427,161.0,77.0
285790,0.375,0.949,0.171,13.344,3.748,1.359,161.0,76.0
285843,0.378,0.927,0.176,11.672,4.740,-0.198,161.0,76.0
285896,0.358,0.937,0.168,12.076,3.718,2.084,161.0,76.0
285952,0.382,0.927,0.174,13.748,1.992,3.511,161.0,77.0
286047,0.369,0.968,0.170,9.427,3.969,6.221,160.0,46.0
286098,0.360,0.922,0.169,5.550,4.153,7.084,160.0,47.0
286151,0.398,0.884,0.166,11.763,4.557,4.817,160.0,78.0
286203,0.388,0.906,0.157,13.931,6.771,3.634,160.0,78.0
286256,0.394,0.906,0.177,13.061,5.229,1.756,160.0,47.0
286307,0.373,0.934,0.163,20.206,6.779,3.206,160.0,46.0
286358,0.368,0.969,0.180,11.725,5.290,6.878,160.0,44.0
286409,0.364,0.897,0.211,13.198,3.092,6.885,160.0,46.0
286462,0.367,0.943,0.191,13.221,1.336,2.565,160.0,45.0
286515,0.368,0.926,0.189,8.321,-3.389,1.954,160.0,45.0
286566,0.366,0.919,0.174,13.046,-4.481,3.107,160.0,47.0
286619,0.395,0.923,0.155,8.420,-4.595,4.244,160.0,78.0
286672,0.406,0.899,0.159,12.947,-5.924,1.885,160.0,78.0
286726,0.413,0.941,0.160,14.237,-5.183,2.710,160.0,79.0
286779,0.417,0.943,0.156,8.855,-0.817,4.405,160.0,79.0
286830,0.423,0.877,0.167,9.458,-0.725,3.855,160.0,45.0
286881,0.400,0.891,0.141,14.443,-2.153,5.160,160.0,46.0
286936,0.416,0.923,0.143,18.695,-1.115,3.725,160.0,43.0
286987,0.414,0.958,0.141,15.519,2.137,6.168,160.0,45.0
287038,0.404,0.924,0.178,9.779,2.748,4.534,160.0,43.0
287089,0.402,0.931,0.163,9.466,1.115,3.038,160.0,46.0
287140,0.407,0.901,0.161,9.595,-0.359,2.832,160.0,46.0
287193,0.419,0.906,0.148,9.580,-1.252,0.939,160.0,43.0
287244,0.439,0.912,0.150,13.611,-0.527,-0.260,160.0,43.0
287295,0.430,0.932,0.141,11.557,2.901,1.542,160.0,45.0
287346,0.429,0.911,0.150,9.740,5.008,6.473,160.0,43.0
287400,0.415,0.902,0.153,12.260,6.992,7.969,160.0,44.0
287452,0.428,0.891,0.156,11.565,4.305,4.519,160.0,45.0
287503,0.415,0.908,0.154,15.496,4.344,3.832,160.0,44.0
287554,0.414,0.907,0.151,14.053,5.672,3.893,160.0,43.0
287606,0.412,0.888,0.157,15.550,6.634,2.298,160.0,45.0
287657,0.414,0.914,0.159,18.076,3.809,-2.107,160.0,46.0
287709,0.408,0.933,0.154,14.824,3.702,2.885,161.0,46.0
287761,0.413,0.884,0.154,15.420,0.802,3.511,161.0,46.0
287812,0.441,0.910,0.137,20.099,1.336,0.389,161.0,47.0
287866,0.439,0.928,0.144,17.397,5.168,-1.969,161.0,46.0
287919,0.408,0.951,0.133,12.809,7.084,1.000,161.0,45.0
287971,0.416,0.922,0.141,15.107,4.603,1.458,161.0,46.0
288023,0.408,0.939,0.135,13.466,3.069,2.336,161.0,57.0
288074,0.410,0.911,0.145,9.191,1.595,4.107,161.0,46.0
288125,0.414,0.905,0.135,15.840,1.679,1.092,161.0,45.0
288177,0.400,0.946,0.121,10.099,2.420,0.412,161.0,44.0
288229,0.415,0.897,0.139,13.023,2.634,1.046,161.0,43.0
288280,0.414,0.912,0.131,14.756,2.450,0.115,161.0,43.0
288334,0.414,0.925,0.140,13.824,1.397,0.405,161.0,44.0
288387,0.404,0.931,0.137,10.443,2.038,1.565,161.0,44.0
288438,0.420,0.911,0.150,11.328,1.458,-0.504,161.0,44.0
288489,0.410,0.943,0.126,11.290,1.794,1.809,161.0,43.0
288541,0.420,0.914,0.128,8.015,1.618,4.634,161.0,43.0
288592,0.428,0.905,0.135,13.641,1.954,5.580,161.0,44.0
288689,0.424,0.910,0.132,12.695,2.687,4.084,161.0,77.0
288741,0.420,0.925,0.138,12.847,5.076,3.550,161.0,45.0
288792,0.410,0.911,0.129,10.626,5.450,3.366,161.0,45.0
288847,0.408,0.911,0.132,12.634,3.992,2.977,160.0,44.0
288899,0.426,0.920,0.142,12.763,2.038,-0.351,161.0,46.0
288951,0.439,0.925,0.136,12.267,4.397,-0.779,161.0,46.0
289003,0.421,0.914,0.136,9.076,4.802,1.244,160.0,45.0
289054,0.401,0.926,0.112,12.893,4.435,3.885,160.0,46.0
289107,0.408,0.915,0.135,16.328,6.985,2.565,160.0,76.0
289160,0.392,0.924,0.150,7.153,6.450,1.824,160.0,45.0
289211,0.453,0.886,0.179,19.145,10.328,-5.687,160.0,43.0
289263,0.415,0.957,0.136,27.450,24.405,-9.634,160.0,43.0
289314,0.394,1.020,0.126,0.824,24.893,-7.344,160.0,45.0
289363,0.413,0.952,0.129,2.908,24.840,-14.908,160.0,46.0
289418,0.381,0.973,0.142,8.786,35.168,-9.130,160.0,77.0
289469,0.352,0.865,0.139,14.733,42.130,-15.779,160.0,46.0
289523,0.262,0.940,0.152,27.076,30.481,-17.313,160.0,79.0
289577,0.253,0.877,0.196,48.740,5.580,-22.977,160.0,78.0
289631,0.258,1.008,0.092,62.794,1.954,-23.802,160.0,77.0
289684,0.252,1.020,0.100,57.374,5.802,-29.244,160.0,75.0
289738,0.200,1.089,0.002,36.252,17.344,-34.427,161.0,75.0
289795,0.168,0.985,0.056,4.351,10.847,-26.611,161.0,75.0
289848,0.176,0.931,0.096,22.214,4.634,-20.481,161.0,74.0
289899,0.156,0.994,0.044,38.855,-0.473,-16.382,160.0,26.0
289952,0.148,0.994,0.032,25.221,-4.275,-16.191,160.0,74.0
290007,0.072,1.076,-0.026,24.496,1.504,-11.740,161.0,74.0
290060,0.070,0.984,0.019,23.191,3.336,-11.679,161.0,73.0
290113,0.060,1.040,-0.042,18.046,1.580,-12.595,161.0,73.0
290167,0.086,1.002,0.027,10.389,-5.252,-9.611,161.0,73.0
290221,0.068,0.998,0.062,-6.137,-16.046,-14.931,161.0,73.0
290277,0.053,1.110,0.031,8.947,-13.298,-9.282,161.0,73.0
290331,0.085,1.074,0.048,-18.466,-13.458,-0.481,161.0,74.0
290383,0.109,1.071,0.090,-36.267,-13.786,1.015,160.0,57.0
290438,0.147,1.042,0.139,-27.893,-14.023,7.473,159.0,76.0
290491,0.099,1.002,0.167,-27.634,-5.641,6.931,159.0,77.0
290545,0.089,1.022,0.182,-37.443,-4.565,2.969,159.0,79.0
290598,0.035,0.862,0.281,-18.359,-5.885,-1.046,158.0,77.0
290653,0.022,0.966,0.219,-13.115,-7.481,-1.198,158.0,79.0
290707,-0.090,0.985,0.196,13.450,-10.565,4.656,158.0,79.0
290763,-0.096,1.011,0.143,8.092,2.489,17.076,157.0,79.0
290818,-0.107,1.172,0.108,0.076,4.649,22.847,157.0,80.0
290870,-0.056,0.917,0.257,-33.870,1.450,22.107,156.0,58.0
290924,0.019,0.862,0.314,13.969,-1.435,7.733,156.0,82.0
290977,0.185,0.900,0.237,25.443,1.328,8.847,156.0,81.0
291032,0.324,0.787,0.114,94.023,30.954,8.275,156.0,81.0
291086,0.337,0.999,-0.012,124.412,59.947,11.153,157.0,79.0
291139,0.102,1.121,0.067,28.481,58.695,5.893,157.0,77.0
291193,0.006,0.909,0.262,32.466,28.802,3.840,158.0,77.0
291247,0.020,0.961,0.212,70.931,-5.550,-12.504,158.0,23.0
291301,0.056,1.210,0.007,57.947,-10.656,-10.595,159.0,76.0
291398,0.069,1.104,0.033,36.687,-17.595,-3.305,161.0,75.0
291452,0.121,1.050,0.024,15.351,-19.420,-2.252,161.0,75.0
291506,0.068,1.021,0.017,28.649,-8.863,-5.641,161.0,75.0
291557,0.073,1.140,-0.007,-2.565,-11.229,-0.321,161.0,19.0
291610,0.140,0.992,0.083,-1.115,-19.901,3.191,161.0,65.0
291663,0.116,1.064,0.066,-27.550,-13.412,-2.168,161.0,64.0
291720,0.078,1.099,0.056,-4.771,-6.603,6.763,160.0,57.0
291772,0.066,1.023,0.079,-32.061,-2.511,8.519,160.0,57.0
291826,0.099,1.019,0.079,-17.412,2.954,13.504,159.0,74.0
291879,0.047,0.923,0.112,-26.809,6.107,10.519,159.0,57.0
291933,0.046,0.967,0.147,-17.824,7.015,5.725,158.0,77.0
291987,-0.014,0.886,0.157,7.916,-0.084,13.557,158.0,76.0
292041,0.056,1.106,0.103,16.420,-5.275,4.763,158.0,76.0
292094,0.062,0.974,0.143,-17.412,-6.542,8.847,158.0,77.0
292149,0.153,1.040,0.153,-15.687,1.221,11.733,158.0,77.0
292206,0.105,0.941,0.212,-36.809,6.046,2.221,158.0,78.0
292260,0.061,1.065,0.241,8.420,11.847,14.740,158.0,78.0
292307,0.039,0.867,0.270,16.427,5.252,6.511,37.0,79.0
292354,0.128,1.030,0.194,40.718,3.817,5.557,38.0,78.0
292401,0.201,0.894,0.219,35.527,1.298,1.069,37.0,78.0
292455,0.239,1.009,0.186,37.977,9.779,4.947,158.0,78.0
292508,0.236,0.869,0.268,15.763,9.405,1.557,158.0,77.0
292562,0.072,1.164,0.202,20.840,7.626,-0.687,159.0,77.0
292622,0.075,0.909,0.389,4.176,-8.176,-2.740,159.0,76.0
292678,0.051,1.183,0.195,18.634,-16.786,0.328,159.0,77.0
292731,0.107,0.966,0.221,-45.099,-25.702,1.481,159.0,79.0
292784,0.102,0.818,0.297,-6.824,-15.885,-4.878,158.0,79.0
292837,-0.027,1.059,0.154,35.847,-9.076,6.412,158.0,79.0
292890,0.075,1.161,0.042,12.160,-1.145,20.679,158.0,79.0
292941,0.159,1.015,0.082,22.038,14.786,23.076,157.0,48.0
292995,0.242,0.920,0.075,32.557,36.672,22.229,157.0,79.0
293048,0.212,0.919,0.126,40.519,58.191,8.366,157.0,78.0
293101,0.214,0.851,0.263,26.740,38.977,2.313,157.0,78.0
293156,0.076,1.012,0.312,48.466,20.481,9.038,158.0,66.0
293202,0.158,0.987,0.341,34.534,0.687,7.267,37.0,78.0
293255,0.190,0.994,0.249,30.176,2.328,-1.771,158.0,77.0
293308,0.153,1.030,0.148,25.298,1.397,-10.511,158.0,76.0
293361,0.178,0.971,0.131,15.466,1.656,-11.031,158.0,76.0
293414,0.149,1.033,0.132,22.084,-4.221,-4.344,159.0,76.0
293468,0.202,0.959,0.147,10.336,2.794,-1.679,159.0,76.0
293520,0.165,1.032,0.117,13.771,9.527,-7.840,159.0,76.0
293573,0.100,1.183,0.157,-3.580,1.626,0.679,159.0,76.0
293629,0.038,1.015,0.195,-30.328,-5.649,-6.695,158.0,76.0
293683,0.038,0.895,0.267,-21.420,-14.840,-9.847,158.0,76.0
293735,0.058,0.979,0.195,0.145,-22.992,-6.542,158.0,57.0
293787,0.128,0.998,0.184,5.885,-21.061,-3.908,158.0,76.0
293840,0.151,0.963,0.187,-6.122,-11.847,-2.282,158.0,65.0
293886,0.165,0.946,0.260,-25.298,-22.397,-1.779,37.0,77.0
293933,0.061,0.981,0.297,-4.626,-18.160,6.969,39.0,77.0
293979,0.075,1.035,0.214,16.947,-6.687,13.412,37.0,77.0
294069,0.202,0.934,0.124,52.252,27.496,8.076,37.0,78.0
294124,0.178,1.008,0.104,35.481,33.252,1.718,158.0,77.0
294177,0.163,0.921,0.242,28.305,27.466,2.840,158.0,78.0
294231,0.102,1.059,0.228,21.336,19.092,-0.618,158.0,77.0
294284,0.071,1.016,0.241,-12.168,11.031,-5.534,157.0,77.0
294337,0.050,0.887,0.292,8.710,10.389,-6.718,158.0,76.0
294390,0.006,1.071,0.181,3.656,0.634,0.267,158.0,76.0
294444,0.007,0.964,0.308,-9.084,-15.282,-5.824,158.0,76.0
294497,0.029,0.961,0.299,0.626,-24.718,-7.313,158.0,77.0
294543,0.081,0.916,0.308,-6.977,-31.962,-7.847,39.0,77.0
294592,0.092,1.014,0.254,-2.321,-29.718,-6.450,36.0,77.0
294638,0.093,0.978,0.257,3.092,-22.481,3.443,38.0,78.0
294691,0.031,0.976,0.261,13.718,-10.282,26.397,158.0,79.0
294745,0.061,0.980,0.306,7.656,-8.389,13.649,157.0,79.0
294797,0.163,0.972,0.305,3.969,-13.489,15.534,157.0,58.0
294851,0.210,0.881,0.276,13.427,7.038,-1.153,156.0,81.0
294904,0.196,0.910,0.219,24.863,28.870,-10.756,156.0,80.0
294958,0.176,0.929,0.202,40.947,42.992,-12.053,157.0,80.0
295011,0.152,1.032,0.227,18.267,28.473,-22.107,157.0,79.0
295067,0.100,0.993,0.241,20.992,27.802,-12.557,157.0,79.0
295121,0.054,0.952,0.265,7.115,15.069,-12.550,158.0,79.0
295175,0.077,1.008,0.250,10.992,8.519,-2.099,158.0,79.0
295228,0.042,0.977,0.258,-4.916,2.160,-6.687,158.0,79.0
295281,0.108,0.973,0.302,23.710,4.168,6.779,158.0,79.0
295334,0.051,1.082,0.235,-1.511,5.084,6.702,158.0,78.0
295387,0.090,0.890,0.336,-3.122,2.237,15.397,158.0,57.0
295441,0.027,0.906,0.312,19.504,3.626,12.679,158.0,79.0
295487,0.041,1.035,0.241,32.626,5.214,16.534,37.0,79.0
295543,0.071,1.059,0.183,8.817,6.481,4.084,158.0,79.0
295597,0.057,0.993,0.226,-22.328,4.939,0.786,158.0,79.0
295644,0.086,1.070,0.273,-6.366,6.985,3.183,39.0,80.0
295697,0.029,0.941,0.347,-31.015,-1.947,-13.389,157.0,80.0
295750,0.055,0.936,0.390,4.863,-3.359,-6.527,157.0,80.0
295800,0.050,1.019,0.341,-17.916,-6.534,0.679,157.0,9.0
295849,0.123,0.881,0.414,-7.061,-0.328,0.351,157.0,6.0
295899,0.086,0.855,0.431,-7.924,2.626,-9.206,156.0,6.0
295947,0.047,0.862,0.397,22.550,14.458,-12.580,156.0,6.0
295993,-0.054,0.881,0.362,17.985,14.519,-10.504,37.0,6.0
296042,-0.076,1.010,0.312,31.496,12.519,-8.053,156.0,6.0
296091,-0.133,0.955,0.251,10.000,9.435,-0.733,156.0,5.0
296140,-0.055,0.898,0.359,6.939,9.168,8.229,156.0,7.0
296189,0.024,0.966,0.387,13.550,10.702,9.282,156.0,6.0
296239,0.020,0.874,0.414,19.725,7.176,10.389,157.0,5.0
296288,-0.050,0.898,0.400,29.656,8.939,15.649,157.0,5.0
296337,-0.089,0.969,0.320,38.412,4.260,2.351,156.0,5.0
296386,-0.091,0.984,0.269,15.160,-0.198,18.855,157.0,5.0
296438,-0.025,0.963,0.320,15.344,-4.122,0.130,157.0,4.0
296487,0.032,1.017,0.305,8.321,-0.687,19.443,156.0,5.0
296537,0.084,0.891,0.370,-1.099,-3.099,7.359,157.0,5.0
296586,0.055,0.877,0.335,21.053,-0.931,13.740,157.0,4.0
296679,0.027,0.973,0.304,28.702,-8.252,4.687,157.0,5.0
296728,0.034,0.960,0.331,39.756,-12.885,9.160,158.0,4.0
296777,0.086,1.030,0.292,44.603,-11.214,19.282,157.0,5.0
296826,0.147,1.058,0.281,26.779,-12.420,22.252,157.0,5.0
296877,0.178,1.025,0.287,18.023,-10.756,31.405,157.0,9.0
296933,0.208,0.964,0.301,5.412,-4.702,35.595,157.0,81.0
296985,0.219,0.926,0.268,35.435,-2.511,31.519,156.0,46.0
297034,0.237,0.889,0.233,39.275,-0.069,33.069,156.0,9.0
297086,0.297,1.015,0.160,53.702,-1.008,38.672,156.0,50.0
297137,0.362,1.028,0.116,37.969,7.412,49.000,155.0,16.0
297186,0.372,1.012,0.117,17.084,25.466,62.679,155.0,11.0
297236,0.435,0.947,0.144,27.771,34.656,73.580,154.0,20.0
297287,0.449,0.810,0.134,45.870,44.160,71.305,153.0,50.0
297337,0.482,0.949,0.083,31.321,43.069,73.176,153.0,16.0
297391,0.504,0.771,0.116,44.328,40.046,64.618,153.0,18.0
297441,0.567,0.726,0.120,46.702,32.695,52.733,153.0,19.0
297491,0.617,0.712,0.081,67.702,28.924,43.924,153.0,19.0
297540,0.646,0.772,0.046,75.305,28.183,43.954,154.0,17.0
297590,0.633,0.643,0.107,63.672,34.664,16.031,154.0,17.0
297640,0.549,0.828,0.051,86.389,28.328,-4.870,153.0,19.0
297691,0.406,0.994,0.102,18.870,8.496,-28.008,154.0,16.0
297741,0.382,0.860,0.104,37.008,-25.679,-25.656,153.0,21.0
297793,0.509,1.133,-0.075,-7.092,-37.008,-20.962,154.0,15.0
297843,0.545,0.998,-0.066,-15.519,-26.969,-21.107,154.0,15.0
297893,0.484,0.874,0.012,-41.656,-33.679,-7.374,154.0,16.0
297944,0.566,0.719,0.063,-33.779,-59.221,-27.595,154.0,16.0
297994,0.707,1.004,-0.191,-180.962,-47.718,-56.794,154.0,17.0
298044,0.680,0.664,-0.040,-176.557,-14.588,-56.115,155.0,16.0
298094,0.618,1.029,0.063,-194.794,37.756,-14.000,156.0,16.0
298139,0.491,0.726,0.479,-177.588,53.046,-3.901,37.0,50.0
298193,0.346,0.594,0.638,-125.542,50.435,10.863,0.0,29.0
298242,0.313,0.529,0.801,-82.405,31.565,0.290,31.0,50.0
298295,0.238,0.458,0.856,-33.779,16.321,-1.840,0.0,37.0
298340,0.336,0.551,0.779,9.718,16.023,-1.115,25.0,55.0
298384,0.254,0.656,0.775,17.221,18.664,3.885,26.0,29.0
298427,0.293,0.729,0.766,-9.107,17.824,7.450,25.0,29.0
298470,0.256,0.621,0.798,-41.374,14.763,3.931,25.0,29.0
298514,0.231,0.406,0.933,-5.107,13.733,9.153,23.0,28.0
298557,0.198,0.602,0.886,-2.015,7.450,7.740,23.0,30.0
298600,0.222,0.461,0.882,-6.015,1.000,2.977,24.0,29.0
298647,0.243,0.536,0.865,-8.565,1.031,1.382,32.0,30.0
298690,0.300,0.435,0.856,-4.824,3.977,-1.229,26.0,28.0
298734,0.316,0.428,0.849,0.817,0.565,-5.695,24.0,29.0
298777,0.314,0.373,0.810,15.290,-7.229,-9.427,22.0,35.0
298821,0.315,0.360,0.855,39.191,-22.168,-14.481,30.0,32.0
298865,0.212,0.384,0.848,96.908,-37.947,-22.435,30.0,37.0
298909,0.225,0.682,0.704,97.214,-47.626,-29.038,25.0,38.0
298954,0.366,0.538,0.655,96.740,-37.603,-39.588,30.0,37.0
299008,0.478,0.651,0.569,114.634,-6.038,-48.611,184.0,47.0
299056,0.393,0.863,0.466,99.397,17.473,-42.443,30.0,45.0
299149,0.317,0.848,0.486,70.099,18.863,-31.374,33.0,43.0
299193,0.240,0.958,0.490,48.824,15.634,-32.748,33.0,43.0
299237,0.197,0.854,0.507,47.061,8.366,-32.427,38.0,43.0
299288,0.189,0.927,0.456,48.496,10.695,-22.458,158.0,44.0
299330,0.155,1.043,0.356,28.710,10.290,-21.061,36.0,16.0
299374,0.142,0.988,0.425,6.924,14.130,-13.061,35.0,44.0
299416,0.112,1.034,0.376,6.290,11.519,-17.618,38.0,6.0
299459,0.149,0.953,0.431,-13.382,13.099,-2.328,43.0,8.0
299510,0.117,0.880,0.452,-7.412,12.947,-7.237,157.0,6.0
299552,0.093,0.820,0.446,-4.405,9.779,-1.221,32.0,5.0
299593,0.099,0.734,0.482,16.061,12.092,-4.328,32.0,6.0
299635,0.043,0.792,0.478,35.473,8.977,-10.023,33.0,6.0
299677,0.060,0.897,0.423,38.740,3.267,-12.687,38.0,6.0
299725,0.023,0.991,0.388,35.809,2.992,-9.260,157.0,5.0
299774,0.059,0.981,0.394,12.748,0.397,-4.359,158.0,4.0
299823,-0.006,0.940,0.391,16.282,3.275,1.076,158.0,4.0
299865,-0.046,0.955,0.327,24.969,14.573,5.244,39.0,4.0
299917,-0.125,0.860,0.336,14.206,11.061,5.038,157.0,4.0
299958,-0.113,0.867,0.377,41.084,6.756,9.527,37.0,5.0
300007,-0.078,1.004,0.323,38.328,2.710,4.221,158.0,3.0
300056,-0.039,0.952,0.355,29.710,0.191,8.947,158.0,4.0
300104,-0.024,1.028,0.330,38.634,-0.092,15.405,158.0,3.0
300153,0.023,1.054,0.315,11.985,-3.015,19.954,158.0,3.0
300201,0.079,0.978,0.323,6.023,-4.763,21.015,158.0,3.0
300251,0.076,0.919,0.350,6.168,-5.489,9.832,157.0,4.0
300293,0.113,0.990,0.358,19.107,-4.290,13.031,44.0,4.0
300345,0.086,1.095,0.299,-7.794,-10.137,15.550,158.0,4.0
300387,0.186,0.996,0.344,-62.290,-16.168,11.702,40.0,5.0
300429,0.178,0.818,0.460,-42.824,-12.939,5.863,42.0,6.0
300471,0.144,0.808,0.443,-5.374,-10.130,11.557,40.0,6.0
300514,0.225,0.843,0.444,-0.450,-3.214,7.687,38.0,7.0
300556,0.103,0.808,0.396,21.779,-3.550,14.931,39.0,10.0
300599,0.204,0.864,0.440,30.153,-10.038,18.115,46.0,10.0
300642,0.240,0.829,0.454,75.672,-12.160,27.229,44.0,10.0
300684,0.292,0.980,0.356,89.802,-10.000,44.733,38.0,9.0
300736,0.377,1.004,0.295,91.420,1.504,60.618,155.0,10.0
300785,0.370,1.150,0.137,73.573,20.305,72.214,155.0,7.0
300833,0.415,1.073,0.152,43.351,37.786,87.702,154.0,11.0
300883,0.413,0.871,0.139,50.481,47.420,90.244,153.0,17.0
300933,0.446,0.833,0.179,45.160,43.427,88.886,153.0,23.0
300983,0.479,0.716,0.190,47.168,34.053,66.389,154.0,16.0
301032,0.490,0.694,0.166,43.626,28.183,46.565,158.0,21.0
301082,0.551,0.727,0.164,46.504,16.588,33.260,159.0,23.0
301132,0.652,0.764,0.106,67.962,15.962,32.847,154.0,19.0
301185,0.702,0.856,0.053,42.092,19.573,41.366,157.0,17.0
301237,0.708,0.700,0.104,55.695,18.489,41.840,192.0,18.0
301289,0.717,0.748,0.039,65.534,18.557,39.687,195.0,23.0
301339,0.678,0.746,0.060,54.244,27.985,26.153,160.0,30.0
301390,0.626,0.841,0.081,46.534,15.305,16.412,165.0,23.0
301441,0.487,0.733,0.301,5.550,-6.588,-18.893,165.0,23.0
301535,0.580,0.886,0.094,-32.878,-17.603,-47.672,164.0,19.0
301585,0.550,0.888,0.051,3.725,-36.435,-31.672,163.0,17.0
301637,0.553,0.793,0.030,-44.405,-50.374,-39.275,153.0,16.0
301686,0.573,0.891,-0.171,-37.061,-54.763,-20.618,154.0,16.0
301736,0.549,1.009,-0.273,-160.954,-58.824,-15.908,153.0,21.0
301789,0.667,0.644,0.039,-139.664,-54.137,1.176,153.0,57.0
301840,0.737,0.924,-0.026,-163.374,-21.511,5.679,154.0,35.0
301892,0.754,0.496,0.293,-183.656,17.221,-24.542,182.0,49.0
301945,0.702,0.486,0.480,-120.855,49.870,-26.542,178.0,50.0
301990,0.649,0.465,0.752,-78.405,54.954,-7.237,28.0,49.0
302034,0.670,0.466,0.859,-23.550,47.626,6.260,26.0,42.0
302081,0.606,0.764,0.760,-28.588,37.550,13.313,25.0,33.0
302124,0.538,0.508,0.777,-65.687,34.053,6.290,24.0,38.0
302167,0.494,0.551,0.768,-39.824,46.359,12.954,23.0,30.0
302210,0.402,0.518,0.750,-54.603,58.450,22.489,26.0,24.0
302253,0.287,0.579,0.792,-58.977,54.000,24.969,22.0,30.0
302296,0.220,0.377,0.811,-55.450,36.992,18.962,25.0,30.0
302349,0.248,0.440,0.873,-33.832,14.992,24.740,0.0,36.0
302392,0.391,0.282,0.831,-21.504,14.298,23.885,25.0,30.0
302437,0.384,0.290,0.799,-31.695,30.237,23.557,44.0,33.0
302483,0.296,0.229,0.864,-13.130,46.321,29.885,23.0,35.0
302526,0.178,0.270,1.059,-15.519,33.031,30.855,23.0,30.0
302570,0.213,0.349,0.941,5.809,14.557,35.000,30.0,36.0
302615,0.185,0.055,0.959,-33.580,15.863,28.267,21.0,71.0
302658,0.203,0.150,0.960,28.893,13.351,30.015,20.0,37.0
302701,0.211,0.136,0.966,3.183,14.985,26.290,19.0,37.0
302744,0.192,0.230,0.998,3.489,12.191,26.397,20.0,39.0
302788,0.245,0.078,1.012,-17.176,6.748,26.679,22.0,39.0
302841,0.259,-0.045,1.065,10.809,-1.000,23.534,0.0,36.0
302898,0.357,0.167,0.944,41.504,-22.244,4.000,20.0,40.0
302942,0.448,0.062,0.869,24.092,-20.427,1.580,51.0,36.0
302988,0.478,0.034,0.817,-23.000,-4.275,-16.107,59.0,39.0
303042,0.354,-0.162,0.887,6.382,12.198,-26.237,0.0,37.0
303085,0.273,0.383,0.858,84.183,32.702,-5.046,19.0,39.0
303128,0.095,0.562,1.030,9.443,28.580,15.290,19.0,38.0
303172,0.279,0.344,1.026,-12.496,7.557,32.763,20.0,38.0
303216,0.258,0.040,1.005,-22.832,5.832,33.618,28.0,37.0
303260,0.271,-0.044,1.036,24.000,1.786,30.954,28.0,39.0
303316,0.256,0.129,0.968,35.901,2.191,18.550,0.0,42.0
303371,0.275,0.099,0.977,3.603,-3.275,3.824,0.0,50.0
303425,0.273,-0.172,1.014,19.908,-22.473,-30.817,0.0,39.0
303469,0.283,-0.034,0.887,74.427,-50.122,-77.886,20.0,36.0
303514,0.288,-0.012,0.866,150.015,-54.550,-98.450,57.0,40.0
303558,0.260,0.284,0.722,184.832,-47.763,-105.626,27.0,27.0
303601,0.291,0.507,0.670,210.069,-38.863,-92.779,28.0,30.0
303644,0.259,1.250,0.419,116.023,-26.153,-64.382,30.0,18.0
303691,0.354,0.946,0.615,-15.046,-10.107,-60.458,30.0,31.0
303735,0.348,0.749,0.731,0.084,4.305,-31.412,30.0,36.0
303779,0.319,0.832,0.691,-13.321,8.321,-28.176,29.0,32.0
303823,0.344,0.583,0.801,-15.000,-1.580,-26.183,28.0,32.0
303910,0.194,0.659,0.714,58.748,6.298,-14.908,30.0,30.0
303953,0.248,0.777,0.610,55.328,1.382,-10.847,30.0,30.0
303996,0.259,0.777,0.612,56.053,0.908,-14.557,31.0,16.0
304039,0.295,0.896,0.568,16.069,10.275,-10.534,32.0,17.0
304084,0.259,0.741,0.666,2.916,19.214,-8.863,33.0,43.0
304133,0.178,0.709,0.691,30.832,18.611,-4.557,33.0,42.0
304176,0.219,0.810,0.673,28.580,16.397,-4.489,33.0,16.0
304219,0.204,0.841,0.626,41.802,20.687,1.641,33.0,16.0
304262,0.199,0.862,0.596,10.786,23.290,0.420,34.0,16.0
304305,0.185,0.766,0.633,9.313,19.305,-2.420,33.0,17.0
304349,0.217,0.705,0.661,26.221,24.969,-5.023,34.0,31.0
304392,0.078,0.792,0.556,39.198,32.863,-2.763,36.0,16.0
304436,0.093,0.846,0.544,30.756,33.153,0.298,38.0,19.0
304479,0.020,0.846,0.521,31.916,37.427,-5.977,40.0,17.0
304526,-0.011,0.856,0.456,25.145,40.412,3.145,43.0,11.0
304569,-0.035,0.864,0.482,14.534,38.298,5.000,37.0,16.0
304612,-0.006,0.828,0.504,26.344,37.496,11.618,37.0,12.0
304655,-0.067,0.820,0.462,26.275,28.893,12.130,36.0,10.0
304705,-0.018,0.861,0.519,18.672,19.267,11.641,155.0,9.0
304748,0.037,0.764,0.549,37.206,16.656,11.275,39.0,10.0
304791,-0.014,0.867,0.527,56.626,18.504,6.176,37.0,7.0
304834,-0.069,0.945,0.497,41.511,9.595,7.351,37.0,8.0
304877,-0.033,0.867,0.548,34.000,-4.115,-1.679,43.0,7.0
304924,-0.002,0.906,0.500,69.573,-8.382,4.473,44.0,6.0
304973,0.019,1.038,0.419,34.824,-17.191,0.198,156.0,6.0
305029,0.021,0.909,0.444,-8.550,-21.511,-0.069,156.0,6.0
305078,0.068,0.941,0.481,9.771,-26.176,7.260,156.0,7.0
305126,0.073,0.829,0.469,54.901,-26.817,18.008,156.0,6.0
305168,0.122,1.220,0.296,2.573,-26.481,18.061,38.0,7.0
305210,0.111,0.886,0.410,-18.397,-20.817,23.168,37.0,7.0
305259,0.154,0.895,0.407,16.695,-14.168,30.000,155.0,9.0
305307,0.153,0.962,0.363,10.405,-11.855,36.832,154.0,8.0
305359,0.174,0.864,0.397,24.954,-10.924,49.443,153.0,9.0
305408,0.274,0.991,0.334,58.855,-3.840,71.008,153.0,10.0
305457,0.343,1.004,0.281,67.908,6.718,87.969,152.0,12.0
305506,0.427,0.925,0.250,60.702,17.557,95.412,151.0,14.0
305555,0.473,0.862,0.226,41.015,29.183,95.634,151.0,17.0
305604,0.568,0.754,0.244,62.221,36.771,92.252,151.0,17.0
305653,0.558,0.742,0.241,50.863,43.511,72.313,150.0,22.0
305713,0.546,0.610,0.286,58.992,34.282,61.565,150.0,0.0
305763,0.600,0.658,0.212,57.282,20.321,46.504,165.0,21.0
305816,0.625,0.717,0.213,50.588,9.275,36.237,163.0,24.0
305878,0.658,0.744,0.216,41.183,0.405,29.252,179.0,0.0
305928,0.722,0.806,0.120,55.130,8.870,18.130,171.0,27.0
305979,0.661,0.793,0.088,55.908,14.458,13.473,175.0,24.0
306030,0.657,0.690,0.133,42.870,13.748,13.267,175.0,22.0
306081,0.511,0.765,0.202,34.885,-6.130,5.221,182.0,21.0
306132,0.600,0.771,0.150,16.466,-21.282,-7.198,176.0,22.0
306184,0.627,0.807,0.133,5.160,-26.733,-18.580,176.0,21.0
306234,0.677,0.949,0.065,-9.489,-19.855,-24.000,172.0,23.0
306330,0.606,0.925,0.037,-20.847,-30.473,-21.855,154.0,18.0
306379,0.525,0.757,0.004,-41.298,-49.718,-19.618,152.0,17.0
306428,0.584,0.946,-0.099,-96.634,-59.626,-30.924,152.0,19.0
306479,0.517,0.823,-0.188,-198.137,-59.351,-56.901,154.0,16.0
306530,0.564,0.671,0.057,-91.053,-34.076,-26.336,173.0,29.0
306582,0.621,0.956,0.020,-176.115,-8.427,-45.145,162.0,50.0
306626,0.621,0.507,0.328,-117.756,4.847,-47.550,32.0,54.0
306671,0.653,0.547,0.570,-118.954,35.168,-64.786,30.0,47.0
306717,0.531,0.382,0.804,9.840,28.687,-49.069,26.0,47.0
306761,0.431,0.650,0.763,61.115,13.084,-48.008,27.0,45.0
306805,0.402,1.176,0.548,41.229,-10.267,-30.313,28.0,44.0
306849,0.386,0.730,0.577,-17.748,-6.412,-40.481,28.0,43.0
306892,0.292,0.733,0.560,37.282,6.794,-22.863,29.0,43.0
306935,0.260,0.915,0.544,29.336,8.962,-15.573,29.0,16.0
306977,0.264,0.805,0.560,34.389,3.008,-14.183,30.0,16.0
307019,0.242,0.902,0.526,38.206,3.214,-4.069,31.0,5.0
307061,0.274,0.902,0.483,16.863,8.023,-0.168,31.0,8.0
307105,0.232,0.797,0.518,11.817,8.122,-1.107,31.0,4.0
307147,0.255,0.819,0.518,25.229,2.885,-0.878,31.0,6.0
307189,0.265,0.842,0.471,33.084,2.328,0.351,32.0,8.0
307231,0.289,0.907,0.462,25.450,4.313,-2.634,35.0,3.0
307273,0.279,0.862,0.448,16.420,6.557,-3.809,32.0,10.0
307315,0.253,0.897,0.456,16.198,7.038,-2.924,32.0,3.0
307356,0.256,0.944,0.444,3.305,4.649,-12.176,32.0,3.0
307399,0.210,0.840,0.495,-7.740,9.863,-12.718,32.0,16.0
307443,0.201,0.788,0.532,18.023,8.221,-9.260,30.0,49.0
307485,0.229,0.867,0.487,24.359,7.962,-14.542,31.0,9.0
307533,0.192,0.887,0.494,23.046,6.473,-9.382,32.0,60.0
307579,0.217,0.920,0.472,34.168,2.198,-9.504,32.0,78.0
307625,0.225,0.901,0.449,-4.634,5.466,-9.573,32.0,78.0
307672,0.211,0.804,0.488,-14.634,14.061,-18.359,33.0,78.0
307719,0.141,0.874,0.537,11.504,13.824,-5.893,40.0,78.0
307765,0.131,1.037,0.446,-4.206,2.282,-0.160,38.0,78.0
307811,0.219,0.896,0.481,-71.237,3.168,-11.557,35.0,78.0
307857,0.198,0.674,0.624,-34.779,12.176,-7.336,33.0,79.0
307903,0.157,0.732,0.621,5.389,17.618,-5.519,33.0,79.0
307953,0.124,0.817,0.599,24.412,14.305,0.008,35.0,79.0
307999,0.135,0.836,0.571,15.718,8.458,1.107,35.0,79.0
308045,0.142,0.801,0.588,10.664,7.573,-3.916,31.0,79.0
308091,0.068,0.826,0.564,16.473,7.809,-4.092,32.0,79.0
308137,0.094,0.915,0.565,-6.191,4.008,-2.321,37.0,79.0
308185,0.120,0.829,0.638,-22.626,-0.176,-6.878,35.0,79.0
308231,0.032,0.882,0.616,-46.863,-10.435,-4.557,33.0,79.0
308274,0.131,0.724,0.844,-57.481,-35.267,-4.634,33.0,16.0
308320,0.250,0.720,0.845,-31.267,-42.168,1.053,33.0,83.0
308369,0.540,0.778,0.917,-53.664,-29.237,13.962,36.0,58.0
308413,0.496,0.919,0.865,-82.855,-7.298,32.489,37.0,46.0
308457,0.524,0.640,0.830,-148.481,11.305,50.641,29.0,31.0
308500,0.436,0.500,0.729,-169.031,32.038,49.496,29.0,30.0
308543,0.318,0.312,0.846,-155.931,57.137,21.420,30.0,27.0
308639,0.120,0.288,0.736,-144.702,79.458,-7.695,0.0,25.0
308684,-0.062,-0.110,0.850,-121.634,84.794,-21.542,52.0,27.0
308728,-0.174,-0.190,0.923,-83.901,75.954,-21.313,40.0,24.0
308785,-0.198,-0.400,1.068,-4.130,58.305,-11.366,0.0,29.0
308829,-0.230,0.028,0.871,-1.565,38.191,-26.931,36.0,25.0
308873,-0.174,-0.463,1.101,14.672,27.939,-44.130,41.0,29.0
308926,-0.179,-0.336,1.065,130.382,27.908,-41.756,0.0,29.0
308979,-0.159,0.122,0.929,95.664,12.550,-56.473,0.0,23.0
309037,-0.182,0.024,0.911,89.374,23.504,-63.481,0.0,39.0
309090,-0.294,0.578,0.678,-34.382,47.626,-63.542,0.0,23.0
309134,-0.376,-0.219,0.948,-145.237,31.473,-51.053,42.0,24.0
309178,-0.414,-0.437,1.031,-38.252,13.870,-15.183,39.0,26.0
309225,-0.256,-0.311,0.949,5.672,3.901,0.588,38.0,28.0
309269,-0.317,-0.381,0.896,13.969,4.901,1.153,38.0,33.0
309313,-0.245,-0.227,0.893,26.275,8.527,9.168,37.0,36.0
309357,-0.330,-0.336,0.908,-0.931,-2.702,13.855,38.0,29.0
309409,-0.267,-0.284,0.923,25.832,-2.634,15.473,36.0,30.0
309452,-0.278,-0.266,0.941,28.733,-2.145,13.687,37.0,30.0
309496,-0.306,-0.241,0.944,16.305,-6.649,14.992,37.0,31.0
309539,-0.208,-0.262,1.022,26.809,-6.206,12.527,38.0,30.0
309593,-0.265,-0.160,0.989,20.977,-6.908,13.885,0.0,31.0
309648,-0.263,-0.131,1.155,-7.473,-27.840,22.893,0.0,36.0
309705,-0.305,-0.413,1.366,13.832,-38.954,18.435,0.0,40.0
309758,-0.258,-0.264,1.411,68.687,-60.664,16.687,0.0,32.0
309812,-0.265,-0.181,1.408,119.466,-88.153,15.031,0.0,36.0
309865,-0.210,0.052,1.222,71.351,-112.527,5.908,0.0,36.0
309918,-0.135,0.059,1.157,36.214,-125.160,9.802,0.0,43.0
309972,-0.052,-0.084,1.080,69.229,-137.130,20.038,0.0,50.0
310027,0.037,0.017,0.923,98.198,-148.786,33.802,0.0,58.0
310084,0.220,0.263,0.616,65.344,-145.183,46.908,0.0,61.0
310138,0.337,0.180,0.508,31.565,-137.260,52.725,0.0,60.0
310193,0.511,0.120,0.461,23.000,-118.359,65.366,0.0,60.0
310247,0.585,0.016,0.428,49.359,-118.817,68.267,0.0,59.0
310302,0.848,-0.106,0.364,59.534,-94.519,54.748,0.0,58.0
310356,0.928,0.105,0.112,20.908,-86.107,22.550,0.0,57.0
310411,0.932,-0.076,0.009,-18.634,-63.015,-29.176,0.0,55.0
310465,0.911,0.129,-0.099,-53.519,-39.382,-38.290,0.0,54.0
310519,0.876,-0.047,-0.038,-38.015,-4.794,-28.542,0.0,53.0
310576,1.034,0.137,0.089,-27.038,8.771,-7.847,0.0,52.0
310630,1.085,0.186,0.150,-17.779,9.031,-11.962,0.0,51.0
310684,1.044,0.117,0.228,-1.481,5.153,-19.008,0.0,51.0
310738,0.930,0.153,0.197,25.443,7.687,-13.122,0.0,51.0
310792,0.961,0.195,0.235,14.565,11.267,-6.359,0.0,50.0
310846,0.957,0.235,0.283,2.313,16.489,-6.229,0.0,50.0
310900,0.909,0.120,0.373,2.748,8.176,0.076,0.0,50.0
310955,0.935,0.197,0.328,29.328,4.534,8.115,0.0,51.0
311008,0.937,0.166,0.336,19.290,1.527,7.153,0.0,50.0
311065,0.932,0.173,0.315,16.595,3.046,6.420,0.0,50.0
311119,0.945,0.156,0.333,12.809,5.336,3.427,0.0,50.0
311173,0.942,0.169,0.321,15.832,3.328,3.076,0.0,50.0