Timestamp(ms),AccelX(g),AccelY(g),AccelZ(g),GyroX(deg/s),GyroY(deg/s),GyroZ(deg/s),DistanceLeft(cm),DistanceRight(cm)
311270,0.963,0.181,0.289,19.069,3.061,1.313,0.0,50.0
311324,0.947,0.193,0.296,7.359,2.595,1.168,0.0,50.0
311378,0.950,0.167,0.305,14.168,6.260,5.809,0.0,50.0
311433,0.941,0.176,0.285,7.725,6.275,9.198,0.0,50.0
311486,0.948,0.148,0.300,7.672,7.473,13.427,0.0,50.0
311540,0.956,0.135,0.314,10.107,7.023,12.924,0.0,50.0
311595,0.971,0.141,0.301,19.863,7.817,11.679,0.0,50.0
311651,0.961,0.115,0.322,18.916,7.466,11.344,0.0,51.0
311705,0.942,0.179,0.293,15.084,15.038,11.160,0.0,51.0
311759,0.922,0.172,0.335,-18.969,15.466,16.443,0.0,51.0
311814,0.890,0.088,0.391,-21.122,17.137,20.649,0.0,52.0
311868,0.916,0.057,0.440,1.328,10.053,30.527,0.0,53.0
311922,0.912,0.065,0.415,20.046,7.992,42.756,0.0,53.0
311976,0.886,0.077,0.367,-8.710,5.229,48.565,0.0,54.0
312032,0.836,0.049,0.296,-40.359,14.336,67.847,0.0,56.0
312086,0.753,0.005,0.223,-73.427,36.336,99.420,0.0,57.0
312143,0.601,-0.173,0.265,-155.099,25.321,132.382,0.0,61.0
312199,0.662,-0.442,0.260,-138.519,14.634,155.687,0.0,65.0
312247,0.505,-0.669,0.255,-107.687,5.603,175.389,30.0,100.0
312296,0.606,-0.897,0.105,-94.985,-5.115,178.534,71.0,99.0
312345,0.531,-1.221,0.166,-43.496,-10.336,147.366,64.0,100.0
312394,0.415,-1.177,0.108,21.389,-2.366,130.611,59.0,102.0
312444,0.271,-1.184,0.024,-19.725,-8.908,85.092,64.0,104.0
312494,0.499,-1.798,0.047,-26.366,-14.786,-11.000,62.0,104.0
312543,0.392,-1.727,0.145,58.214,9.107,-127.359,62.0,102.0
312591,0.370,-1.392,0.170,125.115,13.092,-181.450,86.0,99.0
312648,0.336,-0.923,0.194,132.893,3.443,-217.397,0.0,97.0
312704,0.403,-0.709,0.239,150.405,0.130,-218.603,0.0,65.0
312758,0.429,-0.346,0.194,178.466,-0.099,-190.252,0.0,59.0
312813,0.562,-0.089,0.180,152.519,-4.267,-164.817,0.0,55.0
312867,0.770,0.106,0.222,76.443,0.084,-156.924,0.0,50.0
312922,0.818,0.191,0.236,40.504,18.626,-151.183,0.0,47.0
312975,0.755,0.346,0.262,-14.519,29.527,-154.496,0.0,43.0
313028,0.741,0.403,0.475,12.855,34.427,-157.015,127.0,41.0
313076,0.571,0.652,0.480,62.137,30.191,-147.626,111.0,39.0
313125,0.416,0.736,0.520,172.939,13.939,-54.672,109.0,50.0
313174,0.655,1.897,0.087,20.466,21.977,86.366,105.0,41.0
313223,0.613,0.968,0.434,-109.672,5.542,116.794,108.0,41.0
313276,0.628,0.555,0.557,-43.435,-2.214,150.580,0.0,42.0
313330,0.559,0.566,0.318,-25.733,-14.901,195.939,0.0,48.0
313385,0.552,0.326,0.236,-110.313,-10.328,218.115,0.0,52.0
313441,0.365,-0.030,0.192,-139.855,-8.969,250.130,0.0,59.0
313499,0.314,-0.364,0.090,-211.198,-26.176,250.130,0.0,68.0
313556,0.383,-1.124,0.097,-175.756,-57.412,250.130,0.0,96.0
313607,0.413,-1.309,-0.023,-66.542,-45.000,223.160,70.0,99.0
313656,0.432,-1.699,-0.135,-29.359,-16.794,140.863,60.0,101.0
313705,0.269,-1.747,-0.184,-13.298,14.588,11.160,57.0,102.0
313754,0.117,-1.739,-0.017,59.679,23.611,-104.794,63.0,100.0
313804,0.218,-1.340,0.016,138.321,26.656,-176.038,73.0,97.0
313862,0.285,-1.075,0.096,154.053,13.794,-221.023,0.0,100.0
313963,0.465,-0.486,0.268,174.664,10.496,-229.420,0.0,62.0
314018,0.535,-0.064,0.184,194.206,22.031,-205.313,0.0,55.0
314073,0.584,0.267,0.136,135.611,16.496,-197.725,0.0,49.0
314128,0.745,0.590,0.095,-7.481,36.031,-206.786,0.0,46.0
314181,0.630,0.479,0.362,-124.206,43.053,-211.969,0.0,42.0
314232,0.456,0.299,0.740,6.115,51.809,-195.015,137.0,40.0
314286,0.315,0.664,0.766,180.809,25.374,-130.557,0.0,45.0
314335,0.461,1.717,0.198,171.511,19.244,15.359,100.0,40.0
314383,0.481,1.521,0.213,-21.290,22.489,68.962,100.0,43.0
314435,0.430,0.920,0.469,-35.389,20.786,148.855,120.0,41.0
314489,0.417,0.752,0.410,23.099,25.084,213.527,0.0,41.0
314544,0.429,0.943,0.198,-79.939,29.893,250.130,0.0,43.0
314598,0.286,0.288,0.282,-184.305,21.901,250.130,0.0,50.0
314653,0.331,-0.117,0.305,-206.252,6.359,250.130,0.0,58.0
314710,0.247,-0.671,0.315,-169.931,-22.588,250.130,0.0,69.0
314767,0.271,-1.116,0.167,-117.504,-29.931,250.130,0.0,102.0
314817,0.323,-1.647,0.085,-134.595,-30.725,186.389,58.0,104.0
314869,0.267,-2.000,0.082,-19.763,-0.496,50.550,55.0,106.0
314919,0.163,-1.721,0.111,71.176,28.878,-78.992,64.0,105.0
314969,0.161,-1.395,0.165,89.687,28.504,-170.267,59.0,103.0
315020,0.267,-1.017,0.222,124.947,36.221,-207.886,75.0,111.0
315075,0.306,-0.743,0.304,117.412,26.374,-223.618,0.0,66.0
315130,0.455,-0.427,0.347,133.954,27.107,-213.931,0.0,58.0
315186,0.496,-0.141,0.425,155.947,13.878,-190.611,0.0,52.0
315240,0.613,0.153,0.321,141.985,6.160,-160.557,0.0,47.0
315295,0.797,0.338,0.368,104.435,1.794,-160.626,0.0,43.0
315353,0.738,0.541,0.305,51.344,32.656,-181.176,0.0,39.0
315405,0.506,0.459,0.463,-9.115,27.992,-207.305,182.0,37.0
315454,0.386,0.606,0.522,95.611,27.786,-168.435,115.0,37.0
315504,0.397,0.946,0.460,92.076,13.389,-74.038,108.0,52.0
315553,0.468,1.294,0.391,-9.672,19.038,15.931,115.0,36.0
315602,0.456,0.915,0.545,-59.885,14.397,32.809,120.0,36.0
315652,0.491,0.619,0.675,1.534,12.695,41.718,129.0,36.0
315702,0.509,0.698,0.566,50.511,12.840,53.519,127.0,38.0
315756,0.536,0.797,0.488,50.641,9.412,57.802,0.0,36.0
315809,0.531,0.765,0.461,-20.840,13.145,69.947,138.0,37.0
315864,0.508,0.508,0.554,-26.321,12.191,85.855,0.0,37.0
315918,0.471,0.332,0.484,-14.748,15.740,122.198,0.0,39.0
315972,0.550,0.298,0.407,3.557,28.733,146.122,0.0,40.0
316026,0.441,0.220,0.517,-39.069,29.107,131.618,0.0,44.0
316081,0.584,0.116,0.536,7.534,27.733,138.947,0.0,44.0
316136,0.375,-0.031,0.547,45.160,-0.702,137.168,0.0,48.0
316181,0.369,0.148,0.432,24.053,7.053,128.427,30.0,50.0
316230,0.719,-0.115,0.751,21.061,-17.023,96.969,26.0,54.0
316277,0.480,-0.136,0.652,71.313,-12.137,62.756,26.0,57.0
316321,0.765,-0.104,0.718,73.855,1.031,19.244,24.0,51.0
316363,0.986,-0.228,0.809,148.115,29.687,-28.458,25.0,32.0
316406,0.972,-0.050,0.852,175.290,57.145,-57.244,23.0,33.0
316449,0.695,0.292,0.911,208.656,61.374,-71.924,24.0,43.0
316493,0.664,0.680,1.022,68.733,34.588,-68.916,30.0,35.0
316590,0.639,0.598,0.963,70.878,30.718,-99.809,0.0,36.0
316646,0.662,0.500,0.807,81.046,7.084,-106.542,0.0,37.0
316692,0.577,0.751,0.608,62.817,-1.931,-108.656,17.0,38.0
316738,0.595,0.666,0.622,35.336,-11.015,-112.374,35.0,89.0
316784,0.550,0.811,0.602,-6.435,-21.473,-114.038,34.0,85.0
316829,0.530,0.812,0.690,-35.840,-15.061,-98.962,35.0,61.0
316876,0.476,0.693,0.721,-40.695,-3.435,-63.977,36.0,83.0
316920,0.448,0.665,0.766,-15.176,11.221,-17.954,38.0,57.0
316965,0.449,0.728,0.748,-12.000,20.893,4.611,35.0,59.0
317011,0.389,0.663,0.693,-32.084,26.786,7.145,44.0,57.0
317057,0.311,0.823,0.721,-83.321,27.832,12.023,45.0,53.0
317104,0.270,0.415,0.721,-121.336,33.748,9.542,34.0,51.0
317157,0.282,0.307,0.797,-106.611,45.863,-9.023,0.0,50.0
317211,-0.025,0.351,0.806,-76.763,53.626,-16.466,0.0,49.0
317254,-0.088,0.322,0.985,-39.336,28.084,-30.328,44.0,16.0
317299,-0.036,0.309,0.950,-6.824,22.160,-24.351,40.0,48.0
317342,-0.082,0.429,0.939,-0.183,26.931,-13.069,39.0,16.0
317386,-0.105,0.415,0.947,-27.511,24.130,-13.763,40.0,44.0
317430,-0.065,0.128,0.967,-8.695,30.603,-0.511,57.0,16.0
317473,-0.125,0.236,1.207,38.069,11.824,10.267,44.0,17.0
317528,0.004,0.295,0.947,39.511,10.015,4.076,0.0,16.0
317584,-0.067,0.241,1.043,-1.779,19.962,5.763,0.0,16.0
317627,-0.064,0.258,0.941,33.481,18.679,8.855,45.0,17.0
317670,-0.061,0.384,0.964,22.214,13.992,5.618,43.0,16.0
317713,-0.069,0.438,0.857,21.084,7.832,1.221,44.0,16.0
317756,-0.063,0.324,0.916,1.702,1.466,-1.771,46.0,16.0
317800,-0.054,0.368,0.938,-0.435,-1.260,-0.786,58.0,12.0
317853,-0.049,0.177,1.036,-0.504,-1.282,-4.168,0.0,43.0
317896,-0.057,0.296,0.975,5.237,0.336,1.595,44.0,16.0
317943,-0.056,0.229,0.980,3.397,2.374,1.901,45.0,42.0
317987,-0.063,0.262,0.967,9.061,0.992,4.176,48.0,16.0
318030,-0.040,0.271,0.979,7.061,0.405,4.031,44.0,16.0
318073,-0.054,0.253,0.966,8.489,-1.351,2.840,44.0,16.0
318116,-0.043,0.267,0.998,5.733,-1.550,2.450,43.0,16.0
318158,-0.045,0.215,0.977,11.679,-1.374,2.763,44.0,13.0
318201,-0.043,0.273,0.963,12.191,-1.947,4.710,44.0,16.0
318245,-0.039,0.226,0.976,13.427,-3.382,5.550,43.0,16.0
318287,-0.015,0.287,0.967,11.313,-2.870,4.595,41.0,16.0
318333,-0.036,0.227,0.959,8.420,-4.160,7.015,42.0,16.0
318376,-0.019,0.240,0.996,6.893,-5.328,7.832,42.0,16.0
318419,-0.011,0.268,0.963,7.122,-4.389,9.870,42.0,16.0
318462,0.000,0.221,1.010,4.198,-3.710,10.718,42.0,16.0
318505,0.002,0.248,0.990,4.595,-2.344,10.489,42.0,16.0
318550,-0.004,0.231,0.974,12.618,-2.588,9.092,42.0,16.0
318593,-0.002,0.221,0.969,16.321,-4.359,8.840,44.0,16.0
318636,0.070,0.212,1.037,39.687,-7.519,5.802,44.0,16.0
318679,0.010,0.405,0.872,32.664,-14.389,-2.275,48.0,11.0
318725,0.016,0.255,0.953,20.366,-17.084,-2.191,44.0,11.0
318768,0.090,0.267,1.021,29.870,-16.412,-0.237,46.0,16.0
318812,0.092,0.244,0.986,28.794,-13.099,0.863,49.0,12.0
318898,0.119,0.309,0.993,26.015,-3.359,7.389,44.0,12.0
318941,0.098,0.347,0.954,18.557,-1.191,7.046,44.0,11.0
318984,0.101,0.318,0.979,18.679,0.893,7.008,44.0,11.0
319027,0.120,0.379,0.925,17.962,2.695,3.802,45.0,12.0
319070,0.093,0.301,0.948,14.519,2.626,2.947,44.0,12.0
319113,0.095,0.344,0.971,25.397,0.763,2.191,43.0,16.0
319159,0.102,0.351,0.939,26.298,0.687,0.069,44.0,12.0
319202,0.081,0.342,0.919,33.267,-2.687,-1.191,50.0,11.0
319248,0.107,0.360,0.969,33.641,-2.603,3.450,51.0,43.0
319300,0.117,0.209,1.060,65.389,-7.145,5.466,0.0,16.0
319355,0.139,0.456,1.002,91.359,-5.664,13.893,0.0,16.0
319410,0.167,0.487,0.914,169.153,-14.061,52.725,0.0,49.0
319454,0.355,0.928,0.654,136.824,-6.183,77.420,26.0,47.0
319499,0.389,0.876,0.529,80.840,14.511,62.527,27.0,46.0
319543,0.360,0.974,0.469,-35.023,39.168,30.397,29.0,47.0
319590,0.275,0.611,0.509,-154.977,49.916,-14.908,28.0,50.0
319634,0.246,0.243,0.874,-119.748,50.511,-15.069,26.0,31.0
319677,-0.033,0.186,1.044,-33.580,47.649,2.573,26.0,31.0
319720,0.090,0.404,1.012,72.206,37.374,20.321,27.0,31.0
319764,0.098,0.670,0.772,63.160,34.153,3.893,28.0,33.0
319807,0.035,0.740,0.689,-51.740,29.053,-15.351,31.0,31.0
319851,0.047,0.371,0.908,-96.618,28.618,-13.634,30.0,29.0
319894,-0.023,0.222,1.004,-42.885,34.359,3.550,33.0,30.0
319938,0.015,0.275,1.023,23.130,31.389,13.672,33.0,30.0
319984,0.019,0.393,0.923,43.847,21.947,12.687,30.0,30.0
320028,0.017,0.455,0.893,23.168,19.099,6.191,30.0,30.0
320071,-0.020,0.456,0.905,7.855,14.664,10.191,30.0,29.0
320115,-0.007,0.425,0.927,-7.840,16.435,10.076,31.0,30.0
320158,-0.007,0.366,0.954,-2.550,18.992,2.519,31.0,30.0
320202,-0.058,0.303,1.007,23.626,14.733,15.550,33.0,30.0
320246,-0.160,0.348,0.938,42.901,5.779,10.435,34.0,30.0
320289,-0.050,0.504,0.993,34.504,-14.328,6.366,31.0,30.0
320333,0.002,0.410,0.961,32.931,-22.702,7.786,34.0,29.0
320380,0.055,0.375,0.920,51.908,-18.458,28.084,30.0,30.0
320423,0.147,0.766,0.770,14.573,-1.863,20.313,30.0,30.0
320467,0.052,0.469,0.820,-52.290,5.542,11.298,34.0,30.0
320512,0.103,0.232,0.968,-25.580,22.748,22.420,34.0,30.0
320555,0.068,0.425,0.921,11.733,27.130,22.573,34.0,30.0
320599,0.011,0.593,0.875,-24.985,23.771,20.412,29.0,29.0
320642,-0.009,0.372,0.926,-55.924,9.206,11.702,30.0,29.0
320686,-0.007,0.261,0.972,-43.435,10.473,12.366,30.0,30.0
320730,-0.148,0.250,1.070,-46.412,-1.649,23.786,30.0,30.0
320776,-0.034,0.269,1.170,-10.710,-28.405,29.947,29.0,30.0
320820,0.042,0.258,1.035,-20.214,-33.939,33.069,30.0,31.0
320864,0.069,0.108,1.053,5.115,-33.939,56.695,30.0,32.0
320907,0.222,0.134,0.941,46.718,-18.130,55.069,27.0,32.0
320951,0.299,0.417,0.769,0.855,5.443,55.626,25.0,33.0
320994,0.205,0.232,0.805,-99.168,25.168,28.832,25.0,34.0
321038,0.088,-0.179,1.018,-60.504,32.534,26.076,28.0,36.0
321082,0.007,-0.106,1.047,3.504,23.786,24.870,28.0,33.0
321169,0.116,0.179,0.930,-20.321,10.878,11.122,26.0,35.0
321217,0.177,-0.087,1.012,-34.534,14.573,8.710,28.0,36.0
321260,0.127,-0.069,1.039,-15.191,23.229,17.595,27.0,36.0
321304,0.011,0.006,1.061,-2.008,24.679,36.137,26.0,34.0
321348,0.041,0.066,1.052,-19.763,20.542,36.473,27.0,38.0
321392,-0.117,-0.087,1.089,-25.702,12.267,37.023,29.0,36.0
321436,-0.062,-0.101,1.026,-22.023,7.603,28.771,28.0,36.0
321481,-0.112,-0.102,0.993,-12.008,10.481,29.389,30.0,41.0
321534,-0.077,-0.088,1.002,-5.397,10.458,27.290,0.0,37.0
321592,-0.129,-0.032,0.941,-10.847,11.573,26.779,0.0,38.0
321646,-0.096,-0.310,1.032,-25.611,-11.252,-14.824,0.0,36.0
321700,-0.007,-0.309,0.980,22.756,-28.870,-53.221,0.0,37.0
321744,0.001,-0.165,0.923,60.878,-24.351,-63.992,26.0,42.0
321789,0.094,0.002,0.907,66.527,7.435,-36.267,30.0,35.0
321832,0.106,0.066,0.962,43.405,32.595,-11.557,27.0,34.0
321876,0.146,0.003,1.021,17.565,37.878,1.023,27.0,33.0
321921,0.093,-0.087,1.021,-13.656,28.962,1.496,27.0,34.0
321965,0.212,-0.258,1.054,8.176,15.832,-4.427,30.0,36.0
322012,0.159,-0.302,0.985,12.099,15.069,-12.626,30.0,35.0
322066,0.117,-0.071,0.996,-4.107,21.450,-15.458,0.0,33.0
322115,-0.101,-0.204,1.106,4.748,12.267,-8.969,30.0,34.0
322168,-0.135,-0.087,1.056,9.557,-7.122,-13.985,0.0,32.0
322212,-0.055,0.023,0.968,14.313,-31.084,-14.359,51.0,33.0
322256,0.078,-0.186,0.992,51.794,-38.985,-4.664,47.0,32.0
322310,0.144,0.000,0.863,85.969,-26.344,8.802,0.0,32.0
322353,0.151,0.089,0.872,64.145,10.580,22.763,30.0,31.0
322395,0.094,0.088,0.906,36.374,35.198,27.649,26.0,31.0
322441,-0.024,0.079,0.997,13.229,41.038,27.924,26.0,32.0
322483,-0.076,0.010,1.061,1.580,28.153,21.565,16.0,33.0
322525,-0.096,0.071,1.007,-13.893,21.374,16.702,17.0,34.0
322568,-0.060,-0.083,1.130,-42.336,19.038,9.145,19.0,35.0
322610,-0.041,-0.122,1.090,28.084,25.137,21.229,17.0,36.0
322653,-0.132,0.061,1.005,11.137,24.779,23.649,16.0,35.0
322695,-0.090,-0.019,1.031,-15.244,27.473,11.321,17.0,38.0
322738,-0.083,-0.102,1.023,32.252,23.634,12.496,16.0,36.0
322780,-0.071,0.100,0.980,5.832,18.748,-0.794,17.0,36.0
322826,-0.203,-0.234,1.144,7.794,4.565,4.733,17.0,36.0
322868,-0.146,-0.014,1.039,61.145,-13.145,0.939,16.0,35.0
322911,-0.103,0.192,0.891,5.641,-20.534,-8.313,16.0,36.0
322953,-0.023,-0.105,1.010,-16.366,-11.000,-10.595,16.0,35.0
322996,-0.049,-0.108,0.961,34.443,8.634,4.115,16.0,35.0
323038,0.015,0.113,0.899,24.702,28.046,5.992,16.0,36.0
323081,-0.132,-0.008,1.094,21.992,24.145,3.763,16.0,35.0
323123,-0.135,0.040,1.068,23.145,7.046,1.038,16.0,37.0
323166,-0.084,0.027,0.973,-6.771,3.779,0.435,16.0,37.0
323211,-0.148,-0.101,0.965,9.901,13.985,-0.931,17.0,38.0
323254,-0.135,0.071,1.017,-8.115,13.260,-1.992,25.0,36.0
323297,-0.212,-0.078,1.045,-0.931,5.275,-1.634,17.0,37.0
323340,-0.130,0.017,1.042,-1.107,-6.061,2.351,23.0,38.0
323383,-0.109,-0.042,1.000,-5.496,-6.344,6.130,16.0,37.0
323469,-0.139,-0.205,1.022,12.901,8.168,12.588,22.0,36.0
323512,-0.140,0.018,0.889,33.939,16.229,15.916,17.0,38.0
323555,-0.227,-0.114,1.060,20.992,7.214,7.771,23.0,36.0
323601,-0.197,0.036,0.938,20.229,-3.725,6.939,17.0,36.0
323643,-0.089,0.018,0.932,-30.771,0.649,4.031,16.0,36.0
323686,-0.140,-0.247,1.064,32.168,9.237,6.588,17.0,37.0
323729,-0.150,-0.041,0.921,65.076,10.412,11.756,16.0,39.0
323772,-0.161,0.001,0.969,-0.901,8.137,0.786,16.0,37.0
323814,-0.134,-0.171,1.042,59.824,11.847,7.863,16.0,36.0
323867,-0.179,0.400,0.803,21.389,15.176,11.458,0.0,37.0
323910,-0.130,-0.270,1.158,29.122,6.313,10.466,16.0,36.0
323953,-0.129,0.102,0.912,63.557,23.710,17.718,16.0,40.0
324009,-0.198,-0.070,0.965,70.107,21.779,2.221,0.0,34.0
324066,-0.170,0.001,1.285,78.481,-1.084,-17.947,0.0,32.0
324109,-0.175,0.543,0.960,-4.870,7.939,-1.847,17.0,32.0
324151,-0.145,-0.063,1.144,34.069,-3.618,5.405,16.0,33.0
324194,-0.217,-0.209,1.138,136.969,3.763,-3.198,29.0,32.0
324238,-0.190,0.491,0.805,138.496,0.000,-17.573,26.0,30.0
324281,-0.217,0.190,1.105,155.298,5.534,-9.710,27.0,29.0
324324,-0.290,1.386,0.205,-26.275,1.008,17.023,27.0,31.0
324367,-0.342,0.433,0.908,-207.656,-19.153,9.733,27.0,31.0
324413,-0.178,0.285,0.851,-155.947,-39.412,16.214,29.0,31.0
324456,-0.142,-0.029,0.956,-152.687,-27.137,8.519,17.0,34.0
324499,-0.219,-0.312,1.032,-62.763,-16.397,-6.672,19.0,38.0
324542,-0.117,-0.193,1.062,1.603,-11.794,-12.450,17.0,38.0
324585,-0.145,0.010,0.908,-2.336,0.198,-18.076,16.0,36.0
324628,-0.093,-0.076,0.983,-11.565,6.092,-22.947,17.0,36.0
324671,-0.080,-0.093,0.965,10.977,12.092,-13.046,17.0,37.0
324724,-0.008,-0.001,0.929,0.260,13.061,-6.840,0.0,38.0
324767,-0.049,-0.096,0.990,20.565,13.534,5.137,16.0,36.0
324813,-0.009,-0.014,0.943,0.145,9.008,8.863,17.0,37.0
324856,-0.046,-0.145,0.995,-17.557,11.366,8.679,16.0,38.0
324899,-0.124,-0.295,1.049,58.962,18.931,18.244,14.0,37.0
324942,-0.198,-0.145,0.967,77.244,27.206,3.542,13.0,39.0
324985,-0.007,-0.281,1.217,115.779,40.664,-17.198,17.0,36.0
325028,-0.264,0.398,0.993,183.710,14.153,-9.237,17.0,36.0
325071,-0.118,0.114,1.176,95.107,2.802,-11.580,16.0,35.0
325113,-0.174,0.347,0.888,139.740,12.992,0.855,17.0,34.0
325160,-0.207,0.046,1.073,157.168,15.855,-14.420,23.0,35.0
325204,-0.303,0.134,0.874,244.389,19.015,-8.237,28.0,39.0
325249,-0.426,1.592,0.031,109.840,-9.321,11.947,24.0,51.0
325292,-0.369,1.227,0.317,-250.137,-32.786,18.664,23.0,38.0
325336,-0.194,0.280,0.760,-250.137,-28.061,25.550,26.0,39.0
325380,-0.004,-0.281,1.000,-250.137,-35.573,9.489,29.0,35.0
325423,0.148,-0.613,1.231,-14.603,-28.137,17.511,16.0,36.0
325466,-0.037,-0.041,0.896,71.122,-21.443,16.221,16.0,37.0
325520,-0.091,0.165,0.942,19.412,-22.038,3.229,0.0,39.0
325566,-0.047,-0.017,0.950,41.305,-1.000,12.053,16.0,36.0
325609,-0.022,0.237,0.885,36.725,17.427,16.473,17.0,38.0
325662,-0.104,0.068,0.965,-12.344,28.595,9.153,0.0,35.0
325749,-0.197,0.245,0.934,41.687,16.580,9.870,25.0,35.0
325792,-0.220,0.183,1.095,18.748,14.168,3.137,19.0,35.0
325847,-0.182,0.365,0.928,8.336,17.160,2.397,0.0,35.0
325890,-0.223,-0.060,1.185,35.817,18.366,6.031,23.0,34.0
325933,-0.151,0.032,1.076,62.473,12.244,-3.092,18.0,35.0
325986,-0.156,-0.143,1.133,147.794,2.901,-9.458,0.0,33.0
326033,-0.185,-0.079,1.185,231.176,8.290,-20.130,23.0,31.0
326076,-0.273,0.626,0.615,250.130,13.649,-9.382,25.0,35.0
326121,-0.369,0.923,0.268,173.145,5.336,2.786,25.0,50.0
326165,-0.289,1.893,0.079,-184.427,-21.191,16.718,27.0,50.0
326208,-0.251,0.476,0.585,-250.137,-37.481,11.550,25.0,30.0
326252,-0.155,0.019,0.950,-250.137,-38.351,15.893,27.0,33.0
326295,-0.015,-0.331,1.156,-102.641,-21.305,10.916,17.0,35.0
326339,-0.014,-0.046,0.878,12.786,0.015,4.130,17.0,36.0
326382,0.033,0.056,0.984,3.947,6.855,-10.672,16.0,37.0
326438,-0.063,0.058,1.007,-8.618,10.924,-15.427,0.0,36.0
326482,-0.030,-0.085,1.056,16.511,7.840,-20.168,17.0,37.0
326536,-0.238,0.092,1.004,32.298,18.458,-18.366,0.0,37.0
326590,-0.187,0.066,1.103,41.832,5.847,-21.061,0.0,35.0
326633,-0.039,0.239,0.809,21.405,15.153,-22.107,17.0,35.0
326676,-0.050,0.094,0.964,24.122,19.053,-13.214,16.0,35.0
326719,-0.021,0.314,0.915,52.756,21.740,11.687,16.0,35.0
326763,-0.166,0.226,0.983,41.443,24.160,6.122,17.0,35.0
326809,-0.187,0.051,1.172,50.000,6.450,-8.649,16.0,35.0
326853,-0.148,-0.006,1.212,118.145,-8.351,-8.229,30.0,35.0
326896,-0.185,0.060,1.104,126.634,-16.427,-4.344,17.0,35.0
326940,-0.211,0.337,0.868,205.557,-1.924,15.359,27.0,35.0
326984,-0.174,1.559,0.285,-50.969,-12.702,14.603,27.0,37.0
327028,0.039,0.443,0.838,-245.290,-36.527,-0.595,26.0,35.0
327072,0.063,-0.197,1.079,-108.137,-31.771,31.885,27.0,36.0
327116,0.106,0.095,0.927,23.794,-22.382,47.817,27.0,35.0
327159,0.033,0.324,0.748,-16.779,-11.000,40.130,16.0,36.0
327205,-0.088,0.026,1.030,-53.435,6.168,29.344,17.0,36.0
327249,-0.130,-0.016,1.024,42.840,24.679,28.046,16.0,36.0
327292,-0.060,0.427,0.896,-8.435,33.908,25.389,17.0,38.0
327336,-0.138,0.020,1.077,-23.260,30.015,14.725,16.0,36.0
327380,-0.218,0.064,1.222,10.595,7.603,12.496,29.0,35.0
327434,-0.193,0.238,1.066,31.023,-13.527,8.947,0.0,36.0
327478,0.008,0.045,0.993,-37.023,-22.038,-7.313,16.0,38.0
327521,0.116,-0.164,1.017,-7.031,-11.641,-18.641,16.0,36.0
327565,0.027,0.086,0.896,43.878,10.550,-1.069,16.0,36.0
327611,-0.066,0.364,0.847,8.534,24.870,7.962,17.0,35.0
327665,-0.075,0.062,0.964,-17.427,23.405,6.038,0.0,37.0
327709,-0.144,-0.020,1.115,20.855,10.206,2.573,29.0,36.0
327753,-0.110,0.152,1.060,45.626,-1.344,3.130,27.0,36.0
327796,-0.059,0.131,1.006,9.275,2.916,0.015,17.0,35.0
327840,-0.098,0.072,0.948,34.748,22.618,3.817,24.0,35.0
327888,-0.113,0.029,1.159,-22.450,19.321,0.427,24.0,36.0
327931,-0.103,0.096,1.058,56.130,8.702,8.534,23.0,37.0
327974,-0.112,0.014,1.076,-5.641,10.550,2.122,25.0,36.0
328064,-0.159,0.052,0.954,225.267,20.092,-13.603,26.0,33.0
328107,-0.121,0.240,0.966,217.015,-3.779,-20.626,26.0,33.0
328150,-0.179,0.800,0.442,154.473,4.137,1.366,27.0,31.0
328193,-0.345,1.063,0.344,-65.847,1.870,13.046,28.0,32.0
328236,-0.270,0.841,0.629,-250.137,4.000,28.626,30.0,36.0
328279,-0.210,-0.063,1.084,-245.153,-25.542,0.771,26.0,34.0
328321,-0.081,-0.427,1.141,-64.542,-18.389,-10.611,19.0,35.0
328364,-0.085,-0.134,0.952,24.733,-3.977,-21.947,18.0,34.0
328410,-0.150,0.172,1.004,36.473,-1.405,-34.321,27.0,33.0
328453,-0.164,0.214,1.021,35.733,-17.863,-28.282,26.0,34.0
328496,-0.014,0.257,0.979,57.885,-20.023,-13.023,28.0,36.0
328539,0.077,0.394,0.840,9.366,7.573,-3.076,28.0,36.0
328582,-0.043,0.103,0.924,-26.466,29.947,5.015,27.0,36.0
328625,-0.103,0.039,1.162,18.695,16.832,9.076,26.0,34.0
328668,-0.102,0.378,0.996,10.160,-13.229,4.214,23.0,34.0
328711,-0.043,0.090,1.004,-3.466,-23.298,7.779,27.0,34.0
328754,0.043,0.094,0.900,27.893,-10.061,10.420,27.0,34.0
328799,-0.002,0.171,0.888,15.397,16.282,12.443,26.0,34.0
328843,-0.139,0.090,1.024,26.832,29.641,11.069,26.0,36.0
328885,-0.227,0.150,1.040,57.901,15.992,7.649,25.0,33.0
328929,-0.198,0.366,0.930,31.351,5.550,-2.092,30.0,33.0
328972,-0.140,0.093,1.031,30.710,10.756,-4.092,28.0,34.0
329014,-0.069,0.284,0.974,65.053,24.031,-1.802,25.0,31.0
329057,-0.089,0.269,1.120,35.847,15.626,-6.405,24.0,34.0
329100,-0.027,0.062,1.213,77.405,2.634,-9.382,24.0,34.0
329143,-0.128,0.171,1.046,118.962,-3.397,-15.061,27.0,33.0
329189,-0.159,0.160,0.965,173.565,13.573,-10.214,28.0,35.0
329233,-0.239,0.692,0.620,161.924,23.405,-11.397,24.0,43.0
329277,-0.370,1.263,0.407,48.664,8.603,14.809,26.0,51.0
329321,-0.190,1.084,0.339,-227.557,-6.824,20.145,27.0,52.0
329364,-0.104,0.030,1.070,-209.450,-8.824,7.359,28.0,34.0
329407,-0.068,0.007,1.071,-101.878,-22.542,-1.130,25.0,35.0
329451,-0.112,0.046,1.097,-65.443,-36.626,-8.664,24.0,36.0
329494,-0.117,0.126,0.996,-54.756,-43.649,-19.405,26.0,37.0
329537,-0.035,0.100,0.975,-108.534,-41.313,-20.870,16.0,37.0
329583,0.051,-0.339,1.173,-23.084,-20.756,-22.328,17.0,36.0
329626,0.047,-0.062,0.927,52.878,-3.214,5.824,29.0,36.0
329669,0.096,0.226,0.936,24.405,7.374,-1.519,25.0,36.0
329712,0.024,0.037,0.962,-3.168,12.145,10.985,27.0,35.0
329756,0.037,0.046,0.994,8.420,18.374,21.580,28.0,35.0
329799,-0.008,-0.002,0.988,3.718,15.672,15.237,26.0,35.0
329842,-0.005,0.068,0.914,-11.595,16.420,17.634,25.0,35.0
329885,-0.084,0.044,0.956,-14.221,14.611,9.519,25.0,36.0
329940,0.026,-0.152,1.062,61.534,9.557,23.649,25.0,35.0
329984,-0.033,0.324,0.864,6.405,14.420,24.305,27.0,35.0
330027,-0.028,-0.089,1.016,-18.908,16.931,17.672,28.0,35.0
330070,-0.086,-0.007,1.000,15.382,18.344,24.015,19.0,36.0
330114,-0.086,0.061,0.966,-10.420,12.611,10.489,27.0,36.0
330157,-0.154,-0.110,1.020,-4.336,6.115,8.687,25.0,38.0
330201,-0.064,-0.048,1.028,20.069,1.947,10.870,25.0,36.0
330287,-0.107,-0.054,0.993,-28.832,8.313,5.626,25.0,40.0
330331,-0.155,-0.236,0.998,0.458,14.855,7.634,27.0,42.0
330378,-0.099,-0.051,0.990,27.603,10.718,12.939,20.0,42.0
330421,-0.125,-0.176,1.148,8.763,6.511,5.374,19.0,37.0
330464,-0.134,-0.017,0.962,26.008,4.115,4.893,19.0,37.0
330507,-0.174,-0.102,0.971,17.092,6.802,-0.099,19.0,36.0
330550,-0.146,-0.143,0.929,50.305,9.313,-9.550,20.0,36.0
330593,-0.149,-0.235,0.960,99.962,13.908,-20.115,24.0,35.0
330637,-0.173,-0.087,0.904,160.618,5.229,-25.427,25.0,36.0
330680,-0.208,0.086,0.929,204.069,-10.718,-30.748,28.0,35.0
330724,-0.235,0.341,0.845,210.366,-35.710,-21.290,28.0,37.0
330771,-0.141,0.587,0.789,197.489,-56.229,-11.824,28.0,37.0
330815,-0.034,0.688,0.739,178.389,-60.221,4.122,30.0,36.0
330859,0.015,0.770,0.753,149.886,-54.214,14.412,32.0,48.0
330904,0.089,0.970,0.669,92.893,-43.344,14.863,31.0,49.0
330948,0.150,1.287,0.571,-29.328,-22.985,10.824,32.0,51.0
330992,0.179,0.850,0.719,-149.244,1.634,1.969,30.0,37.0
331036,0.147,0.649,0.832,-178.886,15.252,3.321,29.0,34.0
331079,0.117,0.321,0.973,-136.603,17.656,13.969,28.0,33.0
331123,0.085,0.312,0.965,-96.771,13.595,34.061,26.0,33.0
331169,0.135,0.313,0.961,-60.656,11.397,47.779,25.0,33.0
331212,0.105,0.350,0.883,-98.366,16.725,41.137,24.0,33.0
331255,0.048,0.091,0.911,-132.985,26.496,32.351,17.0,34.0
331298,0.000,-0.302,1.104,-10.702,30.420,33.916,23.0,32.0
331342,-0.048,0.259,0.918,39.008,36.084,39.901,27.0,35.0
331386,-0.075,0.245,1.008,-20.847,22.557,20.023,26.0,39.0
331429,-0.083,0.113,1.034,-22.977,14.977,19.817,26.0,37.0
331473,-0.079,0.071,1.000,-21.382,10.015,20.168,19.0,35.0
331520,-0.025,0.018,0.982,-12.786,15.168,18.183,18.0,37.0
331563,-0.078,0.047,1.000,-27.427,18.756,14.450,20.0,36.0
331607,-0.091,-0.031,1.071,-4.771,8.710,18.237,27.0,36.0
331651,-0.072,0.021,0.945,-21.962,4.710,11.802,27.0,38.0
331695,-0.140,-0.183,1.000,-13.969,10.489,14.443,25.0,41.0
331739,-0.092,-0.001,0.980,-4.595,8.702,9.122,27.0,41.0
331782,-0.116,-0.214,0.975,16.176,7.702,0.641,25.0,41.0
331829,-0.115,-0.133,0.892,49.244,12.885,-8.664,19.0,102.0
331873,-0.136,-0.161,0.975,88.183,10.725,-23.588,23.0,37.0
331920,-0.091,-0.108,0.919,172.603,-2.916,-35.076,27.0,37.0
331963,-0.097,0.135,0.920,180.527,-6.863,-27.260,27.0,29.0
332007,-0.177,0.221,0.940,201.130,-14.672,-27.786,29.0,27.0
332050,-0.175,0.499,0.843,240.718,-39.160,-9.458,28.0,24.0
332095,-0.052,0.810,0.753,196.656,-55.000,1.504,30.0,50.0
332139,0.040,0.939,0.621,96.756,-55.015,-5.626,29.0,36.0
332182,0.057,0.618,0.767,56.328,-34.977,-8.985,30.0,16.0
332224,0.089,1.063,0.613,35.725,-15.053,-2.702,31.0,16.0
332269,0.192,1.039,0.689,-75.443,10.046,-0.931,29.0,46.0
332316,0.164,0.969,0.725,-120.527,24.023,27.305,27.0,30.0
332359,0.118,0.671,0.790,-219.519,24.641,33.885,25.0,30.0
332402,0.055,0.155,0.980,-185.145,19.924,44.992,16.0,29.0
332445,0.018,-0.049,1.059,-105.763,17.374,44.496,23.0,31.0
332532,0.004,0.333,0.923,-42.145,21.786,25.779,23.0,29.0
332576,-0.038,0.081,1.031,-43.229,19.969,18.710,28.0,36.0
332631,0.029,0.171,1.010,-35.947,22.435,20.206,0.0,37.0
332675,-0.018,0.089,1.014,-70.153,32.557,22.832,24.0,39.0
332729,-0.065,-0.118,1.003,-48.405,47.779,30.153,0.0,45.0
332784,-0.181,-0.052,1.092,15.023,25.649,19.321,0.0,42.0
332831,-0.224,-0.036,1.028,4.794,4.786,3.863,52.0,57.0
332889,-0.177,0.016,0.957,-3.824,-7.985,-3.870,0.0,103.0
332934,-0.049,-0.024,0.941,-3.580,-16.397,-6.603,51.0,37.0
332980,-0.040,-0.061,0.901,-0.550,-19.901,-8.305,51.0,37.0
333025,0.041,-0.075,0.920,23.084,-10.763,1.855,51.0,36.0
333069,-0.023,0.032,0.890,9.763,6.855,10.855,25.0,43.0
333113,-0.062,-0.073,1.024,11.992,21.573,20.573,24.0,42.0
333165,-0.134,-0.016,0.985,-2.687,19.191,12.015,51.0,103.0
333223,-0.117,-0.225,1.107,11.458,3.267,4.069,0.0,102.0
333278,-0.055,0.045,0.929,2.191,5.710,4.588,0.0,44.0
333332,-0.117,-0.113,1.041,6.786,9.176,13.595,0.0,45.0
333380,-0.082,-0.061,0.977,2.962,5.573,8.313,23.0,103.0
333427,-0.107,-0.138,0.995,7.397,7.031,9.656,20.0,104.0
333483,-0.077,-0.049,0.925,19.718,12.855,10.229,0.0,61.0
333538,-0.272,-0.147,1.054,24.237,9.290,9.206,0.0,60.0
333586,-0.169,-0.005,0.932,15.824,2.870,-4.893,23.0,105.0
333639,-0.172,-0.103,0.892,51.710,8.061,-16.198,27.0,62.0
333682,-0.163,-0.102,0.901,97.237,7.084,-32.328,26.0,42.0
333725,-0.137,-0.227,0.943,182.733,3.595,-43.397,26.0,36.0
333768,-0.159,-0.009,0.990,250.130,-15.679,-44.962,26.0,33.0
333811,-0.206,0.343,0.780,250.130,-27.664,-30.351,29.0,23.0
333854,-0.111,0.824,0.660,250.130,-47.992,-15.076,30.0,30.0
333898,-0.083,1.077,0.589,157.076,-56.382,-13.939,37.0,48.0
333940,-0.034,0.842,0.642,122.282,-48.611,-3.267,34.0,16.0
333983,0.013,0.945,0.587,98.351,-36.046,9.412,39.0,10.0
334027,0.012,0.892,0.608,73.802,-29.076,8.687,33.0,9.0
334069,0.050,0.916,0.606,68.145,-23.389,13.779,33.0,7.0
334111,0.047,1.105,0.498,53.977,-18.725,22.870,36.0,8.0
334153,0.082,1.058,0.505,27.885,-18.366,37.031,36.0,7.0
334195,0.142,1.050,0.467,-7.221,-12.954,49.802,37.0,8.0
334244,0.194,0.889,0.479,-11.206,-6.183,55.748,155.0,10.0
334294,0.224,0.792,0.469,5.290,6.366,59.137,154.0,13.0
334342,0.219,0.891,0.451,-3.573,7.763,52.649,154.0,13.0
334392,0.266,0.777,0.527,-18.473,6.122,38.099,154.0,17.0
334444,0.259,0.750,0.527,-5.992,4.824,28.389,154.0,16.0
334493,0.302,0.761,0.534,21.962,2.252,22.611,168.0,16.0
334543,0.281,0.904,0.513,3.328,1.817,21.305,163.0,16.0
334594,0.280,0.700,0.517,19.053,1.756,19.031,163.0,17.0
334643,0.272,0.711,0.425,42.145,10.107,3.977,166.0,16.0
334693,0.244,0.787,0.412,70.489,11.885,-2.397,163.0,19.0
334742,0.236,0.921,0.399,71.710,3.588,-2.275,153.0,13.0
334791,0.269,1.021,0.373,59.733,6.008,9.718,153.0,11.0
334840,0.284,0.897,0.416,62.145,3.924,2.893,153.0,10.0
334892,0.254,1.115,0.305,37.924,7.893,2.382,153.0,10.0
334984,0.269,0.961,0.383,-1.550,-14.885,-3.863,154.0,11.0
335034,0.222,1.004,0.354,-34.870,-11.168,-11.260,154.0,11.0
335083,0.250,0.749,0.425,-6.374,-21.137,-22.389,154.0,10.0
335132,0.164,0.949,0.373,-30.305,-37.832,-42.389,154.0,11.0
335181,0.266,0.615,0.423,-7.145,-39.863,-47.374,154.0,11.0
335230,0.334,1.215,0.229,18.863,-24.702,-25.504,154.0,10.0
335280,0.334,0.865,0.390,-71.886,-5.748,-17.176,154.0,12.0
335332,0.295,0.924,0.432,-31.267,7.908,-3.481,155.0,11.0
335381,0.254,0.764,0.547,-90.298,18.901,-14.847,156.0,16.0
335433,0.212,0.751,0.603,-55.702,18.756,-12.954,0.0,16.0
335489,0.125,0.563,0.729,-18.679,8.969,-7.099,0.0,16.0
335541,0.158,0.817,0.635,15.847,-3.321,-2.076,0.0,16.0
335595,0.167,0.813,0.674,-16.321,-0.687,-5.069,0.0,44.0
335639,0.178,0.685,0.704,-5.969,7.870,-0.542,32.0,43.0
335683,0.146,0.747,0.703,0.023,11.443,0.084,30.0,43.0
335734,0.138,0.699,0.708,3.756,9.229,0.618,180.0,17.0
335791,0.135,0.737,0.689,18.282,2.840,1.099,0.0,49.0
335845,0.143,0.770,0.673,8.534,0.359,2.305,0.0,48.0
335898,0.149,0.753,0.692,3.092,2.008,2.893,0.0,45.0
335952,0.138,0.739,0.700,-1.618,0.412,6.351,0.0,45.0
336006,0.169,0.778,0.725,-7.405,4.038,4.992,0.0,45.0
336050,0.119,0.684,0.734,-33.824,6.954,2.405,29.0,45.0
336094,0.123,0.580,0.773,-24.557,5.191,3.939,29.0,30.0
336136,0.152,0.518,0.754,-10.115,-2.023,-2.405,17.0,30.0
336180,0.164,0.515,0.799,29.931,-5.076,-4.649,29.0,47.0
336224,0.188,0.619,0.753,47.534,-6.076,-9.542,26.0,46.0
336271,0.163,0.855,0.719,7.618,-6.160,0.023,27.0,46.0
336315,0.201,0.626,0.812,-12.191,-8.779,-3.305,30.0,46.0
336359,0.100,0.686,0.740,2.901,-5.573,7.504,31.0,45.0
336403,0.157,0.668,0.741,-12.076,-5.573,11.336,29.0,45.0
336448,0.217,0.514,0.749,-9.969,-5.603,5.198,30.0,46.0
336491,0.147,0.594,0.804,-4.313,-8.992,8.908,30.0,29.0
336534,0.146,0.589,0.847,10.214,-12.695,11.382,30.0,31.0
336578,0.217,0.562,0.823,22.901,-13.634,17.023,29.0,47.0
336623,0.233,0.652,0.805,15.168,-17.779,14.588,30.0,46.0
336670,0.270,0.594,0.789,10.664,-16.611,14.191,29.0,47.0
336714,0.275,0.593,0.778,8.824,-12.832,13.183,28.0,46.0
336757,0.306,0.578,0.783,5.160,-14.802,6.626,26.0,29.0
336801,0.346,0.576,0.805,15.435,-9.122,3.176,32.0,29.0
336844,0.313,0.643,0.790,15.267,-3.168,2.718,30.0,29.0
336887,0.303,0.621,0.761,-0.901,-1.977,4.313,28.0,29.0
336930,0.322,0.514,0.776,4.298,-0.313,4.649,28.0,30.0
336974,0.345,0.556,0.754,16.008,0.290,3.985,27.0,31.0
337017,0.327,0.619,0.770,12.336,0.466,3.954,27.0,29.0
337063,0.319,0.624,0.812,6.893,-0.901,3.878,28.0,29.0
337106,0.285,0.569,0.820,11.824,-2.191,6.985,29.0,30.0
337150,0.272,0.563,0.789,11.595,-4.412,5.466,30.0,31.0
337204,0.297,0.552,0.759,5.863,-7.908,-1.260,0.0,33.0
337252,0.339,0.518,0.754,8.504,-8.000,-3.176,105.0,33.0
337296,0.343,0.581,0.744,10.145,-14.115,-7.802,28.0,48.0
337383,0.384,0.637,0.747,21.336,-9.656,-11.191,31.0,32.0
337436,0.347,0.654,0.726,15.542,-5.679,-17.679,0.0,31.0
337489,0.369,0.620,0.787,9.656,1.374,-16.603,0.0,30.0
337537,0.327,0.682,0.767,10.756,9.435,-18.641,30.0,29.0
337581,0.271,0.682,0.781,-10.992,9.458,-12.992,32.0,33.0
337624,0.295,0.518,0.819,-20.656,8.603,-6.382,33.0,30.0
337668,0.319,0.460,0.805,-17.122,1.229,-3.817,30.0,30.0
337711,0.322,0.511,0.758,11.107,-7.824,-9.748,30.0,30.0
337755,0.304,0.606,0.771,24.557,-7.359,-8.794,25.0,30.0
337808,0.296,0.639,0.750,-0.137,-2.153,-2.275,0.0,32.0
337861,0.360,0.479,0.793,-5.511,8.374,-0.649,0.0,35.0
337905,0.281,0.576,0.771,-6.710,9.321,-4.695,27.0,35.0
337951,0.286,0.453,0.813,-0.008,8.321,-2.168,26.0,35.0
337995,0.292,0.538,0.811,5.847,8.015,-1.702,29.0,35.0
338039,0.261,0.515,0.813,1.389,4.656,-7.008,27.0,35.0
338082,0.271,0.532,0.858,8.832,2.893,-4.336,27.0,35.0
338126,0.289,0.566,0.836,13.122,2.893,1.634,29.0,35.0
338170,0.281,0.561,0.840,2.641,2.679,3.092,30.0,35.0
338213,0.283,0.496,0.844,0.908,-0.443,6.313,29.0,30.0
338257,0.293,0.483,0.842,13.985,0.893,7.847,30.0,31.0
338301,0.301,0.528,0.809,9.420,0.992,7.588,30.0,31.0
338358,0.292,0.483,0.823,2.992,2.206,0.237,0.0,31.0
338411,0.283,0.510,0.813,11.115,4.534,5.542,0.0,31.0
338455,0.293,0.491,0.817,9.298,2.863,3.718,30.0,38.0
338499,0.293,0.481,0.817,14.344,2.916,4.389,28.0,39.0
338543,0.294,0.501,0.842,16.214,4.534,3.573,29.0,31.0
338586,0.314,0.480,0.852,9.061,5.412,3.466,30.0,31.0
338630,0.310,0.469,0.848,10.802,5.191,3.893,30.0,32.0
338674,0.274,0.500,0.859,9.618,1.405,3.206,29.0,32.0
338718,0.284,0.473,0.865,10.122,-2.420,5.626,28.0,40.0
338762,0.292,0.489,0.847,17.481,-1.527,5.763,28.0,36.0
338809,0.287,0.528,0.834,8.817,1.473,2.191,30.0,36.0
338863,0.295,0.470,0.842,2.695,3.069,0.779,0.0,32.0
338916,0.304,0.452,0.839,9.389,2.229,-2.076,0.0,31.0
338960,0.300,0.513,0.833,10.954,1.260,-2.397,30.0,32.0
339004,0.316,0.489,0.833,6.534,0.756,-2.473,26.0,32.0
339047,0.317,0.493,0.836,12.473,0.763,0.115,26.0,32.0
339091,0.314,0.526,0.840,10.038,1.527,3.718,28.0,31.0
339134,0.321,0.489,0.865,4.412,2.168,3.351,26.0,31.0
339178,0.306,0.461,0.870,7.977,3.076,3.626,26.0,30.0
339225,0.294,0.485,0.835,10.450,3.687,4.176,26.0,32.0
339268,0.296,0.473,0.846,6.458,3.443,3.534,26.0,32.0
339312,0.292,0.444,0.840,7.832,2.802,4.176,26.0,32.0
339355,0.282,0.467,0.846,10.809,2.137,3.969,26.0,31.0
339399,0.289,0.439,0.849,9.779,0.542,3.473,26.0,31.0
339443,0.305,0.432,0.857,15.435,0.206,4.031,30.0,37.0
339486,0.307,0.457,0.838,11.863,-0.534,1.481,26.0,31.0
339530,0.313,0.434,0.866,16.053,0.145,2.221,29.0,32.0
339574,0.319,0.473,0.867,16.641,1.809,3.084,26.0,32.0
339625,0.299,0.477,0.848,8.107,0.328,1.634,30.0,32.0