Timestamp(ms),AccelX(g),AccelY(g),AccelZ(g),GyroX(deg/s),GyroY(deg/s),GyroZ(deg/s),DistanceLeft(cm),DistanceRight(cm)
83887,0.265,0.843,0.592,6.466,7.855,4.382,29.0,10.0
83931,0.275,0.795,0.656,5.366,11.130,7.168,30.0,10.0
83978,0.185,0.794,0.623,1.405,17.489,6.290,30.0,62.0
84025,0.099,0.791,0.632,-1.282,20.244,3.092,31.0,64.0
84073,0.127,0.810,0.642,-1.061,15.130,1.351,44.0,64.0
84117,0.159,0.822,0.555,-10.397,4.618,1.344,30.0,12.0
84164,0.219,0.800,0.525,-18.328,-3.916,0.008,31.0,10.0
84208,0.244,0.779,0.510,-9.252,-10.038,-1.344,30.0,10.0
84252,0.215,0.853,0.512,-6.718,-16.275,-1.718,30.0,10.0
84297,0.272,0.809,0.571,-17.450,-14.824,5.107,46.0,9.0
84345,0.179,0.848,0.585,-15.603,-12.366,16.206,40.0,61.0
84393,0.161,0.846,0.545,-14.763,-11.450,17.817,39.0,62.0
84441,0.139,0.760,0.563,-5.008,-3.962,12.282,39.0,61.0
84489,0.205,0.769,0.641,2.023,3.420,4.260,45.0,61.0
84537,0.236,0.773,0.746,0.153,13.160,2.748,44.0,63.0
84588,0.065,0.881,0.562,-7.763,8.183,13.634,43.0,62.0
84644,0.103,0.820,0.511,-6.405,-4.328,12.115,0.0,62.0
84691,0.067,0.816,0.530,6.809,-14.634,3.863,30.0,62.0
84757,0.056,0.867,0.622,-1.183,-22.092,-4.542,0.0,0.0
84802,0.168,0.840,0.737,-2.458,-18.565,-0.107,34.0,17.0
84849,0.219,0.926,0.481,-10.908,-26.710,9.496,33.0,60.0
84896,0.323,0.926,0.463,-25.985,-22.183,19.511,31.0,62.0
84951,0.291,0.855,0.555,-60.397,-13.053,6.069,0.0,16.0
85008,0.264,0.409,0.820,-23.702,-23.160,7.206,0.0,65.0
85068,0.186,0.560,0.722,43.321,-29.656,20.504,0.0,67.0
85116,0.420,0.672,0.576,63.176,-30.122,2.878,33.0,68.0
85165,0.427,1.039,0.537,45.534,1.656,5.282,30.0,68.0
85209,0.376,0.790,0.535,12.802,16.733,10.458,31.0,11.0
85264,0.251,0.757,0.583,1.870,11.473,15.580,31.0,0.0
85318,0.302,0.892,0.511,31.901,-0.550,23.481,0.0,11.0
85383,0.551,1.051,0.380,-45.389,22.595,8.595,0.0,0.0
85437,0.338,0.681,0.629,-47.168,0.305,10.908,0.0,11.0
85492,0.435,0.528,0.732,5.855,-9.763,1.183,0.0,17.0
85560,0.382,0.839,0.559,27.038,11.275,4.527,0.0,0.0
85614,0.349,0.654,0.569,-2.298,29.061,-7.298,0.0,16.0
85680,0.260,0.869,0.575,18.992,18.710,-4.740,0.0,0.0
85744,0.181,0.619,0.655,6.359,-3.183,6.046,0.0,0.0
85810,0.262,0.792,0.528,29.611,7.328,2.321,0.0,0.0
85865,0.345,0.888,0.525,8.824,4.374,11.328,33.0,0.0
85920,0.361,0.885,0.542,-6.260,5.489,3.099,37.0,0.0
85965,0.302,0.755,0.541,-5.038,6.878,10.664,33.0,16.0
86022,0.215,0.801,0.609,0.618,4.649,16.275,44.0,0.0
86087,0.301,0.833,0.551,-18.290,2.588,15.626,0.0,0.0
86155,0.341,0.778,0.584,1.557,7.481,15.878,0.0,0.0
86201,0.313,0.775,0.575,-10.794,5.779,9.977,37.0,17.0
86265,0.314,0.880,0.556,-11.031,16.779,25.542,0.0,0.0
86320,0.303,0.748,0.590,-26.473,9.763,25.748,0.0,11.0
86365,0.329,0.696,0.670,-3.206,10.763,32.466,42.0,11.0
86410,0.309,0.829,0.553,0.000,9.626,22.359,34.0,9.0
86455,0.326,0.712,0.623,-14.664,1.046,18.489,38.0,10.0
86543,0.330,0.933,0.688,-27.450,2.969,24.519,35.0,9.0
86588,0.183,0.791,0.650,-42.916,8.916,23.252,32.0,12.0
86636,0.309,0.576,0.606,-18.214,13.870,19.298,31.0,13.0
86681,0.364,0.627,0.619,-19.565,20.374,16.351,32.0,16.0
86736,0.458,0.600,0.723,6.679,14.573,9.038,34.0,0.0
86792,0.403,0.794,0.697,-1.534,10.046,4.985,0.0,17.0
86837,0.285,0.778,0.639,50.069,6.389,22.435,32.0,17.0
86881,0.220,0.793,0.596,-9.939,0.366,6.702,31.0,16.0
86937,0.279,0.662,0.577,-0.389,10.718,5.618,31.0,0.0
86982,0.314,0.671,0.588,-8.977,16.763,0.794,30.0,17.0
87027,0.334,0.814,0.703,-15.107,22.641,4.076,32.0,16.0
87072,0.317,0.875,0.688,-32.855,25.519,11.000,32.0,16.0
87140,0.305,0.647,0.694,-25.084,31.191,10.992,0.0,0.0
87196,0.224,0.663,0.684,-62.374,28.084,7.053,37.0,0.0
87251,0.223,0.474,0.763,-28.290,12.275,7.351,28.0,0.0
87317,0.216,0.604,0.793,-21.908,-4.580,2.221,0.0,0.0
87383,0.217,0.587,0.846,-3.176,-8.145,-5.824,0.0,0.0
87438,0.240,0.613,0.781,2.870,-1.840,1.672,25.0,0.0
87503,0.212,0.625,0.760,-8.153,-2.794,2.099,0.0,0.0
87559,0.203,0.655,0.761,-22.611,0.863,2.458,28.0,0.0
87614,0.213,0.569,0.835,-22.168,-2.511,1.160,27.0,0.0
87673,0.213,0.533,0.844,-8.718,-0.046,-2.573,27.0,0.0
87729,0.182,0.565,0.793,-0.221,2.947,0.023,25.0,0.0
87784,0.161,0.585,0.846,4.893,-5.366,-1.527,24.0,0.0
87839,0.188,0.629,0.809,11.962,-9.122,-0.122,28.0,0.0
87895,0.228,0.584,0.850,5.168,-6.557,0.992,30.0,0.0
87951,0.229,0.727,0.791,4.947,-3.191,2.466,25.0,0.0
88006,0.260,0.568,0.880,-30.351,-4.687,-1.763,25.0,0.0
88060,0.266,0.603,0.874,-25.260,-6.191,2.298,0.0,16.0
88117,0.221,0.705,0.881,-61.855,-2.771,2.015,24.0,0.0
88175,0.262,0.569,0.982,-140.153,3.687,11.863,24.0,0.0
88241,0.243,0.490,0.842,-225.481,-12.786,-7.794,0.0,0.0
88295,0.336,-0.419,1.191,-227.427,-46.489,-73.092,12.0,0.0
88350,0.529,0.215,0.893,-155.794,-37.305,-62.908,16.0,0.0
88416,0.453,-0.184,0.613,-250.137,3.122,-66.275,0.0,0.0
88471,0.239,-0.627,0.953,-86.130,22.176,-38.634,11.0,0.0
88538,0.213,-0.349,0.848,-11.664,2.267,-40.802,0.0,0.0
88592,0.022,-0.265,0.944,-11.145,-20.359,-30.466,9.0,0.0
88648,0.268,-0.496,0.915,5.015,-36.611,-18.916,36.0,0.0
88706,0.288,-0.312,0.715,-5.321,-28.977,-12.046,5.0,0.0
88760,0.406,-0.540,0.824,8.099,-16.557,-14.458,4.0,0.0
88815,0.371,-0.284,0.767,-8.221,-8.756,-7.847,5.0,0.0
88869,0.401,-0.432,0.811,-15.489,-6.023,1.511,4.0,0.0
88924,0.428,-0.395,0.812,-10.672,3.763,2.931,4.0,0.0
88978,0.391,-0.434,0.778,-20.084,3.901,3.985,7.0,0.0
89033,0.434,-0.389,0.817,-22.496,5.290,5.519,10.0,0.0
89088,0.438,-0.349,0.802,-24.840,2.656,4.031,6.0,0.0
89142,0.445,-0.424,0.811,-23.420,-0.427,10.817,5.0,0.0
89196,0.459,-0.497,0.836,-23.954,-0.870,5.542,6.0,0.0
89254,0.440,-0.458,0.786,-22.351,-3.359,2.458,6.0,0.0
89353,0.409,-0.478,0.746,-26.031,-3.221,0.511,6.0,0.0
89407,0.446,-0.513,0.752,-26.321,-2.985,2.420,10.0,0.0
89467,0.450,-0.533,0.751,-6.557,-2.908,4.336,7.0,0.0
89522,0.443,-0.547,0.753,-4.252,-1.137,3.214,6.0,0.0
89575,0.439,-0.525,0.740,-3.527,-1.817,1.366,6.0,0.0
89628,0.420,-0.525,0.762,-4.534,-2.611,1.550,6.0,0.0
89681,0.461,-0.539,0.727,-8.183,-0.229,2.664,7.0,0.0
89736,0.444,-0.509,0.756,-5.191,0.649,4.107,6.0,0.0
89791,0.456,-0.511,0.735,1.595,1.267,5.878,6.0,0.0
89845,0.446,-0.541,0.736,5.588,2.137,7.405,6.0,0.0
89899,0.422,-0.553,0.738,12.618,4.992,11.626,7.0,0.0
89952,0.443,-0.539,0.715,31.237,17.756,11.382,8.0,0.0
90006,0.368,-0.632,0.615,88.504,27.863,2.473,7.0,0.0
90060,0.329,-0.664,0.608,13.061,59.229,-41.160,16.0,0.0
90125,0.266,-0.639,0.582,96.420,103.534,-64.588,0.0,0.0
90179,-0.017,-0.325,0.515,132.740,145.832,-87.038,23.0,0.0
90227,-0.190,-0.045,0.511,157.191,178.969,-115.389,29.0,67.0
90285,-0.488,0.144,0.578,116.580,192.511,-113.695,0.0,33.0
90341,-0.715,0.526,0.638,135.191,176.244,-129.046,0.0,48.0
90389,-0.741,0.591,0.917,96.931,156.985,-99.321,52.0,47.0
90445,-0.731,0.591,0.838,114.550,125.046,-90.420,0.0,49.0
90492,-0.753,0.402,0.967,59.427,114.038,-90.847,16.0,85.0
90541,-0.910,0.425,0.756,116.687,103.160,-89.527,17.0,83.0
90588,-1.046,0.539,0.674,18.565,92.527,-82.679,20.0,80.0
90636,-1.021,0.034,0.782,62.496,66.389,-73.924,17.0,79.0
90683,-1.065,0.441,0.523,93.557,37.634,-38.985,16.0,77.0
90743,-1.025,0.377,0.487,51.542,4.847,-12.977,0.0,78.0
90790,-0.936,0.506,0.363,9.626,-9.649,22.511,16.0,83.0
90849,-0.843,0.424,0.400,-20.145,-11.908,32.160,0.0,80.0
90906,-0.907,0.351,0.366,-34.748,-7.458,38.053,0.0,79.0
90957,-0.974,0.289,0.464,-51.366,-23.099,65.687,79.0,80.0
91005,-0.976,0.154,0.747,-17.412,-49.947,92.985,16.0,82.0
91064,-0.977,0.551,0.665,-2.679,-73.168,102.015,0.0,83.0
91122,-0.984,0.594,0.686,-41.924,-105.939,115.336,0.0,87.0
91181,-0.831,0.487,0.765,-54.580,-137.969,141.595,0.0,93.0
91241,-0.666,0.578,0.779,-63.015,-164.672,150.924,0.0,59.0
91297,-0.294,0.605,0.638,-50.214,-156.992,174.634,0.0,51.0
91355,-0.049,0.344,0.599,-29.076,-117.473,186.450,0.0,62.0
91412,0.184,0.325,0.534,3.115,-47.168,195.771,0.0,67.0
91469,0.312,0.343,0.488,33.924,30.115,189.756,0.0,65.0
91527,0.167,0.504,0.547,-21.786,72.145,156.450,0.0,71.0
91584,0.134,0.265,0.813,-112.641,38.344,81.351,0.0,70.0
91650,0.160,-0.266,1.189,-41.786,-0.038,22.878,0.0,0.0
91714,0.309,-0.076,1.070,143.015,11.916,32.099,0.0,0.0
91783,0.190,0.556,0.881,75.618,30.069,26.450,0.0,0.0
91840,0.240,0.488,0.955,-1.603,23.969,5.893,0.0,78.0
91906,0.156,0.380,1.096,12.290,0.748,11.710,0.0,0.0
91963,0.150,0.325,1.002,12.916,-31.420,7.374,0.0,73.0
92027,0.337,0.511,0.779,38.473,-25.626,1.481,0.0,0.0
92093,0.343,0.506,0.820,4.382,6.794,1.206,0.0,0.0
92200,0.291,0.563,0.871,11.153,-0.725,0.008,0.0,0.0
92266,0.243,0.465,0.892,-8.977,-2.336,-2.664,0.0,0.0
92331,0.236,0.497,0.885,23.328,2.366,5.588,0.0,0.0
92399,0.214,0.592,0.792,9.473,9.786,7.389,0.0,0.0
92456,0.210,0.570,0.818,6.282,2.305,11.023,0.0,70.0
92512,0.240,0.550,0.816,-0.832,6.168,13.634,30.0,0.0
92576,0.204,0.511,0.814,4.176,7.634,17.137,0.0,0.0
92642,0.191,0.545,0.809,10.267,6.702,17.168,0.0,0.0
92706,0.226,0.593,0.805,10.893,2.008,17.443,0.0,0.0
92772,0.233,0.617,0.782,7.069,4.656,23.366,0.0,0.0
92836,0.233,0.556,0.803,2.924,6.382,21.092,0.0,0.0
92901,0.205,0.638,0.800,14.863,6.412,20.924,0.0,0.0
92956,0.211,0.662,0.774,1.824,6.748,17.725,30.0,0.0
93025,0.244,0.646,0.773,-2.740,-1.458,17.809,0.0,0.0
93090,0.250,0.625,0.714,-1.397,-1.160,13.366,0.0,0.0
93155,0.273,0.629,0.760,-5.473,1.374,9.557,0.0,0.0
93220,0.249,0.645,0.837,-9.435,-4.679,6.443,0.0,0.0
93285,0.269,0.562,0.803,-8.557,-6.076,5.649,0.0,0.0
93350,0.275,0.578,0.791,-4.916,-9.603,-3.649,0.0,0.0
93415,0.273,0.606,0.837,-0.374,-9.069,-3.603,0.0,0.0
93480,0.287,0.552,0.791,2.672,-10.145,-9.115,0.0,0.0
93536,0.262,0.632,0.779,0.511,-9.145,-12.656,31.0,0.0
93594,0.257,0.599,0.800,-3.885,-13.901,-11.916,30.0,0.0
93660,0.243,0.618,0.743,3.534,-14.519,-15.840,0.0,0.0
93715,0.256,0.664,0.770,-4.863,-15.305,-13.237,29.0,0.0
93774,0.208,0.625,0.722,-11.206,-16.626,-11.290,0.0,95.0
93824,0.230,0.701,0.789,-7.298,-15.099,-9.809,31.0,94.0
93874,0.194,0.612,0.807,-26.122,-13.756,-10.985,30.0,93.0
93923,0.215,0.568,0.785,-5.359,-10.130,-11.687,30.0,91.0
93971,0.206,0.632,0.761,-0.870,-8.855,-9.702,30.0,81.0
94020,0.234,0.644,0.760,-0.450,-10.137,-4.031,30.0,77.0
94071,0.257,0.632,0.753,-9.664,-7.351,-0.023,30.0,77.0
94119,0.231,0.581,0.811,-8.924,-4.679,0.595,30.0,75.0
94168,0.225,0.636,0.794,-0.695,-5.832,0.779,30.0,75.0
94216,0.239,0.667,0.773,-9.809,-6.687,-0.779,31.0,73.0
94261,0.237,0.542,0.777,-12.176,-4.336,1.023,31.0,16.0
94306,0.246,0.560,0.801,1.863,-6.031,2.260,30.0,16.0
94351,0.251,0.611,0.790,-4.794,-5.939,2.176,31.0,16.0
94399,0.257,0.581,0.806,-3.870,-6.840,2.626,31.0,69.0
94456,0.255,0.609,0.793,1.763,-6.878,3.802,0.0,71.0
94504,0.268,0.653,0.776,-0.115,-5.794,3.198,32.0,70.0
94556,0.271,0.580,0.788,-9.481,4.664,5.282,31.0,69.0
94612,0.237,0.614,0.808,5.969,8.756,8.221,31.0,0.0
94676,0.220,0.654,0.738,-7.710,6.740,10.771,0.0,0.0
94742,0.233,0.581,0.763,-4.031,5.527,14.771,0.0,0.0
94808,0.218,0.641,0.753,0.382,2.397,15.252,0.0,0.0
94873,0.229,0.583,0.799,-3.092,2.664,15.817,0.0,0.0
94928,0.238,0.644,0.763,4.344,3.702,13.076,29.0,0.0
94994,0.245,0.613,0.794,-5.641,1.290,13.748,0.0,0.0
95058,0.258,0.627,0.789,2.802,-4.794,9.092,0.0,0.0
95171,0.254,0.630,0.766,-1.580,-2.924,5.160,0.0,0.0
95236,0.252,0.628,0.796,-3.550,-5.939,3.076,0.0,0.0
95301,0.280,0.553,0.778,-9.107,-4.214,2.466,0.0,0.0
95367,0.270,0.620,0.817,0.168,-5.466,1.145,0.0,0.0
95432,0.249,0.623,0.781,-7.229,-9.931,-1.947,0.0,0.0
95498,0.275,0.576,0.834,-0.450,-7.802,-2.740,0.0,0.0
95563,0.260,0.611,0.748,-8.809,-12.435,-6.115,0.0,0.0
95619,0.248,0.607,0.760,2.931,-14.687,-10.031,31.0,0.0
95675,0.220,0.683,0.773,-0.992,-17.824,-13.053,30.0,0.0
95730,0.199,0.607,0.749,-6.901,-17.611,-20.252,30.0,0.0
95790,0.241,0.713,0.818,-5.237,-15.580,-26.458,30.0,0.0
95846,0.239,0.603,0.741,-11.565,-13.588,-22.473,37.0,0.0
95911,0.198,0.683,0.829,-3.389,-7.947,-18.344,0.0,0.0
95968,0.139,0.609,0.736,-10.412,-9.427,-17.870,30.0,0.0
96023,0.178,0.628,0.733,3.786,-10.473,-13.634,31.0,0.0
96079,0.196,0.677,0.714,-3.519,-15.458,-12.298,33.0,0.0
96136,0.171,0.676,0.739,-10.176,-17.366,-9.534,30.0,0.0
96191,0.218,0.570,0.831,-2.733,-15.740,-9.031,32.0,0.0
96247,0.171,0.713,0.747,0.328,-12.183,-8.992,31.0,0.0
96307,0.190,0.627,0.776,-6.504,-11.573,-8.458,32.0,0.0
96363,0.188,0.635,0.716,-3.702,-14.901,-7.634,30.0,0.0
96418,0.226,0.665,0.740,-2.794,-17.908,-5.893,30.0,0.0
96475,0.198,0.706,0.735,-4.015,-17.214,-2.420,36.0,0.0
96540,0.215,0.627,0.760,-9.534,-14.115,-1.794,0.0,0.0
96586,0.208,0.770,0.711,-1.756,-18.664,-5.466,30.0,17.0
96642,0.223,0.660,0.736,-12.481,-15.130,-6.344,32.0,0.0
96697,0.240,0.622,0.751,2.588,-12.176,-8.748,0.0,17.0
96742,0.235,0.761,0.701,9.496,-20.763,-9.282,29.0,8.0
96790,0.273,0.657,0.722,-7.252,-19.153,-11.023,30.0,9.0
96862,0.266,0.626,0.740,16.359,-10.908,-14.679,0.0,0.0
96926,0.222,0.767,0.788,21.244,-10.382,-22.298,0.0,0.0
96991,0.189,0.782,0.760,-13.275,-4.397,-21.290,0.0,0.0
97046,0.040,0.757,0.743,-42.160,-31.275,-41.908,30.0,0.0
97100,0.172,0.586,0.900,-65.260,-42.473,-69.435,28.0,0.0
97147,0.040,0.577,0.880,-9.634,-39.092,-71.160,30.0,57.0
97205,0.044,0.707,0.757,-3.565,-49.855,-77.107,0.0,67.0
97261,0.024,0.692,0.566,-14.351,-43.252,-88.130,0.0,57.0
97311,-0.056,0.604,0.529,-34.321,-15.206,-112.695,37.0,65.0
97367,-0.111,0.541,0.618,-42.130,1.725,-142.542,0.0,36.0
97422,-0.241,0.458,0.700,41.695,24.740,-149.771,0.0,31.0
97477,-0.233,0.771,0.498,3.145,46.122,-168.794,0.0,28.0
97531,-0.355,0.435,0.634,-0.885,81.763,-187.725,0.0,18.0
97586,-0.635,0.657,0.564,-6.137,106.244,-159.924,0.0,18.0
97646,-0.832,0.565,0.648,-48.466,116.206,-124.053,112.0,0.0
97698,-1.302,0.252,1.588,75.886,7.496,14.092,113.0,69.0
97750,-0.852,0.923,0.337,102.221,-6.519,-19.740,96.0,73.0
97808,-0.397,0.447,0.307,-147.267,7.038,-80.916,95.0,140.0
97859,-0.565,-0.371,0.663,-111.053,62.817,-58.763,96.0,67.0
97910,-0.842,0.031,0.489,43.290,93.458,-25.008,97.0,69.0
97961,-0.953,0.404,0.339,34.885,63.458,-24.382,97.0,66.0
98057,-0.914,0.406,0.363,11.985,25.718,0.092,114.0,65.0
98112,-0.955,0.182,0.227,-38.412,24.198,5.855,114.0,123.0
98165,-0.972,0.002,0.262,-23.939,27.389,-16.824,114.0,67.0
98217,-1.031,0.154,0.131,37.023,28.763,-16.344,114.0,66.0
98273,-0.929,0.025,0.221,72.924,27.473,-32.924,113.0,67.0
98325,-0.956,-0.098,0.320,5.427,22.725,-38.176,114.0,67.0
98377,-0.927,0.087,0.212,26.847,20.916,2.229,114.0,68.0
98423,-0.887,-0.052,0.221,-29.542,-5.267,6.427,17.0,67.0
98481,-1.046,0.039,-0.028,-29.244,-12.198,38.351,0.0,66.0
98530,-1.096,-0.139,0.060,4.924,-18.710,37.191,61.0,68.0
98582,-0.958,-0.017,-0.026,-7.672,-34.198,23.885,115.0,67.0
98635,-0.906,0.212,0.117,47.939,-27.168,54.840,115.0,71.0
98692,-0.992,-0.162,0.450,-73.656,-30.458,50.282,114.0,136.0
98747,-0.837,0.170,0.304,-40.595,-51.183,73.618,115.0,64.0
98799,-0.968,0.181,0.420,-13.290,-58.450,89.794,116.0,64.0
98851,-0.848,0.676,0.436,2.786,-29.229,49.130,117.0,64.0
98904,-0.868,0.704,0.223,-161.115,-20.916,20.092,117.0,65.0
98964,-0.791,0.039,0.584,-212.802,-62.992,49.115,0.0,110.0
99018,-1.083,0.146,1.033,31.450,-142.260,71.481,0.0,15.0
99073,-0.776,0.501,0.746,158.290,-144.847,154.321,0.0,17.0
99129,-0.552,1.112,0.696,-69.840,-138.382,136.794,0.0,44.0
99185,-0.380,0.412,1.021,-114.496,-154.305,146.366,0.0,47.0
99246,-0.079,0.404,0.930,-57.733,-109.015,185.786,0.0,49.0
99302,0.118,0.438,0.806,-148.725,-60.344,167.511,0.0,52.0
99359,0.154,0.044,0.852,-124.725,-50.573,120.878,0.0,59.0
99424,0.175,0.029,0.778,-66.328,-28.160,100.290,0.0,0.0
99482,0.235,0.080,0.625,-53.527,9.656,77.962,0.0,81.0
99547,0.228,-0.085,0.688,-71.031,35.893,64.603,0.0,194.0
99611,0.018,-0.125,0.791,-41.588,45.061,57.740,0.0,193.0
99666,-0.001,-0.253,1.022,-38.450,23.786,27.328,23.0,192.0
99724,0.022,-0.460,1.132,50.832,16.794,9.359,22.0,192.0
99778,-0.040,-0.116,1.049,64.420,21.740,-21.206,22.0,192.0
99844,-0.198,-0.045,1.233,4.084,-4.061,-56.015,0.0,0.0
99893,-0.231,-0.025,1.174,3.588,-24.916,-37.107,37.0,81.0
99951,-0.124,0.022,1.062,4.137,-38.511,-29.008,0.0,78.0
100008,-0.047,-0.020,1.080,9.603,-58.817,-39.595,0.0,77.0
100067,0.103,0.178,0.905,5.099,-82.290,-66.786,0.0,75.0
100125,0.173,0.152,0.961,-29.359,-91.733,-70.908,0.0,75.0
100173,0.335,0.404,0.742,26.366,-57.908,16.695,31.0,75.0
100225,0.509,0.315,0.620,-43.634,-5.672,59.679,28.0,76.0
100280,0.508,-0.104,0.752,-22.053,16.924,71.786,30.0,0.0
100345,0.402,-0.378,0.878,-5.718,8.672,49.992,0.0,0.0
100404,0.487,-0.224,0.970,58.687,-22.420,-6.443,0.0,80.0
100452,0.525,-0.186,1.006,53.489,-91.893,-109.748,26.0,77.0
100500,0.339,0.097,1.003,117.267,-106.435,-107.740,29.0,75.0
100548,0.645,0.798,0.628,99.893,-11.771,24.092,27.0,74.0
100596,0.581,0.734,0.513,-46.634,91.214,78.725,29.0,76.0
100655,0.357,0.064,0.792,-87.901,131.244,109.267,0.0,78.0
100716,0.308,-0.247,1.101,-9.710,77.275,67.626,0.0,81.0
100774,0.325,-0.302,1.148,33.809,-41.847,-36.695,0.0,80.0
100876,0.412,0.378,0.799,106.023,-70.969,-78.878,0.0,76.0
100934,0.397,0.582,0.728,54.206,-5.832,-33.595,0.0,77.0
101000,0.303,0.945,0.664,3.702,133.046,112.893,0.0,0.0
101065,0.041,0.282,1.002,-139.473,114.595,107.382,0.0,0.0
101131,0.137,-0.369,1.367,-8.450,12.244,58.008,0.0,0.0
101185,0.151,0.029,1.044,81.802,-70.824,-23.084,38.0,186.0
101251,0.220,0.364,0.840,71.733,-75.229,-51.115,0.0,0.0
101309,0.319,0.917,0.570,4.176,73.794,66.969,25.0,0.0
101365,0.045,0.419,0.906,-99.153,96.176,67.244,30.0,0.0
101429,0.087,-0.407,1.357,-45.855,-31.389,-38.023,0.0,167.0
101484,0.105,0.205,1.011,111.893,-114.160,-81.450,23.0,0.0
101539,0.450,1.269,0.397,7.962,11.840,19.969,27.0,0.0
101594,0.192,0.438,0.740,-153.756,102.695,47.107,23.0,182.0
101658,0.107,-0.430,1.302,-77.886,6.992,-14.740,0.0,183.0
101713,0.186,-0.071,1.067,135.420,-90.206,-79.321,23.0,0.0
101769,0.360,1.016,0.571,31.679,-13.832,-19.214,27.0,0.0
101827,0.242,0.489,0.790,-84.252,80.160,32.832,25.0,0.0
101883,0.129,0.018,1.129,-61.008,39.771,11.023,37.0,0.0
101949,0.160,-0.245,1.255,49.916,-66.870,-68.733,0.0,0.0
102004,0.351,0.850,0.709,62.611,-50.733,-28.573,26.0,0.0
102061,0.279,0.712,0.689,-73.252,46.458,25.901,29.0,0.0
102126,0.185,0.206,0.938,-72.710,59.641,48.015,0.0,0.0
102191,0.151,-0.122,1.173,-24.092,-19.893,-10.588,0.0,0.0
102249,0.236,0.155,0.988,74.023,-70.053,-46.550,0.0,71.0
102307,0.281,0.632,0.764,5.183,-17.023,-15.084,0.0,71.0
102360,0.231,0.422,0.845,-37.359,42.603,34.237,37.0,71.0
102418,0.186,0.169,0.993,-44.702,21.595,14.847,0.0,72.0
102475,0.225,-0.015,1.102,23.031,-24.397,-17.641,0.0,72.0
102534,0.264,0.434,0.894,23.939,-17.527,-11.092,0.0,71.0
102583,0.249,0.398,0.896,-18.565,14.458,8.962,37.0,71.0
102640,0.209,0.252,0.976,-17.389,15.168,10.786,0.0,71.0
102699,0.221,0.229,0.983,-11.344,1.603,1.092,0.0,71.0
102757,0.226,0.240,0.995,-3.847,-6.191,-3.809,0.0,71.0
102815,0.227,0.337,0.950,-2.664,-3.397,2.527,0.0,71.0
102871,0.222,0.266,0.961,-16.611,0.992,3.809,0.0,71.0
102929,0.206,0.234,0.962,-4.603,-3.916,0.550,0.0,71.0
102987,0.157,0.311,0.868,12.618,-1.740,0.947,0.0,71.0
103035,0.219,0.353,0.888,-17.305,23.580,14.450,30.0,71.0
103094,0.152,0.243,0.997,-32.771,25.145,13.206,0.0,70.0
103151,0.085,0.151,1.135,-35.687,21.809,17.748,0.0,63.0
103208,-0.043,0.118,1.200,-48.061,2.779,1.046,0.0,61.0
103267,0.021,-0.049,1.245,-67.099,-22.847,-26.176,0.0,70.0
103325,0.113,-0.164,1.252,-74.252,-23.687,-44.458,0.0,69.0
103387,0.112,-0.131,1.200,-60.519,-29.817,-82.809,0.0,69.0
103445,0.063,-0.011,1.019,-53.412,-33.580,-101.252,0.0,69.0
103507,0.149,-0.063,0.893,-88.641,-36.664,-132.863,0.0,146.0
103570,0.208,-0.166,0.803,-9.580,-4.160,-114.099,0.0,140.0
103632,0.341,0.102,0.618,-35.588,31.168,-125.076,0.0,135.0
103694,0.317,-0.168,0.780,-89.221,84.893,-137.527,0.0,133.0
103759,0.169,0.021,0.771,-37.389,135.023,-102.031,0.0,0.0
103869,-0.153,0.014,0.940,-18.916,76.748,-80.282,0.0,0.0
103938,-0.055,0.010,0.804,-9.160,114.870,-41.802,0.0,0.0
103995,-0.219,-0.076,1.188,-41.817,88.023,-55.855,39.0,0.0
104051,-0.727,-0.330,1.549,228.450,11.779,11.298,41.0,0.0
104117,-0.179,0.759,0.699,-76.679,-46.725,45.557,0.0,0.0
104174,-0.219,-0.400,0.723,-133.198,47.672,-24.008,40.0,0.0
104237,-0.471,-0.386,0.750,-94.435,28.649,-14.389,39.0,0.0
104292,-0.344,-0.709,0.810,1.931,-3.099,-28.168,40.0,0.0
104347,-0.216,-0.419,0.763,111.313,8.298,-31.779,41.0,0.0
104403,-0.267,-0.007,0.722,91.779,31.038,-40.366,43.0,0.0
104462,-0.436,0.070,0.831,35.588,31.641,-15.885,45.0,0.0
104518,-0.453,-0.077,0.982,20.450,12.229,1.809,44.0,0.0
104573,-0.438,-0.148,1.215,75.107,-5.565,19.908,45.0,0.0
104624,-0.373,0.128,0.875,81.687,0.702,31.901,47.0,91.0
104669,-0.534,0.106,1.130,20.107,-22.618,26.931,47.0,23.0
104718,-0.264,0.101,1.006,2.817,-30.473,16.733,50.0,71.0
104764,-0.343,0.051,0.900,20.649,-34.756,14.626,53.0,23.0
104814,-0.260,0.277,1.019,-9.885,-24.809,10.878,69.0,71.0
104863,-0.251,-0.086,1.028,3.176,-16.771,14.252,68.0,70.0
104915,-0.253,0.246,0.980,16.626,-19.389,8.969,51.0,69.0
104961,-0.262,0.005,1.070,-6.802,-10.153,6.664,50.0,22.0
105010,-0.241,0.088,1.032,7.603,-1.099,8.282,50.0,69.0
105058,-0.222,0.088,0.977,3.260,-1.695,5.763,49.0,71.0
105108,-0.182,0.146,0.991,10.061,-8.076,1.885,70.0,68.0
105161,-0.219,0.191,0.968,-1.916,-10.137,-3.687,138.0,71.0
105211,-0.208,0.153,1.029,4.481,-3.305,-5.489,51.0,89.0
105257,-0.263,0.066,0.985,-2.985,4.664,-3.725,50.0,23.0
105311,-0.316,0.144,0.917,-0.053,-0.130,-2.046,50.0,91.0
105356,-0.272,0.105,0.989,5.802,-3.489,4.725,48.0,22.0
105402,-0.257,0.140,0.980,-4.901,-1.977,7.244,50.0,22.0
105448,-0.245,0.128,0.992,-7.573,1.473,6.191,48.0,22.0
105494,-0.262,0.117,0.966,-4.061,1.366,6.809,48.0,23.0
105540,-0.254,0.139,0.957,-3.427,-0.992,5.870,48.0,23.0
105586,-0.255,0.104,0.980,-3.000,-2.649,5.282,48.0,24.0
105631,-0.261,0.127,0.971,-1.626,-1.992,5.954,48.0,22.0
105677,-0.251,0.103,0.982,-2.954,-2.038,5.901,48.0,22.0
105726,-0.268,0.131,0.955,-3.580,-3.260,7.092,48.0,22.0
105773,-0.255,0.125,0.968,-5.031,-3.534,7.870,48.0,23.0
105819,-0.229,0.111,0.994,-4.771,-0.756,9.626,49.0,25.0
105869,-0.272,0.142,0.958,-2.771,0.687,10.191,49.0,90.0
105918,-0.243,0.121,0.991,-0.153,1.069,9.237,50.0,91.0
105964,-0.287,0.131,1.006,6.000,5.802,10.099,48.0,23.0
106010,-0.301,0.101,1.016,4.733,10.366,15.229,49.0,25.0
106060,-0.254,0.212,0.915,-4.939,13.122,17.473,48.0,90.0
106106,-0.231,0.135,0.981,-22.641,11.916,10.023,48.0,24.0
106160,-0.302,-0.015,0.972,7.740,9.985,12.908,48.0,91.0
106209,-0.321,0.225,0.921,4.290,0.710,8.626,49.0,90.0
106259,-0.285,0.097,1.033,-4.504,7.137,5.519,49.0,90.0
106315,-0.316,0.135,0.962,-1.344,12.336,8.229,48.0,0.0
106372,-0.315,0.108,0.923,-7.328,8.885,10.725,47.0,0.0
106471,-0.328,0.169,0.975,-8.916,11.328,9.634,48.0,0.0
106521,-0.279,0.096,0.945,-17.008,19.427,13.573,49.0,91.0
106577,-0.252,0.183,1.012,-20.855,26.504,10.466,47.0,0.0
106634,-0.332,0.124,0.936,-28.611,30.840,6.237,48.0,0.0
106693,-0.457,0.023,0.794,-26.740,17.000,11.298,47.0,0.0
106749,-0.525,0.043,0.812,-5.252,-2.748,19.908,47.0,0.0
106806,-0.528,-0.083,0.960,-23.244,4.008,29.351,47.0,0.0
106862,-0.492,0.050,0.906,-24.473,13.069,36.229,48.0,0.0
106918,-0.405,0.048,0.935,-25.229,15.519,39.351,48.0,0.0
106976,-0.405,0.079,0.866,-27.145,11.840,35.992,49.0,0.0
107032,-0.501,0.034,0.860,-19.611,2.611,35.649,49.0,0.0
107088,-0.509,0.050,0.897,-17.748,-0.198,37.344,51.0,0.0
107145,-0.508,0.058,0.844,-16.229,-1.344,35.137,49.0,0.0
107205,-0.467,0.102,0.932,-12.908,-3.481,30.130,51.0,0.0
107261,-0.463,0.051,0.878,-9.084,-4.374,26.122,51.0,0.0
107318,-0.479,0.098,0.910,-12.580,-2.740,19.573,51.0,0.0
107375,-0.461,0.064,0.900,-4.305,-6.137,18.511,50.0,0.0
107431,-0.457,0.086,0.871,2.282,-9.344,14.885,51.0,0.0
107488,-0.446,0.125,0.958,-7.969,-4.947,5.382,51.0,0.0
107544,-0.411,0.108,0.939,-22.924,3.412,-3.183,51.0,0.0
107601,-0.500,0.090,1.037,-51.153,22.053,-4.679,51.0,0.0
107658,-0.748,-0.019,1.040,-58.038,-0.214,16.550,49.0,0.0
107717,-0.683,-0.201,1.093,9.611,-65.496,40.221,49.0,0.0
107774,-0.640,0.034,1.062,120.603,-120.618,99.511,51.0,0.0
107830,-0.371,0.369,0.948,47.130,-141.000,115.641,56.0,167.0
107890,-0.252,0.399,0.820,-21.130,-138.275,119.855,0.0,111.0
107951,0.040,0.281,0.761,-22.450,-138.344,118.374,0.0,113.0
108011,0.184,0.171,0.721,-4.176,-122.481,120.145,0.0,117.0
108072,0.323,0.140,0.647,-29.901,-101.985,118.992,0.0,123.0
108133,0.419,0.003,0.689,-21.351,-72.618,121.916,0.0,128.0
108195,0.398,-0.042,0.652,-12.542,-36.718,124.771,0.0,132.0
108260,0.370,-0.233,0.711,35.176,-9.656,107.824,0.0,136.0
108321,0.243,-0.053,0.671,52.107,18.702,97.542,0.0,139.0
108387,0.352,0.021,0.795,50.924,49.802,86.840,0.0,0.0
108452,0.323,-0.092,0.987,63.985,74.908,63.412,0.0,0.0
108518,0.194,-0.095,1.029,82.450,112.305,49.901,0.0,0.0
108564,0.090,-0.313,1.189,81.656,117.473,-10.489,19.0,54.0
108610,-0.063,-0.019,1.100,105.542,122.053,-14.763,16.0,53.0
108667,-0.174,0.208,0.995,89.153,109.221,-52.954,0.0,52.0
108726,-0.300,0.405,0.866,14.740,104.847,-62.603,0.0,29.0
108782,-0.449,0.293,1.032,15.573,88.053,-75.695,0.0,30.0
108837,-0.513,0.201,1.149,35.366,38.382,-60.580,0.0,29.0
108895,-0.312,0.327,1.120,95.015,28.290,-11.779,0.0,50.0
108952,-0.355,0.620,1.191,100.168,-0.847,29.527,0.0,51.0
109008,-0.389,0.598,0.611,26.260,-2.542,10.802,0.0,51.0
109068,-0.493,0.446,0.688,25.695,-0.053,13.328,0.0,91.0
109127,-0.470,0.595,0.758,18.794,-0.649,15.092,0.0,89.0
109186,-0.381,0.562,0.764,2.366,3.130,13.099,0.0,87.0
109256,-0.432,0.510,0.744,1.214,4.924,9.931,0.0,90.0
109313,-0.441,0.552,0.766,-9.931,4.176,8.573,0.0,52.0
109417,-0.409,0.575,0.711,-11.695,4.985,12.153,0.0,145.0
109481,-0.410,0.537,0.754,-10.305,7.237,16.550,0.0,0.0
109538,-0.407,0.544,0.727,-21.107,9.565,14.466,0.0,43.0
109593,-0.451,0.563,0.740,-39.481,8.687,8.901,0.0,38.0
109648,-0.457,0.513,0.778,-62.649,6.160,6.595,0.0,35.0
109704,-0.439,0.428,0.800,-49.267,4.305,10.763,0.0,34.0
109759,-0.436,0.435,0.812,-61.809,3.145,11.313,0.0,36.0
109817,-0.408,0.297,0.880,-49.947,3.000,13.603,0.0,36.0
109873,-0.412,0.455,0.845,-46.229,0.832,18.405,0.0,36.0
109928,-0.372,0.292,0.905,-56.901,3.435,17.687,0.0,37.0
109983,-0.395,0.234,0.869,-33.107,3.962,15.244,0.0,38.0
110040,-0.478,0.170,0.868,-24.504,1.740,17.718,0.0,39.0
110095,-0.489,0.177,0.858,8.267,-0.649,21.084,0.0,39.0
110150,-0.508,0.163,0.855,-9.244,5.099,17.053,0.0,40.0
110205,-0.485,0.271,0.880,10.267,-1.962,12.542,0.0,38.0
110262,-0.368,0.256,0.857,-21.466,-3.824,7.748,0.0,41.0
110318,-0.472,0.269,0.897,17.870,-5.748,14.595,0.0,57.0
110372,-0.416,0.393,0.868,-17.664,-7.908,10.794,0.0,57.0
110429,-0.326,0.292,0.918,-15.298,-5.412,11.824,0.0,58.0
110476,-0.206,0.300,0.971,-0.901,-4.405,8.595,42.0,44.0
110523,-0.358,0.231,0.900,0.626,-22.573,-4.183,39.0,43.0
110569,-0.370,0.242,0.817,24.053,-27.511,-5.893,38.0,44.0
110615,-0.467,0.169,0.840,30.817,-23.664,-7.550,38.0,30.0
110661,-0.603,0.328,0.849,39.809,-23.969,-3.397,37.0,43.0
110707,-0.562,0.379,0.903,10.321,-28.038,0.779,36.0,31.0
110756,-0.378,0.289,0.973,-7.603,-28.992,1.519,37.0,43.0
110802,-0.310,0.295,0.976,11.870,-27.756,10.481,37.0,29.0
110859,-0.229,0.430,0.879,9.176,-29.084,15.473,0.0,45.0
110904,-0.162,0.348,0.935,-25.489,-29.618,11.626,37.0,30.0
110951,-0.072,0.211,0.973,-4.282,-23.809,13.924,37.0,46.0
110998,-0.094,0.208,0.884,20.221,-10.267,-0.771,38.0,57.0
111044,-0.155,0.190,0.819,35.779,1.786,-17.176,37.0,26.0
111089,-0.646,1.040,1.182,-2.435,-23.023,-1.282,37.0,29.0
111136,-0.173,0.097,0.921,22.511,-20.573,5.252,36.0,52.0
111185,-0.254,0.681,0.747,48.504,-1.336,17.092,36.0,25.0
111230,-0.242,0.647,0.824,-10.099,-1.672,9.763,36.0,28.0
111277,-0.312,0.448,0.846,-23.107,-0.389,0.702,36.0,27.0
111322,-0.352,0.327,0.887,-9.282,-1.435,-2.710,36.0,26.0
111368,-0.308,0.402,0.904,3.748,-3.374,-2.237,35.0,25.0
111413,-0.274,0.351,0.876,12.130,-1.053,-0.763,35.0,30.0
111459,-0.283,0.477,0.850,17.344,2.015,1.595,35.0,27.0
111504,-0.260,0.484,0.842,13.542,2.237,2.832,37.0,30.0
111550,-0.235,0.518,0.817,16.435,2.710,4.450,38.0,31.0
111599,-0.247,0.582,0.844,4.542,0.267,7.672,36.0,30.0
111645,-0.282,0.534,0.834,0.885,2.267,10.290,36.0,29.0
111690,-0.290,0.508,0.802,-8.756,0.366,8.084,35.0,29.0
111736,-0.250,0.412,0.869,-19.947,-1.336,1.786,35.0,31.0
111782,-0.281,0.302,0.947,1.198,-3.298,2.305,35.0,30.0
111827,-0.207,0.400,0.943,18.725,-2.458,-5.847,36.0,33.0
111875,-0.250,0.425,0.912,35.389,1.832,-17.771,38.0,38.0
111973,-0.331,0.631,0.869,32.855,-2.412,-15.137,0.0,36.0
112029,-0.277,0.667,0.774,6.244,-6.557,1.611,0.0,37.0
112090,-0.254,0.569,0.933,-42.313,-14.137,2.573,0.0,62.0
112146,-0.114,0.325,0.890,10.824,-11.786,5.107,0.0,57.0
112203,-0.168,0.499,0.850,17.733,-9.924,-1.031,0.0,53.0
112260,-0.197,0.611,0.770,13.031,-8.046,0.481,0.0,52.0
112316,-0.219,0.594,0.799,-14.702,-9.779,-9.588,0.0,52.0
112373,-0.294,0.495,0.885,-5.397,-16.405,-15.573,0.0,60.0
112431,-0.272,0.393,0.907,13.557,-21.824,-26.427,0.0,61.0
112488,-0.328,0.499,0.802,19.092,-25.382,-30.634,0.0,61.0
112545,-0.346,0.631,0.741,25.069,-21.969,-29.885,0.0,60.0
112606,-0.271,0.577,0.774,-19.466,-21.992,-46.328,0.0,63.0
112663,-0.324,0.508,0.843,-10.931,-20.382,-50.885,0.0,49.0
112719,-0.314,0.444,0.908,8.336,-26.870,-52.122,0.0,51.0
112778,-0.250,0.580,0.851,23.206,-29.107,-36.840,0.0,81.0
112836,-0.274,0.568,0.851,28.725,-41.137,-23.908,0.0,82.0
112894,-0.201,0.652,0.795,33.183,-39.176,-11.947,0.0,82.0
112954,-0.208,0.777,0.743,-23.198,-36.992,-25.137,0.0,82.0
113018,-0.091,0.432,0.951,-28.366,-35.282,-18.542,0.0,0.0
113078,-0.145,0.589,0.884,-13.473,-41.069,-4.107,0.0,83.0
113139,-0.125,0.481,0.976,-28.275,-58.786,0.687,0.0,83.0
113198,-0.154,0.364,1.073,-50.351,-88.618,7.008,0.0,83.0
113257,0.124,-0.054,1.167,-67.878,-131.611,-9.053,0.0,84.0
113315,0.322,-0.020,1.143,-37.466,-142.511,-37.962,0.0,83.0
113381,0.370,0.184,0.903,-7.290,-124.260,-50.000,0.0,0.0
113446,0.489,0.311,0.664,-48.168,-77.702,-60.252,0.0,0.0
113511,0.461,0.250,0.712,-42.672,3.359,-68.252,0.0,0.0
113576,0.216,0.581,0.805,-40.366,55.740,-54.786,0.0,0.0
113645,-0.043,0.637,0.916,-26.878,44.191,-4.244,0.0,0.0
113711,0.166,0.407,0.871,-83.160,44.840,4.458,0.0,0.0
113776,0.165,0.014,0.979,-39.053,59.405,-4.298,0.0,0.0
113841,-0.090,0.177,0.984,31.924,67.748,-0.618,0.0,0.0
113906,-0.174,0.135,1.157,-26.878,17.176,-11.992,0.0,0.0
113972,-0.095,0.152,1.062,43.290,-4.847,5.214,0.0,0.0
114037,-0.104,0.396,0.850,-0.656,7.740,19.313,0.0,0.0
114103,-0.179,0.116,0.919,-59.786,0.695,9.786,0.0,0.0
114167,-0.073,0.088,0.990,-12.977,9.046,15.557,0.0,0.0
114228,-0.102,0.110,1.022,41.802,-5.893,13.252,57.0,0.0
114285,-0.049,0.198,0.897,36.840,-21.695,5.443,58.0,0.0
114342,0.054,0.383,1.191,17.802,4.718,25.275,54.0,0.0
114408,-0.031,0.307,0.886,-0.832,-13.992,21.824,0.0,0.0
114473,-0.057,0.160,1.057,-3.099,-0.740,19.870,0.0,0.0
114538,-0.028,0.301,0.973,1.687,-1.511,23.290,0.0,0.0
114604,-0.019,0.179,1.019,35.008,9.687,37.603,0.0,0.0
114669,-0.042,0.335,0.995,16.511,2.313,18.191,0.0,0.0
114735,-0.040,0.422,0.916,1.076,-0.328,15.580,0.0,0.0
114800,0.035,0.262,0.985,-13.573,-4.580,1.336,0.0,0.0
114860,-0.031,0.333,0.990,2.855,-8.473,-4.160,41.0,0.0
114925,0.058,0.310,0.967,-18.763,-4.542,-5.092,0.0,0.0
114991,0.111,0.252,1.089,-18.038,7.290,14.481,0.0,0.0
115090,0.229,0.460,0.980,-34.962,12.794,57.481,38.0,0.0
115155,0.115,0.142,0.955,-57.656,-3.557,51.954,0.0,0.0
115221,0.054,0.136,0.809,41.298,15.481,50.885,0.0,0.0
115287,-0.394,0.642,0.772,15.046,26.069,41.855,0.0,0.0
115352,-0.236,0.309,0.901,-60.603,12.397,24.427,0.0,0.0
115418,-0.249,0.064,1.064,-23.115,14.290,14.802,0.0,0.0
115486,-0.080,0.274,0.991,54.397,-5.511,16.687,0.0,0.0
115543,-0.072,0.375,0.934,-22.878,-0.824,21.298,38.0,0.0
115598,-0.075,0.234,1.071,-50.450,5.489,25.809,30.0,0.0
115654,0.024,-0.097,1.036,-35.206,-4.153,-0.855,27.0,0.0
115709,0.028,-0.005,1.055,31.794,-8.076,-33.122,29.0,0.0
115767,-0.235,0.380,1.086,24.962,-5.107,-22.321,37.0,0.0
115832,-0.177,0.703,0.730,-46.115,8.908,30.450,0.0,0.0
115898,0.053,-0.254,1.124,-48.733,-0.458,15.099,0.0,0.0
115963,0.073,-0.131,0.956,52.282,-20.000,-73.863,0.0,0.0
116034,-0.171,1.182,0.671,-6.947,6.382,37.550,58.0,0.0
116090,-0.046,-0.177,1.077,-117.924,11.779,37.557,39.0,0.0
116156,0.106,-0.409,1.152,20.168,-5.252,-10.969,0.0,0.0
116222,-0.182,0.331,0.974,53.618,-11.076,-43.305,0.0,0.0
116279,-0.130,0.755,0.855,-40.985,7.275,28.733,40.0,0.0
116334,0.036,-0.127,1.088,-36.473,8.786,29.573,29.0,0.0
116390,0.013,-0.287,1.071,38.237,-4.977,-20.840,29.0,0.0
116456,-0.192,0.278,1.004,25.878,-13.496,-43.916,0.0,0.0
116528,-0.163,0.454,0.878,-64.992,10.725,38.573,0.0,0.0
116595,0.151,-0.419,1.071,-24.336,-5.130,-15.084,0.0,0.0
116660,-0.131,0.168,0.953,63.198,-16.374,-59.817,0.0,0.0
116724,-0.141,0.972,0.781,-17.107,3.824,28.237,0.0,0.0
116781,-0.000,-0.245,1.128,-27.176,12.824,33.458,44.0,0.0
116836,0.044,-0.254,1.098,34.832,-1.626,-17.221,40.0,0.0
116892,-0.152,0.431,0.995,29.305,-13.221,-31.962,42.0,0.0
116947,-0.063,0.357,1.008,-32.855,-7.626,-9.420,39.0,0.0
117012,-0.149,0.090,1.115,-14.992,-15.931,6.985,0.0,0.0
117070,-0.005,0.296,0.976,-3.344,-42.740,20.275,43.0,0.0
117126,0.073,0.179,1.013,-21.748,-53.351,15.374,30.0,0.0
117181,0.136,0.190,0.971,24.008,-45.374,38.351,30.0,0.0
117245,0.146,0.367,0.823,24.916,-15.992,62.099,0.0,0.0
117310,0.090,0.307,0.845,-4.977,21.947,89.328,0.0,0.0
117365,0.021,0.203,0.832,-29.290,47.496,95.092,30.0,0.0
117421,-0.035,0.006,1.022,-31.359,54.458,79.702,26.0,0.0
117475,-0.091,0.003,1.073,10.145,49.145,65.573,19.0,0.0
117539,-0.147,0.113,1.076,-4.786,29.366,39.221,0.0,0.0
117597,-0.224,0.020,1.171,24.489,3.992,15.649,23.0,0.0
117652,-0.081,0.231,0.970,36.489,1.046,18.840,23.0,0.0
117706,-0.105,0.333,0.933,2.924,5.145,17.947,23.0,0.0
117761,-0.136,0.193,1.032,-13.611,-3.351,11.794,24.0,0.0
117826,-0.065,0.065,1.041,3.718,-7.427,-5.542,0.0,0.0
117880,-0.110,0.274,0.941,28.504,-5.718,-8.191,18.0,0.0
117945,-0.101,0.294,1.021,-14.389,-5.527,-14.557,0.0,0.0
118010,-0.073,0.258,0.950,-10.580,-2.840,-12.908,0.0,0.0
118075,-0.084,0.232,1.014,7.069,-3.214,-10.855,0.0,0.0
