Timestamp(ms),AccelX(g),AccelY(g),AccelZ(g),GyroX(deg/s),GyroY(deg/s),GyroZ(deg/s),DistanceLeft(cm),DistanceRight(cm)
251337,0.483,0.705,0.111,-75.237,-11.473,18.000,154.0,16.0
251386,0.507,0.666,0.233,-24.198,4.634,16.008,155.0,17.0
251438,0.475,0.898,0.276,-21.244,-9.260,13.382,156.0,50.0
251489,0.569,0.755,0.387,-49.412,-19.687,6.939,172.0,23.0
251539,0.543,0.644,0.482,-7.053,-13.183,-6.206,167.0,16.0
251589,0.553,0.738,0.457,50.519,-10.160,-10.137,158.0,16.0
251643,0.520,0.981,0.352,32.328,-16.008,-9.450,159.0,50.0
251696,0.542,0.858,0.338,-4.824,-15.443,-4.237,169.0,50.0
251748,0.569,0.799,0.333,12.847,-6.130,8.229,160.0,49.0
251798,0.560,0.817,0.316,19.298,-2.947,7.908,169.0,17.0
251850,0.548,0.793,0.320,9.221,-0.458,6.069,169.0,57.0
251904,0.560,0.814,0.306,-1.718,0.931,1.954,170.0,57.0
251956,0.500,0.792,0.294,-1.962,3.176,1.924,170.0,50.0
252008,0.521,0.875,0.281,6.908,3.824,4.122,168.0,50.0
252058,0.469,0.836,0.324,-6.275,1.679,1.397,169.0,16.0
252114,0.512,0.795,0.351,-4.221,-3.794,-4.191,171.0,72.0
252169,0.506,0.812,0.367,8.656,-5.817,-5.397,165.0,75.0
252221,0.498,0.828,0.342,6.679,-7.405,-1.550,166.0,59.0
252273,0.538,0.777,0.377,17.580,-8.427,-1.550,168.0,46.0
252327,0.518,0.862,0.333,15.916,-7.908,-3.298,0.0,44.0
252378,0.519,0.846,0.347,-6.595,-2.840,-4.160,169.0,18.0
252430,0.513,0.823,0.381,-10.573,3.580,-0.397,165.0,44.0
252481,0.552,0.764,0.392,-2.626,5.534,-1.710,167.0,45.0
252533,0.532,0.811,0.384,5.969,7.718,-5.267,166.0,45.0
252589,0.514,0.803,0.346,5.947,7.008,3.427,168.0,45.0
252641,0.530,0.786,0.358,14.321,10.672,3.626,168.0,46.0
252693,0.495,0.770,0.324,20.000,19.198,8.992,166.0,46.0
252744,0.521,0.785,0.373,24.198,29.435,3.031,159.0,47.0
252796,0.426,0.808,0.403,-2.115,16.015,0.221,158.0,50.0
252851,0.481,0.775,0.444,8.321,4.542,-2.305,192.0,57.0
252911,0.501,0.782,0.456,26.489,5.244,-1.382,164.0,0.0
252973,0.512,0.815,0.427,17.282,6.893,0.305,162.0,0.0
253025,0.477,0.799,0.401,3.519,4.847,1.099,161.0,57.0
253079,0.475,0.768,0.402,15.298,0.099,0.954,161.0,50.0
253132,0.474,0.801,0.385,15.985,0.809,2.695,167.0,58.0
253187,0.481,0.795,0.388,18.855,3.962,4.450,182.0,61.0
253240,0.479,0.819,0.395,14.160,4.977,6.221,183.0,58.0
253294,0.483,0.773,0.408,12.916,3.092,5.130,182.0,59.0
253347,0.464,0.787,0.402,12.046,-0.786,4.679,181.0,58.0
253401,0.502,0.804,0.400,10.130,-2.351,1.420,181.0,57.0
253454,0.472,0.827,0.411,4.420,-7.985,-0.588,165.0,59.0
253507,0.485,0.813,0.406,6.588,-7.260,1.466,166.0,59.0
253562,0.502,0.785,0.372,3.901,-3.954,-0.718,164.0,51.0
253615,0.525,0.761,0.383,11.725,0.191,-8.809,164.0,58.0
253668,0.481,0.834,0.378,6.725,0.855,-9.183,172.0,57.0
253721,0.484,0.829,0.392,10.176,3.053,-4.267,172.0,57.0
253774,0.486,0.802,0.385,12.313,6.962,-2.824,172.0,57.0
253828,0.478,0.809,0.374,15.649,9.252,-1.786,172.0,51.0
253880,0.461,0.823,0.364,21.168,13.160,-2.031,163.0,60.0
253935,0.446,0.811,0.354,24.336,19.321,-0.466,169.0,84.0
254032,0.464,0.869,0.394,4.260,29.298,-4.786,158.0,85.0
254089,0.446,0.808,0.437,-17.122,19.473,-5.947,168.0,58.0
254141,0.427,0.738,0.525,-2.176,18.069,-12.740,164.0,59.0
254194,0.333,0.840,0.522,15.359,19.221,-6.168,160.0,59.0
254246,0.324,0.884,0.460,17.954,12.809,-4.443,158.0,57.0
254300,0.332,0.863,0.446,9.420,17.244,-5.244,158.0,58.0
254353,0.323,0.841,0.409,13.817,30.809,-7.244,158.0,83.0
254407,0.272,0.878,0.395,18.786,45.550,-9.710,158.0,83.0
254461,0.307,0.786,0.467,-9.824,31.389,-23.237,159.0,82.0
254516,0.214,0.744,0.588,14.542,15.198,-17.122,171.0,82.0
254574,0.279,0.882,0.549,23.511,-8.824,-6.344,172.0,80.0
254628,0.308,0.927,0.452,10.725,2.122,2.786,161.0,80.0
254682,0.276,0.830,0.517,-13.221,3.084,5.588,160.0,81.0
254736,0.278,0.806,0.527,12.641,-0.580,13.389,160.0,81.0
254790,0.269,0.833,0.530,-12.626,-0.275,7.924,161.0,84.0
254848,0.181,0.818,0.561,-19.794,5.145,0.962,0.0,93.0
254904,0.213,0.742,0.666,-27.939,1.557,-12.084,0.0,92.0
254960,0.253,0.755,0.678,-19.771,-5.992,-15.542,0.0,83.0
255017,0.262,0.768,0.713,-31.779,-14.282,-21.954,0.0,82.0
255067,0.317,0.737,0.643,37.740,-24.061,-9.756,29.0,84.0
255114,0.360,0.938,0.455,13.794,-5.321,10.519,26.0,84.0
255160,0.367,0.794,0.442,11.191,16.611,38.084,30.0,83.0
255207,0.289,0.697,0.485,20.427,19.382,38.794,31.0,83.0
255263,0.209,0.699,0.555,5.366,13.916,20.374,0.0,84.0
255320,0.209,0.621,0.749,31.618,8.160,-4.336,0.0,83.0
255376,0.263,0.847,0.681,32.641,3.496,-11.870,0.0,83.0
255432,0.291,0.819,0.660,18.015,-0.939,-3.221,0.0,82.0
255479,0.244,0.819,0.657,-0.725,-1.870,-7.947,29.0,81.0
255529,0.192,0.749,0.714,-18.160,-15.176,-15.397,30.0,82.0
255586,0.272,0.662,0.699,-2.015,-19.580,-23.496,0.0,83.0
255641,0.265,0.837,0.598,18.099,-11.359,-16.229,167.0,93.0
255698,0.266,0.813,0.604,13.267,-6.366,-2.878,0.0,92.0
255745,0.175,0.800,0.577,52.397,-9.443,8.611,27.0,83.0
255792,0.257,0.768,0.547,96.031,-8.840,12.664,30.0,83.0
255848,0.284,0.891,0.415,77.870,-2.847,4.214,0.0,81.0
255902,0.367,0.750,0.406,85.855,-0.855,-5.527,169.0,81.0
255955,0.324,0.895,0.246,95.198,7.794,-15.298,159.0,57.0
256013,0.330,0.844,0.266,97.153,22.153,-18.603,159.0,78.0
256067,0.261,1.031,0.189,40.267,18.718,-14.618,159.0,77.0
256120,0.258,0.940,0.280,29.893,14.336,-5.779,160.0,76.0
256175,0.229,0.989,0.276,33.183,11.282,2.168,160.0,75.0
256229,0.209,0.957,0.279,16.214,7.290,-3.931,160.0,75.0
256282,0.182,0.996,0.238,27.214,6.618,-6.924,161.0,76.0
256336,0.157,1.044,0.197,12.962,2.817,-4.359,161.0,75.0
256391,0.231,0.970,0.218,13.420,-0.031,-3.985,161.0,76.0
256445,0.212,0.937,0.225,17.931,-0.702,-6.748,161.0,76.0
256502,0.157,0.954,0.199,35.168,1.519,-7.412,161.0,76.0
256557,0.145,1.066,0.164,23.198,3.267,-7.282,161.0,74.0
256610,0.085,0.925,0.219,20.969,-4.282,-11.267,161.0,76.0
256670,0.130,1.002,0.205,-5.710,-10.588,-10.298,161.0,76.0
256766,0.153,1.036,0.199,-3.076,-16.031,-3.198,161.0,74.0
256819,0.132,0.954,0.217,3.046,-16.038,-2.985,161.0,74.0
256871,0.131,1.049,0.196,2.305,-15.008,-1.290,161.0,57.0
256917,0.161,0.960,0.259,-6.481,-11.656,0.366,37.0,75.0
256973,0.197,1.038,0.240,-7.137,-5.458,11.756,161.0,75.0
257026,0.178,1.005,0.270,-15.718,6.015,14.458,160.0,75.0
257079,0.137,1.038,0.275,-9.534,4.863,17.855,160.0,76.0
257132,0.160,0.969,0.253,2.664,-0.527,23.679,159.0,77.0
257185,0.197,0.925,0.206,19.832,12.237,16.260,159.0,78.0
257239,0.232,0.873,0.195,23.015,26.595,1.985,159.0,78.0
257291,0.200,0.865,0.241,22.168,33.328,-12.397,159.0,78.0
257344,0.129,0.954,0.285,28.336,22.870,-5.870,159.0,77.0
257397,0.187,1.035,0.273,34.679,13.336,5.695,159.0,77.0
257454,0.209,1.014,0.250,11.977,9.023,5.603,159.0,77.0
257507,0.173,0.953,0.278,5.878,10.687,1.359,159.0,77.0
257553,0.150,0.918,0.267,10.153,6.954,-0.870,37.0,77.0
257606,0.140,1.020,0.246,22.252,1.573,1.664,160.0,77.0
257658,0.142,1.031,0.212,18.252,-1.557,0.947,160.0,76.0
257712,0.131,0.958,0.246,-6.878,-12.137,-3.412,160.0,76.0
257765,0.179,1.008,0.223,3.870,-17.130,4.687,160.0,77.0
257818,0.200,1.016,0.230,-17.840,-12.481,10.901,160.0,77.0
257871,0.199,0.946,0.303,-18.099,-10.198,8.069,159.0,78.0
257928,0.179,0.986,0.287,5.069,-1.206,13.496,159.0,78.0
257981,0.135,0.996,0.330,-23.031,-3.557,15.252,159.0,79.0
258034,0.194,0.950,0.358,2.313,-4.198,19.832,159.0,79.0
258087,0.215,0.934,0.391,-5.099,-7.053,17.038,158.0,80.0
258141,0.306,0.928,0.363,-8.725,-5.794,14.069,158.0,80.0
258194,0.296,0.861,0.401,-25.565,3.679,5.748,157.0,81.0
258246,0.311,0.850,0.406,-9.290,2.878,-1.435,157.0,53.0
258297,0.246,0.949,0.394,-0.802,5.634,3.107,156.0,48.0
258349,0.265,0.878,0.397,-3.702,9.458,12.603,156.0,46.0
258403,0.285,0.830,0.410,6.931,26.328,2.336,156.0,46.0
258454,0.155,0.882,0.454,-6.870,25.588,0.160,158.0,46.0
258506,0.161,0.920,0.505,-16.626,6.389,10.496,166.0,46.0
258557,0.215,0.834,0.510,-6.527,-3.290,13.260,165.0,46.0
258612,0.230,1.000,0.493,-46.176,-5.260,23.649,191.0,47.0
258664,0.295,0.828,0.505,-66.649,-1.641,19.435,174.0,49.0
258718,0.301,0.668,0.600,-73.863,8.840,17.450,0.0,50.0
258761,0.299,0.599,0.657,-37.954,8.969,7.137,30.0,40.0
258816,0.259,0.483,0.702,-36.473,1.489,-4.809,0.0,43.0
258862,0.260,0.566,0.714,15.718,-3.344,-10.237,26.0,38.0
258906,0.269,0.674,0.719,8.718,-8.267,-10.443,28.0,38.0
258959,0.312,0.663,0.692,15.916,-5.008,-9.038,0.0,51.0
259013,0.304,0.643,0.704,-7.695,-2.351,-9.290,0.0,51.0
259067,0.353,0.535,0.754,23.931,-5.076,-8.489,0.0,51.0
259111,0.307,0.690,0.713,34.237,-10.183,1.664,30.0,39.0
259154,0.341,0.737,0.692,17.809,-8.824,2.405,29.0,38.0
259198,0.289,0.627,0.684,10.885,-2.374,5.885,28.0,38.0
259241,0.303,0.663,0.655,27.443,-2.611,9.664,29.0,36.0
259290,0.317,0.667,0.615,20.366,-7.863,8.420,27.0,56.0
259378,0.406,0.680,0.630,56.000,-10.863,4.824,37.0,56.0
259423,0.390,0.787,0.623,35.565,-5.122,7.595,30.0,57.0
259468,0.401,0.706,0.686,30.992,-0.122,7.710,38.0,51.0
259512,0.344,0.752,0.691,25.733,0.450,1.481,27.0,51.0
259556,0.330,0.749,0.679,36.122,0.466,5.840,25.0,57.0
259601,0.322,0.830,0.611,24.870,1.153,5.366,29.0,57.0
259650,0.344,0.684,0.617,26.824,3.405,1.649,108.0,57.0
259694,0.305,0.774,0.548,52.252,3.885,-0.763,29.0,50.0
259741,0.271,0.867,0.537,41.908,-0.649,-0.603,25.0,57.0
259786,0.287,0.825,0.524,32.725,-5.603,-4.397,27.0,60.0
259831,0.326,0.852,0.547,28.588,-4.580,-2.779,30.0,58.0
259877,0.343,0.847,0.508,21.221,-1.817,-1.504,30.0,81.0
259923,0.356,0.769,0.529,23.580,-0.038,-0.389,31.0,81.0
259978,0.354,0.819,0.511,32.527,-3.115,0.534,171.0,80.0
260024,0.348,0.939,0.518,18.847,-4.092,3.206,30.0,80.0
260070,0.351,0.912,0.544,21.405,-7.260,17.847,29.0,81.0
260116,0.370,0.951,0.520,-0.794,-2.756,22.305,29.0,82.0
260166,0.370,0.816,0.497,-30.756,4.298,13.634,30.0,82.0
260212,0.452,0.648,0.479,-23.260,20.046,3.977,28.0,82.0
260256,0.444,0.692,0.375,-8.466,31.595,-6.733,28.0,57.0
260301,0.475,0.664,0.405,-0.275,36.832,-13.031,29.0,57.0
260347,0.393,0.765,0.456,4.809,30.832,-5.649,28.0,82.0
260395,0.364,0.792,0.541,3.466,17.153,1.740,29.0,83.0
260441,0.360,0.772,0.557,9.885,9.351,8.733,29.0,82.0
260487,0.373,0.728,0.574,18.901,10.580,10.221,28.0,82.0
260533,0.298,0.756,0.583,24.977,19.237,10.298,27.0,82.0
260581,0.331,0.808,0.577,12.122,22.511,13.046,26.0,57.0
260628,0.310,0.794,0.635,23.092,24.229,20.573,24.0,100.0
260682,0.264,0.801,0.645,10.779,15.672,16.298,0.0,57.0
260727,0.154,0.795,0.718,1.191,-1.565,6.053,28.0,57.0
260772,0.203,0.713,0.720,14.237,-18.321,0.504,26.0,59.0
260825,0.260,0.821,0.658,23.985,-26.191,-1.962,170.0,57.0
260872,0.324,0.819,0.572,10.603,-24.847,-5.870,27.0,84.0
260917,0.389,0.846,0.513,-5.031,-6.496,-6.718,29.0,59.0
260963,0.377,0.779,0.479,-9.290,15.458,-4.435,28.0,85.0
261011,0.366,0.739,0.519,-14.198,26.244,-3.550,26.0,59.0
261058,0.362,0.719,0.569,-13.985,15.580,-3.931,27.0,87.0
261103,0.399,0.656,0.608,-7.435,4.977,-3.893,29.0,57.0
261156,0.385,0.674,0.643,-4.076,7.649,-1.550,182.0,57.0
261211,0.359,0.667,0.639,3.435,9.313,-3.542,26.0,57.0
261254,0.317,0.728,0.629,-1.122,9.695,-2.794,17.0,57.0
261298,0.319,0.721,0.656,1.672,6.931,2.008,24.0,58.0
261341,0.325,0.698,0.631,6.504,5.359,7.015,16.0,43.0
261384,0.339,0.710,0.621,-4.702,8.458,11.038,17.0,40.0
261427,0.327,0.700,0.617,-8.687,11.115,13.664,27.0,41.0
261473,0.297,0.610,0.624,-0.557,6.710,13.290,17.0,43.0
261526,0.330,0.583,0.668,7.206,-2.000,5.847,0.0,60.0
261580,0.293,0.580,0.677,30.863,-9.771,-1.824,0.0,58.0
261625,0.380,0.635,0.736,32.305,-16.687,-3.382,25.0,57.0
261671,0.352,0.748,0.740,23.863,-11.191,-0.969,27.0,94.0
261771,0.358,0.690,0.719,25.878,-4.588,-3.885,0.0,97.0
261818,0.391,0.786,0.627,18.855,-2.069,1.977,29.0,101.0
261862,0.339,0.782,0.660,9.069,-3.511,4.817,29.0,57.0
261909,0.363,0.687,0.637,5.771,-1.580,10.588,30.0,102.0
261959,0.321,0.702,0.653,-3.137,1.924,6.504,26.0,102.0
262003,0.326,0.614,0.667,22.756,-1.321,2.374,29.0,57.0
262049,0.310,0.730,0.638,38.847,2.679,3.038,29.0,92.0
262093,0.309,0.734,0.644,27.267,4.137,2.511,28.0,57.0
262137,0.308,0.771,0.660,20.802,2.534,-0.977,24.0,57.0
262182,0.332,0.781,0.624,13.198,-0.855,-3.076,26.0,58.0
262226,0.377,0.731,0.630,13.214,1.252,-1.656,25.0,57.0
262270,0.363,0.743,0.601,11.771,4.519,3.290,25.0,58.0
262315,0.379,0.723,0.590,7.611,4.153,2.878,28.0,59.0
262362,0.359,0.671,0.595,16.878,5.336,1.321,26.0,58.0
262406,0.327,0.781,0.579,21.237,-1.328,0.870,25.0,61.0
262453,0.369,0.687,0.622,10.336,-4.542,-6.840,26.0,92.0
262498,0.336,0.707,0.641,25.817,-0.611,-3.573,24.0,85.0
262543,0.306,0.744,0.642,33.237,-1.382,-4.435,28.0,57.0
262588,0.259,0.708,0.643,58.519,-7.282,-1.450,26.0,82.0
262634,0.300,1.006,0.543,13.481,-12.634,-6.924,28.0,82.0
262680,0.336,0.708,0.645,-10.107,-10.740,-6.618,27.0,83.0
262726,0.330,0.776,0.599,10.870,-6.443,-3.427,26.0,92.0
262775,0.415,0.737,0.582,11.565,0.130,-4.305,37.0,84.0
262821,0.444,0.775,0.531,21.679,2.405,0.954,26.0,84.0
262867,0.456,0.695,0.509,17.977,-0.573,10.473,26.0,85.0
262914,0.469,0.662,0.497,31.260,2.191,14.267,30.0,83.0
262960,0.400,0.692,0.538,34.313,2.305,6.130,27.0,82.0
263004,0.396,0.780,0.555,23.924,4.015,0.282,30.0,65.0
263050,0.387,0.843,0.552,13.901,8.748,1.840,28.0,83.0
263095,0.389,0.818,0.575,8.725,12.664,6.771,28.0,58.0
263139,0.391,0.823,0.559,-2.527,18.198,11.160,28.0,57.0
263186,0.342,0.792,0.590,-27.252,26.267,7.916,28.0,56.0
263231,0.290,0.658,0.648,-15.244,30.008,4.603,29.0,55.0
263275,0.203,0.802,0.656,10.740,22.260,6.061,26.0,52.0
263319,0.183,0.898,0.643,-17.649,11.511,1.435,28.0,52.0
263363,0.232,0.683,0.688,-20.962,4.412,1.794,24.0,59.0
263408,0.244,0.700,0.668,-8.397,6.786,1.130,26.0,57.0
263452,0.331,0.730,0.659,-5.916,7.931,0.695,26.0,52.0
263496,0.315,0.680,0.667,-13.908,11.603,0.313,27.0,52.0
263540,0.332,0.640,0.672,-2.809,11.405,4.740,24.0,52.0
263588,0.348,0.607,0.649,-4.298,12.710,1.000,28.0,58.0
263631,0.321,0.602,0.665,7.405,6.832,2.756,28.0,39.0
263674,0.344,0.622,0.664,11.206,0.382,-3.740,25.0,39.0
263728,0.269,0.603,0.671,24.740,-9.420,3.427,0.0,38.0
263772,0.260,0.721,0.699,61.962,-18.847,8.321,24.0,49.0
263817,0.271,0.889,0.562,41.687,-24.443,7.229,26.0,50.0
263861,0.338,0.847,0.584,-9.313,-18.664,3.878,26.0,50.0
263904,0.360,0.610,0.609,-5.496,-8.847,-2.359,25.0,38.0
263948,0.410,0.633,0.570,38.397,5.504,-2.061,25.0,57.0
263996,0.400,0.783,0.536,21.374,12.634,-3.328,26.0,58.0
264084,0.339,0.765,0.637,2.153,-7.244,-2.954,26.0,57.0
264128,0.421,0.672,0.647,7.321,-14.954,-3.389,27.0,57.0
264173,0.429,0.721,0.605,4.061,-4.534,-4.328,25.0,57.0
264217,0.420,0.666,0.632,-2.618,1.107,-6.962,24.0,57.0
264262,0.413,0.688,0.662,15.481,4.160,-6.908,23.0,57.0
264308,0.371,0.743,0.644,6.374,2.878,-3.397,17.0,96.0
264354,0.372,0.687,0.649,9.168,-1.603,-1.924,17.0,86.0
264400,0.384,0.736,0.635,12.756,5.260,5.481,17.0,101.0
264450,0.381,0.737,0.600,5.985,8.588,10.160,26.0,91.0
264497,0.366,0.644,0.656,7.290,8.008,8.198,28.0,92.0
264543,0.344,0.701,0.657,10.802,-2.229,3.298,29.0,90.0
264590,0.340,0.671,0.647,15.969,-6.771,5.802,32.0,91.0
264637,0.350,0.646,0.642,17.870,-1.618,1.489,26.0,93.0
264684,0.333,0.705,0.662,26.931,1.893,-0.084,23.0,101.0
264730,0.310,0.677,0.682,25.840,-0.992,-2.183,24.0,87.0
264776,0.295,0.689,0.688,42.473,-1.939,-4.000,25.0,91.0
264823,0.340,0.740,0.624,39.198,-4.168,-11.832,26.0,91.0
264873,0.304,0.756,0.609,53.840,2.344,-7.855,27.0,91.0
264920,0.292,0.813,0.581,54.412,-2.634,-9.366,27.0,91.0
264966,0.335,0.783,0.523,57.397,-9.038,-6.725,28.0,82.0
265012,0.337,0.902,0.490,46.412,-7.908,-3.252,29.0,81.0
265059,0.343,0.866,0.475,31.702,-3.313,3.076,29.0,80.0
265105,0.366,0.893,0.458,16.473,-0.603,2.511,30.0,80.0
265151,0.326,0.828,0.501,19.191,-2.053,9.183,38.0,80.0
265198,0.348,0.831,0.469,37.695,-7.916,12.771,37.0,80.0
265244,0.382,0.773,0.467,52.954,-13.740,18.137,36.0,80.0
265294,0.463,0.929,0.442,38.519,-15.473,23.061,37.0,81.0
265341,0.527,0.885,0.443,14.931,-9.565,29.557,30.0,84.0
265396,0.543,0.811,0.457,3.718,-6.962,33.458,160.0,99.0
265443,0.533,0.846,0.336,-5.328,-4.954,22.557,36.0,81.0
265490,0.439,0.866,0.220,-23.748,13.916,9.824,30.0,83.0
265535,0.380,0.780,0.253,-17.412,32.221,3.015,29.0,57.0
265587,0.393,0.833,0.241,-17.008,47.550,-4.618,173.0,57.0
265634,0.445,0.690,0.414,-25.076,68.344,-11.511,30.0,84.0
265682,0.331,0.715,0.549,-6.672,54.389,-11.137,36.0,100.0
265734,0.338,0.823,0.580,11.267,25.221,-6.550,30.0,100.0
265781,0.335,0.839,0.602,-8.084,1.763,-4.618,38.0,90.0
265828,0.377,0.760,0.595,3.046,-4.611,-0.084,31.0,86.0
265874,0.373,0.719,0.596,9.931,-0.412,-0.069,26.0,85.0
265920,0.383,0.775,0.601,3.489,-2.008,-5.588,26.0,87.0
265967,0.360,0.659,0.596,30.748,-3.069,-0.511,26.0,84.0
266013,0.419,0.793,0.531,41.092,-0.130,-0.206,26.0,83.0
266059,0.389,0.761,0.523,13.115,2.901,-1.649,27.0,83.0
266106,0.349,0.692,0.572,10.885,2.084,-3.840,31.0,83.0
266157,0.336,0.774,0.567,22.046,0.992,-4.611,30.0,85.0
266204,0.291,0.795,0.579,11.733,-2.397,-7.504,29.0,91.0
266251,0.285,0.809,0.571,23.336,-0.389,-7.183,29.0,91.0
266298,0.241,0.860,0.593,21.756,2.725,-7.061,33.0,92.0
266345,0.235,0.838,0.594,2.267,-1.672,-10.527,34.0,90.0
266392,0.297,0.776,0.624,1.153,-10.496,-11.649,34.0,82.0
266482,0.395,0.806,0.536,-12.679,-9.611,-2.107,30.0,82.0
266529,0.385,0.775,0.531,-8.779,-3.511,10.802,32.0,82.0
266575,0.292,0.800,0.551,-9.420,-5.061,15.832,33.0,83.0
266625,0.304,0.767,0.546,9.328,-13.756,13.687,33.0,57.0
266672,0.327,0.720,0.541,17.473,-10.817,7.122,36.0,84.0
266727,0.353,0.739,0.527,11.344,0.641,-1.557,174.0,84.0
266774,0.379,0.742,0.539,22.397,15.740,-4.840,30.0,84.0
266820,0.324,0.820,0.532,13.473,12.580,-2.282,30.0,82.0
266867,0.412,0.723,0.553,21.221,4.519,0.939,36.0,83.0
266914,0.375,0.796,0.559,12.031,3.802,-0.031,36.0,82.0
266961,0.363,0.763,0.578,5.130,0.916,2.992,27.0,82.0
267008,0.372,0.759,0.555,10.534,-3.931,3.321,30.0,83.0
267055,0.356,0.794,0.556,12.977,-1.718,3.901,37.0,83.0
267099,0.373,0.723,0.585,16.359,-1.504,3.053,30.0,83.0
267146,0.422,0.738,0.547,32.206,5.099,3.863,31.0,82.0
267193,0.385,0.807,0.542,4.878,5.885,-0.298,30.0,82.0
267245,0.362,0.769,0.571,8.504,0.008,4.229,30.0,82.0
267299,0.363,0.830,0.520,21.618,8.137,11.542,194.0,82.0
267345,0.373,0.760,0.539,16.832,23.779,11.450,37.0,83.0
267392,0.306,0.816,0.547,8.374,22.763,10.733,35.0,83.0
267438,0.320,0.746,0.586,1.947,5.115,5.863,29.0,83.0
267484,0.361,0.704,0.605,10.611,-1.725,1.626,37.0,83.0
267532,0.383,0.739,0.580,20.237,4.603,1.450,29.0,83.0
267578,0.403,0.809,0.547,12.786,13.282,2.008,26.0,83.0
267623,0.335,0.756,0.558,14.969,13.969,6.855,26.0,84.0
267669,0.366,0.748,0.567,17.527,9.023,6.947,30.0,83.0
267715,0.340,0.794,0.556,15.046,6.328,6.130,38.0,82.0
267761,0.345,0.740,0.567,11.817,5.687,2.740,37.0,82.0
267807,0.341,0.737,0.583,19.962,5.634,1.229,30.0,82.0
267852,0.315,0.789,0.591,10.794,1.221,-0.832,30.0,82.0
267898,0.341,0.778,0.583,17.008,-3.092,1.260,29.0,82.0
267948,0.344,0.776,0.553,20.542,0.649,2.565,30.0,82.0
267993,0.341,0.776,0.539,18.443,1.160,3.939,28.0,82.0
268039,0.354,0.799,0.536,17.023,0.420,2.076,31.0,82.0
268085,0.327,0.802,0.533,11.527,2.023,2.275,30.0,82.0
268130,0.345,0.747,0.542,15.191,3.702,1.290,30.0,82.0
268176,0.360,0.792,0.537,17.634,3.565,-1.794,29.0,82.0
268222,0.351,0.814,0.551,7.458,1.824,-2.191,30.0,82.0
268268,0.367,0.746,0.554,11.527,0.878,-0.595,30.0,82.0
268313,0.366,0.821,0.540,7.229,1.588,-0.557,31.0,82.0
268362,0.361,0.758,0.536,5.405,0.618,-0.679,29.0,82.0
268408,0.343,0.804,0.548,5.588,1.031,2.855,30.0,82.0
268453,0.365,0.748,0.558,6.939,0.473,1.298,30.0,81.0
268499,0.355,0.765,0.554,11.718,2.557,0.664,30.0,82.0
268546,0.372,0.736,0.577,6.206,3.153,-0.344,30.0,81.0
268591,0.391,0.725,0.564,19.740,4.611,-0.504,28.0,81.0
268638,0.374,0.820,0.551,14.573,2.954,3.160,38.0,81.0
268683,0.396,0.760,0.509,14.137,3.092,8.191,29.0,82.0
268730,0.393,0.807,0.506,11.672,8.298,11.328,37.0,83.0
268776,0.390,0.832,0.516,-1.321,11.840,17.802,30.0,82.0
268866,0.274,0.633,0.617,26.359,7.687,6.947,28.0,54.0
268911,0.275,0.720,0.600,56.237,4.420,-0.832,26.0,60.0
268956,0.214,0.874,0.594,61.031,-3.794,-0.916,29.0,81.0
269002,0.295,0.901,0.545,52.336,-8.924,0.084,30.0,80.0
269048,0.317,0.865,0.498,36.153,-6.282,2.374,30.0,80.0
269094,0.345,0.846,0.482,36.847,-11.046,4.817,31.0,80.0
269140,0.394,0.863,0.434,22.344,-10.786,3.901,30.0,80.0
269187,0.388,0.862,0.428,21.863,-9.221,5.031,32.0,79.0
269240,0.398,0.752,0.473,31.031,-9.817,6.824,163.0,80.0
269296,0.443,0.890,0.393,36.015,-12.992,12.252,162.0,80.0
269349,0.451,0.810,0.377,28.153,-9.374,13.351,161.0,80.0
269404,0.501,0.771,0.390,41.053,-6.366,8.603,161.0,80.0
269457,0.481,0.971,0.327,42.832,2.489,20.382,160.0,80.0
269511,0.510,0.952,0.325,25.252,8.092,28.947,160.0,81.0
269564,0.504,0.925,0.271,20.924,13.855,40.374,159.0,83.0
269618,0.544,0.823,0.301,22.855,14.031,48.481,172.0,57.0
269670,0.555,0.794,0.259,36.389,17.000,53.374,170.0,48.0
269725,0.608,0.718,0.263,61.023,18.176,53.137,170.0,50.0
269778,0.619,0.772,0.203,60.656,26.252,50.695,168.0,57.0
269831,0.647,0.724,0.184,57.893,29.412,44.496,168.0,57.0
269892,0.608,0.744,0.148,45.130,34.351,33.580,181.0,0.0
269954,0.631,0.648,0.238,46.588,27.137,24.130,162.0,0.0
270004,0.673,0.679,0.184,61.176,23.481,18.008,160.0,22.0
270054,0.675,0.787,0.131,51.328,25.282,22.763,160.0,26.0
270115,0.707,0.686,0.140,42.939,25.550,24.290,168.0,0.0
270166,0.746,0.650,0.141,74.878,29.351,30.252,168.0,23.0
270221,0.682,0.646,0.123,73.779,24.634,28.504,191.0,19.0
270273,0.669,0.640,0.160,54.198,14.702,7.076,191.0,21.0
270325,0.589,0.759,0.137,58.496,4.573,-17.756,193.0,19.0
270376,0.630,0.811,0.116,48.725,-1.565,-33.115,182.0,19.0
270427,0.575,0.911,0.121,10.191,-7.519,-47.618,166.0,17.0
270477,0.551,0.863,0.098,19.336,-25.046,-40.176,155.0,16.0
270526,0.536,0.896,0.035,-31.542,-49.290,-39.084,154.0,16.0
270576,0.635,0.919,-0.082,-68.313,-64.359,-51.847,155.0,17.0
270626,0.790,1.038,-0.223,-197.481,-27.802,-60.450,163.0,21.0
270683,0.725,0.794,0.012,-240.870,25.420,-40.893,160.0,57.0
270735,0.713,0.666,0.398,-178.908,74.519,1.527,169.0,51.0
270788,0.541,0.603,0.633,-152.580,83.939,35.191,200.0,32.0
270832,0.455,0.453,0.774,-179.664,74.443,35.244,26.0,32.0
270875,0.307,0.092,0.936,-132.214,56.832,33.328,24.0,27.0
270918,0.305,0.148,0.984,-35.466,34.382,22.595,24.0,30.0
270961,0.254,0.303,0.913,19.908,25.466,24.084,26.0,30.0
271004,0.317,0.554,0.800,16.366,28.756,27.947,29.0,30.0
271048,0.276,0.458,0.808,-25.458,37.008,25.130,26.0,36.0
271094,0.244,0.232,0.918,-21.817,31.740,19.534,27.0,32.0
271138,0.264,0.285,0.948,1.794,22.305,11.802,30.0,33.0
271181,0.173,0.209,0.982,-0.679,10.168,11.489,19.0,39.0
271226,0.316,0.304,0.952,17.901,-0.382,10.229,27.0,60.0
271271,0.302,0.310,0.886,-4.939,7.366,4.046,28.0,62.0
271315,0.311,0.186,0.922,-15.130,15.015,0.672,27.0,41.0
271403,0.251,0.259,0.932,8.939,15.893,3.458,28.0,39.0
271447,0.248,0.208,0.945,13.794,12.954,1.611,28.0,39.0
271492,0.209,0.265,0.947,11.107,4.878,2.084,25.0,59.0
271539,0.251,0.164,0.962,11.924,0.198,0.710,25.0,59.0
271583,0.271,0.282,0.897,21.366,4.618,2.405,19.0,40.0
271627,0.252,0.226,0.967,7.901,8.687,3.107,19.0,59.0
271672,0.200,0.196,0.977,27.084,5.443,5.107,18.0,60.0
271716,0.183,0.192,0.923,19.626,4.939,-6.641,25.0,48.0
271759,0.132,0.219,1.001,37.748,4.458,-8.061,25.0,41.0
271803,0.183,0.302,0.987,36.771,-4.824,-15.916,30.0,38.0
271847,0.226,0.279,0.904,41.542,-1.397,-17.832,27.0,38.0
271891,0.085,0.412,1.037,34.954,-14.092,-19.954,26.0,37.0
271938,0.069,0.170,1.073,82.855,-61.504,-28.145,29.0,30.0
271981,0.238,0.270,0.881,155.008,-86.634,-20.748,30.0,31.0
272034,0.324,0.496,0.662,152.878,-87.595,-21.634,0.0,30.0
272078,0.497,0.400,0.648,183.137,-78.351,-23.542,32.0,23.0
272132,0.520,0.829,0.417,210.214,-51.870,-0.725,194.0,37.0
272182,0.664,1.112,0.196,144.244,-16.237,25.168,162.0,16.0
272232,0.704,0.898,0.215,83.405,21.145,35.710,155.0,16.0
272282,0.591,0.871,0.250,66.420,42.794,49.237,157.0,16.0
272333,0.569,0.757,0.323,36.634,44.298,53.076,160.0,23.0
272389,0.568,0.708,0.337,56.221,38.809,52.031,198.0,20.0
272451,0.598,0.765,0.248,57.687,44.420,43.473,174.0,0.0
272513,0.591,0.614,0.328,87.351,35.443,33.618,175.0,0.0
272564,0.517,0.825,0.241,70.160,18.420,8.023,165.0,24.0
272615,0.356,0.778,0.332,41.183,-5.527,-11.382,172.0,22.0
272666,0.492,0.814,0.243,37.015,-26.702,-29.687,164.0,18.0
272715,0.494,0.957,0.203,35.504,-30.695,-44.305,150.0,18.0
272765,0.533,1.032,0.119,-24.695,-47.725,-40.321,150.0,16.0
272819,0.655,1.261,-0.015,-150.198,-42.481,-41.824,151.0,16.0
272869,0.633,0.972,0.010,-238.954,0.069,-40.053,151.0,17.0
272921,0.673,1.002,0.123,-250.137,57.031,-17.985,181.0,35.0
272965,0.485,0.092,0.661,-239.832,74.359,-1.023,30.0,26.0
273009,0.411,0.186,0.836,-160.389,80.878,23.115,23.0,38.0
273052,0.313,-0.021,1.081,-60.008,53.817,25.763,21.0,30.0
273096,0.311,0.209,0.983,20.183,27.107,20.267,29.0,38.0
273142,0.315,0.317,0.957,4.137,14.733,12.168,58.0,32.0
273186,0.325,0.256,1.000,1.076,14.038,11.542,30.0,37.0
273232,0.363,0.309,0.920,2.977,20.939,5.420,20.0,31.0
273277,0.273,0.316,0.982,8.290,34.840,12.374,30.0,57.0
273321,0.209,0.274,0.953,31.160,35.122,9.420,30.0,36.0
273366,0.167,0.399,0.921,34.527,40.443,16.908,28.0,37.0
273410,0.099,0.389,0.913,13.435,38.336,18.328,21.0,36.0
273459,0.154,0.395,0.955,5.626,37.229,16.031,25.0,36.0
273502,0.094,0.256,0.982,11.550,33.397,17.084,28.0,36.0
273545,0.162,0.357,0.952,18.053,31.595,17.351,22.0,36.0
273588,0.113,0.336,0.950,18.458,32.573,18.321,26.0,36.0
273633,0.093,0.333,0.935,8.382,23.603,8.771,23.0,36.0
273676,0.126,0.304,0.939,23.023,22.710,10.565,22.0,37.0
273719,0.064,0.350,0.900,32.947,24.702,13.557,30.0,45.0
273807,0.042,0.340,0.920,14.672,20.664,9.321,23.0,68.0
273852,0.036,0.356,0.925,23.908,21.939,15.573,22.0,69.0
273896,0.082,0.384,0.961,26.214,17.015,15.924,22.0,68.0
273941,0.032,0.375,0.950,26.489,17.885,14.985,22.0,70.0
273984,-0.025,0.314,0.978,30.496,18.702,14.618,28.0,36.0
274027,-0.004,0.409,0.939,48.260,23.000,17.313,30.0,37.0
274084,-0.071,0.461,0.944,22.504,22.145,14.870,28.0,80.0
274129,-0.083,0.500,0.957,18.145,17.962,9.603,28.0,79.0
274176,-0.111,0.526,0.962,-0.427,11.901,6.145,30.0,80.0
274219,-0.106,0.481,0.920,4.107,6.328,8.313,22.0,44.0
274264,-0.094,0.535,0.867,-10.374,4.969,7.405,20.0,69.0
274309,-0.048,0.448,0.835,-19.802,3.412,5.542,21.0,70.0
274354,-0.049,0.385,0.850,-17.802,4.458,5.588,31.0,70.0
274399,-0.040,0.356,0.858,-16.702,-1.740,3.267,36.0,71.0
274444,-0.041,0.287,0.940,-25.641,-8.656,0.000,30.0,61.0
274492,0.015,0.256,0.960,-3.870,-15.878,1.092,30.0,72.0
274537,0.002,0.384,0.927,-18.832,-14.229,-4.290,29.0,73.0
274581,0.024,0.151,1.033,-26.099,-22.290,-6.756,28.0,44.0
274625,0.111,0.164,1.019,4.656,-18.779,-7.031,37.0,43.0
274679,0.097,0.180,0.954,1.947,-13.351,-12.969,0.0,45.0
274724,0.158,0.115,1.008,22.244,4.061,-9.947,30.0,77.0
274780,0.078,0.242,0.949,12.046,2.802,-15.183,0.0,78.0
274834,0.094,0.203,1.015,20.611,-5.305,-13.389,0.0,45.0
274878,0.077,0.262,0.999,13.496,-11.664,-14.794,37.0,38.0
274924,0.107,0.241,0.962,3.878,-7.206,-16.679,31.0,40.0
274968,0.061,0.235,0.984,-0.794,1.817,-16.519,32.0,42.0
275021,0.075,0.185,0.987,2.519,1.137,-17.733,0.0,40.0
275065,0.098,0.208,0.997,39.328,4.573,-8.511,30.0,45.0
275109,0.064,0.387,0.950,24.534,1.046,0.321,30.0,40.0
275152,0.102,0.265,1.016,13.214,-3.420,1.527,29.0,38.0
275195,0.072,0.343,0.977,5.313,-4.656,8.198,20.0,38.0
275238,0.106,0.169,0.973,-9.756,-6.153,4.443,29.0,37.0
275282,0.118,0.167,0.995,18.840,1.061,4.321,30.0,37.0
275329,-0.003,0.357,0.994,-14.260,-1.519,1.527,30.0,37.0
275382,0.048,0.168,1.003,-46.374,-9.359,-16.718,0.0,40.0
275426,0.054,-0.014,1.054,2.237,-6.733,-19.588,29.0,41.0
275470,0.080,0.112,0.982,58.908,-5.260,-13.183,31.0,44.0
275524,0.105,0.414,0.918,70.504,-5.771,-0.412,0.0,43.0
275567,0.154,0.438,0.875,15.840,-3.435,2.992,27.0,37.0
275611,0.198,0.256,0.895,-21.321,-1.260,-6.954,29.0,40.0
275657,0.174,0.052,0.918,1.389,9.260,-5.664,27.0,85.0
275700,0.166,0.160,0.960,7.969,8.901,-11.298,26.0,41.0
275746,0.126,0.091,1.036,18.244,1.595,-15.542,26.0,37.0
275790,0.119,0.068,1.102,30.817,-9.962,-18.420,26.0,38.0
275833,0.160,0.244,1.040,62.443,-14.954,-16.328,26.0,35.0
275877,0.122,0.358,0.953,38.435,-16.176,-16.863,28.0,36.0
275920,0.173,0.355,0.958,14.489,-15.244,-13.748,27.0,37.0
275964,0.160,0.288,0.955,6.511,-14.786,-15.557,27.0,37.0
276007,0.109,0.271,0.944,12.977,-15.863,-11.611,28.0,36.0
276051,0.159,0.327,0.917,26.817,-17.672,-8.924,30.0,37.0
276139,0.201,0.307,0.928,-4.573,-12.427,-4.176,29.0,35.0
276185,0.235,0.238,0.953,5.191,-4.107,-6.878,30.0,30.0
276228,0.194,0.283,0.955,10.573,-1.038,-5.763,29.0,30.0
276272,0.149,0.149,1.073,39.977,-9.832,-5.351,30.0,36.0
276316,0.225,0.346,0.947,46.977,-12.198,-6.863,30.0,40.0
276361,0.246,0.291,0.963,27.122,-7.756,-12.374,30.0,57.0
276404,0.233,0.486,0.878,43.985,-11.542,-19.916,30.0,37.0
276448,0.168,0.350,0.950,-6.130,-6.466,-25.863,30.0,35.0
276491,0.235,0.381,0.945,47.779,-8.779,-9.809,24.0,30.0
276534,0.202,0.426,0.941,8.435,-12.878,-20.092,23.0,30.0
276580,0.223,0.174,0.921,51.183,-13.252,-27.931,23.0,30.0
276623,0.243,0.307,0.840,90.160,-18.168,-44.641,22.0,32.0
276666,0.235,0.346,0.872,131.672,-20.214,-50.534,24.0,35.0
276710,0.210,1.020,0.604,86.511,-12.366,-46.137,28.0,35.0
276753,0.198,0.662,0.804,62.634,-12.275,-27.473,27.0,36.0
276798,0.280,0.766,0.630,120.298,0.618,-3.725,30.0,48.0
276842,0.251,0.784,0.732,20.916,7.244,-19.443,27.0,47.0
276886,0.172,0.511,0.821,80.924,-4.122,-12.450,29.0,46.0
276932,0.189,0.854,0.611,90.427,-8.687,-19.763,30.0,16.0
276974,0.115,0.746,0.587,77.130,-15.985,-16.985,30.0,10.0
277017,0.136,0.905,0.504,82.908,-23.779,-14.840,31.0,9.0
277059,0.144,0.750,0.484,126.916,-31.000,-5.985,31.0,10.0
277102,0.220,1.029,0.342,127.328,-35.130,7.534,38.0,8.0
277151,0.239,1.124,0.333,80.069,-35.015,15.107,157.0,10.0
277200,0.301,1.195,0.290,-4.618,-21.107,23.634,156.0,8.0
277251,0.305,0.889,0.392,-22.115,-14.519,26.168,156.0,9.0
277300,0.350,1.203,0.173,-18.015,-3.405,40.443,155.0,17.0
277355,0.407,1.008,0.259,-147.473,29.023,32.031,156.0,45.0
277400,0.301,0.622,0.541,-157.405,45.656,28.046,32.0,48.0
277444,0.253,0.530,0.700,-98.145,41.702,22.542,30.0,49.0
277488,0.250,0.438,0.811,-37.450,22.802,11.740,28.0,40.0
277532,0.306,0.508,0.743,-7.718,9.481,-5.031,28.0,36.0
277576,0.267,0.494,0.733,13.290,7.962,-19.855,28.0,36.0
277620,0.229,0.530,0.694,63.847,5.015,-24.130,30.0,36.0
277664,0.215,0.781,0.577,88.817,4.779,-19.046,30.0,47.0
277708,0.225,0.768,0.590,65.603,-1.092,-20.847,30.0,46.0
277756,0.257,0.950,0.546,40.519,-0.466,-15.153,30.0,45.0
277800,0.265,0.829,0.571,-2.267,2.046,-11.580,29.0,45.0
277846,0.251,0.686,0.640,10.786,4.893,-11.947,30.0,45.0
277890,0.180,0.736,0.685,33.092,-0.649,-8.588,30.0,45.0
277934,0.182,0.844,0.589,35.779,-9.893,-7.221,30.0,44.0
277979,0.237,0.835,0.581,35.092,-1.298,-7.176,30.0,44.0
278024,0.226,0.885,0.504,35.000,20.122,-1.168,39.0,44.0
278075,0.231,0.833,0.560,23.649,22.710,0.496,165.0,44.0
278120,0.223,0.777,0.521,48.405,23.878,5.740,30.0,44.0
278167,0.220,0.892,0.520,45.511,22.023,5.198,30.0,44.0
278212,0.146,0.910,0.571,33.336,11.511,8.336,30.0,45.0
278256,0.128,0.973,0.543,0.237,-4.405,13.008,29.0,45.0
278301,0.170,0.905,0.546,-1.405,-3.557,16.511,30.0,45.0
278345,0.179,0.943,0.503,-23.107,2.313,18.794,32.0,46.0
278433,0.208,0.711,0.583,10.969,1.046,13.137,35.0,45.0
278479,0.192,0.848,0.562,8.847,-1.603,9.878,36.0,47.0
278523,0.201,0.803,0.610,-2.450,-8.023,5.374,34.0,45.0
278568,0.208,0.771,0.591,15.962,-9.809,4.145,32.0,45.0
278617,0.245,0.849,0.531,15.321,-5.672,4.389,30.0,47.0
278671,0.275,0.796,0.530,4.458,-1.565,1.183,0.0,45.0
278715,0.257,0.788,0.533,13.107,-0.183,4.229,30.0,47.0
278760,0.271,0.796,0.538,10.901,-3.870,6.107,30.0,47.0
278804,0.271,0.775,0.556,9.214,-6.855,4.137,30.0,47.0
278849,0.268,0.767,0.580,20.374,-6.244,4.901,32.0,48.0
278894,0.304,0.821,0.574,18.649,-2.313,4.427,33.0,46.0
278939,0.283,0.789,0.574,14.779,0.344,3.183,30.0,47.0
278983,0.279,0.814,0.563,19.458,0.069,4.710,29.0,46.0
279031,0.285,0.818,0.540,14.244,0.145,4.550,29.0,46.0
279075,0.292,0.798,0.549,14.969,1.305,2.893,29.0,47.0
279120,0.279,0.811,0.539,17.802,2.786,4.359,29.0,45.0
279165,0.296,0.836,0.541,14.023,1.977,3.359,30.0,46.0
279209,0.293,0.805,0.562,11.038,0.298,2.267,30.0,47.0
279255,0.296,0.817,0.533,16.679,2.351,4.458,30.0,45.0
279314,0.303,0.851,0.515,11.435,5.947,4.107,0.0,45.0
279358,0.285,0.796,0.547,9.611,4.031,5.267,31.0,45.0
279401,0.297,0.791,0.528,15.710,3.031,3.748,29.0,45.0
279453,0.300,0.812,0.527,15.260,4.710,1.954,177.0,45.0
279499,0.295,0.822,0.541,16.756,4.458,0.878,29.0,46.0
279543,0.290,0.832,0.534,15.847,5.389,1.649,30.0,46.0
279587,0.284,0.828,0.547,9.672,4.962,4.580,30.0,46.0
279630,0.297,0.811,0.546,13.863,2.481,4.336,30.0,46.0
279674,0.273,0.831,0.522,13.168,6.176,6.733,30.0,45.0
279717,0.276,0.802,0.528,9.107,7.053,2.023,30.0,45.0
279761,0.279,0.797,0.546,20.519,4.855,4.252,29.0,45.0
279804,0.270,0.862,0.525,9.702,2.244,4.840,30.0,45.0
279848,0.298,0.786,0.526,8.214,2.076,3.924,29.0,47.0
279895,0.291,0.791,0.533,13.550,3.313,4.656,29.0,46.0
279939,0.284,0.803,0.540,11.557,2.450,3.160,30.0,46.0
279983,0.290,0.782,0.550,15.603,1.962,0.328,30.0,47.0
280035,0.270,0.819,0.541,15.908,1.954,1.344,175.0,45.0
280079,0.289,0.812,0.529,10.748,-0.519,-0.160,37.0,45.0
280123,0.306,0.807,0.531,15.611,0.115,0.740,36.0,46.0
280167,0.304,0.837,0.521,15.802,0.260,2.160,38.0,46.0
280219,0.310,0.819,0.531,11.504,0.252,4.611,175.0,46.0
280263,0.308,0.829,0.537,8.878,1.802,4.885,37.0,45.0
280318,0.302,0.810,0.536,4.511,1.244,4.771,175.0,46.0
280371,0.309,0.796,0.548,9.275,1.206,1.725,176.0,46.0
280423,0.308,0.773,0.566,12.756,2.336,-4.702,178.0,46.0
280467,0.303,0.850,0.565,18.931,4.137,-1.641,30.0,47.0
280511,0.332,0.822,0.536,14.382,6.115,-2.710,29.0,45.0
280555,0.355,0.770,0.527,22.473,11.695,-5.649,30.0,46.0
280598,0.348,0.771,0.459,47.931,21.160,-2.573,28.0,45.0
280649,0.315,0.854,0.426,62.130,35.389,-8.137,159.0,46.0
280693,0.185,1.008,0.452,17.771,24.916,-0.916,29.0,45.0