Timestamp(ms),AccelX(g),AccelY(g),AccelZ(g),GyroX(deg/s),GyroY(deg/s),GyroZ(deg/s),DistanceLeft(cm),DistanceRight(cm)
52476,0.107,0.694,0.733,-8.992,-3.275,8.588,16.0,80.0
52519,0.132,0.658,0.733,-7.672,-2.015,10.290,17.0,16.0
52572,0.165,0.644,0.785,-2.603,-0.275,7.702,0.0,16.0
52638,0.122,0.676,0.802,0.748,0.641,3.664,0.0,0.0
52684,0.117,0.688,0.737,-0.527,-4.015,3.573,38.0,80.0
52730,0.121,0.700,0.720,0.046,-4.221,3.351,17.0,79.0
52775,0.129,0.716,0.736,1.977,-2.809,4.397,18.0,79.0
52832,0.118,0.728,0.769,-5.336,-3.145,3.588,0.0,79.0
52882,0.133,0.629,0.816,-2.634,-15.626,2.313,33.0,79.0
52929,-0.072,0.829,0.695,16.779,-27.679,15.779,37.0,79.0
52975,0.238,0.583,0.855,-73.573,-49.695,-37.779,31.0,78.0
53031,0.217,0.414,0.840,-21.366,-34.168,-25.779,0.0,77.0
53079,0.183,0.806,0.606,17.794,-17.389,-18.420,36.0,77.0
53125,0.157,0.750,0.590,-16.092,-10.817,-19.794,37.0,78.0
53172,0.123,0.701,0.706,-19.145,-7.954,-14.504,36.0,77.0
53219,0.191,0.724,0.741,-27.382,0.725,-5.214,37.0,76.0
53274,0.168,0.625,0.799,-25.786,8.557,-0.672,0.0,77.0
53325,0.091,0.655,0.798,-15.977,11.779,5.344,43.0,76.0
53371,0.079,0.601,0.832,-29.000,6.336,4.840,37.0,76.0
53419,0.117,0.531,0.921,-9.847,-1.473,3.588,36.0,76.0
53465,0.130,0.592,0.897,-6.092,-5.405,3.939,37.0,76.0
53521,0.159,0.626,0.909,-10.626,-5.672,7.450,0.0,76.0
53568,0.193,0.614,0.905,-54.321,-7.092,7.977,35.0,77.0
53630,0.212,0.445,0.949,-41.702,-3.504,11.840,0.0,0.0
53687,0.127,0.549,0.855,-14.641,-10.069,20.573,0.0,76.0
53743,0.163,0.536,0.815,-90.931,-7.137,5.519,0.0,75.0
53803,0.144,0.472,0.844,-106.359,1.397,9.687,0.0,76.0
53852,0.154,0.136,0.972,-120.282,15.908,16.847,69.0,77.0
53913,0.104,0.386,0.837,-108.344,18.275,20.252,0.0,79.0
53961,0.132,-0.115,0.997,-145.908,14.244,-4.344,66.0,81.0
54009,0.109,-0.029,1.004,-77.985,14.580,-2.137,64.0,81.0
54065,0.042,-0.134,1.061,-81.550,3.359,-14.466,0.0,83.0
54110,0.080,-0.280,1.102,-54.634,-10.870,-22.893,16.0,83.0
54155,-0.016,-0.265,1.089,-27.489,-21.840,-15.733,18.0,84.0
54200,0.099,-0.229,1.056,-5.412,-33.832,-8.267,19.0,83.0
54255,0.107,-0.188,0.993,-2.824,-35.305,-6.237,19.0,0.0
54310,0.163,-0.149,0.955,-1.565,-34.092,5.649,20.0,0.0
54359,0.153,-0.245,0.951,-6.969,-27.458,9.588,62.0,86.0
54407,0.195,-0.178,0.893,-8.573,-21.847,8.214,64.0,93.0
54461,0.176,-0.239,0.911,-5.000,-13.847,10.954,65.0,0.0
54516,0.193,-0.136,0.852,9.840,-7.458,4.702,65.0,0.0
54572,0.234,-0.201,0.916,-6.389,0.000,3.053,0.0,90.0
54628,0.251,-0.188,0.956,-1.282,6.023,5.305,0.0,89.0
54684,0.216,-0.241,0.989,-6.870,5.023,6.771,0.0,88.0
54743,0.240,-0.168,0.969,-1.328,2.366,4.313,0.0,87.0
54791,0.214,-0.261,1.014,-0.740,1.046,7.740,66.0,90.0
54846,0.258,-0.098,0.943,-8.359,-1.237,2.298,69.0,0.0
54894,0.226,-0.274,0.990,-9.466,-1.901,3.206,72.0,87.0
54950,0.259,-0.160,0.962,1.031,-0.992,5.389,0.0,88.0
55012,0.233,-0.237,0.983,-6.634,-0.931,5.885,0.0,0.0
55111,0.213,-0.216,0.975,-1.282,2.015,8.084,0.0,86.0
55165,0.221,-0.207,0.997,-6.405,-0.305,7.595,64.0,0.0
55221,0.208,-0.204,0.972,-18.489,-0.107,6.832,64.0,0.0
55283,0.214,-0.241,1.007,-14.053,-0.763,4.038,0.0,0.0
55342,0.206,-0.244,0.979,-13.183,-4.557,3.794,0.0,86.0
55390,0.226,-0.245,0.964,-14.053,-6.473,3.962,65.0,88.0
55445,0.236,-0.269,0.966,-11.458,-5.412,6.160,64.0,0.0
55493,0.228,-0.261,0.949,-4.504,-6.466,5.931,68.0,89.0
55547,0.234,-0.273,0.945,-2.435,-4.496,5.427,64.0,0.0
55603,0.225,-0.278,0.949,-2.496,-3.718,6.023,64.0,0.0
55657,0.222,-0.257,0.958,-1.313,-2.458,3.901,63.0,0.0
55712,0.226,-0.263,0.959,-2.267,-2.527,5.679,64.0,0.0
55767,0.240,-0.267,0.970,-2.733,-1.786,6.954,64.0,0.0
55832,0.234,-0.274,0.951,-0.977,-1.351,7.954,0.0,0.0
55888,0.199,-0.304,0.950,7.183,0.076,3.763,0.0,86.0
55945,0.131,-0.399,0.974,15.901,0.237,-2.947,0.0,86.0
55993,0.132,-0.338,0.882,118.664,7.061,-8.870,67.0,86.0
56048,0.036,-0.194,0.816,116.290,5.985,-21.229,0.0,82.0
56096,-0.008,-0.022,0.774,137.954,17.481,-35.275,68.0,79.0
56153,0.169,0.215,0.786,122.779,45.061,-39.237,70.0,75.0
56200,0.053,0.401,0.782,77.069,49.405,-71.496,71.0,73.0
56248,0.207,0.472,0.944,33.565,46.611,-101.679,73.0,73.0
56305,-0.053,0.557,0.903,-11.481,46.298,-97.656,0.0,70.0
56357,0.015,0.322,1.083,27.954,48.557,-93.664,23.0,0.0
56413,-0.245,0.530,0.966,46.679,42.626,-53.863,85.0,0.0
56468,-0.189,0.526,0.970,95.168,35.481,-28.206,75.0,0.0
56522,-0.272,0.813,0.951,76.344,4.969,13.573,60.0,0.0
56577,-0.039,0.811,0.798,-11.496,15.122,10.466,57.0,0.0
56633,-0.174,0.497,0.967,-23.069,16.084,13.473,23.0,0.0
56685,-0.255,0.452,0.943,14.031,-6.557,13.076,22.0,0.0
56740,-0.230,0.410,0.867,17.908,1.076,12.969,25.0,0.0
56799,-0.252,0.719,0.742,12.450,-0.588,10.443,83.0,0.0
56855,-0.244,0.541,0.832,-1.740,-3.992,7.718,24.0,0.0
56910,-0.232,0.602,0.805,-12.198,-1.412,7.534,84.0,0.0
56973,-0.257,0.553,0.860,4.687,-2.092,9.000,0.0,0.0
57035,-0.217,0.737,0.696,-64.321,-1.008,4.664,0.0,0.0
57091,-0.247,0.347,0.939,-136.382,-7.954,-1.962,19.0,0.0
57143,-0.233,0.175,0.926,-27.611,-3.221,11.985,19.0,0.0
57199,-0.241,0.329,0.930,-10.977,-1.924,5.931,20.0,0.0
57244,-0.213,0.330,0.937,-7.542,-3.832,4.305,24.0,73.0
57298,-0.239,0.417,0.919,-6.893,-2.878,3.382,19.0,0.0
57355,-0.205,0.380,0.901,-43.695,-5.649,1.847,26.0,0.0
57410,-0.250,0.294,0.973,-30.954,-4.863,4.046,73.0,0.0
57463,-0.207,0.275,0.951,-30.137,-8.702,6.695,36.0,0.0
57519,-0.198,0.238,0.967,-17.443,-7.344,11.076,22.0,0.0
57571,-0.245,0.240,0.989,-15.191,-9.595,11.771,19.0,0.0
57626,-0.153,0.162,1.005,0.916,-8.366,12.618,71.0,0.0
57681,-0.185,0.297,0.922,11.015,-1.389,19.824,17.0,0.0
57734,-0.197,0.218,0.958,14.824,0.405,19.244,19.0,0.0
57790,-0.165,0.295,0.957,2.145,1.053,16.809,22.0,0.0
57888,-0.152,0.261,0.981,18.901,-7.649,6.496,22.0,0.0
57944,-0.133,0.381,0.938,28.679,-4.809,7.473,21.0,0.0
57999,-0.235,0.428,1.005,-14.160,-12.359,8.282,71.0,0.0
58054,-0.241,0.418,1.060,44.550,-31.198,45.832,71.0,0.0
58102,-0.114,0.489,1.026,77.107,-38.695,91.366,70.0,75.0
58165,-0.032,0.549,0.845,110.664,-25.389,136.550,0.0,0.0
58220,0.080,0.668,0.704,82.260,1.939,149.527,0.0,76.0
58266,0.047,0.486,0.663,91.557,21.748,136.511,37.0,77.0
58321,0.187,0.628,0.650,51.038,21.794,98.718,0.0,79.0
58381,0.175,0.432,0.769,-7.542,28.588,49.450,0.0,81.0
58432,0.265,0.420,0.853,31.550,33.084,18.031,0.0,18.0
58499,0.119,0.798,0.699,66.298,33.595,22.855,0.0,0.0
58542,0.159,0.806,0.749,4.183,20.328,13.046,38.0,12.0
58583,0.098,0.732,0.734,6.473,7.015,7.595,17.0,17.0
58625,0.158,0.709,0.664,4.092,7.748,11.137,17.0,19.0
58665,0.169,0.795,0.659,3.031,3.015,4.466,17.0,16.0
58706,0.109,0.765,0.688,-9.855,-0.626,8.260,17.0,16.0
58748,0.110,0.756,0.676,-23.145,-5.015,6.992,16.0,16.0
58792,0.147,0.609,0.712,-4.183,-13.832,2.550,16.0,11.0
58835,0.220,0.770,0.651,15.977,-3.389,9.450,33.0,17.0
58888,0.176,0.738,0.646,17.397,0.344,5.611,37.0,0.0
58944,0.137,0.648,0.717,17.573,0.305,1.863,16.0,0.0
58986,0.147,0.876,0.652,-10.321,-9.122,-2.031,33.0,16.0
59039,0.187,0.793,0.668,-14.351,-11.168,1.115,33.0,0.0
59092,0.163,0.790,0.600,-8.992,-10.183,1.580,33.0,0.0
59155,0.187,0.707,0.628,-40.992,-1.466,-1.198,0.0,0.0
59207,0.165,0.785,0.653,-19.122,7.947,2.389,0.0,17.0
59273,0.136,0.676,0.738,-21.542,11.595,-0.817,0.0,0.0
59327,0.101,0.724,0.764,-7.542,3.435,9.153,37.0,0.0
59369,0.145,0.691,0.731,-4.298,-1.511,6.687,36.0,16.0
59412,0.137,0.690,0.726,-6.977,-0.954,4.298,35.0,16.0
59465,0.148,0.693,0.758,-7.298,-1.298,4.824,36.0,0.0
59508,0.126,0.653,0.765,-6.061,-3.374,2.542,37.0,13.0
59559,0.113,0.707,0.731,-0.313,-3.771,4.252,0.0,13.0
59616,0.135,0.714,0.718,-2.023,-3.534,3.504,0.0,16.0
59678,0.132,0.710,0.702,-3.191,-2.115,5.603,0.0,0.0
59730,0.139,0.704,0.746,-7.282,-0.305,7.389,0.0,17.0
59786,0.137,0.684,0.743,-4.313,-1.702,6.870,0.0,13.0
59841,0.137,0.668,0.753,-4.565,-2.336,4.977,0.0,16.0
59884,0.126,0.733,0.719,-1.931,-3.847,4.542,36.0,13.0
59930,0.150,0.693,0.734,-4.145,-2.687,4.656,35.0,80.0
59976,0.139,0.706,0.718,-1.389,-0.855,4.397,35.0,80.0
60019,0.143,0.683,0.755,-4.992,-0.565,4.595,35.0,17.0
60062,0.134,0.701,0.749,-3.076,0.076,7.313,37.0,23.0
60114,0.136,0.688,0.757,-4.450,-1.908,6.084,0.0,14.0
60171,0.123,0.681,0.744,-1.397,-2.504,5.481,0.0,14.0
60216,0.128,0.713,0.715,-2.000,-4.893,4.237,37.0,13.0
60268,0.140,0.694,0.720,-4.634,-1.649,3.962,0.0,14.0
60324,0.131,0.712,0.736,-3.519,-0.969,4.000,0.0,13.0
60365,0.129,0.696,0.740,-7.962,-0.733,6.817,17.0,14.0
60450,0.134,0.688,0.741,-0.168,-1.366,5.313,17.0,14.0
60492,0.111,0.706,0.744,-3.802,-2.481,5.802,17.0,13.0
60534,0.140,0.672,0.747,-0.924,-2.229,4.382,17.0,17.0
60578,0.142,0.704,0.734,2.092,-0.863,4.176,18.0,66.0
60620,0.126,0.709,0.734,-4.740,-0.397,6.122,18.0,16.0
60662,0.135,0.678,0.759,-5.763,-1.237,6.885,17.0,16.0
60707,0.132,0.674,0.763,-2.191,-1.519,6.015,17.0,14.0
60749,0.133,0.694,0.740,-4.031,-2.260,5.260,18.0,13.0
60802,0.132,0.667,0.745,-3.618,-3.954,3.641,0.0,16.0
60857,0.128,0.699,0.729,1.809,-3.550,3.809,0.0,15.0
60899,0.135,0.719,0.724,-2.099,-2.382,3.412,18.0,14.0
60951,0.127,0.700,0.744,-6.351,-0.908,3.420,0.0,14.0
61007,0.112,0.739,0.740,-9.626,-0.137,3.824,0.0,14.0
61049,0.122,0.653,0.708,-5.046,-2.641,6.672,16.0,16.0
61090,0.137,0.660,0.748,-3.534,-2.366,2.878,16.0,15.0
61135,0.131,0.704,0.777,2.840,0.443,3.214,16.0,11.0
61177,0.123,0.742,0.750,-1.725,0.145,4.534,16.0,16.0
61220,0.129,0.699,0.701,-3.740,-1.092,6.664,36.0,18.0
61262,0.113,0.696,0.680,-2.366,-1.580,5.687,16.0,16.0
61306,0.117,0.692,0.736,-0.290,-0.649,3.015,18.0,62.0
61360,0.089,0.752,0.768,-1.076,0.053,3.160,0.0,17.0
61415,0.122,0.689,0.738,-5.977,-0.634,4.687,0.0,17.0
61468,0.068,0.673,0.717,-4.344,3.061,3.206,0.0,16.0
61523,0.045,0.688,0.774,-3.557,0.939,0.160,0.0,16.0
61571,0.070,0.713,0.715,-3.328,-4.718,2.817,36.0,16.0
61617,0.077,0.663,0.672,1.733,-5.870,0.855,38.0,68.0
61670,0.084,0.718,0.721,5.221,-4.901,-0.847,38.0,0.0
61713,0.090,0.772,0.733,-0.023,-4.634,1.977,34.0,16.0
61766,0.102,0.749,0.702,-6.664,-4.924,5.153,35.0,0.0
61810,0.042,0.660,0.703,-3.740,-4.626,4.260,37.0,16.0
61863,0.121,0.723,0.748,0.863,-5.382,1.321,37.0,0.0
61927,0.070,0.719,0.775,-8.710,-6.389,2.153,0.0,0.0
61989,0.101,0.675,0.687,-1.053,-5.214,4.481,0.0,0.0
62032,0.138,0.698,0.736,-3.374,-2.008,1.672,34.0,16.0
62089,0.101,0.692,0.810,-4.031,-2.985,5.221,0.0,17.0
62155,0.133,0.637,0.755,-1.053,-4.710,7.588,0.0,0.0
62209,0.149,0.721,0.723,3.214,-5.000,2.687,33.0,0.0
62272,0.130,0.716,0.750,-3.893,-2.267,4.832,0.0,0.0
62334,0.096,0.690,0.727,1.229,-3.160,3.252,0.0,0.0
62391,0.073,0.717,0.706,2.634,-2.275,1.931,16.0,0.0
62445,0.091,0.716,0.725,-0.282,-4.069,1.305,45.0,0.0
62499,0.110,0.738,0.725,-3.137,-4.298,0.809,37.0,0.0
62553,0.090,0.712,0.718,-3.328,-5.115,2.565,34.0,0.0
62607,0.149,0.722,0.728,-4.435,-3.298,3.275,31.0,0.0
62662,0.139,0.696,0.731,-0.901,-2.656,2.275,16.0,0.0
62718,0.087,0.698,0.744,-4.649,-4.076,5.305,16.0,0.0
62767,0.174,0.693,0.722,-2.901,-4.168,2.359,16.0,16.0
62808,0.067,0.674,0.733,0.489,-2.137,3.244,16.0,16.0
62859,0.168,0.747,0.742,3.939,-4.496,5.595,16.0,0.0
62914,0.079,0.704,0.705,-6.107,-0.420,3.427,16.0,0.0
63009,0.112,0.737,0.706,-5.786,-3.061,5.527,16.0,0.0
63065,0.100,0.667,0.720,-2.603,-2.130,4.969,16.0,0.0
63106,0.112,0.715,0.724,4.122,-2.015,4.069,16.0,16.0
63150,0.139,0.790,0.724,0.588,-1.450,5.023,16.0,16.0
63201,0.075,0.679,0.729,-8.153,0.031,4.962,16.0,0.0
63253,0.078,0.738,0.704,3.962,-1.557,6.237,0.0,12.0
63319,0.110,0.753,0.663,-6.588,-2.481,2.878,0.0,0.0
63374,0.100,0.716,0.726,-1.420,-2.901,4.214,17.0,0.0
63426,0.121,0.740,0.721,-4.427,-3.221,4.954,17.0,0.0
63481,0.088,0.724,0.699,-5.290,-2.191,3.832,17.0,0.0
63522,0.088,0.726,0.733,-7.221,-1.664,5.641,17.0,9.0
63562,0.081,0.676,0.743,-4.786,-2.382,6.611,17.0,11.0
63614,0.128,0.734,0.719,-3.695,-2.511,5.534,0.0,10.0
63669,0.065,0.687,0.731,-3.733,-2.115,4.893,0.0,10.0
63724,0.150,0.730,0.731,-2.954,-3.947,5.985,0.0,16.0
63776,0.117,0.680,0.730,-3.313,-1.992,4.099,0.0,17.0
63832,0.093,0.746,0.723,-1.992,-2.053,6.275,0.0,16.0
63883,0.135,0.701,0.732,-5.802,-4.206,5.176,0.0,12.0
63938,0.132,0.695,0.747,-2.802,-4.550,4.618,0.0,16.0
63990,0.088,0.688,0.745,5.557,-6.191,1.336,0.0,12.0
64046,0.100,0.753,0.726,1.969,-8.374,0.954,0.0,16.0
64088,0.061,0.758,0.674,-3.832,-0.397,-2.198,36.0,16.0
64133,0.069,0.777,0.752,-31.603,-17.160,-6.931,36.0,16.0
64195,0.130,0.700,0.701,-35.038,-18.427,1.496,0.0,0.0
64258,0.142,0.635,0.734,27.725,-1.656,5.824,0.0,0.0
64320,0.164,0.846,0.695,1.076,7.718,0.672,0.0,0.0
64382,0.101,0.722,0.764,-24.282,2.130,6.099,0.0,0.0
64445,0.146,0.599,0.785,-7.618,-1.069,3.786,0.0,0.0
64507,0.122,0.665,0.779,-2.550,-0.763,3.580,0.0,0.0
64570,0.146,0.661,0.777,-0.076,-3.595,4.427,0.0,0.0
64632,0.103,0.634,0.784,7.985,-4.710,9.489,0.0,0.0
64695,0.184,0.688,0.717,9.534,-2.817,9.137,0.0,0.0
64760,0.106,0.714,0.747,19.366,1.099,11.878,0.0,0.0
64823,0.051,0.735,0.758,37.137,-11.954,17.763,0.0,0.0
64875,0.120,0.737,0.614,41.473,-11.649,11.992,36.0,0.0
64928,0.202,0.863,0.568,26.656,-9.305,3.015,35.0,0.0
64971,0.094,0.790,0.600,-3.237,2.176,4.901,35.0,16.0
65024,0.139,0.782,0.671,-3.885,-1.565,10.847,0.0,16.0
65089,0.160,0.943,0.573,-27.618,1.275,15.458,0.0,0.0
65132,0.199,0.716,0.697,-24.962,4.756,14.481,35.0,16.0
65175,0.167,0.707,0.708,-14.824,10.321,0.466,44.0,16.0
65220,0.050,0.647,0.773,-16.756,-0.160,-12.076,35.0,16.0
65273,0.101,0.726,0.730,12.550,-9.733,0.656,35.0,0.0
65316,0.167,0.801,0.591,11.939,-3.206,6.427,35.0,17.0
65369,0.131,0.832,0.606,-4.656,0.214,6.160,34.0,0.0
65422,0.125,0.753,0.664,-9.084,-3.305,7.191,34.0,0.0
65465,0.127,0.761,0.666,2.588,-2.893,13.611,35.0,16.0
65527,0.162,0.751,0.669,-1.351,-3.527,9.695,0.0,0.0
65581,0.146,0.787,0.644,2.084,0.832,8.992,36.0,0.0
65634,0.150,0.763,0.673,0.504,-0.534,8.008,39.0,0.0
65733,0.172,0.761,0.666,10.565,-1.145,8.527,36.0,0.0
65786,0.131,0.852,0.611,-11.779,1.924,8.802,37.0,0.0
65840,0.165,0.749,0.678,-6.969,4.618,9.710,36.0,0.0
65893,0.112,0.722,0.671,-5.573,-1.786,6.802,37.0,0.0
65946,0.156,0.750,0.622,1.649,-1.008,6.672,37.0,0.0
65999,0.146,0.793,0.644,4.122,-3.130,5.748,38.0,0.0
66053,0.141,0.774,0.660,-0.832,-5.489,2.237,36.0,0.0
66106,0.177,0.771,0.635,-0.229,-7.618,-0.374,41.0,0.0
66160,0.122,0.729,0.673,-0.962,-5.397,3.351,40.0,0.0
66202,0.194,0.829,0.646,-4.092,-6.069,11.954,37.0,11.0
66248,0.182,0.765,0.662,-15.038,-2.145,8.947,37.0,12.0
66290,0.165,0.700,0.688,-7.038,-1.053,3.916,37.0,11.0
66333,0.163,0.746,0.675,0.962,-2.649,4.779,37.0,11.0
66375,0.157,0.778,0.648,-2.863,-3.069,5.443,38.0,10.0
66418,0.168,0.760,0.651,-3.015,-2.718,4.756,38.0,10.0
66460,0.187,0.776,0.652,-4.748,-2.557,3.458,39.0,11.0
66503,0.171,0.763,0.658,-5.198,-1.557,4.771,37.0,10.0
66545,0.172,0.769,0.658,-4.412,-1.550,5.496,37.0,10.0
66588,0.190,0.776,0.661,-5.313,-0.573,4.939,39.0,10.0
66634,0.153,0.749,0.657,-3.924,0.496,4.931,40.0,10.0
66676,0.157,0.749,0.634,-4.511,-0.977,3.695,41.0,10.0
66719,0.128,0.781,0.688,-4.153,-0.260,4.061,41.0,10.0
66762,0.171,0.755,0.687,-8.153,-2.229,4.542,46.0,10.0
66805,0.149,0.730,0.678,1.221,-0.221,3.412,46.0,8.0
66848,0.126,0.793,0.625,3.832,-0.618,4.885,45.0,9.0
66890,0.115,0.779,0.617,-5.420,-3.664,4.321,41.0,9.0
66933,0.156,0.779,0.659,-7.374,-3.458,3.893,41.0,9.0
66976,0.136,0.746,0.709,-4.634,-1.168,4.458,45.0,9.0
67019,0.138,0.786,0.661,-5.771,-2.519,5.672,45.0,9.0
67065,0.132,0.750,0.657,-3.962,-2.908,5.595,41.0,9.0
67107,0.162,0.770,0.636,-1.863,-4.817,7.656,40.0,9.0
67150,0.147,0.741,0.641,-2.031,-6.336,7.885,39.0,9.0
67193,0.197,0.783,0.672,-7.053,-6.687,7.092,41.0,9.0
67235,0.217,0.749,0.702,-3.634,-2.092,10.160,39.0,9.0
67278,0.178,0.772,0.656,-4.977,0.824,8.267,39.0,10.0
67321,0.158,0.727,0.691,-0.420,1.389,10.382,40.0,8.0
67363,0.171,0.781,0.679,0.137,1.695,11.557,39.0,10.0
67406,0.157,0.764,0.666,-7.893,5.893,8.931,38.0,10.0
67452,0.137,0.697,0.724,-3.817,1.321,10.679,39.0,10.0
67494,0.158,0.768,0.667,-1.947,1.130,5.977,38.0,9.0
67537,0.156,0.729,0.670,-3.450,-1.969,3.137,37.0,9.0
67580,0.149,0.732,0.643,6.489,-4.664,3.145,37.0,10.0
67622,0.195,0.781,0.641,10.863,-2.573,0.725,38.0,8.0
67665,0.132,0.775,0.674,1.634,0.229,7.947,38.0,9.0
67707,0.171,0.840,0.662,3.412,3.000,12.916,34.0,7.0
67749,0.127,0.713,0.658,-4.015,4.000,9.878,34.0,7.0
67792,0.158,0.741,0.688,4.626,2.176,12.832,35.0,7.0
67834,0.182,0.811,0.628,-1.756,-0.511,7.916,34.0,7.0
67880,0.167,0.761,0.622,-6.466,0.649,5.473,35.0,9.0
67922,0.160,0.763,0.668,-3.267,-2.237,3.084,36.0,9.0
68008,0.191,0.759,0.694,-2.267,0.168,4.237,34.0,8.0
68051,0.175,0.754,0.645,-1.145,2.000,2.771,45.0,10.0
68094,0.167,0.789,0.638,-6.855,0.427,0.359,37.0,8.0
68136,0.158,0.729,0.680,-12.252,-1.427,0.099,38.0,8.0
68179,0.161,0.718,0.709,-1.656,-0.550,4.427,43.0,8.0
68222,0.163,0.787,0.683,-5.466,-1.168,3.183,36.0,10.0
68265,0.145,0.748,0.668,-15.878,-1.870,-1.145,35.0,10.0
68312,0.111,0.631,0.710,-17.176,-15.977,-11.779,37.0,10.0
68355,0.117,0.589,0.760,4.389,-27.985,-25.351,41.0,9.0
68409,0.120,0.745,0.756,18.053,-36.618,-36.725,44.0,0.0
68472,0.168,0.849,0.640,-6.115,-29.931,-29.481,0.0,0.0
68526,0.124,0.756,0.618,-23.901,-20.779,-28.504,36.0,0.0
68581,0.133,0.844,0.575,-2.321,-7.328,-16.153,49.0,0.0
68643,0.141,0.868,0.579,-5.947,7.305,-2.260,0.0,0.0
68697,0.117,0.802,0.650,-13.038,18.847,10.344,26.0,0.0
68751,0.091,0.756,0.702,-22.779,25.565,17.229,44.0,0.0
68809,0.082,0.691,0.744,-24.779,27.183,15.405,48.0,0.0
68864,0.014,0.685,0.783,-26.313,17.443,18.618,51.0,0.0
68917,0.008,0.631,0.793,-14.992,5.107,15.122,27.0,0.0
68970,0.075,0.642,0.745,11.534,-0.573,14.092,25.0,0.0
69023,0.066,0.761,0.711,11.450,1.855,9.183,25.0,0.0
69076,0.061,0.743,0.702,0.565,-0.511,8.489,27.0,0.0
69140,0.064,0.727,0.691,2.115,-0.443,12.466,0.0,0.0
69209,0.003,0.761,0.715,4.580,2.924,16.061,0.0,0.0
69265,0.105,0.748,0.742,-5.359,-6.870,17.611,37.0,0.0
69318,0.098,0.850,0.696,-12.061,-8.420,29.092,37.0,0.0
69374,0.096,0.746,0.696,-16.214,-9.290,46.786,39.0,0.0
69436,0.207,0.712,0.667,0.176,4.420,48.962,0.0,0.0
69498,0.161,0.458,0.653,13.634,27.954,44.863,0.0,0.0
69551,0.175,0.497,0.816,-36.870,56.084,25.313,0.0,17.0
69606,-0.086,0.728,0.909,2.588,25.489,47.275,0.0,17.0
69653,0.045,0.542,0.794,11.214,-8.863,32.466,37.0,108.0
69708,0.150,0.633,0.700,3.008,-16.267,29.389,0.0,77.0
69753,0.331,0.695,0.672,13.893,-4.977,32.267,30.0,74.0
69799,0.252,0.634,0.687,16.611,9.282,28.351,30.0,74.0
69847,0.269,0.733,0.661,9.771,19.618,21.107,29.0,72.0
69889,0.213,0.704,0.702,8.908,25.641,18.397,31.0,17.0
69944,0.154,0.740,0.707,10.924,25.557,15.878,0.0,71.0
69988,0.132,0.754,0.731,13.924,10.458,9.466,16.0,70.0
70033,0.127,0.770,0.673,12.122,1.183,4.916,16.0,71.0
70078,0.122,0.768,0.641,-4.198,0.863,-3.405,38.0,70.0
70123,0.127,0.723,0.686,5.000,1.687,-7.908,31.0,71.0
70177,0.132,0.809,0.629,-1.534,0.443,0.534,0.0,69.0
70222,0.212,0.713,0.687,-23.031,2.634,1.840,28.0,67.0
70280,0.165,0.682,0.704,-9.710,8.229,15.130,0.0,68.0
70342,0.146,0.671,0.705,-19.687,9.550,18.565,0.0,0.0
70405,0.189,0.741,0.780,-1.924,10.977,22.969,0.0,0.0
70461,0.082,0.743,0.795,-52.122,6.847,22.504,29.0,0.0
70516,0.139,0.609,0.842,-27.382,-1.924,22.107,0.0,70.0
70571,0.211,0.644,0.747,-16.389,-2.595,23.031,0.0,65.0
70669,0.162,0.641,0.779,-17.389,2.450,18.038,0.0,65.0
70723,0.220,0.558,0.832,-21.000,1.931,14.038,0.0,64.0
70778,0.225,0.543,0.830,-17.992,1.542,17.412,0.0,64.0
70833,0.221,0.579,0.847,-27.183,6.985,23.237,0.0,64.0
70890,0.225,0.470,0.934,-49.519,11.496,25.947,0.0,63.0
70945,0.213,0.491,0.926,-69.618,12.725,27.618,0.0,63.0
71000,0.201,0.303,0.986,-96.153,8.481,27.954,0.0,63.0
71054,0.219,0.208,1.023,-85.122,7.504,35.344,0.0,63.0
71108,0.225,0.252,0.896,-135.672,10.656,23.427,0.0,57.0
71163,0.179,-0.070,0.979,-137.145,22.275,23.557,0.0,57.0
71218,0.178,-0.113,0.970,-90.893,27.763,27.344,0.0,57.0
71272,0.093,-0.035,1.041,-88.740,25.611,19.588,0.0,63.0
71334,0.048,-0.194,1.051,-59.420,3.771,21.191,0.0,0.0
71394,0.103,-0.189,1.013,-39.901,-2.122,9.878,0.0,90.0
71456,0.064,-0.270,1.029,-48.679,-8.160,24.038,0.0,0.0
71513,0.198,-0.338,0.991,-42.878,-7.557,29.893,17.0,0.0
71575,0.079,-0.363,0.957,-46.824,5.122,21.450,0.0,0.0
71638,0.075,-0.342,0.954,-54.908,-1.191,27.168,0.0,0.0
71693,0.063,-0.493,0.907,-29.382,0.458,13.626,16.0,0.0
71745,0.049,-0.344,0.865,-27.855,-8.084,-2.458,16.0,0.0
71808,0.070,-0.536,0.899,-0.924,-13.008,-11.565,0.0,0.0
71871,0.104,-0.428,0.879,0.824,-15.840,-21.076,0.0,0.0
71937,0.166,-0.550,0.954,39.122,-33.557,-54.366,0.0,0.0
71992,0.333,-0.392,0.934,47.740,-19.916,-63.916,18.0,0.0
72044,0.156,-0.247,0.928,51.458,1.260,-68.794,16.0,0.0
72099,0.043,-0.228,1.005,13.748,-11.954,-47.275,9.0,0.0
72152,0.113,-0.156,0.951,11.069,-18.626,-17.809,5.0,0.0
72203,0.224,-0.260,0.934,2.031,-20.786,-11.740,2.0,0.0
72254,0.257,-0.277,0.889,5.878,-16.489,-8.298,3.0,0.0
72305,0.310,-0.183,0.898,3.405,-13.847,-10.565,2.0,0.0
72356,0.312,-0.202,0.913,1.954,-6.504,-4.916,3.0,0.0
72412,0.342,-0.233,0.941,-15.298,-1.847,-10.725,2.0,0.0
72463,0.355,-0.224,0.921,-13.916,-2.122,-13.702,2.0,0.0
72514,0.339,-0.172,0.957,-26.573,-2.061,-20.687,2.0,0.0
72565,0.396,-0.178,0.924,-37.481,-7.847,-18.626,3.0,0.0
72616,0.367,-0.276,0.929,-36.740,-7.351,-13.878,2.0,0.0
72669,0.389,-0.258,0.897,-19.885,-7.412,-8.962,3.0,0.0
72720,0.377,-0.276,0.878,-12.580,-5.725,-4.183,4.0,0.0
72772,0.387,-0.292,0.883,-2.374,-3.931,-4.527,17.0,0.0
72825,0.378,-0.289,0.871,-6.718,-0.015,-3.611,34.0,0.0
72882,0.374,-0.299,0.900,-2.084,0.397,-0.916,35.0,0.0
72934,0.398,-0.288,0.912,-3.733,-1.557,-0.977,9.0,0.0
72986,0.400,-0.276,0.901,-5.664,-2.740,-4.153,9.0,0.0
73037,0.397,-0.267,0.915,-6.023,-2.962,-0.427,9.0,0.0
73090,0.424,-0.252,0.885,-6.145,-2.656,-1.603,3.0,0.0
73141,0.397,-0.277,0.889,-11.008,-0.885,-0.214,3.0,0.0
73193,0.434,-0.214,0.890,-16.840,0.153,-7.466,11.0,0.0
73246,0.377,-0.320,0.890,-24.527,0.542,-5.130,33.0,0.0
73299,0.431,-0.284,0.906,-10.137,1.000,-2.405,36.0,0.0
73356,0.393,-0.317,0.895,-2.023,-0.595,2.191,36.0,0.0
73453,0.381,-0.314,0.897,6.641,-4.824,3.290,36.0,0.0
73505,0.405,-0.321,0.885,21.908,-1.985,9.962,16.0,0.0
73556,0.397,-0.311,0.877,20.901,0.435,13.176,3.0,0.0
73609,0.417,-0.266,0.876,22.397,5.366,16.679,16.0,0.0
73661,0.422,-0.206,0.898,22.870,9.695,11.069,3.0,0.0
73712,0.340,-0.220,0.923,5.076,6.809,8.794,2.0,0.0
73764,0.421,-0.314,1.013,11.374,5.573,11.855,11.0,0.0
73816,0.411,-0.410,0.972,17.656,14.344,9.611,3.0,0.0
73868,0.399,-0.166,0.926,1.763,23.534,-2.076,5.0,0.0
73923,0.312,-0.202,1.009,-17.656,19.015,-3.076,6.0,0.0
73978,0.319,-0.196,1.003,-9.733,7.473,-5.252,73.0,0.0
74034,0.269,-0.134,1.000,6.069,-3.481,-6.382,74.0,0.0
74090,0.323,-0.108,0.976,-1.267,-14.290,-0.252,72.0,0.0
74145,0.355,-0.131,0.949,-7.305,-17.527,1.145,71.0,0.0
74201,0.359,-0.226,0.943,-16.672,-18.267,4.588,72.0,0.0
74257,0.361,-0.195,0.928,0.198,-20.458,3.794,71.0,0.0
74312,0.412,-0.215,0.921,-3.794,-21.969,2.282,72.0,0.0
74369,0.408,-0.195,0.893,1.893,-17.412,6.168,72.0,0.0
74427,0.400,-0.238,0.917,-4.695,-13.809,7.466,71.0,0.0
74482,0.423,-0.170,0.863,-1.031,-8.557,6.115,71.0,0.0
74539,0.397,-0.231,0.879,3.527,-5.824,6.275,71.0,0.0
74594,0.438,-0.156,0.890,6.145,-4.481,2.038,72.0,0.0
74649,0.426,-0.218,0.893,2.351,0.786,5.931,71.0,0.0
74705,0.377,-0.250,0.893,1.122,0.847,2.130,71.0,0.0
74761,0.308,-0.321,0.928,19.137,2.916,-6.206,72.0,0.0
74817,0.164,-0.123,0.860,73.023,-0.977,1.893,73.0,0.0
74872,-0.055,-0.003,0.825,140.282,11.298,25.855,75.0,0.0
74933,0.303,0.237,0.703,192.435,61.252,103.275,0.0,85.0
74979,0.646,0.437,0.729,181.305,87.061,89.481,30.0,83.0
75034,0.480,0.577,0.817,76.244,78.458,24.359,0.0,57.0
75088,0.483,0.106,1.325,69.695,51.115,5.099,0.0,49.0
75143,0.198,0.524,1.040,134.863,29.191,19.649,0.0,50.0
75188,0.163,0.703,0.950,109.023,-9.053,17.267,31.0,50.0
75233,0.214,0.818,0.781,73.886,-5.137,18.046,32.0,51.0
75278,0.300,0.838,0.637,38.901,11.779,28.000,34.0,51.0
75323,0.188,0.766,0.601,9.588,28.008,38.878,32.0,51.0
75371,0.205,0.562,0.760,29.038,39.092,48.557,31.0,53.0
75416,0.206,0.690,0.748,46.939,38.298,37.634,32.0,55.0
75469,0.072,0.643,0.897,13.718,21.023,17.183,31.0,0.0
75512,0.144,0.617,0.918,6.282,15.748,2.580,32.0,17.0
75555,0.127,0.762,0.747,26.359,7.641,5.061,33.0,16.0
75610,0.098,0.842,0.618,18.527,-0.550,8.092,34.0,0.0
75653,0.097,0.800,0.589,-12.809,-0.534,10.053,36.0,16.0
75696,0.149,0.717,0.625,-10.947,4.947,12.763,38.0,16.0
75742,0.193,0.728,0.647,1.130,9.626,14.313,37.0,56.0
75787,0.183,0.733,0.660,4.641,13.305,19.092,37.0,57.0
75845,0.179,0.779,0.679,-1.389,10.710,22.000,0.0,57.0
75900,0.115,0.720,0.704,-18.748,2.916,25.901,0.0,55.0
75953,0.224,0.661,0.724,-14.008,-1.931,23.817,0.0,16.0
76009,0.187,0.671,0.747,8.580,-4.061,14.435,0.0,16.0
76113,0.255,0.817,0.607,18.122,4.969,14.611,0.0,58.0
76155,0.178,0.861,0.631,2.115,5.603,11.008,38.0,16.0
76197,0.287,0.797,0.615,-12.885,17.473,18.954,38.0,16.0
76240,0.192,0.796,0.628,6.328,19.443,21.099,38.0,16.0
76284,0.177,0.798,0.599,14.763,18.160,26.718,35.0,60.0
76332,0.209,0.744,0.595,21.786,15.115,24.656,34.0,59.0
76378,0.206,0.758,0.601,21.313,15.565,22.397,35.0,71.0
76423,0.158,0.767,0.607,14.664,14.840,17.618,35.0,72.0
76468,0.224,0.741,0.640,22.336,12.374,13.840,36.0,74.0
76515,0.250,0.799,0.640,31.527,11.366,6.069,49.0,76.0
76561,0.248,0.873,0.633,34.527,14.397,2.756,36.0,78.0
76606,0.176,0.972,0.525,19.939,18.901,6.580,35.0,72.0
76651,0.210,0.902,0.500,-12.718,15.977,9.336,35.0,75.0
76697,0.251,0.799,0.583,-2.061,19.992,7.237,34.0,80.0
76746,0.150,0.773,0.552,6.748,25.611,14.481,36.0,81.0
76798,0.174,0.804,0.525,1.084,26.145,17.244,37.0,0.0
76841,0.177,0.804,0.581,-4.061,25.985,14.603,36.0,16.0
76888,0.119,0.832,0.622,-6.771,22.122,17.351,35.0,82.0
76934,0.227,0.824,0.644,-8.695,9.237,16.496,35.0,84.0
76980,0.260,0.726,0.668,-7.824,8.046,18.061,35.0,87.0
77027,0.219,0.753,0.643,7.130,12.542,12.656,38.0,88.0
77079,0.126,0.818,0.573,4.901,12.122,9.924,35.0,0.0
77126,0.176,0.823,0.614,1.252,0.611,2.779,35.0,89.0
77172,0.209,0.777,0.650,2.374,3.931,9.023,35.0,90.0
77221,0.186,0.808,0.625,-1.939,4.802,9.740,35.0,91.0
77268,0.225,0.747,0.588,1.908,1.878,7.046,34.0,93.0
77315,0.190,0.815,0.591,2.069,1.435,7.885,37.0,94.0
77362,0.188,0.798,0.597,-1.954,1.863,5.061,41.0,96.0
77415,0.220,0.812,0.585,-0.779,-1.718,7.374,36.0,0.0
77468,0.219,0.784,0.594,-5.817,-2.809,9.786,35.0,0.0
77520,0.208,0.803,0.615,-6.145,-3.076,9.122,34.0,0.0
77574,0.186,0.786,0.596,-1.786,-2.489,7.786,36.0,0.0
77627,0.199,0.841,0.578,-4.634,-5.115,2.809,37.0,0.0
77683,0.233,0.790,0.607,-5.504,-7.206,4.412,45.0,0.0
77737,0.165,0.806,0.574,-3.160,-4.901,5.565,41.0,0.0
77790,0.192,0.838,0.553,-7.473,-2.550,1.656,37.0,0.0
77844,0.191,0.811,0.586,-4.252,-2.947,0.908,45.0,0.0
77897,0.118,0.836,0.535,-7.481,-2.038,5.725,43.0,0.0
77952,0.179,0.840,0.548,-10.702,-4.046,2.542,48.0,0.0
78005,0.161,0.790,0.594,-3.336,0.969,8.893,38.0,0.0
78058,0.172,0.897,0.583,-8.344,2.084,10.389,45.0,0.0
78111,0.152,0.777,0.613,-11.550,0.519,17.885,37.0,0.0
78164,0.188,0.838,0.621,-5.130,-5.252,17.710,35.0,0.0
78221,0.182,0.789,0.624,-16.901,-9.153,22.489,37.0,0.0
78273,0.312,0.773,0.646,9.046,-4.191,38.305,31.0,0.0
78326,0.236,0.894,0.567,23.000,6.885,39.977,36.0,0.0
78380,0.334,0.828,0.644,51.015,12.718,57.977,34.0,0.0
78433,0.324,0.901,0.416,7.992,23.229,54.573,32.0,0.0
78486,0.398,0.860,0.316,-11.939,39.725,62.847,35.0,0.0
78539,0.249,0.702,0.484,33.176,47.374,60.763,33.0,0.0
78624,0.287,0.734,0.550,19.183,44.504,30.557,30.0,16.0
78678,0.219,0.725,0.719,32.092,27.832,20.756,31.0,0.0
78724,0.380,0.828,0.480,18.344,19.557,24.420,33.0,17.0
78776,0.364,0.822,0.503,7.519,26.710,32.397,32.0,0.0
78819,0.396,0.793,0.481,7.351,51.344,28.588,30.0,16.0
78871,0.303,0.771,0.620,9.511,53.870,29.130,30.0,0.0
78935,0.349,0.837,0.518,5.458,50.679,24.168,0.0,0.0
78987,0.292,0.724,0.658,-2.595,43.053,28.450,30.0,0.0
79040,0.231,0.774,0.594,-7.519,36.321,18.947,37.0,0.0
79094,0.261,0.692,0.595,-7.305,32.069,5.695,39.0,0.0
79157,0.234,0.761,0.663,5.901,21.641,10.038,0.0,0.0
79222,0.237,0.719,0.646,-10.557,0.656,13.473,0.0,0.0
79285,0.295,0.729,0.639,19.489,-3.374,17.542,0.0,0.0
79337,0.306,0.753,0.575,4.000,-4.366,15.634,0.0,17.0
79392,0.303,0.783,0.581,1.565,-3.710,11.221,0.0,11.0
79435,0.302,0.728,0.627,0.496,-6.969,-1.977,30.0,12.0
79477,0.292,0.861,0.604,12.244,-4.893,5.542,30.0,11.0
79519,0.285,0.901,0.499,-9.137,-2.840,11.290,36.0,11.0
79561,0.290,0.729,0.538,-16.802,-3.160,13.336,30.0,12.0
79604,0.319,0.803,0.571,-14.740,-7.817,0.794,30.0,17.0
79667,0.325,0.772,0.598,-22.550,-12.901,-8.008,0.0,0.0
79732,0.337,0.827,0.635,-12.580,-8.092,5.191,0.0,0.0
79785,0.333,0.668,0.628,-18.565,0.168,7.183,30.0,0.0
79839,0.326,0.692,0.600,5.588,3.015,4.962,30.0,0.0
79882,0.297,0.794,0.580,6.191,0.458,2.595,37.0,17.0
79925,0.299,0.768,0.595,-3.046,-0.733,3.328,39.0,16.0
79967,0.296,0.788,0.601,1.198,0.290,6.580,32.0,16.0
80020,0.293,0.773,0.596,-3.863,0.969,5.611,30.0,0.0
80073,0.327,0.757,0.636,-3.565,0.939,5.901,30.0,0.0
80126,0.332,0.750,0.643,-8.176,-0.374,5.550,37.0,0.0
80193,0.321,0.721,0.660,-14.634,-5.313,8.656,0.0,0.0
80236,0.299,0.719,0.617,-9.634,-9.305,5.122,37.0,16.0
80278,0.327,0.736,0.623,-9.733,-8.038,1.519,37.0,12.0
80321,0.331,0.755,0.631,-6.237,-7.489,-0.756,37.0,11.0
80373,0.329,0.756,0.636,-12.221,-7.321,-0.977,0.0,11.0
80425,0.325,0.707,0.662,-14.435,-6.855,-0.565,0.0,11.0
80477,0.319,0.748,0.648,-10.076,-7.817,0.901,0.0,11.0
80529,0.328,0.732,0.643,-21.359,-9.511,0.305,0.0,10.0
80581,0.296,0.664,0.660,-17.504,-7.794,-1.481,0.0,10.0
80636,0.305,0.715,0.664,-6.160,-8.031,-2.427,0.0,9.0
80678,0.323,0.726,0.670,-10.962,-7.382,-3.069,32.0,9.0
80721,0.297,0.716,0.664,-3.817,-4.489,-3.664,30.0,9.0
80763,0.339,0.741,0.678,-8.275,-3.069,-1.901,29.0,10.0
80805,0.358,0.709,0.689,-17.168,0.664,4.267,29.0,9.0
80847,0.366,0.625,0.715,-15.718,7.366,9.496,30.0,9.0
80890,0.246,0.647,0.688,0.252,10.405,13.893,37.0,9.0
80942,0.322,0.751,0.643,-4.947,6.618,13.427,0.0,9.0
80998,0.313,0.623,0.735,-16.046,9.198,12.802,0.0,10.0
81050,0.360,0.612,0.699,4.008,8.947,15.466,0.0,9.0
81095,0.290,0.667,0.740,6.466,7.992,13.992,37.0,9.0
81181,0.305,0.634,0.725,-3.618,6.832,14.359,31.0,16.0
81245,0.327,0.591,0.724,2.298,6.786,12.450,0.0,0.0
81298,0.277,0.674,0.723,14.359,7.107,12.626,37.0,0.0
81351,0.329,0.686,0.696,1.481,6.809,12.893,30.0,0.0
81405,0.292,0.628,0.727,11.985,8.664,11.382,38.0,0.0
81468,0.296,0.674,0.696,9.908,7.595,8.702,0.0,0.0
81521,0.259,0.601,0.719,24.275,11.611,3.008,31.0,0.0
81575,0.271,0.798,0.668,37.366,7.489,4.588,32.0,0.0
81632,0.249,0.801,0.594,-0.947,4.443,11.420,34.0,0.0
81686,0.284,0.734,0.650,-4.863,3.542,14.656,37.0,0.0
81739,0.279,0.704,0.643,-0.809,5.588,12.084,33.0,0.0
81793,0.274,0.770,0.643,15.794,6.496,15.458,35.0,0.0
81847,0.275,0.810,0.575,-2.260,6.718,14.901,37.0,0.0
81900,0.281,0.705,0.667,-4.305,5.924,13.267,35.0,0.0
81943,0.313,0.760,0.652,2.397,8.427,12.740,33.0,10.0
81986,0.240,0.809,0.602,5.664,12.015,14.130,37.0,8.0
82037,0.251,0.798,0.596,-3.733,10.061,15.519,0.0,7.0
82094,0.297,0.761,0.586,-7.260,11.473,17.313,0.0,7.0
82140,0.305,0.807,0.615,-9.504,11.603,17.908,34.0,9.0
82193,0.258,0.778,0.653,2.847,11.641,18.290,35.0,0.0
82256,0.273,0.837,0.604,7.053,6.359,23.511,0.0,0.0
82299,0.318,0.684,0.546,7.046,3.939,18.351,35.0,11.0
82353,0.264,0.773,0.533,22.916,8.069,11.634,35.0,0.0
82416,0.299,0.829,0.589,8.489,10.069,4.573,0.0,0.0
82459,0.337,0.811,0.643,-7.427,11.221,13.786,35.0,16.0
82502,0.276,0.759,0.625,-8.344,13.053,19.344,37.0,10.0
82566,0.300,0.704,0.615,-6.466,17.405,19.832,0.0,0.0
82627,0.244,0.726,0.636,1.053,26.092,13.817,44.0,0.0
82683,0.284,0.819,0.724,-3.069,24.687,10.947,35.0,0.0
82725,0.229,0.810,0.639,-2.893,23.305,14.160,36.0,9.0
82780,0.208,0.735,0.613,3.336,23.145,20.901,0.0,71.0
82826,0.158,0.747,0.565,1.160,22.489,11.618,37.0,70.0
82878,0.197,0.703,0.590,3.412,19.725,14.260,38.0,0.0
82940,0.249,0.824,0.625,7.794,12.649,17.504,0.0,0.0
82997,0.197,0.752,0.652,-3.443,12.374,25.153,33.0,0.0
83050,0.275,0.744,0.641,-3.748,10.740,25.313,33.0,0.0
83106,0.212,0.744,0.642,2.427,10.519,19.603,32.0,0.0
83172,0.248,0.706,0.640,8.298,11.641,17.641,0.0,67.0
83236,0.263,0.789,0.684,2.962,11.626,18.038,0.0,0.0
83294,0.242,0.787,0.600,9.687,7.756,18.290,0.0,64.0
83350,0.260,0.779,0.624,4.115,9.954,17.237,0.0,63.0
83407,0.246,0.775,0.577,7.298,6.580,16.412,0.0,63.0
83464,0.213,0.829,0.613,8.992,7.855,16.069,0.0,62.0
83518,0.228,0.860,0.580,0.206,11.672,15.374,0.0,16.0
83563,0.223,0.768,0.598,-1.137,8.618,12.267,33.0,16.0
83610,0.210,0.793,0.597,7.687,9.748,12.649,31.0,62.0
83660,0.210,0.832,0.559,-0.435,8.588,12.710,33.0,62.0
83707,0.188,0.785,0.588,1.107,11.870,11.756,37.0,62.0
83755,0.234,0.778,0.579,11.031,16.221,14.473,32.0,63.0
83799,0.231,0.807,0.579,19.687,9.511,9.977,37.0,9.0
