Timestamp(ms),AccelX(g),AccelY(g),AccelZ(g),GyroX(deg/s),GyroY(deg/s),GyroZ(deg/s),DistanceLeft(cm),DistanceRight(cm)
222904,0.303,0.498,0.835,2.748,8.817,-2.588,24.0,36.0
222947,0.301,0.458,0.850,11.061,17.397,0.420,29.0,36.0
222991,0.297,0.541,0.837,16.038,18.969,2.267,26.0,38.0
223034,0.280,0.555,0.821,14.137,17.611,4.542,27.0,37.0
223078,0.287,0.547,0.804,14.550,14.908,2.679,26.0,38.0
223121,0.258,0.577,0.805,8.634,9.588,1.099,26.0,38.0
223167,0.214,0.467,0.823,13.053,5.046,0.389,26.0,38.0
223211,0.266,0.546,0.804,26.076,4.366,0.443,26.0,37.0
223254,0.260,0.562,0.797,14.779,2.466,-3.947,26.0,38.0
223308,0.264,0.512,0.797,21.870,1.122,-6.252,0.0,40.0
223352,0.252,0.576,0.811,16.466,1.450,-6.183,26.0,51.0
223396,0.244,0.558,0.823,14.679,2.473,-3.977,26.0,54.0
223441,0.248,0.555,0.829,17.511,5.664,-1.504,27.0,57.0
223486,0.237,0.595,0.824,7.626,4.244,-1.176,30.0,57.0
223541,0.248,0.534,0.833,10.527,2.351,-3.244,0.0,56.0
223588,0.240,0.577,0.816,7.580,1.038,-2.237,16.0,50.0
223631,0.247,0.542,0.829,9.237,-0.160,-0.740,16.0,50.0
223675,0.261,0.563,0.814,16.023,1.924,2.702,16.0,41.0
223728,0.245,0.586,0.796,10.031,3.038,4.733,0.0,38.0
223781,0.260,0.530,0.804,13.336,4.718,6.267,0.0,38.0
223836,0.247,0.571,0.796,12.588,6.031,2.824,0.0,37.0
223879,0.241,0.540,0.825,12.603,6.420,-0.695,17.0,37.0
223922,0.240,0.545,0.821,12.809,4.855,-3.168,17.0,36.0
223965,0.250,0.556,0.828,19.855,4.908,-3.061,17.0,37.0
224008,0.218,0.617,0.811,18.382,5.183,-0.931,16.0,36.0
224064,0.244,0.549,0.820,18.198,3.191,-0.847,0.0,38.0
224107,0.223,0.594,0.796,26.450,3.931,3.557,17.0,38.0
224150,0.221,0.598,0.780,17.244,2.267,-0.603,13.0,38.0
224193,0.246,0.584,0.795,18.931,1.427,-2.389,11.0,38.0
224237,0.217,0.612,0.793,20.176,4.473,-0.252,10.0,54.0
224280,0.198,0.630,0.780,8.374,5.969,2.679,10.0,54.0
224324,0.209,0.551,0.814,10.916,3.756,1.466,11.0,54.0
224368,0.223,0.611,0.800,23.389,4.099,-1.183,9.0,55.0
224411,0.212,0.615,0.802,6.557,3.237,-3.718,11.0,54.0
224458,0.223,0.565,0.802,15.023,0.115,-0.817,10.0,54.0
224502,0.229,0.633,0.779,13.702,0.855,0.916,10.0,51.0
224545,0.215,0.594,0.785,9.412,0.473,3.038,10.0,50.0
224589,0.235,0.589,0.782,16.595,2.420,3.313,10.0,50.0
224631,0.224,0.639,0.764,12.634,3.618,3.962,10.0,40.0
224674,0.219,0.604,0.792,10.840,0.282,5.878,10.0,38.0
224717,0.246,0.582,0.771,19.153,0.160,5.313,12.0,39.0
224761,0.218,0.642,0.769,14.565,2.038,6.420,12.0,50.0
224805,0.245,0.581,0.787,12.542,3.221,3.450,17.0,50.0
224852,0.254,0.593,0.766,25.206,4.099,2.855,17.0,50.0
224907,0.244,0.646,0.769,12.534,5.893,1.473,0.0,52.0
224962,0.219,0.586,0.785,14.603,3.214,6.313,0.0,56.0
225006,0.239,0.624,0.771,20.473,3.656,8.450,17.0,51.0
225060,0.217,0.600,0.784,9.496,1.107,7.321,0.0,56.0
225115,0.249,0.607,0.787,20.252,-1.069,5.817,0.0,51.0
225170,0.238,0.649,0.775,8.359,1.168,4.160,0.0,57.0
225258,0.239,0.648,0.771,14.244,1.382,3.931,17.0,56.0
225312,0.235,0.615,0.762,9.122,0.076,5.412,0.0,51.0
225368,0.281,0.573,0.748,20.458,0.237,2.069,0.0,50.0
225415,0.264,0.631,0.729,14.076,1.855,3.908,17.0,50.0
225459,0.251,0.613,0.762,12.908,0.382,7.954,17.0,51.0
225503,0.271,0.593,0.760,23.115,-0.336,8.702,17.0,51.0
225557,0.277,0.660,0.757,20.496,1.038,3.321,0.0,52.0
225602,0.274,0.600,0.762,13.076,1.183,3.595,17.0,52.0
225656,0.283,0.601,0.773,18.473,-0.031,3.504,0.0,57.0
225701,0.275,0.674,0.756,9.908,-0.634,5.489,11.0,57.0
225745,0.284,0.634,0.765,8.435,-2.023,7.237,11.0,57.0
225789,0.302,0.602,0.742,16.992,-2.061,7.672,13.0,55.0
225837,0.315,0.651,0.720,11.649,-2.580,5.855,16.0,55.0
225892,0.311,0.623,0.736,11.282,-3.298,7.687,0.0,54.0
225947,0.320,0.616,0.733,11.802,-0.267,8.473,0.0,54.0
225991,0.334,0.592,0.738,16.031,4.366,8.595,16.0,55.0
226051,0.344,0.651,0.731,5.847,8.450,8.359,0.0,55.0
226105,0.298,0.647,0.762,-6.290,7.740,1.870,0.0,56.0
226149,0.310,0.526,0.780,-2.160,6.931,-3.756,25.0,55.0
226193,0.300,0.592,0.774,6.275,6.557,-0.344,26.0,54.0
226246,0.317,0.529,0.771,19.557,7.153,-2.855,0.0,55.0
226293,0.289,0.719,0.752,48.947,-1.198,3.130,23.0,52.0
226336,0.359,0.650,0.785,29.748,-8.137,-0.840,24.0,52.0
226380,0.316,0.553,0.779,35.397,-8.649,0.771,24.0,51.0
226424,0.386,0.678,0.731,38.458,-1.885,3.229,27.0,57.0
226479,0.347,0.733,0.678,40.092,3.840,-0.046,0.0,58.0
226523,0.223,0.713,0.678,6.908,6.496,9.908,26.0,56.0
226567,0.303,0.728,0.682,1.183,9.725,12.832,25.0,51.0
226611,0.317,0.634,0.681,-3.458,12.107,11.542,25.0,56.0
226654,0.300,0.655,0.696,-1.458,11.237,9.267,21.0,55.0
226698,0.331,0.620,0.735,1.718,11.198,9.656,20.0,50.0
226744,0.305,0.624,0.719,5.145,9.542,8.115,24.0,50.0
226788,0.332,0.649,0.732,-0.931,9.740,7.985,23.0,50.0
226831,0.315,0.636,0.744,-6.160,10.313,8.847,22.0,55.0
226874,0.290,0.583,0.764,-0.489,6.122,5.344,25.0,37.0
226917,0.283,0.607,0.741,3.718,2.412,6.374,21.0,36.0
226960,0.293,0.644,0.744,1.267,1.611,5.901,24.0,37.0
227003,0.309,0.591,0.749,-1.664,4.084,2.412,26.0,37.0
227045,0.308,0.569,0.778,5.389,6.290,2.595,17.0,36.0
227088,0.326,0.611,0.781,3.908,8.481,2.336,23.0,36.0
227134,0.325,0.558,0.789,2.573,7.397,3.527,26.0,36.0
227177,0.337,0.553,0.793,6.794,7.702,3.527,25.0,36.0
227219,0.305,0.595,0.783,4.634,7.282,4.160,20.0,35.0
227262,0.314,0.565,0.805,3.504,5.382,4.641,21.0,35.0
227309,0.332,0.540,0.804,2.573,8.275,6.733,106.0,35.0
227352,0.293,0.571,0.800,-1.779,8.221,5.840,19.0,34.0
227394,0.286,0.525,0.810,-0.626,5.954,3.336,19.0,34.0
227437,0.302,0.513,0.800,9.763,7.397,2.046,21.0,35.0
227480,0.285,0.547,0.806,9.252,8.389,0.137,23.0,35.0
227526,0.292,0.525,0.816,8.145,6.145,3.641,22.0,37.0
227612,0.281,0.478,0.844,2.344,3.260,1.771,23.0,39.0
227655,0.289,0.517,0.846,10.260,-1.053,6.550,21.0,34.0
227698,0.316,0.506,0.800,6.420,-1.046,5.069,26.0,34.0
227741,0.295,0.508,0.800,3.618,3.099,5.511,25.0,34.0
227785,0.308,0.486,0.813,7.099,2.756,5.824,24.0,49.0
227828,0.306,0.458,0.842,14.962,2.786,5.237,20.0,50.0
227871,0.320,0.470,0.839,13.748,0.824,4.450,17.0,34.0
227913,0.303,0.497,0.836,18.817,-1.015,1.847,18.0,34.0
227957,0.303,0.510,0.815,15.870,-2.573,2.214,26.0,50.0
228003,0.325,0.484,0.854,21.023,-2.275,4.962,26.0,36.0
228046,0.331,0.557,0.814,14.626,2.023,6.122,23.0,33.0
228089,0.314,0.501,0.842,4.901,2.695,6.641,23.0,33.0
228131,0.340,0.451,0.874,20.183,1.282,6.855,19.0,33.0
228174,0.333,0.519,0.816,12.641,2.664,2.313,24.0,34.0
228217,0.334,0.506,0.822,7.336,3.115,1.702,21.0,36.0
228260,0.341,0.523,0.805,11.855,3.809,2.863,16.0,36.0
228303,0.330,0.530,0.796,8.336,3.802,2.969,20.0,38.0
228346,0.310,0.503,0.810,4.496,3.817,4.206,25.0,34.0
228391,0.328,0.489,0.834,12.573,4.504,6.366,16.0,34.0
228434,0.325,0.516,0.822,9.733,6.275,6.015,26.0,34.0
228477,0.318,0.497,0.835,-1.573,7.198,5.344,17.0,34.0
228531,0.323,0.458,0.849,4.160,5.901,6.008,0.0,33.0
228574,0.309,0.456,0.823,13.626,5.924,6.527,25.0,33.0
228617,0.329,0.462,0.834,12.969,5.489,3.504,24.0,34.0
228659,0.322,0.477,0.822,17.168,6.550,-0.382,17.0,34.0
228703,0.316,0.510,0.854,17.947,5.870,2.305,27.0,34.0
228746,0.299,0.529,0.845,5.977,2.847,4.069,23.0,35.0
228792,0.319,0.450,0.839,6.198,-0.504,4.748,24.0,34.0
228835,0.312,0.458,0.827,8.183,0.267,4.237,25.0,33.0
228878,0.311,0.467,0.829,11.481,-0.573,1.412,24.0,33.0
228921,0.338,0.448,0.839,19.237,1.489,-1.603,22.0,35.0
228964,0.304,0.490,0.829,19.099,2.443,-1.863,22.0,35.0
229007,0.312,0.460,0.840,18.885,2.061,-2.748,23.0,37.0
229051,0.306,0.500,0.823,20.725,4.580,-1.511,22.0,54.0
229094,0.284,0.528,0.809,11.183,2.542,-2.916,23.0,36.0
229138,0.320,0.459,0.834,14.336,-0.351,-7.252,25.0,35.0
229181,0.317,0.499,0.829,23.634,-0.649,-4.206,24.0,33.0
229227,0.337,0.517,0.826,17.427,0.740,-3.206,25.0,35.0
229270,0.315,0.491,0.840,15.687,0.824,-3.183,24.0,35.0
229313,0.318,0.489,0.871,16.969,-1.603,0.313,25.0,35.0
229359,0.308,0.560,0.855,15.275,-9.527,2.084,70.0,34.0
229405,0.307,0.544,0.854,8.145,-18.710,1.847,71.0,33.0
229448,0.331,0.533,0.833,13.137,-26.542,5.977,27.0,33.0
229492,0.366,0.505,0.813,24.282,-29.435,5.145,23.0,34.0
229534,0.407,0.489,0.742,23.031,-17.824,3.908,16.0,34.0
229578,0.427,0.523,0.701,25.565,-6.107,2.756,24.0,34.0
229623,0.442,0.462,0.760,27.137,1.382,-4.305,16.0,33.0
229666,0.430,0.570,0.728,35.366,2.191,-1.191,16.0,34.0
229709,0.432,0.592,0.730,19.962,-0.328,-3.473,16.0,34.0
229752,0.422,0.544,0.737,15.191,0.130,-1.885,16.0,35.0
229838,0.403,0.603,0.739,12.405,-1.954,3.702,16.0,34.0
229881,0.398,0.557,0.752,14.634,-3.282,8.351,16.0,35.0
229924,0.422,0.576,0.732,24.740,-2.611,10.153,16.0,36.0
229967,0.409,0.585,0.726,18.252,-2.756,9.191,17.0,36.0
230010,0.413,0.540,0.758,16.260,-7.695,6.542,17.0,35.0
230056,0.439,0.541,0.734,31.130,-9.977,8.618,16.0,36.0
230099,0.448,0.604,0.691,26.870,-5.840,6.489,16.0,36.0
230142,0.451,0.577,0.689,18.878,-3.160,3.183,16.0,37.0
230185,0.455,0.592,0.679,26.809,1.076,3.122,16.0,37.0
230230,0.443,0.654,0.678,19.931,3.336,2.634,16.0,47.0
230273,0.448,0.606,0.686,12.359,2.053,1.847,16.0,36.0
230317,0.450,0.595,0.708,19.756,-1.130,2.954,20.0,46.0
230361,0.460,0.626,0.682,20.115,-2.038,2.756,22.0,46.0
230404,0.465,0.627,0.662,16.176,-0.954,3.786,16.0,47.0
230451,0.467,0.620,0.663,16.901,1.061,2.466,16.0,46.0
230495,0.452,0.624,0.672,16.198,1.412,1.038,16.0,46.0
230538,0.453,0.619,0.672,17.817,0.511,1.305,16.0,46.0
230582,0.460,0.621,0.654,22.687,0.962,1.107,16.0,45.0
230626,0.458,0.654,0.657,16.191,0.779,0.542,16.0,45.0
230669,0.459,0.624,0.663,13.389,0.687,1.649,17.0,44.0
230713,0.470,0.638,0.650,16.802,1.588,2.740,17.0,45.0
230756,0.460,0.634,0.639,12.473,1.458,1.824,17.0,45.0
230810,0.461,0.616,0.650,16.420,1.588,0.802,0.0,44.0
230867,0.458,0.636,0.632,17.351,1.870,1.573,0.0,44.0
230913,0.469,0.631,0.645,18.786,2.405,-1.183,28.0,46.0
230956,0.476,0.643,0.643,19.542,2.305,-1.290,16.0,45.0
231000,0.470,0.672,0.632,18.687,0.855,0.237,19.0,44.0
231044,0.468,0.662,0.631,14.733,0.107,2.534,17.0,44.0
231087,0.466,0.637,0.623,16.092,3.153,6.282,17.0,44.0
231131,0.475,0.645,0.620,16.496,4.718,5.084,16.0,43.0
231174,0.467,0.628,0.619,16.786,4.046,0.885,16.0,43.0
231218,0.466,0.663,0.640,18.473,3.885,-0.260,16.0,45.0
231262,0.452,0.694,0.632,13.092,3.595,2.458,17.0,47.0
231309,0.474,0.671,0.624,13.000,4.122,3.061,21.0,44.0
231353,0.473,0.654,0.642,13.191,4.771,6.351,23.0,44.0
231397,0.472,0.655,0.644,8.656,4.511,4.916,16.0,43.0
231440,0.462,0.633,0.620,14.573,4.153,4.260,16.0,44.0
231484,0.473,0.674,0.621,14.786,5.878,3.366,20.0,45.0
231528,0.419,0.638,0.614,9.817,2.504,2.802,17.0,43.0
231572,0.468,0.639,0.605,18.313,2.176,0.015,21.0,43.0
231616,0.450,0.680,0.607,18.878,2.298,-1.817,21.0,45.0
231659,0.464,0.662,0.623,15.244,1.855,-3.878,18.0,44.0
231707,0.452,0.678,0.615,19.901,1.344,-2.374,21.0,43.0
231756,0.466,0.695,0.615,12.954,2.473,0.191,17.0,43.0
231798,0.461,0.671,0.621,11.107,2.534,1.031,17.0,43.0
231841,0.461,0.681,0.626,11.458,2.870,2.359,17.0,43.0
231884,0.465,0.670,0.600,11.504,3.740,2.183,16.0,43.0
231926,0.454,0.664,0.611,9.664,2.695,0.710,16.0,43.0
231969,0.465,0.679,0.601,15.008,2.374,2.359,26.0,45.0
232013,0.471,0.687,0.593,12.832,3.710,2.687,27.0,44.0
232100,0.450,0.708,0.616,12.168,2.733,4.344,27.0,43.0
232146,0.456,0.674,0.617,6.916,3.107,4.962,26.0,44.0
232189,0.462,0.656,0.612,10.405,3.969,1.771,25.0,49.0
232233,0.456,0.682,0.614,11.611,4.695,2.511,22.0,48.0
232276,0.461,0.697,0.624,8.489,4.496,4.313,22.0,49.0
232320,0.472,0.657,0.634,6.595,4.664,3.550,16.0,43.0
232361,0.453,0.613,0.621,9.053,5.466,1.466,16.0,44.0
232404,0.449,0.671,0.619,9.901,4.359,2.328,17.0,43.0
232448,0.445,0.678,0.624,5.954,0.435,1.908,17.0,44.0
232491,0.437,0.662,0.636,11.153,-1.466,2.985,19.0,45.0
232534,0.444,0.690,0.636,12.603,-2.641,6.405,16.0,45.0
232590,0.469,0.631,0.635,10.382,-3.076,3.008,0.0,50.0
232633,0.469,0.647,0.638,12.847,0.725,-0.298,16.0,45.0
232686,0.479,0.696,0.638,3.275,0.542,-1.969,0.0,45.0
232730,0.482,0.642,0.631,1.252,0.023,0.954,27.0,47.0
232773,0.448,0.681,0.637,9.740,0.740,5.756,16.0,47.0
232816,0.476,0.645,0.629,7.321,2.008,4.534,16.0,48.0
232859,0.463,0.630,0.631,6.397,4.282,1.260,17.0,47.0
232902,0.473,0.635,0.649,5.573,5.046,2.382,17.0,49.0
232955,0.479,0.618,0.648,11.664,3.328,1.000,0.0,36.0
233000,0.476,0.628,0.621,10.244,1.397,0.397,16.0,39.0
233043,0.472,0.577,0.636,20.977,0.740,0.443,17.0,37.0
233085,0.488,0.670,0.618,25.534,0.649,1.313,16.0,36.0
233128,0.493,0.706,0.624,1.656,4.443,0.924,16.0,38.0
233170,0.487,0.611,0.724,-18.588,2.779,-2.473,16.0,37.0
233216,0.507,0.534,0.738,-4.519,-1.718,-2.053,25.0,55.0
233259,0.508,0.626,0.658,1.519,-2.511,-0.389,26.0,35.0
233302,0.547,0.594,0.672,-4.015,3.786,5.145,29.0,37.0
233346,0.534,0.597,0.644,-20.198,11.847,1.557,29.0,57.0
233402,0.588,0.558,0.689,-32.977,13.130,5.153,0.0,36.0
233445,0.605,0.456,0.661,-34.695,14.435,4.840,28.0,34.0
233489,0.556,0.390,0.703,-26.183,26.603,-2.366,27.0,39.0
233532,0.376,0.590,0.694,-33.260,29.763,2.015,25.0,32.0
233574,0.389,0.442,0.805,-60.626,21.160,-15.611,25.0,32.0
233617,0.236,0.438,0.855,-23.947,10.611,-0.824,23.0,30.0
233660,0.325,0.337,0.913,-6.733,-1.153,1.168,23.0,30.0
233703,0.440,0.191,0.875,52.053,-3.198,-6.435,24.0,32.0
233746,0.358,0.554,0.722,60.947,8.275,-8.260,28.0,30.0
233791,0.350,0.525,0.772,24.763,15.702,-5.908,24.0,30.0
233835,0.351,0.545,0.789,16.389,15.183,-6.450,24.0,36.0
233878,0.362,0.506,0.828,7.794,13.634,-12.672,25.0,36.0
233921,0.311,0.429,0.842,14.771,14.885,-8.366,25.0,30.0
233963,0.339,0.450,0.849,34.282,9.870,-6.496,26.0,30.0
234006,0.343,0.430,0.792,50.038,4.916,-11.305,25.0,29.0
234049,0.251,0.712,0.747,35.252,4.160,-5.611,28.0,30.0
234092,0.317,0.622,0.775,1.832,1.802,-5.748,29.0,30.0
234135,0.357,0.445,0.800,23.290,10.969,-3.107,26.0,30.0
234181,0.283,0.512,0.793,49.733,12.969,-2.130,27.0,29.0
234224,0.261,0.654,0.758,53.198,9.382,-0.695,26.0,32.0
234267,0.199,0.658,0.733,47.969,5.794,0.824,26.0,32.0
234354,0.255,0.688,0.648,33.336,2.580,7.076,26.0,29.0
234397,0.333,0.606,0.670,45.260,12.740,12.473,27.0,31.0
234441,0.410,0.747,0.627,49.183,23.687,14.336,33.0,45.0
234485,0.339,0.747,0.728,10.687,17.634,17.794,27.0,47.0
234529,0.327,0.795,0.820,-28.115,-4.069,13.427,29.0,50.0
234573,0.331,0.474,0.844,-42.321,-18.366,-0.290,25.0,50.0
234620,0.318,0.505,0.825,4.702,-21.084,1.847,24.0,36.0
234663,0.352,0.580,0.725,33.237,-18.489,0.542,25.0,33.0
234706,0.352,0.719,0.565,47.573,-8.351,9.366,24.0,32.0
234749,0.394,0.760,0.532,18.313,3.817,4.794,28.0,36.0
234793,0.390,0.668,0.592,-7.015,17.687,3.885,29.0,36.0
234838,0.327,0.591,0.691,-18.656,13.084,-3.496,28.0,50.0
234881,0.390,0.518,0.776,13.595,5.992,-0.939,25.0,37.0
234926,0.403,0.608,0.730,30.580,2.435,1.260,27.0,49.0
234969,0.401,0.679,0.678,10.763,-6.847,-1.603,26.0,37.0
235016,0.396,0.659,0.635,10.351,-5.779,1.832,28.0,37.0
235059,0.403,0.677,0.630,-0.969,0.305,6.435,30.0,36.0
235103,0.459,0.577,0.667,6.481,6.878,10.656,26.0,36.0
235146,0.412,0.554,0.731,1.641,5.038,0.260,28.0,36.0
235190,0.412,0.428,0.819,28.000,-11.695,-7.466,28.0,50.0
235235,0.402,0.605,0.734,59.916,-9.008,-9.496,26.0,50.0
235279,0.340,0.708,0.757,35.962,-1.557,-11.069,27.0,50.0
235323,0.380,0.601,0.749,48.855,0.656,-5.695,27.0,50.0
235368,0.330,0.716,0.748,52.435,-8.000,-7.435,28.0,50.0
235425,0.307,0.765,0.728,39.122,-12.626,-5.756,0.0,51.0
235470,0.365,0.853,0.670,10.145,-8.656,2.137,29.0,58.0
235525,0.380,0.713,0.677,-7.939,-6.695,6.901,0.0,51.0
235569,0.412,0.746,0.593,-7.710,-3.374,9.061,27.0,49.0
235614,0.407,0.667,0.609,-19.969,-1.351,4.458,27.0,51.0
235658,0.417,0.611,0.608,-5.405,1.260,0.634,27.0,56.0
235703,0.404,0.667,0.637,-6.664,2.527,-0.511,28.0,50.0
235747,0.418,0.689,0.618,-2.023,2.374,1.252,27.0,50.0
235791,0.421,0.684,0.634,-5.962,5.573,5.084,24.0,36.0
235834,0.419,0.654,0.634,-3.489,13.183,7.244,25.0,36.0
235882,0.389,0.679,0.624,0.038,12.603,10.145,29.0,50.0
235925,0.457,0.610,0.646,-2.870,18.595,13.153,28.0,37.0
235979,0.382,0.545,0.715,-0.282,11.435,8.046,0.0,36.0
236022,0.425,0.628,0.630,6.427,3.290,0.664,26.0,36.0
236066,0.434,0.439,0.678,17.924,10.122,-4.954,28.0,37.0
236110,0.383,0.467,0.692,72.427,14.733,-9.695,27.0,36.0
236154,0.326,0.726,0.666,87.008,7.664,-9.832,27.0,46.0
236198,0.313,0.769,0.628,83.771,-3.473,-13.756,28.0,46.0
236243,0.297,0.924,0.628,40.595,-4.313,-10.763,29.0,45.0
236291,0.291,0.829,0.653,23.023,-4.374,-3.374,29.0,46.0
236336,0.264,0.860,0.658,13.069,-6.420,2.916,28.0,45.0
236380,0.330,0.832,0.634,-1.145,-10.000,5.947,28.0,45.0
236424,0.376,0.661,0.624,-8.015,-6.916,2.649,28.0,46.0
236469,0.415,0.668,0.628,1.137,-0.794,-2.099,28.0,46.0
236513,0.363,0.743,0.619,0.939,-0.313,0.137,27.0,50.0
236557,0.371,0.815,0.614,4.519,-5.718,8.885,29.0,46.0
236646,0.439,0.723,0.560,-1.206,-9.046,27.084,37.0,51.0
236691,0.496,0.646,0.566,18.153,3.183,35.260,28.0,50.0
236738,0.564,0.645,0.502,23.198,20.611,39.878,29.0,37.0
236782,0.595,0.597,0.528,3.427,35.855,33.565,36.0,38.0
236827,0.520,0.566,0.612,-25.832,39.031,16.832,25.0,53.0
236872,0.399,0.599,0.718,-33.092,36.084,12.809,27.0,50.0
236916,0.387,0.590,0.770,-7.855,30.450,20.534,25.0,49.0
236960,0.401,0.607,0.720,8.489,26.015,23.595,24.0,37.0
237003,0.402,0.622,0.708,-9.168,25.405,15.450,23.0,36.0
237047,0.382,0.612,0.747,-28.916,30.237,15.832,23.0,32.0
237090,0.377,0.490,0.796,-30.412,29.740,13.725,22.0,32.0
237137,0.318,0.492,0.807,-26.015,29.435,11.939,22.0,32.0
237181,0.297,0.511,0.835,-5.344,20.046,12.779,26.0,36.0
237224,0.305,0.442,0.846,2.573,9.504,2.229,25.0,33.0
237268,0.232,0.443,0.868,-0.649,5.099,-7.504,26.0,33.0
237314,0.238,0.522,0.841,22.046,-3.176,-3.229,28.0,51.0
237357,0.268,0.506,0.852,5.008,0.282,-5.947,25.0,34.0
237401,0.274,0.455,0.857,22.198,-3.015,-8.252,28.0,35.0
237445,0.317,0.494,0.839,24.504,-6.321,-10.389,24.0,35.0
237489,0.323,0.493,0.817,19.931,-8.382,-11.542,26.0,35.0
237540,0.385,0.488,0.769,9.588,-8.802,-20.298,17.0,35.0
237582,0.393,0.428,0.804,12.924,-10.046,-22.855,17.0,36.0
237625,0.450,0.367,0.799,39.809,-12.687,-22.321,23.0,36.0
237668,0.405,0.450,0.726,70.412,-6.962,-17.954,24.0,49.0
237711,0.391,0.763,0.759,65.458,-17.924,-6.695,24.0,35.0
237754,0.395,0.731,0.710,50.573,-27.580,-2.412,27.0,36.0
237797,0.388,0.791,0.651,-1.046,-27.565,-1.557,26.0,36.0
237840,0.420,0.516,0.741,-9.389,-19.191,-2.504,25.0,37.0
237884,0.450,0.575,0.707,23.954,-5.916,-0.550,27.0,50.0
237930,0.422,0.696,0.636,16.664,11.183,0.969,28.0,38.0
237973,0.398,0.691,0.656,7.031,24.847,5.076,27.0,38.0
238016,0.356,0.663,0.675,-5.550,19.015,1.527,28.0,36.0
238059,0.393,0.527,0.735,6.901,8.160,1.809,28.0,37.0
238101,0.398,0.609,0.694,23.458,4.924,1.962,25.0,35.0
238144,0.392,0.590,0.684,19.573,2.863,-3.557,25.0,36.0
238187,0.390,0.660,0.663,9.870,2.168,-5.611,16.0,35.0
238230,0.427,0.619,0.653,-8.382,1.252,-10.969,16.0,50.0
238283,0.410,0.510,0.749,11.130,-0.237,-7.924,0.0,37.0
238329,0.445,0.612,0.720,35.756,-7.931,-2.756,30.0,37.0
238383,0.387,0.625,0.720,21.802,2.107,-3.977,0.0,51.0
238428,0.334,0.715,0.807,26.939,3.191,9.405,30.0,57.0
238471,0.326,0.815,0.784,-2.313,-10.412,12.313,27.0,37.0
238514,0.374,0.545,0.780,6.496,-18.969,17.656,25.0,37.0
238557,0.376,0.641,0.711,4.504,-13.023,14.908,17.0,51.0
238601,0.389,0.600,0.660,-0.603,-2.076,8.992,30.0,35.0
238644,0.361,0.564,0.635,1.008,11.702,2.626,25.0,36.0
238686,0.347,0.664,0.655,10.863,15.863,-1.344,17.0,36.0
238732,0.354,0.618,0.698,-5.756,7.794,-10.672,17.0,36.0
238775,0.419,0.556,0.701,9.916,8.794,-7.305,25.0,35.0
238817,0.422,0.606,0.689,15.649,10.695,-3.748,17.0,36.0
238903,0.429,0.610,0.676,16.656,6.947,2.702,17.0,37.0
238946,0.442,0.638,0.650,11.847,8.687,4.870,17.0,36.0
238988,0.320,0.609,0.674,1.405,4.626,2.214,17.0,37.0
239031,0.374,0.667,0.649,24.198,1.748,10.511,16.0,37.0
239074,0.433,0.672,0.645,-3.206,-1.733,8.160,16.0,37.0
239116,0.461,0.517,0.700,7.847,0.618,10.336,17.0,38.0
239163,0.434,0.534,0.752,10.885,-6.733,3.756,28.0,38.0
239207,0.440,0.475,0.785,19.702,-9.885,-0.733,29.0,54.0
239251,0.382,0.557,0.791,23.366,-8.115,-8.198,26.0,57.0
239296,0.328,0.627,0.828,28.840,-16.573,-8.130,26.0,59.0
239340,0.406,0.605,0.755,19.588,-17.107,-10.580,26.0,58.0
239385,0.355,0.597,0.815,27.244,-6.954,-6.267,53.0,40.0
239430,0.373,0.768,0.708,21.550,-3.420,-0.160,57.0,40.0
239475,0.375,0.645,0.719,-10.534,6.260,-1.573,30.0,57.0
239520,0.401,0.615,0.695,5.344,6.351,1.618,30.0,57.0
239567,0.473,0.526,0.644,10.908,9.870,0.435,24.0,58.0
239611,0.504,0.577,0.589,23.679,15.649,-0.573,27.0,63.0
239656,0.405,0.708,0.581,31.374,13.000,4.832,29.0,51.0
239700,0.366,0.745,0.649,8.534,6.092,5.412,29.0,56.0
239746,0.358,0.546,0.680,15.527,4.924,3.725,28.0,57.0
239790,0.399,0.557,0.696,25.794,8.344,-1.908,30.0,51.0
239834,0.367,0.594,0.678,51.786,6.145,-6.023,28.0,53.0
239879,0.414,0.682,0.620,52.695,4.221,-8.153,28.0,59.0
239925,0.315,0.686,0.674,65.427,-4.374,-7.931,29.0,88.0
239974,0.302,0.835,0.579,67.115,-11.573,-3.687,30.0,83.0
240020,0.344,0.878,0.614,9.290,-10.542,-10.046,29.0,81.0
240066,0.353,0.693,0.662,30.740,-0.527,4.076,28.0,82.0
240113,0.394,0.826,0.562,19.954,-0.061,1.374,30.0,84.0
240159,0.371,0.700,0.588,16.893,-0.740,-4.290,30.0,81.0
240205,0.351,0.846,0.562,24.145,-8.298,3.008,28.0,81.0
240251,0.417,0.743,0.569,22.176,-12.534,6.084,30.0,81.0
240297,0.421,0.809,0.522,13.305,-10.977,9.099,29.0,83.0
240344,0.469,0.698,0.534,20.664,-10.290,7.824,30.0,81.0
240393,0.487,0.710,0.530,47.656,-6.366,11.267,28.0,82.0
240439,0.493,0.801,0.508,50.939,-3.450,20.023,29.0,81.0
240485,0.540,0.851,0.444,52.031,0.603,26.702,36.0,83.0
240532,0.514,0.919,0.408,-0.015,8.985,20.527,30.0,83.0
240577,0.490,0.740,0.458,-8.420,16.076,18.985,36.0,53.0
240621,0.460,0.669,0.454,28.794,20.061,17.267,29.0,48.0
240665,0.468,0.774,0.407,44.977,17.863,15.969,33.0,46.0
240709,0.457,0.752,0.416,60.412,11.962,13.779,30.0,47.0
240754,0.478,0.912,0.365,47.366,6.527,17.824,30.0,45.0
240811,0.499,0.872,0.385,32.824,7.450,26.840,0.0,46.0
240856,0.552,0.813,0.410,39.420,10.168,36.885,31.0,46.0
240907,0.574,0.864,0.368,55.832,15.405,47.550,156.0,47.0
240959,0.590,0.847,0.329,34.595,22.191,54.672,156.0,49.0
241009,0.611,0.720,0.335,45.779,31.794,57.191,157.0,31.0
241062,0.606,0.794,0.261,30.412,33.626,54.557,0.0,32.0
241117,0.597,0.603,0.316,43.351,31.985,47.160,0.0,42.0
241170,0.586,0.611,0.297,49.282,21.809,33.053,0.0,36.0
241268,0.635,0.662,0.284,55.634,8.275,8.511,0.0,43.0
241334,0.659,0.756,0.257,43.550,7.595,9.160,0.0,0.0
241388,0.681,0.731,0.267,26.008,7.008,9.748,179.0,63.0
241440,0.677,0.702,0.255,21.672,7.740,10.466,178.0,36.0
241502,0.685,0.687,0.271,24.397,7.153,7.931,176.0,0.0
241554,0.689,0.686,0.266,23.534,5.336,6.046,177.0,33.0
241606,0.715,0.706,0.221,36.847,10.802,9.565,176.0,32.0
241658,0.733,0.691,0.206,32.267,16.603,16.046,177.0,31.0
241709,0.792,0.631,0.212,48.275,22.107,25.374,159.0,27.0
241760,0.752,0.647,0.206,57.824,25.954,27.130,160.0,22.0
241814,0.721,0.658,0.222,51.351,17.618,20.672,182.0,23.0
241867,0.625,0.670,0.249,47.298,17.237,-6.779,190.0,29.0
241930,0.554,0.817,0.212,32.588,-0.282,-13.321,191.0,0.0
241982,0.602,0.713,0.238,11.809,-13.595,-31.282,181.0,23.0
242034,0.559,0.848,0.174,0.840,-29.176,-39.359,191.0,19.0
242085,0.533,0.739,0.107,-7.901,-53.298,-34.542,162.0,21.0
242136,0.607,1.014,-0.168,-97.748,-66.115,-46.160,153.0,23.0
242186,0.693,0.799,-0.182,-211.008,-42.779,-62.198,153.0,32.0
242240,0.733,0.875,0.077,-221.595,5.557,-42.351,0.0,34.0
242287,0.609,0.361,0.548,-156.603,23.664,-39.824,30.0,36.0
242340,0.599,0.436,0.708,-74.771,16.794,-27.275,195.0,36.0
242384,0.532,0.528,0.740,-76.412,-0.351,-43.397,27.0,36.0
242428,0.500,0.546,0.796,-24.824,-3.519,-27.557,23.0,43.0
242473,0.517,0.622,0.733,-3.901,-3.053,-18.275,25.0,50.0
242518,0.529,0.651,0.662,2.214,5.328,-7.092,23.0,38.0
242561,0.458,0.602,0.695,-17.702,19.290,-0.779,16.0,36.0
242604,0.464,0.564,0.760,-13.924,16.588,0.206,22.0,36.0
242647,0.417,0.523,0.791,2.939,11.519,6.321,16.0,36.0
242694,0.450,0.588,0.749,25.893,2.092,12.878,17.0,36.0
242737,0.463,0.634,0.681,15.885,3.969,11.725,16.0,35.0
242781,0.425,0.620,0.681,-3.450,5.412,11.336,24.0,36.0
242824,0.426,0.507,0.746,0.321,1.924,7.389,23.0,38.0
242868,0.446,0.518,0.733,20.992,-0.924,4.702,29.0,37.0
242912,0.431,0.587,0.725,13.580,-1.122,3.863,24.0,36.0
242958,0.446,0.576,0.695,13.573,4.061,4.206,61.0,38.0
243011,0.461,0.595,0.740,-16.733,8.130,3.000,0.0,39.0
243065,0.452,0.430,0.764,6.145,2.580,-1.198,0.0,42.0
243113,0.471,0.425,0.832,-0.298,-5.107,-10.031,38.0,42.0
243158,0.479,0.436,0.780,25.794,-7.084,-7.550,25.0,42.0
243203,0.497,0.541,0.787,-0.069,-2.374,-11.695,25.0,40.0
243247,0.462,0.444,0.815,12.450,-7.389,-8.046,26.0,40.0
243300,0.503,0.549,0.700,6.931,-5.931,-9.061,0.0,39.0
243354,0.501,0.408,0.701,25.374,3.206,-8.015,0.0,40.0
243408,0.478,0.592,0.696,14.771,7.534,-5.061,0.0,42.0
243463,0.466,0.480,0.746,36.641,6.405,-2.855,0.0,42.0
243509,0.388,0.569,0.774,37.634,1.992,-3.275,29.0,62.0
243557,0.341,0.649,0.747,48.588,-2.321,-4.466,26.0,57.0
243610,0.350,0.764,0.690,20.252,-2.099,-1.023,29.0,104.0
243654,0.418,0.579,0.685,16.740,2.534,-2.198,28.0,57.0
243698,0.473,0.589,0.614,29.183,7.969,-5.580,26.0,63.0
243788,0.462,0.461,0.677,60.618,3.260,-19.832,26.0,92.0
243838,0.454,0.825,0.561,66.305,-2.244,-16.473,108.0,91.0
243886,0.374,0.641,0.656,54.137,-2.908,-14.939,30.0,99.0
243937,0.353,0.868,0.567,81.847,-8.672,-3.267,108.0,88.0
243983,0.363,0.914,0.563,23.435,-5.511,1.603,30.0,88.0
244031,0.385,0.793,0.583,10.656,-4.229,5.427,32.0,82.0
244077,0.423,0.731,0.541,28.359,-4.489,11.634,34.0,81.0
244123,0.435,0.843,0.512,5.336,-4.809,10.206,30.0,89.0
244170,0.442,0.682,0.516,4.183,-5.099,11.817,29.0,94.0
244216,0.476,0.814,0.486,16.458,-3.511,12.679,29.0,89.0
244262,0.503,0.729,0.471,-7.137,1.733,7.321,30.0,90.0
244308,0.530,0.618,0.503,3.817,11.412,1.588,28.0,91.0
244355,0.458,0.751,0.506,17.168,21.023,0.489,30.0,91.0
244402,0.384,0.836,0.558,2.244,16.282,4.244,30.0,101.0
244451,0.373,0.757,0.561,18.115,0.275,6.802,30.0,91.0
244497,0.428,0.789,0.527,10.557,-5.000,4.115,29.0,93.0
244544,0.383,0.757,0.582,10.427,-1.405,6.420,29.0,91.0
244596,0.372,0.775,0.573,8.969,-7.687,4.511,29.0,0.0
244653,0.487,0.708,0.538,12.229,-4.603,3.840,28.0,0.0
244699,0.480,0.722,0.528,13.046,3.328,6.198,29.0,93.0
244752,0.486,0.735,0.513,14.649,-0.031,6.756,29.0,0.0
244808,0.479,0.742,0.492,4.458,-6.038,3.527,28.0,0.0
244852,0.568,0.588,0.529,9.557,6.786,1.695,28.0,57.0
244896,0.520,0.648,0.487,17.214,19.794,-3.687,30.0,57.0
244944,0.397,0.769,0.516,18.115,17.885,-3.695,28.0,58.0
244988,0.412,0.751,0.525,41.130,5.008,-2.763,28.0,52.0
245032,0.410,0.913,0.473,28.145,-0.740,0.496,30.0,50.0
245076,0.413,0.731,0.527,7.412,2.336,-3.748,29.0,53.0
245122,0.410,0.663,0.549,37.053,6.695,-8.374,30.0,57.0
245167,0.319,0.842,0.524,54.145,5.176,-2.794,30.0,81.0
245213,0.392,0.898,0.468,44.305,-3.710,-2.473,30.0,80.0
245259,0.415,0.702,0.472,47.267,-4.420,-3.092,33.0,80.0
245305,0.428,0.866,0.391,64.008,-7.053,3.695,37.0,79.0
245363,0.415,0.925,0.363,31.748,-10.580,4.649,37.0,79.0
245409,0.472,0.856,0.429,29.191,-15.473,12.389,38.0,79.0
245455,0.513,0.869,0.412,40.885,-15.305,22.588,32.0,80.0
245501,0.543,0.837,0.413,50.061,-12.557,27.924,39.0,80.0
245549,0.604,0.944,0.319,53.916,-2.336,36.786,38.0,81.0
245600,0.584,0.920,0.292,20.107,10.443,38.137,159.0,47.0
245652,0.605,0.889,0.251,6.901,21.023,39.382,159.0,47.0
245704,0.577,0.759,0.257,7.397,28.786,39.901,172.0,46.0
245755,0.544,0.682,0.259,16.649,21.260,30.634,174.0,32.0
245812,0.538,0.715,0.225,36.580,18.718,23.214,186.0,48.0
245863,0.548,0.727,0.217,36.023,18.191,19.893,165.0,33.0
245915,0.573,0.761,0.188,40.695,18.084,16.183,164.0,50.0
245967,0.595,0.751,0.199,31.107,21.489,17.267,163.0,50.0
246020,0.626,0.732,0.222,44.137,22.771,20.840,163.0,50.0
246071,0.658,0.751,0.232,49.198,22.756,26.969,170.0,33.0
246125,0.714,0.775,0.226,43.008,28.649,34.985,185.0,59.0
246178,0.707,0.693,0.260,43.321,31.878,33.733,0.0,36.0
246275,0.726,0.623,0.274,47.130,26.435,30.008,180.0,38.0
246329,0.704,0.644,0.251,54.924,17.435,19.435,178.0,29.0
246390,0.723,0.628,0.226,64.855,13.855,-1.359,177.0,0.0
246444,0.619,0.773,0.128,65.794,17.122,-16.916,0.0,22.0
246496,0.564,0.737,0.178,46.336,11.908,-24.794,195.0,23.0
246547,0.532,0.901,0.120,29.069,-7.725,-27.466,163.0,23.0
246597,0.507,0.972,0.095,-2.107,-18.786,-14.725,163.0,20.0
246647,0.506,0.805,0.151,-32.366,-35.947,-14.389,164.0,21.0
246699,0.603,0.871,0.042,-61.351,-51.099,-23.267,160.0,29.0
246753,0.681,0.831,-0.011,-153.198,-38.779,-43.336,161.0,36.0
246806,0.667,0.704,0.063,-125.656,-10.244,-37.435,184.0,50.0
246858,0.636,0.491,0.336,-101.550,18.046,-36.374,168.0,50.0
246912,0.529,0.694,0.413,-22.275,20.740,-18.092,170.0,50.0
246964,0.554,0.677,0.531,-39.916,12.588,-25.160,170.0,49.0
247009,0.498,0.747,0.550,-21.756,0.099,-20.427,30.0,48.0
247061,0.562,0.742,0.567,-26.794,3.405,-19.687,170.0,47.0
247106,0.527,0.704,0.597,19.542,17.626,1.840,29.0,48.0
247150,0.586,0.917,0.542,-8.710,23.427,14.557,30.0,49.0
247206,0.571,0.638,0.585,-21.008,32.206,19.023,193.0,50.0
247251,0.461,0.690,0.673,-47.527,36.977,25.076,26.0,50.0
247296,0.494,0.554,0.796,-35.542,22.969,26.450,28.0,50.0
247341,0.526,0.492,0.798,-33.031,9.176,23.115,24.0,50.0
247384,0.544,0.572,0.766,-20.550,10.031,25.878,30.0,32.0
247427,0.547,0.618,0.706,-36.282,23.733,24.855,21.0,30.0
247475,0.447,0.601,0.717,-58.809,42.924,32.901,108.0,34.0
247518,0.439,0.402,0.841,-30.389,50.275,34.870,27.0,30.0
247562,0.394,0.538,0.778,0.084,54.550,36.947,28.0,30.0
247608,0.304,0.468,0.785,-20.695,47.802,37.031,29.0,30.0
247652,0.349,0.360,0.855,-18.985,37.198,25.427,30.0,30.0
247696,0.311,0.322,0.864,2.198,33.107,21.977,30.0,45.0
247740,0.277,0.431,0.896,-10.366,18.908,17.748,29.0,45.0
247784,0.312,0.250,0.879,-1.527,3.542,12.176,22.0,43.0
247827,0.417,0.379,0.824,-1.427,11.481,12.328,20.0,29.0
247870,0.412,0.305,0.827,-0.115,28.687,10.580,30.0,29.0
247924,0.333,0.269,0.841,4.130,45.656,11.855,0.0,37.0
247977,0.248,0.298,1.029,-0.672,30.557,14.954,0.0,37.0
248035,0.264,0.233,0.935,3.710,21.840,9.496,0.0,38.0
248088,0.249,0.215,0.951,20.160,30.573,10.947,0.0,39.0
248143,0.117,0.151,0.938,12.168,11.573,-9.397,0.0,59.0
248197,0.165,0.058,0.899,91.985,-4.351,-26.130,0.0,32.0
248240,0.036,0.324,0.823,119.267,-5.061,-35.664,21.0,29.0
248284,0.001,0.347,0.830,147.031,-40.695,-53.794,21.0,30.0
248328,0.065,0.493,0.657,193.649,-56.595,-58.702,32.0,36.0
248371,0.185,0.866,0.566,161.878,-51.496,-46.107,33.0,16.0
248414,0.304,0.958,0.575,144.168,-48.275,-25.137,36.0,16.0
248460,0.447,1.165,0.548,88.000,-36.260,-12.153,35.0,14.0
248503,0.403,1.113,0.552,34.939,-22.954,15.534,36.0,16.0
248547,0.356,0.905,0.592,-3.954,-32.214,18.634,35.0,16.0
248596,0.401,0.736,0.579,18.389,-36.115,22.985,155.0,16.0
248647,0.340,0.684,0.479,37.275,-37.237,9.344,168.0,21.0
248742,0.390,0.879,0.343,50.687,-27.344,5.008,153.0,46.0
248793,0.426,0.990,0.265,33.840,-11.443,15.000,153.0,16.0
248843,0.428,0.862,0.252,17.099,-3.611,15.191,153.0,17.0
248896,0.465,0.949,0.287,-28.733,10.466,12.221,153.0,16.0
248946,0.521,0.979,0.288,-63.763,31.229,6.519,156.0,16.0
249000,0.488,0.727,0.380,-97.290,61.763,1.649,197.0,50.0
249054,0.437,0.743,0.568,-83.099,92.878,3.260,0.0,30.0
249097,0.320,0.687,0.737,-71.519,88.290,20.244,26.0,16.0
249140,0.268,0.900,0.837,-116.786,70.443,33.947,26.0,23.0
249183,0.276,0.418,1.002,-76.695,39.908,48.107,22.0,21.0
249226,0.349,0.635,0.816,-85.336,36.534,56.626,23.0,30.0
249270,0.294,0.240,0.833,-88.565,46.458,37.611,23.0,29.0
249316,0.222,0.080,0.871,-11.153,64.458,39.977,19.0,36.0
249370,0.102,0.254,0.812,17.649,70.664,17.435,0.0,38.0
249414,-0.120,0.235,0.965,53.290,11.412,-18.229,30.0,29.0
249458,-0.173,0.132,0.750,100.886,-34.863,-50.969,30.0,30.0
249501,-0.083,0.317,0.819,173.603,-66.740,-55.473,23.0,30.0
249544,-0.008,0.680,0.585,186.985,-87.107,-43.763,29.0,21.0
249589,0.158,0.895,0.484,178.427,-101.191,-31.305,32.0,49.0
249633,0.324,0.971,0.443,127.519,-95.786,-14.267,37.0,16.0
249683,0.475,0.953,0.449,101.786,-82.344,-0.267,153.0,14.0
249737,0.484,0.920,0.402,88.076,-60.725,14.076,154.0,11.0
249792,0.603,0.966,0.368,69.573,-38.649,23.298,154.0,11.0
249841,0.510,0.931,0.281,57.931,-13.985,31.130,154.0,11.0
249890,0.534,0.963,0.267,32.718,-1.634,31.710,154.0,12.0
249938,0.498,0.869,0.218,35.802,11.122,33.435,153.0,16.0
249988,0.485,0.889,0.216,26.290,14.695,32.305,153.0,17.0
250039,0.480,0.830,0.189,21.550,14.305,31.275,153.0,51.0
250088,0.526,0.867,0.196,13.687,14.595,35.092,153.0,16.0
250140,0.510,0.789,0.194,14.298,15.130,37.511,153.0,16.0
250189,0.579,0.817,0.240,12.794,13.855,34.420,157.0,16.0
250240,0.597,0.749,0.265,15.656,20.321,30.389,175.0,17.0
250291,0.604,0.803,0.264,15.695,19.679,24.275,169.0,36.0
250352,0.616,0.779,0.285,17.099,20.588,26.290,180.0,0.0
250404,0.602,0.780,0.291,0.092,16.916,26.878,179.0,36.0
250467,0.627,0.593,0.318,-4.191,11.275,14.985,0.0,0.0
250529,0.613,0.729,0.271,37.618,8.405,1.397,194.0,0.0
250590,0.622,0.716,0.260,44.985,0.672,-5.282,169.0,0.0
250654,0.587,0.893,0.188,34.664,7.183,5.267,187.0,0.0
250716,0.586,0.659,0.283,38.779,8.336,3.069,188.0,0.0
250777,0.569,0.789,0.155,50.603,2.565,-11.176,188.0,0.0
250826,0.574,0.835,0.118,67.939,-3.489,-13.565,154.0,16.0
250887,0.610,0.911,0.113,54.656,1.947,-12.947,154.0,0.0
250946,0.594,0.779,0.224,48.641,9.481,-27.420,154.0,0.0
250996,0.534,1.002,0.076,28.084,11.046,-36.053,154.0,16.0
251045,0.412,0.939,0.050,18.290,6.122,-33.603,154.0,16.0
251094,0.408,1.059,0.118,-9.824,-8.145,-25.977,154.0,10.0
251146,0.370,0.896,0.068,-14.351,-25.489,-17.595,154.0,9.0
251195,0.373,0.978,0.024,-48.397,-38.550,-17.298,154.0,11.0
251244,0.413,0.926,-0.068,-71.618,-44.939,-1.557,153.0,11.0