Timestamp(ms),AccelX(g),AccelY(g),AccelZ(g),GyroX(deg/s),GyroY(deg/s),GyroZ(deg/s),DistanceLeft(cm),DistanceRight(cm)
506113,-0.771,-0.211,0.968,-11.939,-199.328,-3.496,35.0,0.0
506168,-0.461,-0.126,0.768,-82.122,-209.863,-0.977,36.0,0.0
506223,-0.357,-0.400,0.748,-71.252,-196.779,4.649,35.0,0.0
506283,-0.166,-0.406,0.642,-42.046,-175.840,12.466,37.0,0.0
506338,0.004,-0.485,0.610,-56.389,-155.099,6.534,39.0,0.0
506393,0.110,-0.512,0.650,-73.466,-137.893,-8.519,38.0,0.0
506449,0.291,-0.724,0.712,-48.237,-131.092,-25.443,38.0,0.0
506506,0.382,-0.597,0.648,5.015,-117.985,-29.076,45.0,0.0
506562,0.403,-0.533,0.506,7.870,-99.878,-10.489,44.0,0.0
506618,0.542,-0.572,0.440,24.954,-77.160,4.718,58.0,0.0
506684,0.575,-0.547,0.399,-25.573,-60.832,-0.275,0.0,0.0
506752,0.600,-0.665,0.426,2.550,-41.779,-4.260,0.0,0.0
506816,0.591,-0.531,0.409,14.443,-29.656,-9.099,0.0,0.0
506882,0.535,-0.571,0.417,1.321,-9.954,17.550,0.0,0.0
506946,0.595,-0.545,0.383,-14.580,-0.595,27.061,0.0,0.0
507012,0.673,-0.725,0.470,-10.824,0.534,14.557,0.0,0.0
507076,0.658,-0.664,0.465,6.611,-3.244,0.565,0.0,0.0
507142,0.671,-0.660,0.468,1.290,-8.321,-0.366,0.0,0.0
507206,0.641,-0.587,0.432,0.420,-9.740,1.809,0.0,0.0
507271,0.644,-0.573,0.410,0.832,-7.244,8.695,0.0,0.0
507336,0.649,-0.660,0.444,-9.298,-3.901,7.687,0.0,0.0
507404,0.694,-0.412,0.308,26.504,-1.992,-1.695,0.0,0.0
507469,0.660,-0.468,0.391,-48.252,2.412,-13.298,0.0,0.0
507534,0.691,-0.653,0.490,9.443,5.260,6.076,0.0,0.0
507599,0.683,-0.554,0.449,-14.840,1.924,3.153,0.0,0.0
507664,0.682,-0.590,0.459,5.107,-5.359,4.405,0.0,0.0
507729,0.678,-0.605,0.437,-2.885,-7.443,4.260,0.0,0.0
507794,0.681,-0.584,0.426,0.824,-7.008,4.809,0.0,0.0
507859,0.683,-0.593,0.434,-0.618,-2.527,6.809,0.0,0.0
507924,0.698,-0.610,0.436,-16.695,1.145,7.519,0.0,0.0
507993,0.675,-0.557,0.391,-12.481,-2.924,1.290,0.0,0.0
508057,0.710,-0.633,0.409,-33.985,-2.359,-11.656,0.0,0.0
508123,0.701,-0.646,0.409,-37.282,-1.809,-12.053,0.0,0.0
508188,0.698,-0.664,0.386,-30.542,-1.481,-7.542,0.0,0.0
508253,0.748,-0.603,0.349,-10.336,-0.588,-1.031,0.0,0.0
508318,0.740,-0.625,0.347,-8.321,2.855,-1.290,0.0,0.0
508383,0.731,-0.590,0.346,-8.710,4.603,-1.160,0.0,0.0
508442,0.705,-0.596,0.375,-4.740,-0.733,-1.649,91.0,0.0
508502,0.699,-0.581,0.348,1.183,-4.710,-0.038,92.0,0.0
508563,0.750,-0.594,0.339,-1.672,-4.099,4.817,92.0,0.0
508622,0.754,-0.600,0.342,1.931,3.641,14.328,91.0,0.0
508681,0.700,-0.632,0.394,17.145,4.229,15.870,91.0,0.0
508746,0.694,-0.598,0.405,29.718,-3.282,13.153,0.0,0.0
508812,0.745,-0.585,0.387,18.176,-8.481,8.374,0.0,0.0
508876,0.761,-0.561,0.378,6.710,-3.069,3.977,0.0,0.0
508942,0.701,-0.550,0.396,5.588,-1.779,6.374,0.0,0.0
509007,0.738,-0.592,0.434,-4.344,-3.626,5.176,0.0,0.0
509072,0.703,-0.524,0.405,1.519,-6.885,4.321,0.0,0.0
509140,0.731,-0.573,0.399,5.290,-6.328,7.015,0.0,0.0
509206,0.728,-0.589,0.405,-5.328,-0.908,4.412,0.0,0.0
509315,0.720,-0.559,0.421,-8.008,-0.412,9.824,0.0,0.0
509379,0.721,-0.578,0.406,0.664,-3.046,9.145,0.0,0.0
509445,0.714,-0.572,0.411,0.534,-2.863,9.206,0.0,0.0
509510,0.712,-0.567,0.402,-2.794,-2.481,12.191,0.0,0.0
509575,0.714,-0.595,0.416,5.527,-2.427,8.939,0.0,0.0
509640,0.707,-0.615,0.418,2.580,-3.351,7.130,0.0,0.0
509706,0.698,-0.591,0.419,-1.885,-2.023,7.344,0.0,0.0
509771,0.701,-0.589,0.422,-4.435,-1.473,7.313,0.0,0.0
509839,0.691,-0.603,0.419,-5.824,-0.450,6.061,0.0,0.0
509904,0.709,-0.579,0.413,-3.115,-0.550,4.565,0.0,0.0
509970,0.691,-0.575,0.418,3.672,-1.618,5.763,0.0,0.0
510035,0.712,-0.588,0.425,-1.748,-0.412,7.145,0.0,0.0
510101,0.701,-0.615,0.431,2.053,-0.656,5.718,0.0,0.0
510166,0.697,-0.590,0.424,0.305,-1.397,4.412,0.0,0.0
510231,0.683,-0.584,0.440,0.595,-0.458,6.298,0.0,0.0
510297,0.714,-0.583,0.438,-4.489,0.252,7.145,0.0,0.0
510362,0.692,-0.570,0.431,-3.160,-0.779,7.641,0.0,0.0
510431,0.707,-0.588,0.439,0.153,-1.656,6.649,0.0,0.0
510495,0.696,-0.586,0.439,-2.298,-0.321,5.481,0.0,0.0
510561,0.681,-0.566,0.441,-2.595,-1.863,7.740,0.0,0.0
510626,0.706,-0.583,0.435,1.557,-2.237,6.664,0.0,0.0
510692,0.700,-0.587,0.433,0.511,-0.847,6.435,0.0,0.0
510757,0.695,-0.593,0.448,-5.794,0.046,6.473,0.0,0.0
510823,0.688,-0.569,0.436,-0.557,0.214,6.832,0.0,0.0
510887,0.696,-0.586,0.438,-0.687,-0.336,7.260,0.0,0.0
510953,0.693,-0.572,0.433,-1.519,-0.153,7.183,0.0,0.0
511019,0.683,-0.599,0.445,-6.649,1.557,8.275,0.0,0.0
511087,0.662,-0.607,0.461,-1.763,1.023,6.336,0.0,0.0
511153,0.665,-0.580,0.460,-1.076,-0.321,6.443,0.0,0.0
511218,0.675,-0.576,0.434,0.954,-1.450,5.626,0.0,0.0
511284,0.678,-0.611,0.456,-4.969,-0.145,1.542,0.0,0.0
511349,0.703,-0.579,0.480,4.084,1.000,2.847,0.0,0.0
511415,0.693,-0.599,0.485,-4.519,0.947,5.489,0.0,0.0
511489,0.675,-0.575,0.475,0.779,-0.366,5.962,0.0,0.0
511545,0.684,-0.568,0.462,0.389,-1.924,5.618,57.0,0.0
511609,0.672,-0.582,0.464,-9.588,-1.527,3.916,0.0,0.0
511677,0.686,-0.569,0.466,1.603,-2.748,7.153,0.0,0.0
511742,0.667,-0.611,0.486,-2.031,-4.405,3.000,0.0,0.0
511807,0.675,-0.574,0.466,-4.366,-5.198,4.305,0.0,0.0
511872,0.673,-0.579,0.468,-1.626,-3.504,5.595,0.0,0.0
511936,0.679,-0.578,0.457,-2.809,-1.779,7.336,0.0,0.0
512002,0.677,-0.575,0.451,-8.916,-0.382,2.992,0.0,0.0
512066,0.678,-0.588,0.462,-1.466,-0.099,5.397,0.0,0.0
512131,0.679,-0.578,0.466,1.466,-1.122,5.458,0.0,0.0
512196,0.697,-0.547,0.444,-6.733,-0.863,3.389,0.0,0.0
512264,0.661,-0.581,0.478,7.191,-2.939,3.786,0.0,0.0
512328,0.681,-0.618,0.490,-7.611,-1.466,-1.573,0.0,0.0
512393,0.703,-0.538,0.447,-4.130,0.282,-2.634,0.0,0.0
512458,0.688,-0.582,0.505,0.603,1.046,-4.817,0.0,0.0
512523,0.693,-0.538,0.492,-6.099,-1.344,-0.878,0.0,0.0
512631,0.752,-0.563,0.484,-12.130,-1.931,2.466,0.0,0.0
512696,0.692,-0.519,0.456,-3.099,-2.397,4.939,0.0,0.0
512761,0.702,-0.548,0.478,2.588,-3.382,1.573,0.0,0.0
512817,0.738,-0.524,0.453,-6.443,-5.061,7.107,44.0,0.0
512882,0.694,-0.584,0.489,0.466,-4.214,9.847,0.0,0.0
512950,0.711,-0.570,0.473,-6.809,-6.794,7.992,0.0,0.0
513014,0.689,-0.558,0.441,-1.878,-6.038,7.718,0.0,0.0
513080,0.696,-0.568,0.457,-0.496,-2.069,5.481,0.0,0.0
513144,0.684,-0.540,0.448,-6.595,-2.450,7.427,0.0,0.0
513209,0.686,-0.572,0.445,-1.519,-3.137,6.939,0.0,0.0
513274,0.712,-0.576,0.444,-8.794,-1.748,5.992,0.0,0.0
513339,0.722,-0.562,0.459,-2.725,-0.962,3.847,0.0,0.0
513404,0.707,-0.581,0.459,-4.511,-2.351,4.557,0.0,0.0
513469,0.707,-0.555,0.446,-3.969,-3.092,2.824,0.0,0.0
513538,0.717,-0.529,0.425,-3.573,0.351,6.893,0.0,0.0
513602,0.698,-0.569,0.439,-3.061,0.618,7.282,0.0,0.0
513667,0.700,-0.553,0.442,-2.443,-0.618,4.885,0.0,0.0
513732,0.701,-0.577,0.458,7.031,-2.344,4.313,0.0,0.0
513797,0.732,-0.544,0.445,-7.565,-1.420,4.542,0.0,0.0
513862,0.708,-0.571,0.460,0.221,0.061,7.107,0.0,0.0
513927,0.706,-0.578,0.469,-5.885,-2.115,5.809,0.0,0.0
513992,0.705,-0.544,0.442,-0.840,-3.634,5.359,0.0,0.0
514057,0.705,-0.591,0.451,1.229,-3.008,4.130,0.0,0.0
514125,0.702,-0.558,0.454,-2.695,-1.031,3.473,0.0,0.0
514190,0.692,-0.562,0.453,0.321,0.115,3.237,0.0,0.0
514255,0.706,-0.533,0.449,-3.687,1.908,5.382,0.0,0.0
514320,0.700,-0.582,0.466,-5.573,3.855,8.969,0.0,0.0
514385,0.694,-0.652,0.477,-15.504,6.893,7.824,0.0,0.0
514451,0.700,-0.668,0.472,-10.863,3.099,-13.832,0.0,0.0
514515,0.693,-0.750,0.528,8.023,11.763,-17.939,0.0,0.0
514581,0.653,-0.454,0.408,43.756,53.183,33.817,0.0,0.0
514638,0.476,-0.455,0.439,-25.206,127.321,84.710,61.0,0.0
514695,0.218,-0.548,0.479,-68.641,162.870,86.450,45.0,0.0
514754,0.047,-0.696,0.544,-31.481,177.656,77.931,51.0,0.0
514810,-0.054,-0.721,0.560,86.733,154.931,26.336,46.0,0.0
514868,-0.068,-0.528,0.527,189.069,132.840,-3.061,46.0,0.0
514924,-0.078,-0.132,0.583,213.130,126.366,-11.405,53.0,0.0
514981,-0.061,0.159,0.899,122.382,103.053,-28.130,49.0,0.0
515038,-0.133,0.002,1.277,58.107,53.443,-49.115,43.0,0.0
515094,-0.019,-0.077,1.260,172.229,45.031,-19.008,51.0,0.0
515155,-0.223,0.408,0.921,118.244,67.405,-29.985,0.0,131.0
515212,-0.400,0.370,0.902,-16.832,109.969,-35.038,45.0,131.0
515269,-0.693,0.148,0.790,-115.145,112.779,-42.817,141.0,133.0
515321,-0.814,-0.342,0.822,-132.290,73.168,-47.405,37.0,133.0
515378,-0.902,-0.733,1.028,8.290,66.069,-42.130,37.0,0.0
515431,-0.859,-0.394,0.883,79.618,39.687,-13.229,41.0,140.0
515483,-0.733,-0.132,0.746,118.855,21.702,-37.779,43.0,140.0
515536,-0.700,0.075,0.607,104.954,25.794,-30.366,44.0,138.0
515598,-0.802,0.236,0.515,35.420,32.565,-22.061,126.0,0.0
515650,-0.814,0.175,0.548,-52.511,37.756,9.779,43.0,138.0
515750,-0.787,-0.075,0.626,-32.366,28.588,41.420,46.0,139.0
515803,-0.967,-0.096,0.585,9.603,36.481,65.740,43.0,139.0
515859,-0.936,0.002,0.541,20.107,29.534,83.397,37.0,0.0
515912,-0.748,0.020,0.575,20.084,9.145,60.985,38.0,153.0
515965,-0.688,0.072,0.606,35.863,5.611,32.649,38.0,144.0
516021,-0.817,0.136,0.556,19.336,7.534,10.542,18.0,0.0
516075,-0.982,0.125,0.543,-11.252,-0.771,-2.679,17.0,0.0
516127,-0.955,0.031,0.580,-22.473,-5.244,2.565,18.0,146.0
516183,-0.834,0.055,0.566,-0.588,-16.115,-4.046,16.0,145.0
516237,-0.773,0.110,0.517,23.603,-15.061,-7.794,17.0,0.0
516292,-0.845,0.176,0.472,23.443,-11.183,-12.565,19.0,0.0
516347,-0.854,0.174,0.457,-1.649,-4.725,-7.069,19.0,0.0
516403,-0.866,0.159,0.470,-14.427,-0.855,-0.901,19.0,0.0
516458,-0.868,0.158,0.500,-18.985,-3.107,8.183,20.0,0.0
516512,-0.921,0.176,0.499,-29.473,-2.618,22.099,18.0,0.0
516569,-0.789,0.120,0.565,-37.626,-4.412,24.870,35.0,0.0
516624,-0.765,0.095,0.578,-24.115,-2.641,20.374,17.0,0.0
516679,-0.867,0.038,0.597,-3.290,-8.634,16.679,20.0,145.0
516731,-0.858,0.066,0.585,18.687,-16.336,22.710,17.0,146.0
516787,-0.796,0.139,0.566,22.557,-18.931,17.939,23.0,0.0
516842,-0.783,0.159,0.588,15.389,-14.542,10.481,18.0,0.0
516896,-0.812,0.149,0.575,39.000,-11.542,9.366,18.0,0.0
516953,-0.800,0.239,0.514,41.321,-11.763,10.061,38.0,0.0
517010,-0.784,0.243,0.512,24.725,-9.824,9.038,38.0,0.0
517066,-0.767,0.276,0.501,9.618,-2.145,8.214,39.0,0.0
517123,-0.716,0.275,0.521,-17.504,3.206,-3.901,40.0,0.0
517182,-0.791,0.226,0.541,-29.573,9.168,-12.084,44.0,0.0
517237,-0.802,0.192,0.568,-21.924,5.443,-10.397,23.0,0.0
517294,-0.818,0.188,0.589,-17.237,6.473,-8.504,23.0,0.0
517348,-0.802,0.165,0.586,-15.969,2.282,-5.038,19.0,0.0
517400,-0.834,0.168,0.589,-10.244,-4.366,-7.137,20.0,145.0
517456,-0.859,0.157,0.596,0.107,-3.878,-1.779,22.0,0.0
517512,-0.827,0.222,0.559,-5.626,-5.969,-0.740,20.0,0.0
517568,-0.829,0.141,0.559,-16.405,-12.603,2.130,36.0,0.0
517621,-0.782,0.114,0.575,4.779,-13.015,11.802,37.0,146.0
517678,-0.762,0.175,0.538,-11.389,-9.718,17.099,37.0,147.0
517734,-0.755,0.102,0.583,-20.183,-8.794,15.527,43.0,0.0
517787,-0.775,0.071,0.603,-1.855,-9.214,12.351,39.0,147.0
517840,-0.828,0.144,0.585,-6.504,-6.351,11.061,40.0,147.0
517895,-0.816,0.097,0.579,-11.687,-11.618,0.420,41.0,147.0
517948,-0.740,0.094,0.601,11.214,-11.099,-4.252,41.0,147.0
518002,-0.743,0.191,0.563,8.435,-4.557,-6.038,49.0,147.0
518055,-0.746,0.180,0.592,-1.565,-3.832,-7.198,41.0,148.0
518109,-0.800,0.159,0.630,6.176,-0.275,-2.389,42.0,147.0
518169,-0.738,0.208,0.629,-1.992,1.832,0.740,42.0,0.0
518225,-0.746,0.170,0.650,-4.672,0.206,0.603,42.0,0.0
518279,-0.754,0.181,0.620,6.290,-2.824,2.275,37.0,151.0
518335,-0.797,0.218,0.605,-4.374,2.458,8.725,37.0,0.0
518391,-0.764,0.130,0.639,-16.771,-2.649,9.756,38.0,0.0
518446,-0.785,0.109,0.646,6.771,-1.489,7.015,39.0,154.0
518543,-0.778,0.208,0.573,-12.779,18.809,1.824,37.0,156.0
518601,-0.843,0.094,0.566,-23.374,17.901,12.351,108.0,159.0
518656,-0.838,0.038,0.586,-4.443,-1.832,18.061,37.0,159.0
518725,-0.810,0.063,0.536,12.809,-7.099,27.183,0.0,0.0
518781,-0.747,0.099,0.547,3.366,0.786,19.206,37.0,0.0
518836,-0.892,0.094,0.539,-11.802,5.053,12.137,37.0,164.0
518896,-0.793,0.049,0.588,-11.557,4.695,4.359,103.0,0.0
518950,-0.813,0.113,0.567,-6.298,3.664,-9.053,31.0,166.0
519008,-0.832,0.088,0.608,2.237,-10.344,-15.489,50.0,0.0
519064,-0.807,0.147,0.590,14.977,-17.466,-9.160,36.0,0.0
519126,-0.759,0.171,0.572,6.977,-21.786,-0.015,39.0,0.0
519182,-0.838,0.159,0.615,-4.305,-18.252,1.855,40.0,167.0
519237,-0.802,0.115,0.653,-13.511,-18.992,8.176,36.0,0.0
519291,-0.775,0.103,0.662,-9.466,-14.573,12.756,39.0,167.0
519347,-0.738,0.087,0.625,-12.282,-12.908,16.824,40.0,0.0
519401,-0.712,0.097,0.625,-6.290,-7.481,17.702,37.0,166.0
519454,-0.806,0.105,0.592,-10.534,-9.015,16.137,36.0,167.0
519511,-0.803,0.077,0.618,-2.336,-9.107,15.740,38.0,0.0
519566,-0.787,0.117,0.585,-3.160,-3.893,15.573,38.0,0.0
519620,-0.770,0.101,0.581,-0.542,-0.756,10.260,36.0,168.0
519676,-0.803,0.100,0.579,-5.160,6.107,14.344,36.0,167.0
519732,-0.756,0.081,0.613,-11.893,9.198,11.282,35.0,0.0
519787,-0.696,0.054,0.612,-5.954,9.809,5.580,30.0,0.0
519840,-0.707,0.110,0.663,8.107,11.557,-6.611,31.0,164.0
519896,-0.886,0.195,0.644,-10.618,13.962,-8.679,30.0,0.0
519948,-0.822,0.132,0.693,-17.466,1.939,-18.496,19.0,162.0
520001,-0.693,0.125,0.666,15.267,0.275,-21.221,37.0,161.0
520054,-0.654,0.215,0.635,27.282,0.443,-18.908,38.0,159.0
520111,-0.747,0.296,0.621,14.412,3.534,-6.092,38.0,0.0
520169,-0.808,0.213,0.629,-8.969,-6.412,8.336,37.0,0.0
520222,-0.743,0.117,0.664,9.389,-11.740,24.206,39.0,159.0
520276,-0.703,0.218,0.658,16.832,-6.389,19.947,51.0,159.0
520331,-0.810,0.250,0.627,-15.573,-3.237,9.771,51.0,161.0
520384,-0.820,0.135,0.661,-28.855,-12.786,9.366,37.0,159.0
520439,-0.758,0.072,0.655,-13.458,-24.992,13.298,23.0,0.0
520493,-0.760,0.120,0.641,-1.427,-26.977,10.672,36.0,161.0
520549,-0.698,0.109,0.653,-3.229,-22.130,5.611,38.0,0.0
520604,-0.627,0.126,0.676,12.130,-5.634,-1.664,37.0,0.0
520660,-0.635,0.184,0.644,3.740,8.916,0.275,37.0,163.0
520715,-0.639,0.159,0.681,-2.107,13.130,-0.588,51.0,164.0
520768,-0.739,0.184,0.673,-2.115,13.412,3.260,23.0,162.0
520820,-0.722,0.171,0.715,-12.931,6.718,1.046,23.0,164.0
520873,-0.779,0.144,0.761,-10.748,4.870,3.374,22.0,165.0
520930,-0.672,0.152,0.716,-18.038,-3.168,2.916,51.0,0.0
520983,-0.835,0.148,0.719,-10.267,-1.931,2.931,41.0,154.0
521036,-0.716,0.174,0.682,-15.229,-18.260,17.092,24.0,166.0
521090,-0.719,0.158,0.710,0.649,-20.817,19.275,23.0,167.0
521155,-0.713,0.242,0.652,-9.481,-19.870,30.450,37.0,170.0
521208,-0.758,0.180,0.687,-30.336,-23.878,37.656,41.0,157.0
521263,-0.786,0.137,0.689,-20.725,-26.725,43.573,39.0,158.0
521360,-0.668,0.201,0.704,-17.420,-19.763,46.863,50.0,161.0
521414,-0.620,0.195,0.678,-19.321,-13.336,44.756,37.0,164.0
521470,-0.682,0.198,0.671,-25.992,0.573,42.641,36.0,0.0
521524,-0.705,0.163,0.658,-18.962,1.221,45.466,37.0,167.0
521580,-0.700,0.189,0.675,-10.198,3.954,45.947,38.0,0.0
521639,-0.735,0.137,0.698,17.160,1.008,45.832,43.0,0.0
521698,-0.620,0.220,0.719,56.557,0.191,52.603,85.0,0.0
521763,-0.686,0.380,0.718,76.603,7.893,62.466,0.0,0.0
521829,-0.555,0.554,0.624,35.969,17.031,73.252,0.0,0.0
521893,-0.498,0.534,0.632,-42.687,10.397,47.687,0.0,0.0
521959,-0.559,0.566,0.568,-102.748,-0.153,35.527,0.0,0.0
522024,-0.599,0.307,0.668,-153.908,-3.947,15.649,0.0,0.0
522089,-0.537,0.144,0.847,-24.824,-0.634,32.282,0.0,0.0
522144,-0.474,0.326,0.804,40.107,0.992,23.237,16.0,0.0
522213,-0.470,0.385,0.817,66.099,0.916,21.504,0.0,0.0
522267,-0.426,0.511,0.793,15.244,-0.962,5.336,16.0,0.0
522322,-0.432,0.448,0.827,-17.595,3.733,-7.008,16.0,0.0
522379,-0.490,0.357,0.841,-12.298,3.321,-6.038,44.0,0.0
522443,-0.550,0.507,0.803,5.710,-8.611,0.046,0.0,0.0
522509,-0.576,0.363,0.783,42.664,-17.221,11.069,0.0,0.0
522574,-0.539,0.576,0.715,33.847,-37.198,21.931,0.0,0.0
522640,-0.489,0.540,0.822,29.191,-63.130,24.847,0.0,0.0
522705,-0.376,0.734,0.785,-0.939,-66.847,40.527,0.0,0.0
522765,-0.284,0.713,0.913,-36.351,-66.763,65.221,43.0,0.0
522821,-0.228,0.668,0.956,-42.473,-76.504,89.321,40.0,0.0
522876,-0.141,0.723,0.972,-67.328,-94.878,108.931,36.0,0.0
522929,-0.020,0.576,1.015,-120.855,-94.473,109.115,37.0,124.0
522981,0.103,0.290,1.032,-146.489,-101.977,92.656,30.0,141.0
523033,0.214,0.259,0.855,-148.061,-112.084,84.466,28.0,143.0
523086,0.356,0.043,0.829,-131.565,-115.405,69.954,28.0,146.0
523139,0.447,-0.036,0.636,-132.939,-98.046,51.504,27.0,149.0
523194,0.545,-0.403,0.637,-85.321,-82.160,22.672,30.0,0.0
523253,0.605,-0.274,0.505,-47.137,-46.053,12.153,25.0,0.0
523309,0.680,-0.406,0.695,-38.832,-41.481,-11.947,27.0,0.0
523365,0.648,-0.387,0.759,-24.611,-46.557,-22.344,30.0,0.0
523420,0.847,-0.152,0.768,-14.496,-53.115,-12.504,30.0,0.0
523476,0.909,-0.250,0.607,-7.710,-45.191,-1.458,29.0,0.0
523532,0.908,-0.030,0.300,-35.252,-2.985,0.412,30.0,0.0
523587,0.889,-0.351,0.442,-59.855,36.695,-8.870,29.0,0.0
523643,0.815,-0.227,0.364,-22.725,72.221,-12.427,29.0,0.0
523703,0.629,-0.211,0.493,-43.565,95.099,-18.176,33.0,0.0
523768,0.516,-0.222,0.612,-95.099,83.160,-22.740,0.0,0.0
523834,0.415,-0.384,0.707,-31.565,57.779,-0.947,0.0,0.0
523899,0.415,-0.240,0.648,0.901,40.511,20.626,0.0,0.0
523965,0.345,-0.250,0.704,-1.298,33.634,15.153,0.0,0.0
524030,0.398,-0.218,0.775,16.748,49.244,40.069,0.0,0.0
524096,0.280,-0.242,0.844,-41.351,59.511,36.962,0.0,0.0
524162,0.183,-0.463,0.936,-76.992,64.771,41.763,0.0,0.0
524227,0.036,-0.708,0.913,-42.779,47.183,34.740,0.0,0.0
524296,0.018,-0.628,0.878,0.084,37.366,32.298,0.0,0.0
524397,-0.019,-0.563,0.821,27.611,33.718,22.427,64.0,0.0
524454,-0.110,-0.443,0.800,-2.275,36.176,21.695,62.0,0.0
524512,-0.177,-0.661,0.919,-21.641,0.389,18.580,59.0,0.0
524569,-0.115,-0.740,0.940,13.053,-27.229,17.649,60.0,0.0
524627,-0.054,-0.756,0.980,94.450,-39.145,10.870,58.0,0.0
524685,0.094,-0.258,0.844,23.718,-16.466,0.878,58.0,0.0
524742,0.060,-0.504,0.953,3.679,3.466,-5.435,58.0,0.0
524800,-0.044,-0.388,0.858,-41.710,0.931,-5.847,58.0,0.0
524861,-0.032,-0.466,0.892,-18.000,-25.290,0.046,60.0,0.0
524918,0.056,-0.550,0.957,3.015,-43.298,-2.351,59.0,0.0
524976,0.094,-0.475,0.951,19.344,-52.107,2.626,65.0,0.0
525034,0.067,-0.356,0.887,38.573,-57.427,8.305,66.0,0.0
525091,0.219,-0.308,0.894,7.405,-64.603,12.038,58.0,0.0
525150,0.271,-0.317,0.838,-20.053,-64.603,10.626,59.0,0.0
525208,0.398,-0.475,0.890,-34.412,-54.824,8.779,78.0,0.0
525274,0.375,-0.448,0.854,-11.504,-50.565,5.679,0.0,0.0
525340,0.441,-0.448,0.813,-15.359,-45.779,7.557,0.0,0.0
525402,0.503,-0.426,0.754,-10.740,-37.115,14.672,78.0,0.0
525461,0.513,-0.493,0.757,-10.496,-29.053,15.496,78.0,0.0
525519,0.516,-0.438,0.706,-11.847,-19.733,15.489,78.0,0.0
525585,0.519,-0.500,0.720,-10.718,-16.046,9.611,0.0,0.0
525651,0.523,-0.475,0.711,-3.260,-12.817,10.992,0.0,0.0
525717,0.541,-0.535,0.724,-4.336,-8.870,5.962,0.0,0.0
525783,0.485,-0.479,0.709,5.420,-2.893,8.221,0.0,0.0
525848,0.507,-0.514,0.735,-9.802,-3.458,5.481,0.0,0.0
525914,0.528,-0.472,0.703,-1.504,-4.679,6.191,0.0,0.0
525983,0.545,-0.509,0.734,3.794,-2.221,3.321,0.0,0.0
526049,0.521,-0.489,0.730,-8.931,-2.092,2.725,0.0,0.0
526114,0.508,-0.458,0.708,-0.359,-2.221,5.351,0.0,0.0
526180,0.530,-0.480,0.715,-4.763,-1.550,4.939,0.0,0.0
526246,0.534,-0.509,0.724,-2.908,0.107,6.695,0.0,0.0
526312,0.514,-0.496,0.725,-0.374,0.595,3.344,0.0,0.0
526377,0.502,-0.474,0.710,-3.710,1.672,5.420,0.0,0.0
526443,0.501,-0.500,0.722,-3.618,3.176,6.351,0.0,0.0
526509,0.521,-0.526,0.738,-4.885,4.573,4.305,0.0,0.0
526580,0.503,-0.503,0.719,3.099,3.053,-2.924,0.0,0.0
526648,0.497,-0.487,0.725,16.145,4.519,-2.740,0.0,0.0
526712,0.496,-0.448,0.730,2.031,7.122,-0.298,0.0,0.0
526778,0.502,-0.406,0.750,19.122,8.267,5.153,0.0,0.0
526842,0.493,-0.491,0.814,34.504,9.947,2.794,0.0,0.0
526907,0.490,-0.335,0.804,4.069,5.771,2.359,0.0,0.0
526965,0.492,-0.432,0.857,-25.046,7.817,4.695,82.0,0.0
527023,0.487,-0.528,0.884,58.366,12.450,24.344,82.0,0.0
527088,0.468,-0.309,0.871,35.695,14.885,24.802,0.0,0.0
527153,0.455,-0.273,0.832,128.229,21.267,59.557,0.0,0.0
527220,0.483,0.029,0.889,20.176,22.000,57.092,0.0,0.0
527286,0.480,-0.058,0.994,-8.076,18.374,74.603,0.0,0.0
527343,0.463,-0.163,1.033,39.267,17.183,88.122,76.0,0.0
527408,0.441,-0.052,1.003,49.985,16.656,83.985,0.0,0.0
527473,0.286,-0.113,1.042,53.519,19.237,72.420,0.0,0.0
527582,0.039,-0.125,1.035,70.153,7.344,52.954,0.0,0.0
527646,-0.099,-0.021,0.965,46.664,12.954,45.725,0.0,0.0
527706,-0.107,-0.144,1.016,16.069,14.328,30.695,0.0,100.0
527765,-0.185,-0.231,1.025,1.221,6.061,23.779,0.0,100.0
527826,-0.150,-0.234,0.999,12.275,-5.626,17.504,0.0,101.0
527886,-0.201,-0.201,0.911,16.618,-15.008,9.427,0.0,101.0
527945,-0.518,-0.142,0.832,2.573,-26.160,23.954,0.0,102.0
528006,-0.605,-0.051,0.754,-17.038,-48.702,71.550,0.0,102.0
528065,0.961,0.031,1.165,-15.702,-0.076,63.443,0.0,104.0
528130,1.565,0.089,1.246,-58.870,60.389,-51.885,0.0,0.0
528195,0.418,-0.243,1.160,-2.183,26.809,-75.435,0.0,0.0
528260,-0.163,0.110,0.826,70.359,1.176,-63.015,0.0,0.0
528325,-0.243,0.108,0.929,-0.710,8.580,-32.847,0.0,0.0
528393,-0.126,-0.163,1.104,-77.000,8.458,-21.176,0.0,0.0
528458,0.037,-0.498,1.211,-9.641,-8.687,-54.435,0.0,0.0
528523,-0.085,-0.258,1.050,-5.809,-7.832,-95.237,0.0,0.0
528588,-0.121,-0.188,0.940,-17.313,-4.527,-104.183,0.0,0.0
528654,-0.032,-0.108,0.919,-22.382,7.977,-99.084,0.0,0.0
528712,0.049,-0.015,0.948,-58.542,18.267,-112.168,0.0,98.0
528772,0.032,-0.142,1.023,-26.527,26.305,-120.412,0.0,93.0
528831,0.005,0.092,0.956,2.282,29.534,-121.588,0.0,88.0
528889,0.047,-0.034,1.027,-3.718,30.176,-129.947,0.0,85.0
528951,-0.017,0.182,0.905,-2.313,36.427,-100.588,0.0,83.0
529004,-0.040,0.033,0.983,-47.069,30.855,-70.137,109.0,81.0
529063,-0.033,-0.129,1.111,-28.084,9.122,-33.221,109.0,0.0
529124,-0.050,-0.284,1.076,-19.756,-9.916,0.458,111.0,0.0
529184,-0.162,-0.154,0.922,-25.046,-19.290,17.267,112.0,0.0
529245,-0.361,-0.169,0.920,-45.656,-32.031,46.985,113.0,0.0
529310,-0.805,-0.457,1.090,-76.924,-92.771,97.252,0.0,0.0
529375,-0.126,-0.635,0.993,-27.870,-154.817,114.916,0.0,0.0
529443,1.495,-0.443,0.765,112.779,-40.115,49.183,0.0,0.0
529509,1.229,0.209,0.655,11.466,49.679,-67.794,0.0,0.0
529574,0.293,-0.227,0.919,-72.267,76.534,-101.397,0.0,0.0
529639,-0.132,-0.365,1.004,36.511,49.443,-58.076,0.0,0.0
529704,-0.106,-0.243,0.987,76.046,11.756,-16.405,0.0,0.0
529770,-0.043,-0.004,0.938,42.229,0.366,25.794,0.0,0.0
529827,0.086,-0.065,1.056,-14.191,-2.321,18.519,0.0,73.0
529886,0.016,-0.142,1.037,2.443,-2.969,17.008,0.0,74.0
529944,0.012,-0.118,0.970,6.618,-2.260,18.550,0.0,74.0
530004,0.040,-0.163,1.006,22.130,-10.130,19.847,0.0,73.0
530063,0.000,-0.145,0.998,29.191,-14.916,25.840,0.0,72.0
530120,-0.083,-0.344,1.127,76.679,-50.344,40.008,0.0,70.0
530179,-0.034,-0.161,1.053,186.435,-88.779,62.916,0.0,69.0
530237,0.111,-0.020,0.962,250.130,-135.450,85.458,0.0,68.0
530294,0.535,0.544,0.319,250.130,-122.153,150.802,0.0,67.0
530353,0.886,0.989,0.175,189.611,-100.122,136.573,0.0,71.0
530410,0.970,0.715,0.201,73.481,-53.855,115.496,0.0,69.0
530468,0.999,0.650,0.206,16.496,-22.229,101.115,0.0,72.0
530533,1.006,0.393,0.290,-23.084,-15.084,70.634,0.0,130.0
530594,0.896,0.162,0.289,12.031,-7.672,34.580,0.0,131.0
530699,0.585,0.184,0.242,-73.649,-6.076,23.756,0.0,133.0
530761,0.205,0.264,0.097,-28.130,3.389,33.908,0.0,137.0
530827,-0.040,0.232,0.126,-39.023,-2.969,46.282,0.0,0.0
530883,1.347,0.177,0.550,-16.832,-1.183,6.313,45.0,0.0
530935,2.000,0.295,0.699,-7.115,18.305,-24.618,44.0,136.0
531001,2.000,-0.024,0.803,-42.939,-1.916,-5.519,0.0,0.0
531057,1.257,0.271,0.386,31.824,-9.702,5.527,39.0,0.0
531122,0.652,0.333,0.207,-52.298,5.397,-28.595,0.0,133.0
531183,0.557,0.366,0.250,-14.992,34.992,-20.832,0.0,133.0
531246,0.555,0.324,0.318,-78.496,32.122,-20.046,0.0,133.0
531307,0.657,0.241,0.403,-18.084,25.489,-3.099,0.0,134.0
531365,0.779,0.278,0.439,-23.557,15.672,-6.252,0.0,78.0
531424,0.796,0.372,0.392,-27.084,24.496,-11.832,0.0,77.0
531473,0.824,0.240,0.442,-46.733,37.672,-13.122,39.0,77.0
531522,0.812,0.289,0.322,-37.748,95.870,-1.328,37.0,77.0
531574,0.702,0.421,0.257,-90.084,167.992,2.214,35.0,134.0
531624,0.419,0.399,0.356,-153.374,207.183,30.282,34.0,136.0
531677,0.179,0.088,0.635,-228.275,190.244,65.886,33.0,140.0
531742,-0.038,-0.329,0.881,-205.672,126.191,88.435,0.0,0.0
531808,0.002,-0.781,1.198,-0.855,33.359,77.221,0.0,0.0
531873,0.162,-0.218,1.031,99.481,-12.489,38.534,0.0,0.0
531930,0.160,-0.138,1.066,38.435,-7.290,4.679,45.0,0.0
531987,0.076,-0.277,1.236,-5.038,14.282,-12.466,44.0,0.0
532043,-0.117,-0.041,1.097,-22.076,6.344,-12.435,45.0,0.0
532105,-0.251,-0.349,1.083,-58.725,-23.397,-24.824,71.0,0.0
532163,-0.026,-0.542,1.124,-52.947,-56.359,-13.901,68.0,0.0
532221,0.124,-0.464,0.951,50.924,-46.756,-13.275,67.0,0.0
532287,0.212,-0.207,0.886,9.527,-37.282,-7.336,0.0,0.0
532353,0.239,-0.273,0.883,15.489,-13.863,-3.511,0.0,0.0
532418,0.288,-0.248,0.956,-45.992,-0.092,-1.336,0.0,0.0
532484,0.263,-0.349,1.005,-29.244,-4.817,2.687,0.0,0.0
532549,0.309,-0.267,0.934,-17.305,-7.985,9.687,0.0,0.0
532615,0.291,-0.306,0.922,5.595,-10.817,7.725,0.0,0.0
532683,0.295,-0.266,0.907,-13.580,-8.992,9.954,0.0,0.0
532749,0.331,-0.138,0.859,-0.427,-10.267,8.122,0.0,0.0
532815,0.240,-0.446,0.991,-30.924,-12.473,7.992,0.0,0.0
532873,0.332,-0.350,0.918,-37.427,-16.084,-8.122,64.0,0.0
532931,0.343,-0.417,0.855,-43.679,-19.328,-7.214,64.0,0.0
532988,0.375,-0.390,0.814,-36.656,-14.534,-18.534,65.0,0.0
533047,0.373,-0.484,0.804,-38.794,-11.366,-15.939,64.0,0.0
533105,0.388,-0.445,0.779,-35.275,-4.198,-8.557,64.0,0.0
533163,0.389,-0.475,0.795,-38.382,-7.511,-7.672,64.0,0.0
533232,0.376,-0.499,0.795,-40.550,-8.916,-4.992,0.0,0.0
533298,0.426,-0.515,0.777,-11.099,-8.336,2.237,0.0,0.0
533363,0.457,-0.551,0.761,-16.679,-10.626,-3.321,0.0,0.0
533429,0.428,-0.526,0.735,-18.519,-10.863,-0.664,0.0,0.0
533495,0.440,-0.560,0.729,-19.298,-11.374,1.046,0.0,0.0
533561,0.496,-0.547,0.680,-14.748,-8.580,-1.168,0.0,0.0
533626,0.498,-0.562,0.680,-12.794,-3.427,2.137,0.0,0.0
533692,0.456,-0.569,0.682,-11.832,-0.244,1.595,0.0,0.0
533801,0.502,-0.600,0.700,-8.450,-0.878,4.489,0.0,0.0
533870,0.453,-0.598,0.682,3.824,1.969,8.893,0.0,0.0
533936,0.476,-0.551,0.685,41.206,13.588,7.115,0.0,0.0
533994,0.406,-0.688,0.766,66.427,20.855,20.794,66.0,0.0
534052,0.354,-0.551,0.729,87.557,23.435,28.412,66.0,0.0
534111,0.227,-0.958,0.961,48.809,19.664,7.840,67.0,0.0
534169,0.288,-0.463,0.886,107.046,21.313,-8.420,69.0,0.0
534227,0.281,-0.346,0.934,34.954,10.435,-45.031,74.0,0.0
534284,0.314,-0.331,1.025,6.107,11.733,-45.855,77.0,149.0
534346,0.283,-0.281,1.153,-1.504,0.069,-64.053,0.0,145.0
534406,0.350,-0.183,1.174,-37.870,-34.328,-73.504,87.0,141.0
534459,0.448,-0.160,1.097,-56.275,-39.290,-85.282,38.0,139.0
534526,0.423,-0.104,1.021,-3.603,-28.580,-80.634,0.0,138.0
534583,0.387,0.084,0.906,-20.092,-46.305,-84.145,51.0,0.0
534640,0.382,0.147,0.782,-23.450,-50.351,-68.611,58.0,0.0
534705,0.616,0.092,0.804,-53.863,-53.824,-61.252,0.0,0.0
534762,0.641,0.058,0.766,-72.649,-40.939,-49.237,71.0,0.0
534824,0.555,-0.021,0.773,-39.137,-46.130,-53.351,150.0,0.0
534882,0.616,0.041,0.665,2.023,-54.916,-41.237,78.0,0.0
534947,0.711,0.144,0.539,-13.916,-58.954,-34.458,159.0,0.0
535013,0.802,0.073,0.466,-18.855,-48.634,-35.664,0.0,0.0
535075,0.830,0.140,0.402,-39.779,-31.244,-40.718,166.0,0.0
535139,0.857,0.106,0.457,-44.298,-24.832,-46.153,172.0,0.0
535204,0.821,0.101,0.443,-29.099,-24.718,-46.351,0.0,0.0
535269,0.831,0.117,0.416,-3.603,-25.779,-37.534,0.0,0.0
535334,0.910,0.239,0.307,-6.595,-21.191,-39.527,0.0,0.0
535399,0.943,0.222,0.343,-42.252,1.992,-48.824,0.0,0.0
535467,0.903,0.286,0.353,-56.046,23.733,-58.519,0.0,0.0
535532,0.873,0.260,0.438,-44.260,35.985,-69.626,0.0,0.0
535597,0.773,0.277,0.544,-12.977,44.771,-82.183,0.0,0.0
535661,0.646,0.379,0.604,-15.885,51.718,-86.473,0.0,0.0
535725,0.526,0.482,0.634,12.015,50.099,-78.305,172.0,0.0
535788,0.471,0.554,0.712,12.359,37.885,-64.191,174.0,0.0
535853,0.413,0.542,0.768,34.412,25.214,-43.542,176.0,0.0
535916,0.397,0.716,0.560,88.153,9.962,-18.473,177.0,0.0
535980,0.378,0.776,0.658,-2.893,8.496,-27.595,179.0,0.0
536046,0.348,0.769,0.630,-2.328,1.733,-18.573,180.0,0.0
536111,0.401,0.722,0.601,4.992,10.069,-40.947,181.0,0.0
536174,0.166,0.774,0.630,18.847,19.687,-42.550,182.0,0.0
536239,0.212,1.001,0.544,2.130,1.191,0.725,183.0,0.0
536302,0.238,0.774,0.613,-1.458,-1.969,3.450,183.0,0.0
536367,0.319,0.794,0.481,-22.595,-0.672,-6.863,183.0,0.0
536430,0.217,1.010,0.501,-53.756,-16.031,9.397,182.0,0.0
536495,0.119,0.725,0.900,48.489,-19.954,64.733,181.0,0.0
536558,0.317,0.864,0.650,52.427,-37.229,60.779,179.0,0.0
536626,0.359,0.674,0.571,31.122,-29.695,76.664,177.0,0.0
536689,0.476,0.754,0.422,53.725,-42.542,108.595,175.0,0.0
536753,0.565,0.824,0.306,57.282,-39.427,126.374,174.0,0.0
536816,0.682,0.619,0.350,7.924,-29.244,120.450,172.0,0.0
536882,0.717,0.452,0.376,35.573,-31.649,118.443,0.0,0.0
536990,0.785,0.292,0.160,120.351,-28.870,146.847,0.0,0.0
537048,0.901,0.300,0.061,118.786,-20.092,177.351,69.0,0.0
537105,0.960,0.298,-0.002,20.511,-15.473,167.534,65.0,0.0
537162,1.094,-0.168,0.226,-60.557,-29.573,123.229,59.0,0.0
537223,0.985,-0.380,0.198,72.504,-21.160,126.298,57.0,0.0
537280,0.791,-0.326,0.139,89.206,-21.817,134.634,58.0,0.0
537335,0.690,-0.382,0.135,92.489,-40.260,156.061,25.0,0.0
537400,0.707,-0.541,0.133,62.954,-45.901,166.214,0.0,0.0
537455,0.617,-0.648,0.173,24.695,-47.122,173.550,20.0,0.0
537520,0.526,-0.825,0.162,14.779,-46.710,166.916,0.0,183.0
537584,0.331,-1.012,0.036,-36.779,-66.145,137.221,0.0,184.0
537644,0.238,-1.231,0.037,-42.038,-72.481,111.748,113.0,187.0
537703,0.214,-0.917,-0.253,-43.618,-48.511,94.870,111.0,189.0
537766,0.158,-1.045,-0.262,-78.985,-7.824,71.267,108.0,192.0
537826,0.112,-1.051,-0.308,-11.924,36.489,54.679,107.0,193.0
537885,0.091,-1.011,-0.239,-43.534,54.328,35.031,105.0,195.0
537946,0.051,-1.113,-0.153,-9.298,52.618,26.809,105.0,196.0
538005,-0.011,-1.025,-0.265,5.863,39.656,34.756,103.0,196.0
538064,-0.073,-0.926,-0.359,-4.870,30.664,22.450,102.0,197.0
538124,0.029,-0.880,-0.207,-45.802,12.672,21.122,102.0,198.0
538184,-0.008,-0.930,-0.393,-5.695,16.771,48.443,100.0,200.0
538247,-0.128,-1.054,-0.347,-86.053,11.443,45.305,99.0,0.0
538306,-0.048,-1.062,-0.402,6.458,3.672,39.481,98.0,0.0
538365,-0.126,-0.950,-0.397,-42.092,-0.321,20.450,98.0,0.0
538426,-0.156,-0.954,-0.410,14.489,-2.870,12.267,98.0,0.0
538485,-0.184,-0.815,-0.469,-15.985,-6.580,9.389,98.0,0.0
538545,-0.125,-0.952,-0.423,-8.176,-8.221,8.954,98.0,0.0
538604,-0.167,-0.872,-0.381,-5.252,-9.618,5.038,97.0,0.0
538663,-0.130,-0.906,-0.427,-22.344,-12.366,3.214,97.0,0.0
538723,-0.131,-0.887,-0.425,-5.237,-15.763,2.908,97.0,0.0
538786,-0.149,-0.924,-0.407,-1.740,-15.763,0.183,96.0,0.0
538846,-0.139,-0.828,-0.432,-8.580,-13.359,6.527,97.0,0.0
538900,-0.172,-0.950,-0.400,-9.710,-8.427,2.847,17.0,0.0
538960,-0.158,-0.941,-0.409,-3.634,-0.122,-4.023,97.0,0.0
539020,-0.123,-0.872,-0.438,-2.641,4.290,-1.443,98.0,0.0
539075,-0.115,-0.852,-0.464,-9.588,-0.405,4.534,17.0,0.0
539129,-0.139,-0.896,-0.473,-7.832,-5.046,9.794,17.0,0.0
539195,-0.168,-0.884,-0.466,-5.092,-4.817,9.855,0.0,0.0
539264,-0.182,-0.884,-0.460,-8.008,-2.237,10.794,0.0,0.0
539329,-0.140,-0.874,-0.432,-6.985,1.359,11.519,0.0,0.0
539388,-0.132,-0.846,-0.428,-5.000,-2.947,10.321,97.0,0.0
539449,-0.177,-0.879,-0.449,-3.351,-1.573,9.382,96.0,0.0
539508,-0.187,-0.848,-0.479,-3.756,0.466,5.473,96.0,0.0
539568,-0.197,-0.858,-0.506,-7.588,-0.573,6.588,96.0,0.0
539623,-0.189,-0.890,-0.489,-2.099,-2.756,4.420,16.0,0.0
539682,-0.169,-0.866,-0.462,2.031,-3.374,2.893,96.0,0.0
539742,-0.158,-0.832,-0.471,-5.542,-2.321,3.924,96.0,0.0
539804,-0.154,-0.872,-0.446,-3.832,-2.237,4.008,95.0,0.0
539865,-0.156,-0.885,-0.477,-5.130,-1.267,4.679,95.0,0.0
539924,-0.164,-0.869,-0.470,-3.725,-1.679,4.779,95.0,0.0
540026,-0.158,-0.884,-0.467,-3.069,-0.908,5.221,96.0,0.0
540087,-0.164,-0.868,-0.466,-1.008,-1.153,6.397,95.0,0.0
540146,-0.168,-0.860,-0.478,-3.595,-1.397,5.290,95.0,0.0
540206,-0.167,-0.876,-0.466,-2.244,-1.595,4.954,95.0,0.0
540265,-0.165,-0.858,-0.474,-4.221,-1.725,5.015,95.0,0.0
540324,-0.164,-0.866,-0.466,-5.618,-2.832,6.008,95.0,0.0
540388,-0.157,-0.881,-0.458,-2.740,-2.458,5.977,95.0,0.0
540447,-0.168,-0.855,-0.460,-3.191,-1.290,6.435,95.0,0.0
540507,-0.164,-0.869,-0.469,-2.962,-1.023,6.244,95.0,0.0
540567,-0.163,-0.854,-0.485,-2.656,-1.122,5.504,95.0,0.0
540626,-0.166,-0.852,-0.486,-3.702,-2.130,4.458,95.0,0.0
540686,-0.175,-0.856,-0.483,-2.740,-2.695,4.427,95.0,0.0
540745,-0.168,-0.846,-0.464,-3.473,-2.244,4.511,95.0,0.0
540806,-0.164,-0.882,-0.456,-3.321,-1.809,4.534,95.0,0.0
540865,-0.162,-0.870,-0.454,-2.481,-1.824,5.260,95.0,0.0
540928,-0.156,-0.878,-0.469,-3.099,-0.168,5.901,95.0,0.0
540988,-0.164,-0.841,-0.482,-2.168,-0.344,5.519,95.0,0.0
541047,-0.171,-0.859,-0.491,-5.290,-2.069,5.473,95.0,0.0
541107,-0.169,-0.867,-0.481,-2.748,-2.702,4.916,95.0,0.0
541167,-0.168,-0.858,-0.471,-1.550,-2.183,4.435,95.0,0.0
541227,-0.158,-0.876,-0.460,-1.611,-1.473,5.328,95.0,0.0
541287,-0.149,-0.855,-0.458,-2.008,-0.679,5.282,95.0,0.0
541346,-0.156,-0.865,-0.470,-3.870,-0.702,5.557,95.0,0.0
541406,-0.162,-0.864,-0.487,-2.450,-1.763,4.557,95.0,0.0
541469,-0.156,-0.870,-0.487,-0.229,-2.718,4.817,95.0,0.0
541529,-0.166,-0.880,-0.472,0.282,-2.443,4.901,95.0,0.0
541589,-0.169,-0.868,-0.462,-0.748,-2.214,5.634,95.0,0.0
541648,-0.158,-0.874,-0.455,-2.595,-0.802,5.954,95.0,0.0
541708,-0.158,-0.852,-0.455,-2.603,-0.519,4.954,95.0,0.0
541768,-0.165,-0.864,-0.474,-2.374,-1.756,4.466,95.0,0.0
541828,-0.167,-0.888,-0.477,-2.031,-2.489,4.649,95.0,0.0
541888,-0.158,-0.864,-0.482,0.191,-3.824,5.473,95.0,0.0
541947,-0.169,-0.869,-0.459,-1.595,-2.130,4.771,95.0,0.0
542005,-0.155,-0.886,-0.448,-0.687,-0.634,4.008,95.0,0.0
542065,-0.146,-0.862,-0.443,-2.229,-0.649,3.794,95.0,0.0
542125,-0.153,-0.881,-0.460,-3.328,-2.061,4.985,95.0,0.0
542185,-0.148,-0.885,-0.455,-4.550,-2.565,4.710,95.0,0.0
542244,-0.153,-0.878,-0.460,-3.908,-1.939,5.458,95.0,0.0
542305,-0.156,-0.869,-0.473,-3.275,-1.206,5.382,95.0,0.0
542370,-0.154,-0.873,-0.466,-2.412,-0.763,5.336,95.0,0.0
542429,-0.157,-0.865,-0.466,-3.115,-1.282,5.565,95.0,0.0
542490,-0.164,-0.875,-0.472,-1.908,-1.832,5.626,95.0,0.0
542550,-0.156,-0.883,-0.453,-2.695,-2.061,4.863,95.0,0.0
542608,-0.146,-0.853,-0.460,-4.832,-1.412,5.954,96.0,0.0
542667,-0.149,-0.876,-0.460,-6.122,-1.359,6.061,96.0,0.0
542727,-0.157,-0.875,-0.477,-3.618,-0.786,5.504,96.0,0.0
542785,-0.156,-0.874,-0.474,-2.076,-1.122,5.328,96.0,0.0
542844,-0.160,-0.891,-0.465,-0.321,-1.580,4.779,96.0,0.0
542903,-0.155,-0.851,-0.469,-1.794,-1.580,5.031,96.0,0.0
542962,-0.148,-0.875,-0.458,-3.008,-1.901,5.076,95.0,0.0
