Timestamp(ms),AccelX(g),AccelY(g),AccelZ(g),GyroX(deg/s),GyroY(deg/s),GyroZ(deg/s),DistanceLeft(cm),DistanceRight(cm)
165644,0.714,0.394,0.566,30.687,7.374,2.412,19.0,36.0
165687,0.707,0.405,0.568,20.885,8.756,-1.466,19.0,43.0
165731,0.743,0.368,0.583,30.992,9.924,-1.924,19.0,44.0
165774,0.731,0.411,0.571,39.008,5.771,-3.473,19.0,39.0
165817,0.751,0.451,0.587,36.069,-3.298,-5.107,20.0,38.0
165863,0.760,0.444,0.548,15.015,-6.046,-4.908,20.0,38.0
165906,0.756,0.447,0.530,23.076,-1.802,-0.733,23.0,38.0
165949,0.767,0.484,0.495,7.641,0.527,0.168,19.0,43.0
165993,0.762,0.455,0.505,6.603,4.550,4.076,18.0,43.0
166036,0.760,0.483,0.483,-3.099,8.023,8.260,20.0,44.0
166079,0.753,0.415,0.518,-5.130,8.840,10.336,19.0,36.0
166122,0.760,0.438,0.516,-10.214,10.298,11.237,19.0,43.0
166166,0.751,0.347,0.573,2.244,11.244,10.351,23.0,44.0
166209,0.735,0.399,0.561,7.015,8.275,6.023,20.0,43.0
166256,0.724,0.372,0.570,12.260,6.443,3.542,19.0,44.0
166299,0.736,0.441,0.567,9.840,3.473,3.000,19.0,44.0
166343,0.750,0.394,0.569,23.893,4.176,10.412,23.0,44.0
166396,0.754,0.428,0.530,8.084,1.504,7.672,0.0,36.0
166450,0.758,0.339,0.573,18.107,1.672,0.870,0.0,36.0
166498,0.730,0.401,0.549,16.840,3.206,-1.878,98.0,41.0
166541,0.752,0.494,0.540,2.870,0.870,-0.305,20.0,36.0
166584,0.734,0.356,0.571,3.840,0.908,6.534,19.0,37.0
166627,0.758,0.391,0.540,5.412,1.008,5.519,19.0,36.0
166673,0.753,0.320,0.580,12.427,3.023,2.664,19.0,37.0
166716,0.757,0.433,0.544,12.939,3.244,3.779,19.0,37.0
166759,0.760,0.352,0.563,5.565,2.725,-0.603,19.0,38.0
166802,0.750,0.398,0.559,16.725,2.992,1.611,22.0,38.0
166845,0.751,0.387,0.570,10.489,2.962,1.183,20.0,38.0
166889,0.751,0.404,0.551,10.977,2.824,3.084,20.0,36.0
166932,0.755,0.368,0.569,9.321,0.382,1.656,19.0,46.0
166975,0.760,0.387,0.571,10.458,-0.321,4.573,19.0,36.0
167019,0.773,0.389,0.545,8.916,-0.878,2.931,19.0,37.0
167065,0.764,0.348,0.557,17.382,1.389,5.473,20.0,36.0
167108,0.736,0.405,0.522,12.832,3.183,6.718,20.0,36.0
167151,0.768,0.310,0.592,10.038,-0.183,0.450,20.0,37.0
167195,0.771,0.357,0.568,41.710,1.107,5.405,25.0,36.0
167238,0.767,0.522,0.491,3.893,2.122,6.214,19.0,37.0
167289,0.781,0.278,0.594,-6.504,0.969,2.260,19.0,37.0
167332,0.763,0.289,0.589,29.328,-0.588,2.244,19.0,36.0
167374,0.775,0.393,0.560,38.489,-4.832,2.542,18.0,37.0
167417,0.796,0.440,0.506,24.977,-7.000,2.595,20.0,37.0
167459,0.799,0.379,0.507,17.985,-4.725,2.893,20.0,40.0
167505,0.804,0.407,0.503,21.748,1.511,5.779,23.0,44.0
167548,0.819,0.423,0.498,6.962,3.504,7.763,22.0,36.0
167590,0.837,0.367,0.523,4.374,5.817,11.435,22.0,36.0
167633,0.824,0.296,0.576,18.244,4.687,12.710,21.0,40.0
167676,0.846,0.298,0.527,40.298,1.756,12.107,23.0,45.0
167720,0.812,0.412,0.491,30.840,1.863,13.809,23.0,47.0
167762,0.792,0.426,0.476,11.344,5.267,16.489,21.0,39.0
167806,0.762,0.307,0.488,30.947,13.534,14.344,25.0,43.0
167892,0.650,0.362,0.448,41.198,30.336,-9.908,22.0,38.0
167948,0.740,0.336,0.503,53.229,37.519,-24.687,0.0,38.0
168005,0.745,0.390,0.584,74.176,19.405,-34.046,0.0,44.0
168058,0.780,0.434,0.582,99.519,-7.580,-35.473,0.0,43.0
168113,0.722,0.540,0.470,131.809,-11.649,-26.664,0.0,45.0
168166,0.706,0.771,0.271,106.603,-6.626,-21.168,197.0,38.0
168219,0.693,0.856,0.226,53.702,-0.733,-12.405,0.0,40.0
168272,0.687,0.845,0.267,30.084,6.679,6.145,0.0,41.0
168326,0.693,0.764,0.294,30.137,11.305,21.450,200.0,38.0
168380,0.690,0.740,0.279,41.565,16.977,39.405,0.0,57.0
168436,0.711,0.730,0.253,30.725,21.641,49.824,0.0,44.0
168494,0.732,0.634,0.247,19.321,25.588,49.580,0.0,105.0
168556,0.717,0.541,0.271,20.695,28.145,44.038,0.0,0.0
168612,0.755,0.505,0.298,27.588,23.527,35.298,0.0,93.0
168669,0.791,0.504,0.317,21.183,18.168,25.969,0.0,93.0
168725,0.779,0.501,0.322,-5.237,8.649,12.038,0.0,94.0
168778,0.789,0.461,0.376,42.260,6.924,9.458,0.0,37.0
168830,0.787,0.547,0.317,24.588,2.611,-0.344,0.0,37.0
168884,0.791,0.471,0.329,38.374,0.275,-2.893,0.0,37.0
168940,0.790,0.525,0.313,28.489,-2.969,-10.725,0.0,37.0
168996,0.793,0.565,0.276,36.183,-4.328,-9.817,0.0,94.0
169053,0.776,0.546,0.269,23.916,-3.985,-14.069,189.0,94.0
169114,0.789,0.615,0.240,37.092,-3.244,-12.885,188.0,0.0
169178,0.740,0.612,0.246,23.267,-2.366,-8.092,0.0,0.0
169230,0.717,0.657,0.214,21.893,-10.229,-12.672,190.0,30.0
169282,0.654,0.638,0.219,8.718,-17.122,-9.718,188.0,29.0
169344,0.664,0.718,0.128,-1.305,-37.466,-10.786,191.0,0.0
169399,0.751,0.702,0.094,-97.618,-49.244,-23.366,0.0,57.0
169455,0.831,0.720,0.071,-104.710,-31.336,-30.435,0.0,42.0
169508,0.822,0.656,0.187,-165.534,-10.519,-23.305,0.0,40.0
169563,0.836,0.501,0.370,-105.053,5.153,-11.511,0.0,41.0
169616,0.801,0.402,0.522,-44.756,10.198,-6.359,0.0,32.0
169672,0.749,0.555,0.487,-9.069,6.824,-2.458,0.0,33.0
169725,0.719,0.521,0.503,1.947,2.733,-2.252,0.0,33.0
169782,0.712,0.608,0.443,-2.649,-0.176,-0.634,0.0,33.0
169825,0.688,0.487,0.459,1.038,1.992,-4.344,28.0,32.0
169868,0.708,0.548,0.451,16.740,1.336,-1.458,29.0,32.0
169914,0.691,0.548,0.410,18.954,4.206,-3.275,30.0,33.0
169958,0.694,0.601,0.415,8.687,8.412,-5.260,29.0,33.0
170001,0.650,0.505,0.432,8.817,9.611,-11.000,28.0,31.0
170054,0.655,0.518,0.447,24.542,11.557,-16.901,0.0,35.0
170106,0.637,0.581,0.427,39.771,12.916,-24.153,0.0,29.0
170164,0.625,0.657,0.459,34.229,9.443,-23.756,0.0,35.0
170207,0.647,0.667,0.489,29.977,-3.481,-15.656,30.0,35.0
170251,0.650,0.678,0.456,32.893,-7.145,-8.473,30.0,33.0
170294,0.669,0.645,0.462,39.443,-8.878,-0.802,28.0,36.0
170341,0.654,0.688,0.421,40.275,-9.176,3.969,25.0,37.0
170394,0.668,0.680,0.404,36.504,-7.405,3.580,0.0,36.0
170437,0.637,0.708,0.387,30.359,-6.435,4.252,29.0,38.0
170481,0.657,0.691,0.373,28.725,-12.153,3.420,30.0,36.0
170577,0.658,0.725,0.343,25.260,-4.496,6.656,0.0,36.0
170631,0.685,0.703,0.333,26.374,-1.374,5.275,0.0,38.0
170684,0.665,0.727,0.293,19.878,3.328,4.832,187.0,37.0
170728,0.688,0.718,0.278,22.481,3.786,5.260,30.0,36.0
170772,0.668,0.720,0.277,18.489,4.939,6.107,25.0,50.0
170819,0.669,0.693,0.283,16.908,-0.359,2.344,25.0,50.0
170863,0.673,0.721,0.272,18.702,0.252,1.244,27.0,54.0
170908,0.666,0.729,0.269,14.489,1.649,0.672,29.0,54.0
170952,0.667,0.719,0.269,16.137,0.939,-0.137,30.0,51.0
170995,0.667,0.728,0.268,15.542,-0.473,-0.397,26.0,25.0
171039,0.667,0.728,0.269,14.542,0.389,1.336,25.0,50.0
171083,0.687,0.727,0.268,13.924,0.679,0.443,26.0,50.0
171128,0.690,0.725,0.271,13.641,0.817,0.748,29.0,57.0
171172,0.674,0.726,0.263,11.298,2.481,1.687,25.0,51.0
171219,0.682,0.713,0.253,12.687,3.130,3.336,25.0,50.0
171264,0.678,0.706,0.259,11.847,4.435,2.931,25.0,59.0
171309,0.658,0.716,0.259,10.885,4.992,2.389,26.0,50.0
171353,0.673,0.708,0.270,14.511,3.679,2.863,25.0,50.0
171397,0.661,0.741,0.285,12.260,3.435,2.756,28.0,51.0
171441,0.656,0.720,0.290,6.672,1.832,2.756,26.0,51.0
171486,0.675,0.712,0.298,6.679,0.794,2.237,26.0,50.0
171530,0.655,0.714,0.297,6.931,2.718,0.405,26.0,50.0
171574,0.655,0.751,0.300,4.779,6.947,0.130,30.0,50.0
171618,0.673,0.684,0.266,3.824,7.603,-0.481,28.0,50.0
171675,0.694,0.691,0.243,10.313,3.649,-0.756,0.0,50.0
171730,0.679,0.702,0.264,11.122,3.000,2.053,0.0,50.0
171785,0.686,0.711,0.258,12.229,6.511,-1.252,0.0,51.0
171839,0.669,0.750,0.291,8.389,9.351,-5.176,0.0,51.0
171893,0.648,0.732,0.327,7.328,13.160,-4.687,0.0,50.0
171938,0.629,0.726,0.323,4.305,11.992,-4.824,38.0,50.0
171992,0.635,0.724,0.325,5.344,9.031,-4.382,188.0,50.0
172047,0.607,0.727,0.321,4.282,6.695,-4.237,0.0,49.0
172101,0.631,0.719,0.328,5.107,1.420,-7.176,0.0,50.0
172157,0.619,0.734,0.327,4.908,1.076,-5.756,186.0,50.0
172212,0.608,0.738,0.350,6.031,1.504,-5.916,186.0,50.0
172265,0.598,0.734,0.356,3.313,-1.046,-6.237,185.0,48.0
172318,0.608,0.722,0.372,5.878,-1.603,-7.985,187.0,48.0
172372,0.603,0.729,0.358,1.794,-4.305,-8.573,0.0,47.0
172427,0.629,0.745,0.340,9.206,-6.863,-8.710,182.0,50.0
172479,0.588,0.745,0.326,6.214,-7.115,-1.771,173.0,48.0
172532,0.610,0.705,0.332,12.244,-8.458,1.389,172.0,47.0
172584,0.604,0.738,0.326,14.519,-3.916,1.366,172.0,47.0
172642,0.608,0.712,0.332,18.244,-2.908,-1.725,186.0,48.0
172696,0.604,0.765,0.309,15.679,3.832,-0.145,187.0,47.0
172748,0.600,0.763,0.330,18.282,5.328,0.145,175.0,47.0
172802,0.605,0.805,0.335,15.069,9.069,-0.779,174.0,47.0
172855,0.580,0.740,0.349,14.901,8.924,1.481,173.0,47.0
172908,0.597,0.772,0.324,21.359,12.840,-0.779,182.0,46.0
172961,0.546,0.786,0.313,19.588,12.817,0.947,182.0,45.0
173014,0.547,0.806,0.341,16.397,10.130,3.733,168.0,46.0
173110,0.573,0.788,0.338,19.885,8.160,2.008,166.0,44.0
173165,0.572,0.785,0.320,17.870,9.115,1.672,167.0,45.0
173217,0.569,0.776,0.326,18.992,10.962,-0.313,168.0,45.0
173271,0.575,0.799,0.319,11.786,6.901,0.947,168.0,45.0
173323,0.577,0.780,0.326,13.618,3.962,2.527,167.0,45.0
173375,0.567,0.764,0.331,12.427,2.420,3.260,168.0,44.0
173427,0.571,0.791,0.306,16.366,4.947,3.336,167.0,44.0
173480,0.551,0.797,0.310,12.443,5.351,1.870,167.0,44.0
173533,0.550,0.768,0.314,12.611,4.023,2.908,167.0,46.0
173585,0.576,0.777,0.313,14.870,3.244,0.748,168.0,44.0
173641,0.566,0.813,0.323,15.809,3.595,2.763,167.0,46.0
173693,0.573,0.774,0.328,10.710,3.573,4.130,167.0,45.0
173747,0.568,0.779,0.319,16.053,4.130,3.267,167.0,46.0
173799,0.554,0.790,0.327,10.336,2.618,3.947,167.0,46.0
173856,0.561,0.784,0.317,12.901,1.718,5.130,167.0,47.0
173908,0.566,0.789,0.318,13.275,1.802,4.000,168.0,49.0
173960,0.566,0.794,0.317,10.580,2.107,5.389,172.0,46.0
174012,0.574,0.745,0.320,8.824,1.618,2.366,170.0,45.0
174063,0.583,0.759,0.316,10.015,0.511,-0.221,163.0,47.0
174117,0.594,0.777,0.309,14.099,0.580,1.786,163.0,47.0
174170,0.598,0.754,0.319,13.031,3.107,2.344,182.0,47.0
174223,0.571,0.788,0.307,10.122,4.405,1.344,183.0,47.0
174275,0.577,0.776,0.327,9.076,2.420,1.290,183.0,46.0
174326,0.547,0.788,0.330,6.443,1.519,0.092,162.0,48.0
174380,0.592,0.756,0.312,12.382,1.305,-0.733,0.0,48.0
174432,0.586,0.798,0.322,13.084,0.977,-0.229,174.0,47.0
174484,0.589,0.794,0.329,7.832,0.527,2.191,174.0,46.0
174536,0.608,0.771,0.331,11.336,3.298,6.107,174.0,47.0
174588,0.581,0.782,0.307,6.870,2.664,7.588,175.0,48.0
174636,0.585,0.741,0.318,11.740,0.656,8.153,37.0,46.0
174680,0.587,0.766,0.307,14.649,1.313,7.550,30.0,48.0
174724,0.582,0.771,0.307,13.351,2.634,6.824,30.0,47.0
174767,0.585,0.754,0.314,13.298,4.344,5.595,29.0,49.0
174811,0.594,0.759,0.327,15.580,5.321,4.817,30.0,48.0
174864,0.574,0.771,0.331,12.176,4.130,4.031,188.0,49.0
174917,0.607,0.747,0.334,11.397,1.389,4.641,190.0,48.0
174970,0.601,0.749,0.334,14.649,1.382,5.061,0.0,47.0
175024,0.601,0.761,0.330,11.427,2.061,4.527,189.0,49.0
175080,0.591,0.741,0.335,8.740,1.817,3.076,186.0,49.0
175124,0.599,0.746,0.334,8.664,0.351,-2.076,30.0,50.0
175176,0.588,0.789,0.340,3.267,-1.176,-2.099,175.0,50.0
175220,0.589,0.765,0.329,-5.977,-3.015,-2.031,30.0,50.0
175273,0.608,0.723,0.334,1.595,-4.763,-3.542,0.0,49.0
175327,0.619,0.732,0.304,10.947,-2.168,-3.710,175.0,48.0
175379,0.608,0.785,0.282,10.641,3.618,-3.443,175.0,48.0
175432,0.611,0.746,0.338,11.366,6.977,-4.504,187.0,48.0
175485,0.604,0.780,0.337,7.298,10.099,-3.260,194.0,48.0
175541,0.582,0.795,0.378,-1.252,12.229,-2.992,174.0,50.0
175593,0.587,0.784,0.389,-1.901,14.870,1.389,172.0,48.0
175647,0.583,0.772,0.383,-4.389,19.313,3.779,0.0,50.0
175745,0.637,0.760,0.399,-38.305,43.252,10.252,0.0,50.0
175789,0.651,0.844,0.424,-79.237,57.176,10.740,27.0,49.0
175832,0.569,0.595,0.593,-112.611,59.588,21.168,24.0,39.0
175876,0.566,0.536,0.682,-97.634,58.954,35.031,27.0,37.0
175918,0.488,0.451,0.745,-70.214,57.763,37.237,16.0,36.0
175961,0.461,0.417,0.811,-52.405,48.664,38.656,16.0,36.0
176006,0.455,0.375,0.831,-37.000,45.489,40.779,16.0,35.0
176049,0.422,0.396,0.811,-40.084,50.458,39.565,16.0,37.0
176092,0.406,0.312,0.838,-43.359,56.718,42.473,16.0,35.0
176135,0.344,0.230,0.864,-36.214,51.130,32.473,30.0,34.0
176179,0.288,0.189,0.900,3.557,45.069,31.412,26.0,44.0
176221,0.298,0.267,0.868,19.206,40.252,27.969,19.0,37.0
176264,0.297,0.340,0.897,13.573,42.863,25.366,16.0,38.0
176307,0.133,0.286,0.937,-12.634,29.008,19.198,16.0,41.0
176350,0.257,0.154,0.989,6.115,1.076,7.695,23.0,36.0
176396,0.301,0.271,0.906,20.397,-7.824,10.137,23.0,36.0
176439,0.321,0.264,0.851,13.321,-9.908,8.702,22.0,37.0
176482,0.396,0.191,0.876,19.855,6.435,12.687,22.0,37.0
176526,0.330,0.157,0.883,12.298,27.176,8.985,22.0,40.0
176579,0.284,0.149,0.951,9.336,30.756,-1.076,0.0,41.0
176622,0.263,0.144,1.145,40.977,0.916,-8.718,23.0,39.0
176665,0.301,0.366,0.855,26.550,-4.321,-14.366,26.0,37.0
176709,0.309,0.215,0.929,12.695,5.183,-26.435,26.0,37.0
176752,0.242,0.419,1.003,24.115,-1.702,-10.237,23.0,32.0
176798,0.212,0.322,0.927,-29.267,-3.466,-24.824,27.0,34.0
176841,0.157,0.134,0.930,26.763,-3.145,-20.618,25.0,35.0
176884,0.157,0.176,0.851,59.519,-9.939,-40.893,17.0,34.0
176930,0.155,0.257,0.822,55.603,-23.191,-70.763,23.0,78.0
176974,0.256,0.193,0.810,107.809,-27.878,-86.344,22.0,52.0
177017,0.333,0.706,0.816,97.321,-34.992,-73.779,21.0,34.0
177060,0.354,0.490,0.909,101.305,-29.534,-49.229,22.0,33.0
177104,0.395,0.538,0.815,180.366,-21.061,-8.130,23.0,48.0
177148,0.420,1.100,0.668,88.076,-22.931,-8.321,30.0,47.0
177196,0.303,0.692,0.815,12.870,-25.664,-4.115,28.0,47.0
177241,0.321,0.659,0.885,56.679,-32.847,11.962,28.0,47.0
177284,0.375,0.903,0.715,36.542,-36.649,21.901,24.0,47.0
177328,0.392,0.857,0.644,-29.137,-34.099,19.305,24.0,38.0
177372,0.396,0.728,0.598,-53.840,-17.298,19.695,25.0,49.0
177416,0.452,0.675,0.530,-44.153,11.015,24.504,27.0,43.0
177460,0.428,0.607,0.510,-18.023,43.511,27.595,23.0,50.0
177504,0.309,0.615,0.538,-6.634,52.382,27.244,25.0,41.0
177551,0.360,0.476,0.626,10.748,38.244,19.458,25.0,51.0
177595,0.393,0.510,0.719,4.214,21.634,4.985,23.0,41.0
177638,0.437,0.440,0.796,7.817,6.718,-6.924,22.0,39.0
177682,0.385,0.573,0.820,26.076,4.305,1.031,23.0,42.0
177725,0.397,0.664,0.849,18.916,-5.962,13.198,24.0,36.0
177768,0.490,0.646,0.762,-6.481,-11.084,18.550,23.0,35.0
177812,0.476,0.520,0.768,-22.168,-1.130,18.939,20.0,45.0
177860,0.437,0.577,0.788,-21.809,17.061,33.038,110.0,36.0
177903,0.384,0.496,0.899,-48.863,35.534,36.473,20.0,34.0
177993,0.392,0.319,0.937,-37.191,25.702,38.206,19.0,34.0
178036,0.374,0.362,0.833,-22.031,31.412,32.298,25.0,35.0
178080,0.310,0.296,0.854,-16.298,27.198,29.351,18.0,35.0
178123,0.301,0.284,0.853,7.076,24.916,19.695,19.0,33.0
178166,0.258,0.313,0.868,18.878,15.359,-2.046,19.0,32.0
178208,0.196,0.195,0.923,38.092,10.771,-17.908,17.0,32.0
178251,0.155,0.274,0.843,62.328,8.733,-29.573,19.0,32.0
178294,0.154,0.370,0.892,68.687,2.649,-42.023,19.0,33.0
178337,0.153,0.378,0.955,107.061,-6.382,-43.321,19.0,31.0
178383,0.061,0.949,0.809,86.290,-33.794,-6.221,20.0,30.0
178427,0.372,0.905,0.848,-16.885,-56.023,-13.992,20.0,32.0
178470,0.477,0.672,0.740,-62.756,-51.519,-3.168,20.0,34.0
178513,0.526,0.376,0.731,-69.656,-24.977,4.992,18.0,38.0
178556,0.542,0.345,0.705,-41.863,0.000,15.901,17.0,35.0
178599,0.480,0.254,0.718,-17.344,21.908,20.634,16.0,36.0
178643,0.470,0.369,0.803,3.725,23.573,29.198,22.0,35.0
178686,0.410,0.397,0.851,-24.763,12.366,22.687,16.0,37.0
178729,0.405,0.198,0.919,-48.779,-0.412,15.237,19.0,37.0
178777,0.466,0.091,0.977,1.206,1.863,9.351,18.0,38.0
178820,0.402,0.268,0.864,28.267,14.771,13.145,23.0,36.0
178864,0.349,0.398,0.844,-8.542,22.443,12.695,23.0,36.0
178907,0.333,0.181,1.015,10.412,14.634,14.489,19.0,36.0
178950,0.182,0.332,0.823,5.626,8.145,-3.412,16.0,37.0
178993,0.264,0.068,0.903,-0.687,5.656,-23.107,16.0,36.0
179036,0.207,0.112,0.823,70.824,8.840,-40.481,16.0,36.0
179080,0.258,0.214,0.862,56.954,13.031,-64.992,22.0,36.0
179124,0.166,0.152,1.058,146.305,-2.641,-56.084,23.0,36.0
179170,0.248,0.969,0.664,155.206,-15.603,-35.863,22.0,36.0
179214,0.270,0.877,0.894,-5.649,-32.031,-27.924,23.0,36.0
179258,0.469,0.518,0.969,3.099,-25.023,1.641,23.0,37.0
179301,0.409,0.633,0.807,-6.084,-6.786,7.008,22.0,36.0
179345,0.341,0.488,0.871,-15.588,1.160,9.916,22.0,36.0
179388,0.247,0.596,0.806,-21.641,-11.511,6.710,22.0,36.0
179432,0.277,0.533,0.808,-12.534,-29.542,9.824,17.0,35.0
179475,0.417,0.508,0.722,4.389,-27.321,15.824,21.0,34.0
179518,0.467,0.558,0.593,21.962,-5.198,32.779,16.0,36.0
179565,0.475,0.451,0.655,31.817,25.069,32.809,23.0,36.0
179609,0.283,0.478,0.687,12.870,35.939,17.313,16.0,41.0
179652,0.360,0.253,0.868,8.863,27.176,-1.969,16.0,36.0
179696,0.350,0.379,0.876,31.748,12.618,-18.496,17.0,39.0
179739,0.357,0.585,0.850,29.832,-9.672,-18.809,17.0,43.0
179788,0.401,0.627,0.775,10.198,-11.504,-9.458,16.0,39.0
179830,0.420,0.527,0.759,-18.496,-10.298,-4.992,16.0,38.0
179873,0.358,0.343,0.818,0.298,-10.221,-7.565,16.0,39.0
179915,0.384,0.511,0.742,16.679,-10.344,-7.344,16.0,40.0
179961,0.377,0.503,0.765,12.443,-15.557,-11.656,22.0,47.0
180004,0.333,0.503,0.748,7.328,-19.626,-17.328,16.0,40.0
180047,0.387,0.428,0.774,15.649,-23.878,-22.412,17.0,41.0
180090,0.470,0.401,0.766,41.916,-22.618,-29.916,19.0,41.0
180132,0.493,0.497,0.765,49.473,-18.489,-33.298,17.0,42.0
180219,0.446,0.494,0.828,40.786,-5.458,-32.313,17.0,57.0
180267,0.425,0.641,0.773,48.908,-7.725,-18.702,29.0,95.0
180313,0.476,0.546,0.772,70.672,-4.679,-16.115,27.0,92.0
180360,0.399,0.705,0.661,71.695,3.023,-13.580,36.0,93.0
180409,0.371,0.644,0.677,109.779,7.794,-14.466,34.0,84.0
180454,0.307,1.079,0.478,62.336,8.305,-11.160,30.0,81.0
180501,0.348,0.792,0.581,18.313,7.366,-7.084,30.0,91.0
180546,0.291,0.807,0.610,40.863,9.626,-9.725,28.0,80.0
180592,0.250,0.853,0.501,32.450,6.443,-2.809,29.0,80.0
180637,0.257,0.801,0.537,15.008,2.076,-8.321,30.0,80.0
180683,0.254,0.824,0.492,48.420,-0.725,0.168,30.0,80.0
180728,0.316,0.904,0.412,24.740,0.115,-3.176,30.0,79.0
180774,0.284,0.848,0.408,24.015,12.313,0.229,28.0,78.0
180823,0.245,0.865,0.478,30.794,17.557,6.962,29.0,78.0
180869,0.261,0.871,0.477,25.931,9.084,-0.069,30.0,78.0
180914,0.318,0.857,0.442,16.336,3.832,-2.351,35.0,79.0
180968,0.470,0.842,0.419,11.481,8.969,-10.176,168.0,79.0
181014,0.393,0.757,0.469,30.733,9.901,-6.695,31.0,78.0
181059,0.235,0.917,0.423,79.023,9.519,10.374,31.0,78.0
181112,0.269,1.106,0.342,57.779,5.206,14.023,162.0,77.0
181166,0.265,0.922,0.335,50.527,-0.137,10.260,161.0,77.0
181212,0.279,0.953,0.288,10.366,-2.336,6.008,38.0,77.0
181261,0.327,0.847,0.328,28.344,-0.626,4.580,37.0,77.0
181307,0.328,0.884,0.366,60.466,-3.458,8.573,37.0,76.0
181352,0.400,0.969,0.326,75.527,-5.069,17.183,30.0,75.0
181398,0.451,1.114,0.254,51.832,-2.809,32.107,36.0,77.0
181451,0.483,1.128,0.206,7.153,5.328,44.107,160.0,79.0
181505,0.485,0.918,0.240,-1.809,14.481,54.366,159.0,81.0
181557,0.512,0.954,0.182,10.420,23.084,62.519,157.0,50.0
181608,0.512,0.872,0.167,-0.908,28.863,59.924,156.0,47.0
181659,0.489,0.776,0.171,6.969,34.443,56.298,155.0,54.0
181713,0.506,0.705,0.221,10.687,35.725,38.489,154.0,50.0
181766,0.473,0.755,0.205,25.618,45.603,32.344,0.0,16.0
181824,0.512,0.735,0.231,27.435,41.855,28.321,0.0,57.0
181885,0.514,0.763,0.251,41.328,32.901,30.092,176.0,0.0
181937,0.578,0.750,0.295,35.779,25.733,29.725,163.0,39.0
181997,0.605,0.810,0.293,35.863,17.634,27.679,164.0,0.0
182057,0.600,0.690,0.328,32.137,19.313,19.534,167.0,0.0
182119,0.593,0.636,0.367,47.076,10.305,3.046,166.0,0.0
182180,0.526,0.758,0.222,49.282,5.473,-16.908,187.0,0.0
182233,0.549,0.846,0.187,50.634,8.634,-22.153,153.0,17.0
182283,0.501,0.848,0.195,48.916,-2.489,-21.740,152.0,19.0
182332,0.501,0.907,0.183,12.985,-16.817,-19.427,153.0,17.0
182381,0.495,0.891,0.130,16.573,-30.214,-11.405,152.0,19.0
182431,0.514,0.873,0.056,-45.237,-40.427,-14.863,153.0,21.0
182483,0.585,0.779,-0.013,-30.687,-43.084,-22.832,154.0,57.0
182533,0.687,1.012,-0.107,-124.870,-7.534,-23.046,154.0,16.0
182586,0.677,0.672,0.190,-127.038,27.840,-26.473,164.0,53.0
182640,0.755,0.603,0.448,-111.504,60.511,-15.817,170.0,37.0
182692,0.489,0.710,0.549,-62.718,62.519,7.481,184.0,30.0
182779,0.371,0.644,0.810,-21.840,20.008,2.885,26.0,36.0
182823,0.375,0.700,0.732,-15.954,8.802,5.771,28.0,37.0
182865,0.375,0.744,0.713,-38.069,6.794,-4.023,20.0,30.0
182909,0.296,0.577,0.711,-38.099,18.069,1.626,29.0,36.0
182952,0.346,0.545,0.747,-0.412,23.611,9.679,29.0,26.0
182995,0.272,0.604,0.743,28.679,21.588,10.481,28.0,30.0
183038,0.246,0.774,0.718,-6.267,9.542,13.656,19.0,30.0
183084,0.323,0.510,0.768,-9.947,1.244,6.305,20.0,30.0
183127,0.320,0.521,0.747,8.443,8.420,-1.489,18.0,30.0
183170,0.303,0.552,0.783,17.137,15.359,-2.183,19.0,35.0
183213,0.263,0.650,0.764,23.313,11.206,-2.229,29.0,36.0
183257,0.283,0.607,0.819,11.321,8.107,-3.740,27.0,37.0
183299,0.290,0.634,0.822,0.305,11.733,-3.969,21.0,31.0
183342,0.292,0.489,0.888,-14.893,13.038,-8.931,19.0,29.0
183386,0.274,0.544,0.873,-2.710,13.191,-12.076,51.0,28.0
183430,0.250,0.526,0.890,23.511,8.084,-11.008,19.0,37.0
183477,0.349,0.644,0.798,-5.389,3.687,-14.023,20.0,52.0
183520,0.346,0.565,0.793,0.992,-8.168,-12.511,27.0,30.0
183563,0.480,0.573,0.644,8.634,-23.176,-8.817,28.0,28.0
183606,0.529,0.600,0.575,9.725,-33.595,4.603,27.0,29.0
183649,0.594,0.572,0.534,37.344,-24.939,37.519,23.0,30.0
183692,0.585,0.593,0.534,26.710,-0.908,49.908,27.0,29.0
183735,0.508,0.467,0.657,22.771,25.511,49.069,26.0,29.0
183778,0.378,0.467,0.806,17.336,35.756,36.595,21.0,32.0
183823,0.312,0.453,0.873,24.977,29.847,19.832,28.0,57.0
183870,0.303,0.510,0.889,41.267,25.298,9.099,26.0,31.0
183913,0.288,0.601,0.814,44.763,20.840,1.641,30.0,30.0
183956,0.305,0.688,0.833,12.641,22.580,-9.595,19.0,36.0
183999,0.295,0.564,0.950,0.053,11.252,-17.160,20.0,30.0
184042,0.270,0.655,0.821,-26.122,11.321,-23.992,20.0,29.0
184085,0.205,0.564,0.874,-25.832,8.305,-27.809,23.0,31.0
184138,0.156,0.551,0.863,6.748,-0.672,-25.901,0.0,28.0
184181,0.256,0.646,0.781,-27.008,-7.198,-33.832,28.0,28.0
184235,0.285,0.478,0.840,-10.626,-12.389,-29.656,0.0,28.0
184281,0.465,0.529,0.682,27.305,-27.832,-4.847,26.0,29.0
184325,0.639,0.715,0.550,19.321,-40.573,8.473,30.0,29.0
184368,0.633,0.413,0.552,27.198,-26.855,30.198,30.0,29.0
184412,0.567,0.541,0.564,38.656,1.649,39.931,22.0,30.0
184454,0.416,0.517,0.708,22.611,23.122,30.786,22.0,28.0
184499,0.223,0.563,0.833,10.237,30.092,19.053,29.0,56.0
184543,0.206,0.484,0.892,13.374,24.351,14.260,30.0,28.0
184586,0.226,0.516,0.882,39.992,16.649,6.809,28.0,36.0
184629,0.274,0.625,0.831,33.344,6.282,-2.634,21.0,30.0
184676,0.276,0.640,0.852,25.557,8.840,-7.092,23.0,36.0
184721,0.029,0.692,0.924,-8.634,1.023,-13.847,24.0,57.0
184764,0.177,0.617,0.895,-20.275,0.221,-11.763,22.0,30.0
184808,0.160,0.536,0.903,-43.198,0.359,-28.550,22.0,56.0
184852,0.193,0.387,0.937,-13.382,-3.496,-33.015,22.0,29.0
184895,0.346,0.603,0.771,34.427,-11.366,-25.328,23.0,28.0
184938,0.612,0.624,0.540,10.656,-20.282,-20.840,23.0,28.0
185025,0.696,0.461,0.554,12.290,-20.420,40.473,29.0,30.0
185068,0.508,0.464,0.687,17.733,3.985,39.786,21.0,30.0
185114,0.228,0.469,0.851,18.389,23.366,20.137,20.0,30.0
185159,0.183,0.541,0.907,15.107,22.809,8.137,20.0,56.0
185202,0.181,0.535,0.882,20.122,13.878,0.611,19.0,29.0
185245,0.242,0.620,0.854,20.756,0.855,-5.412,19.0,30.0
185288,0.265,0.545,0.874,7.634,-0.290,-10.511,19.0,29.0
185331,0.249,0.585,0.874,2.511,3.840,-13.290,19.0,27.0
185374,0.195,0.540,0.910,-1.656,1.542,-16.244,22.0,30.0
185418,0.179,0.557,0.881,-1.137,-2.145,-21.000,21.0,50.0
185461,0.234,0.550,0.843,1.145,-6.855,-23.344,21.0,30.0
185508,0.326,0.567,0.787,8.687,-10.618,-27.954,20.0,29.0
185551,0.373,0.488,0.738,19.008,-10.939,-28.092,20.0,30.0
185596,0.413,0.466,0.747,48.504,-21.069,-21.954,26.0,51.0
185640,0.317,0.525,0.746,90.588,-40.282,-26.183,30.0,32.0
185684,0.379,0.634,0.642,121.412,-45.023,-15.901,24.0,49.0
185730,0.459,0.865,0.536,87.168,-27.977,-12.053,25.0,47.0
185774,0.441,0.868,0.485,41.267,-5.382,-10.573,28.0,38.0
185832,0.460,0.818,0.480,-6.145,15.244,-19.542,179.0,47.0
185876,0.418,0.504,0.605,45.863,25.802,-17.992,28.0,48.0
185929,0.290,0.687,0.498,98.397,16.603,-18.252,163.0,47.0
185973,0.360,0.835,0.507,74.878,-0.832,-30.527,27.0,49.0
186017,0.354,0.881,0.498,64.260,-2.198,-27.504,28.0,55.0
186063,0.307,0.976,0.439,42.351,-4.168,-27.733,32.0,81.0
186109,0.311,1.001,0.479,22.328,-0.176,-22.359,37.0,81.0
186156,0.293,0.993,0.476,8.092,6.763,-12.710,35.0,81.0
186202,0.259,0.865,0.468,4.412,6.458,-19.771,38.0,81.0
186247,0.155,0.932,0.414,2.450,13.229,-12.076,29.0,81.0
186293,0.167,0.898,0.445,-1.824,14.397,-16.481,29.0,82.0
186340,0.160,0.807,0.507,4.947,9.626,-18.779,29.0,57.0
186384,0.130,0.937,0.414,21.313,10.321,-16.588,30.0,57.0
186428,0.142,0.883,0.457,-0.611,10.595,-21.092,30.0,47.0
186472,0.105,0.835,0.464,16.863,8.313,-24.733,37.0,45.0
186516,0.110,0.946,0.447,14.489,3.412,-16.611,37.0,44.0
186560,0.112,0.993,0.402,17.794,5.153,-18.053,36.0,45.0
186604,0.095,0.904,0.449,-18.672,0.954,-15.290,36.0,47.0
186655,0.103,0.823,0.494,10.763,5.786,-9.802,157.0,45.0
186699,0.028,0.928,0.430,9.374,6.679,-0.061,38.0,45.0
186744,0.021,0.791,0.484,10.809,4.443,-3.061,37.0,9.0
186786,0.006,0.937,0.427,19.405,2.840,0.435,37.0,10.0
186828,0.004,0.911,0.466,4.916,2.221,5.092,37.0,10.0
186870,-0.006,0.885,0.495,12.847,3.359,4.092,37.0,8.0
186912,-0.036,0.818,0.556,16.809,0.031,3.000,38.0,10.0
186954,-0.053,0.865,0.530,41.290,1.305,7.748,29.0,7.0
186996,-0.085,0.902,0.504,45.237,-1.458,8.046,30.0,9.0
187038,-0.027,0.848,0.432,64.809,-0.397,19.840,38.0,9.0
187080,0.099,1.098,0.331,48.504,-2.435,12.504,39.0,8.0
187127,0.052,0.981,0.326,-33.099,-6.458,4.084,31.0,45.0
187171,0.129,0.937,0.356,-36.481,-0.382,-1.756,38.0,46.0
187215,0.146,0.775,0.435,-10.557,6.420,-4.504,38.0,46.0
187310,0.068,0.811,0.491,3.641,12.542,2.351,156.0,47.0
187362,0.155,0.864,0.571,11.679,6.924,0.969,157.0,57.0
187407,0.143,0.995,0.461,17.809,5.733,-2.595,30.0,57.0
187451,0.065,0.880,0.559,-5.893,10.519,10.466,30.0,57.0
187496,0.056,0.880,0.530,8.542,8.443,11.053,30.0,57.0
187540,0.064,0.804,0.564,16.588,5.076,10.832,37.0,50.0
187589,0.020,0.793,0.546,49.542,3.969,5.420,35.0,80.0
187635,0.004,0.771,0.492,88.832,2.214,16.557,30.0,80.0
187688,0.075,1.035,0.297,118.542,2.260,27.947,158.0,80.0
187735,0.090,1.369,0.062,-5.214,-4.061,9.771,36.0,79.0
187781,0.180,0.919,0.313,-114.893,3.374,-15.634,36.0,80.0
187828,0.093,0.613,0.571,-7.679,12.611,-4.718,37.0,81.0
187874,0.093,1.079,0.331,22.305,4.954,7.481,37.0,80.0
187920,0.081,0.821,0.471,-31.901,-0.557,-5.550,31.0,80.0
187966,0.095,0.815,0.501,37.359,5.595,9.641,33.0,80.0
188015,0.088,0.940,0.444,25.130,10.046,2.634,34.0,80.0
188061,0.050,0.902,0.481,25.802,3.206,0.282,34.0,80.0
188107,0.064,0.897,0.417,32.855,-0.634,5.763,32.0,79.0
188152,0.054,0.984,0.394,14.840,-0.412,11.214,30.0,80.0
188198,0.077,0.875,0.420,18.145,-3.527,9.977,32.0,80.0
188252,0.117,0.926,0.402,24.947,-3.924,9.855,159.0,79.0
188306,0.135,0.883,0.439,19.092,-5.183,5.397,159.0,79.0
188352,0.101,0.914,0.424,29.504,-11.420,8.969,35.0,79.0
188398,0.164,0.965,0.444,31.641,-17.122,14.206,37.0,79.0
188454,0.238,0.966,0.460,34.550,-15.885,22.092,158.0,79.0
188509,0.302,1.047,0.400,35.481,-10.557,33.267,158.0,79.0
188555,0.288,0.983,0.316,21.603,-9.046,41.351,37.0,80.0
188598,0.280,0.935,0.273,18.214,-9.565,49.206,37.0,16.0
188649,0.338,0.945,0.229,36.695,-4.969,53.847,156.0,45.0
188698,0.352,0.883,0.231,27.573,3.595,46.374,156.0,9.0
188747,0.390,0.905,0.204,33.198,7.206,45.198,155.0,10.0
188796,0.402,0.896,0.210,36.878,10.664,43.115,154.0,12.0
188846,0.406,0.846,0.260,42.443,13.267,41.763,154.0,11.0
188899,0.450,0.927,0.192,44.634,15.412,36.855,153.0,16.0
188948,0.439,0.872,0.177,41.305,20.099,35.847,153.0,17.0
188997,0.479,0.915,0.124,37.634,26.092,30.718,153.0,16.0
189047,0.488,0.843,0.122,28.458,31.351,20.519,152.0,16.0
189096,0.456,0.826,0.123,25.687,34.000,17.397,152.0,16.0
189146,0.481,0.807,0.171,37.366,27.771,14.069,152.0,16.0
189196,0.513,0.856,0.154,43.168,23.427,18.656,151.0,17.0
189245,0.563,0.854,0.110,29.634,20.237,18.321,152.0,16.0
189295,0.594,0.840,0.159,36.481,19.458,23.267,152.0,16.0
189347,0.591,0.760,0.142,44.458,25.099,22.847,157.0,18.0
189398,0.603,0.798,0.144,47.389,23.702,16.298,153.0,16.0
189447,0.534,0.873,0.063,51.473,24.748,7.641,151.0,18.0
189496,0.510,0.792,0.099,43.397,21.130,6.763,151.0,17.0
189546,0.464,0.860,0.085,36.969,9.336,-2.015,151.0,24.0
189596,0.409,0.916,0.179,16.802,-10.641,-17.771,151.0,19.0
189645,0.390,0.964,0.167,1.076,-33.389,-23.366,152.0,15.0
189696,0.412,1.011,0.086,-22.786,-42.916,-28.573,152.0,17.0
189789,0.538,1.365,-0.286,-85.145,-71.275,-16.489,153.0,16.0
189841,0.527,0.901,-0.241,-184.527,-49.901,-24.244,153.0,16.0
189892,0.650,0.969,-0.092,-250.137,-4.931,-3.137,173.0,16.0
189943,0.617,0.471,0.383,-232.321,22.435,-9.450,161.0,36.0
189988,0.554,0.383,0.652,-146.130,25.397,-4.374,27.0,50.0
190031,0.507,0.298,0.801,-104.366,21.260,-13.504,23.0,38.0
190075,0.458,0.264,0.894,-28.206,6.389,-17.931,17.0,38.0
190118,0.496,0.524,0.815,-9.779,7.557,-17.740,22.0,34.0
190161,0.467,0.484,0.783,0.107,5.366,-15.389,23.0,33.0
190209,0.488,0.492,0.750,2.382,11.817,-16.244,23.0,33.0
190252,0.378,0.528,0.764,13.824,13.618,-12.168,21.0,38.0
190295,0.398,0.489,0.796,18.496,12.847,-12.504,24.0,34.0
190339,0.279,0.602,0.787,28.947,8.076,-10.374,23.0,33.0
190382,0.360,0.637,0.739,42.458,1.176,-1.176,23.0,33.0
190426,0.388,0.564,0.724,26.061,9.977,-4.221,29.0,38.0
190470,0.333,0.538,0.751,59.832,13.687,1.038,27.0,37.0
190513,0.295,0.840,0.610,65.733,13.405,10.466,24.0,37.0
190557,0.343,0.706,0.646,24.748,20.382,4.466,24.0,36.0
190604,0.312,0.636,0.752,43.664,21.916,13.122,24.0,46.0
190647,0.330,0.830,0.736,17.252,8.878,11.130,24.0,38.0
190691,0.348,0.595,0.826,-24.496,-7.840,-1.519,24.0,36.0
190735,0.328,0.505,0.836,3.420,-14.137,-5.580,29.0,38.0
190779,0.323,0.560,0.785,27.733,-12.053,-5.115,27.0,36.0
190822,0.348,0.783,0.676,16.756,-4.221,-5.359,23.0,36.0
190867,0.318,0.661,0.675,-3.611,-1.931,-5.412,26.0,49.0
190910,0.426,0.660,0.637,20.748,-0.183,2.885,26.0,36.0
190954,0.428,0.637,0.614,22.702,1.809,5.985,24.0,38.0
191010,0.469,0.603,0.609,2.405,9.763,7.672,25.0,37.0
191054,0.406,0.649,0.671,7.107,11.519,8.595,28.0,36.0
191097,0.323,0.573,0.753,10.015,6.328,7.107,26.0,37.0
191142,0.390,0.674,0.703,38.664,4.985,16.221,26.0,49.0
191186,0.449,0.686,0.629,20.863,15.267,17.092,27.0,48.0
191230,0.532,0.719,0.624,33.840,17.939,36.656,28.0,37.0
191275,0.417,0.768,0.668,12.802,4.557,50.122,27.0,38.0
191319,0.441,0.684,0.681,-13.756,-5.893,56.069,26.0,32.0
191363,0.450,0.498,0.667,-23.099,3.771,44.099,26.0,36.0
191419,0.426,0.358,0.730,2.351,27.679,32.008,0.0,36.0
191463,0.300,0.511,0.751,20.267,41.496,11.908,20.0,33.0
191506,0.267,0.577,0.820,25.176,36.618,0.595,21.0,33.0
191550,0.177,0.760,0.826,11.855,22.000,-2.893,22.0,35.0
191593,0.216,0.670,0.859,-18.947,8.000,-7.046,20.0,37.0
191637,0.253,0.422,0.923,-17.931,1.603,-16.137,20.0,32.0
191681,0.311,0.429,0.898,15.611,2.885,-20.618,21.0,56.0
191731,0.308,0.662,0.809,0.740,10.061,-20.382,31.0,38.0
191775,0.357,0.561,0.809,-6.893,9.275,-15.847,23.0,50.0
191820,0.406,0.587,0.759,0.076,5.450,-11.473,23.0,33.0
191863,0.382,0.520,0.728,3.969,-8.252,-4.435,27.0,33.0
191906,0.437,0.497,0.689,41.901,-23.733,3.450,30.0,39.0
191949,0.490,0.558,0.562,52.756,-29.824,11.206,25.0,42.0
191992,0.607,0.633,0.521,44.481,-16.229,23.496,23.0,40.0
192078,0.500,0.443,0.717,10.893,14.794,15.206,21.0,39.0
192121,0.382,0.556,0.785,37.748,18.137,19.160,22.0,31.0
192163,0.330,0.685,0.813,22.779,12.015,18.924,29.0,31.0
192206,0.315,0.614,0.829,-4.748,0.969,8.275,23.0,32.0
192252,0.372,0.451,0.821,22.023,0.634,3.176,23.0,43.0
192295,0.375,0.641,0.762,33.359,8.489,5.878,30.0,31.0
192337,0.379,0.671,0.716,9.618,12.901,2.618,27.0,32.0
192380,0.364,0.536,0.739,3.023,16.786,-2.840,21.0,31.0
192423,0.322,0.648,0.777,4.481,12.985,-3.244,23.0,51.0
192466,0.324,0.565,0.787,-8.382,9.160,-4.969,23.0,33.0
192508,0.297,0.582,0.842,-12.664,6.504,-7.374,21.0,31.0
192551,0.251,0.515,0.864,13.695,2.954,-5.679,21.0,32.0
192594,0.295,0.604,0.796,1.366,4.046,-12.137,22.0,50.0
192637,0.308,0.517,0.860,8.389,-1.817,-14.321,21.0,31.0
192684,0.303,0.620,0.793,18.000,-10.069,-14.885,21.0,50.0
192727,0.293,0.573,0.760,19.321,-27.244,-15.893,23.0,35.0
192770,0.388,0.555,0.702,50.969,-36.038,-10.870,30.0,36.0
192814,0.436,0.656,0.598,41.588,-28.634,-12.656,30.0,36.0
192857,0.429,0.573,0.584,18.046,-21.786,-24.595,27.0,36.0
192900,0.459,0.355,0.650,62.588,-10.634,-35.336,25.0,49.0
192944,0.476,0.567,0.604,118.107,7.847,-30.809,27.0,36.0
192987,0.426,0.814,0.496,120.099,15.427,-21.214,27.0,47.0
193034,0.421,1.071,0.440,53.115,17.725,-18.305,29.0,46.0
193078,0.371,0.792,0.493,7.092,15.305,-19.832,30.0,48.0
193130,0.288,0.692,0.563,32.618,10.053,-19.405,176.0,48.0
193175,0.307,0.748,0.548,67.031,4.290,-17.267,28.0,54.0
193220,0.296,0.914,0.479,77.466,4.924,-10.405,38.0,57.0
193266,0.261,0.995,0.420,53.267,3.206,-11.527,38.0,80.0
193312,0.259,0.968,0.416,15.763,-0.565,-13.710,31.0,80.0
193358,0.248,0.829,0.462,16.229,0.656,-8.763,31.0,79.0
193404,0.257,0.938,0.421,28.481,1.908,-4.908,32.0,79.0
193453,0.234,0.907,0.391,23.771,2.244,-7.924,32.0,79.0
193499,0.248,0.994,0.384,6.069,2.771,-2.641,33.0,79.0
193545,0.247,0.865,0.399,-3.137,3.198,-5.298,31.0,79.0
193591,0.220,0.870,0.419,4.115,5.389,-6.290,32.0,79.0
193637,0.207,0.903,0.398,10.359,7.718,-5.099,37.0,79.0
193683,0.229,0.935,0.405,16.374,8.771,-3.656,34.0,79.0
193729,0.202,0.959,0.403,-5.985,3.107,-3.511,35.0,78.0
193775,0.208,0.883,0.502,0.885,1.817,-1.229,34.0,79.0
193821,0.233,0.984,0.407,43.649,3.947,7.076,34.0,78.0
193878,0.191,0.929,0.456,14.527,3.947,-0.214,160.0,78.0
193924,0.156,0.882,0.413,29.565,3.382,6.718,30.0,79.0
193970,0.207,0.885,0.374,32.015,4.603,8.840,32.0,79.0
194016,0.237,0.983,0.341,30.420,-0.008,1.557,36.0,78.0
194062,0.248,0.912,0.354,-4.542,-4.870,-4.389,37.0,79.0
194115,0.243,0.890,0.379,-1.580,0.397,-16.527,160.0,79.0
194169,0.201,0.839,0.383,16.328,2.244,-3.153,160.0,78.0
194215,0.255,1.001,0.363,0.076,3.298,-5.260,37.0,78.0
194269,0.224,0.849,0.418,-9.260,7.389,0.221,160.0,78.0
194322,0.204,0.920,0.410,15.733,9.427,6.427,160.0,79.0