Timestamp(ms),AccelX(g),AccelY(g),AccelZ(g),GyroX(deg/s),GyroY(deg/s),GyroZ(deg/s),DistanceLeft(cm),DistanceRight(cm)
470681,-0.135,0.075,1.085,-5.954,-10.321,-7.718,0.0,0.0
470736,-0.191,0.145,1.047,25.855,-11.183,-13.634,29.0,0.0
470802,-0.161,0.245,1.105,-37.947,-26.664,-21.672,0.0,0.0
470863,0.011,0.047,1.168,-27.198,-47.809,-43.153,90.0,0.0
470923,-0.019,-0.030,1.077,-24.550,-35.015,-77.382,92.0,0.0
470979,-0.050,0.417,0.953,-54.794,-25.672,-54.092,46.0,0.0
471032,-0.026,0.409,0.944,-17.962,-29.443,-2.901,45.0,135.0
471085,0.109,0.515,0.874,-23.145,-27.718,60.893,45.0,138.0
471141,0.122,0.050,0.928,-77.229,-42.634,76.382,39.0,0.0
471196,0.184,-0.363,0.960,-5.038,-41.725,80.954,38.0,0.0
471252,0.160,-0.266,0.824,-16.733,-17.000,41.611,43.0,0.0
471312,0.126,-0.523,0.906,-30.870,4.580,-9.008,44.0,0.0
471368,0.100,-0.435,0.911,-8.244,26.832,-54.466,40.0,0.0
471425,0.208,-0.306,1.074,30.885,49.443,-87.886,40.0,0.0
471478,0.023,0.113,1.077,59.221,59.198,-107.794,57.0,141.0
471533,-0.132,0.466,1.031,-63.962,49.198,-82.847,72.0,139.0
471587,-0.228,0.130,1.109,-37.069,13.947,-13.374,70.0,141.0
471642,-0.135,0.166,1.028,-13.634,-29.656,46.069,67.0,142.0
471699,-0.030,0.011,0.991,-7.916,-47.794,89.420,51.0,0.0
471755,-0.113,-0.203,0.922,-3.702,-68.099,114.748,39.0,0.0
471815,-0.011,-0.208,0.844,-18.519,-65.939,112.458,38.0,0.0
471870,0.126,-0.466,0.922,-51.588,-47.595,74.405,37.0,0.0
471926,0.283,-0.696,0.965,-18.267,-13.603,21.336,36.0,0.0
471983,0.198,-0.516,0.870,5.893,21.038,-33.718,38.0,0.0
472041,0.106,-0.466,0.845,33.557,35.206,-72.626,79.0,0.0
472097,0.121,-0.226,0.836,35.786,59.107,-98.206,48.0,0.0
472155,0.006,-0.091,0.981,17.595,86.580,-116.641,49.0,0.0
472209,-0.292,0.168,1.128,-11.397,63.160,-91.649,69.0,140.0
472264,-0.185,0.269,1.221,-3.794,12.939,-24.466,71.0,138.0
472322,-0.098,0.159,1.172,9.679,-27.443,25.573,71.0,138.0
472375,-0.024,0.166,1.071,7.168,-48.046,64.344,53.0,139.0
472432,-0.086,0.067,0.980,-16.130,-60.756,89.176,50.0,0.0
472488,-0.103,-0.160,0.891,-12.794,-79.015,112.221,42.0,0.0
472545,0.067,-0.173,0.844,-30.183,-64.794,115.802,42.0,0.0
472601,0.321,-0.417,0.938,-50.908,-47.290,74.840,38.0,0.0
472657,0.315,-0.473,0.919,-10.603,-11.656,32.313,38.0,0.0
472714,0.247,-0.403,0.921,18.557,10.496,2.229,37.0,0.0
472773,0.014,-0.198,0.828,44.321,21.313,-2.641,38.0,0.0
472829,0.073,-0.077,0.820,22.565,22.260,11.809,38.0,0.0
472886,0.171,-0.164,0.974,17.260,45.328,18.015,51.0,0.0
472942,0.090,0.066,0.965,1.664,66.397,26.176,38.0,0.0
472998,-0.068,0.085,1.085,-18.710,73.237,57.832,39.0,0.0
473055,-0.168,0.084,1.270,-8.947,59.359,110.137,37.0,0.0
473111,-0.187,0.186,1.211,0.206,32.664,164.687,43.0,0.0
473177,-0.242,0.100,0.990,-46.389,-26.206,176.481,0.0,0.0
473233,-0.146,-0.338,1.098,-40.275,-59.595,166.771,30.0,0.0
473291,-0.112,-0.402,1.104,-16.542,-72.794,135.389,18.0,0.0
473347,-0.109,-0.365,1.054,-31.198,-64.626,87.298,17.0,0.0
473402,-0.078,-0.435,1.076,-24.779,-69.672,29.855,16.0,0.0
473457,0.002,-0.465,0.983,-8.168,-59.481,-28.458,19.0,0.0
473555,0.171,-0.236,0.757,25.305,15.489,-100.115,23.0,0.0
473612,0.137,-0.095,0.613,-4.031,94.374,-131.931,28.0,0.0
473677,-0.033,-0.115,0.521,-39.779,173.313,-137.802,0.0,0.0
473743,-0.638,0.205,1.061,3.176,178.886,-51.588,0.0,0.0
473799,-0.726,0.102,1.166,-28.481,32.710,3.336,30.0,0.0
473858,-0.413,-0.245,1.189,32.542,-54.275,13.824,30.0,0.0
473915,-0.210,-0.138,1.098,27.588,-54.405,9.031,44.0,0.0
473971,-0.183,-0.261,1.105,-29.176,-42.092,-17.748,38.0,0.0
474028,-0.147,-0.405,1.101,-22.985,-28.893,-49.160,37.0,0.0
474085,-0.158,-0.327,1.005,-16.389,-18.855,-80.435,48.0,0.0
474142,-0.134,-0.266,0.969,-37.305,-8.145,-102.328,49.0,0.0
474200,-0.137,-0.326,1.057,4.511,-7.656,-99.740,51.0,0.0
474257,-0.135,-0.114,0.947,27.603,-26.328,-80.321,57.0,0.0
474317,-0.112,-0.054,0.858,41.595,-70.145,-68.931,51.0,0.0
474375,0.002,-0.049,0.800,108.580,-105.588,-50.618,57.0,0.0
474429,0.294,0.100,0.643,130.656,-79.939,-17.985,60.0,136.0
474483,0.481,0.257,0.663,86.634,-12.191,-8.237,65.0,135.0
474537,0.322,0.354,0.700,-12.710,57.260,-9.389,58.0,135.0
474591,0.164,0.219,0.862,-86.214,88.557,-22.947,60.0,134.0
474648,-0.002,-0.022,1.135,-90.450,77.466,-7.153,50.0,0.0
474705,-0.070,-0.164,1.246,14.336,52.137,9.855,49.0,0.0
474763,-0.124,-0.046,1.198,57.679,9.779,8.084,46.0,0.0
474823,-0.066,0.110,1.074,73.779,6.893,14.198,51.0,0.0
474880,0.001,0.155,1.022,46.565,8.443,9.282,45.0,0.0
474937,-0.059,0.215,0.979,13.481,27.466,1.092,46.0,0.0
474994,-0.102,0.171,1.100,-10.504,10.122,-10.084,54.0,0.0
475051,-0.180,0.226,1.026,32.046,-9.183,8.855,48.0,0.0
475108,-0.094,0.280,0.951,9.656,-3.435,8.901,48.0,0.0
475165,-0.061,0.219,1.020,-5.458,-5.824,12.710,51.0,0.0
475223,-0.038,0.268,0.981,-3.260,-3.527,6.176,50.0,0.0
475280,-0.102,0.286,0.994,-11.359,-0.374,6.038,54.0,0.0
475340,-0.380,0.558,1.114,-75.534,-40.672,56.527,48.0,0.0
475398,-0.088,0.100,1.210,-82.649,-81.328,87.160,50.0,0.0
475455,0.290,0.041,1.061,34.534,-69.458,122.115,52.0,0.0
475512,0.361,0.189,0.890,37.550,-28.450,121.863,50.0,0.0
475564,0.199,0.159,0.968,43.710,-6.649,122.641,37.0,98.0
475628,0.255,0.191,0.952,63.328,10.603,136.977,0.0,100.0
475678,0.181,0.245,0.873,31.641,24.244,122.328,30.0,103.0
475732,0.125,0.276,0.791,-28.107,32.634,100.809,27.0,0.0
475788,0.048,0.030,0.900,-67.611,19.962,74.603,24.0,0.0
475845,0.052,-0.100,0.992,-42.664,3.962,50.092,22.0,0.0
475899,0.136,-0.024,1.008,-39.573,-2.000,23.733,21.0,0.0
475955,0.158,-0.196,1.054,-44.145,-4.802,-8.145,22.0,0.0
476010,0.119,-0.228,1.051,29.977,-2.817,-5.977,29.0,0.0
476064,0.132,0.044,0.964,39.702,9.130,-0.641,30.0,0.0
476120,0.142,0.110,0.991,33.885,10.382,8.924,30.0,0.0
476175,0.096,0.146,0.969,27.992,5.198,13.473,25.0,0.0
476230,0.099,0.200,0.960,-1.099,-9.885,9.985,30.0,0.0
476284,0.182,0.158,0.964,-20.076,-13.595,2.107,26.0,0.0
476343,0.168,0.035,0.996,-14.481,-0.115,3.916,27.0,0.0
476440,0.132,0.005,1.031,-35.092,-5.656,-1.504,22.0,0.0
476495,0.170,0.028,0.970,-47.748,-3.924,-10.328,29.0,0.0
476551,0.181,-0.077,0.966,-48.031,0.267,-16.733,27.0,0.0
476606,0.180,-0.245,1.040,-9.053,5.496,-13.542,22.0,0.0
476660,0.273,0.049,0.932,40.504,2.870,0.336,23.0,0.0
476716,0.174,0.100,1.041,26.542,-2.084,8.656,27.0,0.0
476770,0.143,0.036,1.020,-32.969,-1.489,4.855,23.0,0.0
476825,0.134,-0.099,1.037,-10.748,7.664,11.145,25.0,0.0
476882,0.113,-0.027,1.045,4.718,-0.023,17.656,22.0,0.0
476938,0.113,-0.057,0.999,-4.305,-0.702,11.397,25.0,0.0
476993,0.206,-0.073,0.950,29.351,2.527,8.611,23.0,0.0
477047,0.150,0.152,0.949,19.137,0.244,10.397,22.0,0.0
477103,0.115,0.030,0.995,-6.580,1.748,9.336,23.0,0.0
477157,0.146,-0.057,1.068,-16.847,-3.237,-0.061,26.0,0.0
477212,0.164,0.106,0.967,-14.344,-1.595,0.397,23.0,0.0
477267,0.121,-0.111,1.062,-15.130,0.298,-1.901,29.0,0.0
477323,0.087,-0.010,1.001,11.145,3.145,2.847,30.0,0.0
477390,0.098,0.091,0.999,1.947,0.519,6.985,0.0,0.0
477446,0.180,0.109,0.942,-48.427,-1.489,7.519,23.0,0.0
477501,0.156,0.075,0.965,-102.351,4.206,4.076,26.0,0.0
477556,0.082,-0.347,0.927,-115.664,7.290,-9.267,29.0,0.0
477611,0.131,-0.539,1.096,-57.992,3.053,0.893,23.0,0.0
477666,0.114,-0.474,0.945,50.725,-6.420,4.603,22.0,0.0
477731,0.083,-0.120,1.055,50.618,-10.366,6.031,0.0,0.0
477786,0.156,-0.135,1.028,-7.565,-8.954,1.290,25.0,0.0
477851,0.077,-0.181,1.002,19.122,-6.603,5.947,0.0,0.0
477908,0.071,-0.232,1.023,62.267,-7.275,-0.168,22.0,0.0
477964,0.056,0.043,0.853,-5.023,-0.672,-11.779,24.0,0.0
478019,-0.074,-0.356,1.054,-60.878,-18.076,-52.847,30.0,0.0
478070,0.052,-0.080,0.890,-41.122,-36.450,-72.198,37.0,108.0
478120,0.173,-0.335,0.977,-14.099,-49.229,-90.527,37.0,106.0
478171,0.400,-0.162,1.003,21.618,-45.359,-84.496,41.0,103.0
478231,0.590,-0.062,1.042,-34.198,-31.756,-96.595,0.0,102.0
478290,0.613,-0.253,1.165,8.374,-0.977,-85.847,0.0,101.0
478346,0.534,0.173,0.936,-47.389,0.992,-92.008,31.0,0.0
478405,0.315,-0.277,1.004,-13.931,3.305,-89.519,46.0,0.0
478461,0.360,0.184,0.789,23.275,13.489,-60.794,43.0,0.0
478514,0.237,-0.022,0.855,-7.573,23.191,-65.389,41.0,136.0
478566,0.155,0.209,0.717,7.198,41.130,-44.229,39.0,134.0
478618,0.054,0.165,0.684,-15.031,51.115,-36.374,41.0,134.0
478671,-0.062,0.168,0.673,-2.939,38.214,-3.252,41.0,133.0
478724,0.071,0.080,0.861,-2.511,31.282,22.473,41.0,134.0
478776,0.182,0.088,1.071,1.015,40.802,32.382,46.0,134.0
478831,0.129,0.014,1.249,19.718,27.137,18.061,96.0,134.0
478889,0.085,0.082,1.355,1.359,16.397,21.435,94.0,134.0
478945,0.079,0.003,1.413,-37.634,-2.748,6.206,93.0,134.0
478994,0.101,-0.082,1.327,-40.763,-15.634,-5.046,37.0,74.0
479046,0.191,-0.045,1.236,-42.374,-11.267,-24.298,95.0,75.0
479098,0.201,-0.093,1.064,-80.886,-3.351,-55.420,95.0,76.0
479151,0.107,-0.203,0.957,-54.176,11.565,-90.099,96.0,78.0
479256,-0.005,-0.046,0.638,-50.244,18.092,-71.321,0.0,135.0
479318,0.018,-0.172,0.654,-63.901,2.420,-21.496,0.0,136.0
479382,0.197,-0.256,0.837,-44.603,3.954,29.321,0.0,136.0
479448,0.216,-0.385,1.096,-53.893,1.626,25.595,0.0,0.0
479513,0.170,-0.622,1.304,-22.595,-16.802,9.992,0.0,0.0
479579,0.124,-0.568,1.212,20.527,-39.130,-22.328,0.0,0.0
479644,0.083,-0.414,1.032,57.229,-56.588,-43.588,0.0,0.0
479710,0.140,-0.264,0.894,94.802,-59.924,-55.260,0.0,0.0
479774,0.242,0.074,0.684,42.740,-36.221,-44.824,0.0,0.0
479840,0.351,0.059,0.558,-65.634,-0.565,-29.069,0.0,0.0
479905,0.334,-0.235,0.667,-53.618,12.244,-10.626,0.0,0.0
479974,0.442,-0.172,0.780,24.985,15.366,-3.863,0.0,0.0
480039,0.416,-0.081,0.938,16.840,28.191,-12.855,0.0,0.0
480105,0.322,-0.120,1.144,-7.092,37.672,-28.809,0.0,0.0
480171,0.133,-0.245,1.210,-27.985,23.794,-50.046,0.0,0.0
480236,0.123,-0.277,1.182,18.534,1.786,-51.985,0.0,0.0
480302,0.149,-0.120,1.025,23.076,-13.496,-48.366,0.0,0.0
480364,0.208,-0.062,0.927,-1.260,-16.725,-44.626,160.0,0.0
480429,0.238,-0.178,0.828,-5.748,-16.305,-42.786,164.0,0.0
480492,0.227,-0.069,0.681,-18.359,4.458,-53.496,169.0,0.0
480560,0.223,-0.166,0.647,0.634,24.519,-58.137,175.0,0.0
480625,0.212,-0.074,0.660,28.183,48.542,-67.733,0.0,0.0
480691,0.082,0.027,0.638,41.290,73.305,-83.519,0.0,0.0
480756,0.049,0.234,0.753,78.565,104.359,-104.183,0.0,0.0
480822,-0.362,0.393,0.700,96.870,105.786,-126.076,0.0,0.0
480887,-0.674,0.781,0.578,-36.130,125.435,-115.053,0.0,0.0
480946,-0.516,0.349,1.067,40.092,121.924,-60.053,78.0,0.0
481004,-0.764,0.826,1.191,42.313,118.214,-101.489,79.0,0.0
481063,-1.057,0.419,1.294,8.229,71.550,-111.664,80.0,0.0
481125,-0.987,0.416,1.121,60.260,2.122,29.824,83.0,0.0
481184,-0.813,0.755,0.915,20.115,-30.885,83.176,82.0,0.0
481243,-0.779,0.332,0.820,-55.412,-52.405,73.985,81.0,0.0
481302,-0.601,0.114,0.765,-3.183,-61.221,92.130,81.0,0.0
481360,-0.457,0.299,0.643,26.863,-56.588,91.382,83.0,0.0
481426,-0.289,0.325,0.666,21.336,-39.786,65.908,0.0,0.0
481492,-0.223,0.321,0.648,2.015,-19.679,17.336,0.0,0.0
481558,-0.251,0.334,0.667,20.924,10.557,-21.893,0.0,0.0
481624,-0.444,0.423,0.749,34.099,4.802,-37.504,0.0,0.0
481692,-0.421,0.702,0.797,37.115,10.611,-25.534,0.0,0.0
481752,-0.466,0.624,0.782,-2.214,3.679,-36.099,90.0,0.0
481811,-0.500,0.559,0.724,3.267,5.466,-16.893,89.0,0.0
481870,-0.488,0.589,0.735,-35.489,3.351,-4.061,89.0,0.0
481930,-0.552,0.464,0.838,-7.122,-3.298,24.053,89.0,0.0
481989,-0.531,0.615,0.827,4.947,-17.267,55.458,88.0,0.0
482055,-0.442,0.616,0.733,7.458,-25.290,59.916,0.0,0.0
482120,-0.320,0.596,0.654,-5.893,-13.145,59.962,0.0,0.0
482186,-0.247,0.479,0.667,-21.687,-1.275,49.977,0.0,0.0
482254,-0.218,0.397,0.698,-23.496,14.321,25.802,0.0,0.0
482321,-0.374,0.370,0.778,5.282,21.053,5.580,0.0,0.0
482386,-0.446,0.756,0.870,20.885,16.092,17.267,0.0,0.0
482495,-0.501,0.603,1.004,-11.359,-33.366,46.374,0.0,0.0
482562,-0.303,0.643,0.808,17.130,-47.061,71.611,0.0,0.0
482627,-0.157,0.533,0.679,19.962,-46.847,65.641,0.0,0.0
482689,0.005,0.607,0.547,16.870,-17.366,48.313,0.0,122.0
482750,0.040,0.518,0.593,-40.504,8.069,2.191,0.0,124.0
482816,-0.115,0.349,0.714,-25.832,22.878,-32.679,0.0,0.0
482884,-0.160,0.561,0.818,-12.511,30.573,-54.000,0.0,0.0
482951,-0.302,0.580,0.898,-18.405,22.962,-54.916,0.0,0.0
483012,-0.350,0.582,0.917,17.252,0.511,-28.718,0.0,120.0
483078,-0.292,0.709,0.861,19.198,-11.527,-12.916,0.0,0.0
483143,-0.272,0.732,0.841,8.420,-22.168,22.183,0.0,0.0
483210,-0.284,0.657,0.776,13.473,-29.626,33.069,0.0,0.0
483275,-0.250,0.708,0.733,12.290,-34.206,44.618,0.0,0.0
483346,-0.152,0.762,0.729,0.511,-30.237,50.916,0.0,0.0
483410,-0.052,0.721,0.735,-20.122,-28.710,55.702,0.0,0.0
483478,-0.020,0.713,0.762,-17.298,-29.779,70.351,0.0,0.0
483544,0.062,0.738,0.758,2.290,-35.107,90.397,0.0,0.0
483608,0.161,0.792,0.695,-22.420,-26.679,103.061,0.0,0.0
483673,0.204,0.673,0.758,-31.458,-20.053,112.710,0.0,0.0
483738,0.319,0.541,0.794,-28.908,-18.863,119.282,0.0,0.0
483803,0.399,0.431,0.795,-16.771,-16.740,118.626,0.0,0.0
483859,0.513,0.470,0.785,-28.153,-5.542,123.351,51.0,0.0
483923,0.487,0.397,0.789,-78.031,-5.366,119.092,0.0,0.0
483989,0.559,0.121,0.870,-66.412,-11.374,131.450,0.0,0.0
484047,0.611,-0.027,0.841,-7.763,-0.954,134.794,50.0,0.0
484100,0.653,-0.011,0.814,-18.397,16.084,124.855,39.0,125.0
484151,0.598,-0.082,0.738,-57.336,30.115,100.802,38.0,125.0
484205,0.573,-0.365,0.786,-69.336,44.237,63.229,87.0,126.0
484259,0.365,-0.370,0.844,-32.237,67.260,42.687,85.0,130.0
484321,0.210,-0.228,0.835,-31.740,70.321,38.153,0.0,128.0
484378,0.116,-0.301,0.902,-27.130,46.634,27.389,81.0,0.0
484436,0.111,-0.244,0.866,-1.145,27.954,38.466,83.0,0.0
484505,0.092,-0.276,0.830,-16.176,14.718,39.687,0.0,0.0
484562,0.142,-0.043,0.787,-34.794,18.290,63.573,75.0,0.0
484621,0.141,-0.281,0.844,4.634,13.427,52.069,74.0,0.0
484678,0.025,-0.318,0.870,40.527,17.107,51.435,74.0,0.0
484736,-0.054,-0.244,0.864,27.504,14.916,45.450,70.0,0.0
484794,-0.020,-0.332,0.950,36.511,14.382,48.527,70.0,0.0
484851,-0.060,-0.223,0.986,71.176,17.122,41.244,69.0,0.0
484902,-0.118,-0.171,0.966,62.878,16.824,33.214,68.0,95.0
484954,-0.145,-0.081,1.017,37.954,28.763,24.779,67.0,94.0
485014,-0.283,-0.136,1.118,38.435,32.015,15.588,64.0,0.0
485071,-0.326,-0.104,1.084,12.351,21.252,9.779,64.0,0.0
485129,-0.269,-0.075,1.052,33.336,11.664,3.427,63.0,0.0
485186,-0.154,0.020,1.057,29.450,-4.534,-6.176,64.0,0.0
485243,-0.123,0.014,1.035,18.260,-7.954,-8.275,64.0,0.0
485301,-0.083,0.065,1.000,13.809,4.756,-6.809,64.0,0.0
485358,-0.095,0.025,1.039,-4.595,18.649,-6.412,63.0,0.0
485415,-0.153,0.058,1.250,54.855,-5.389,4.557,64.0,0.0
485473,-0.086,0.156,0.881,26.969,2.046,-1.145,62.0,0.0
485576,-0.116,0.179,0.977,-0.504,-2.687,0.992,56.0,0.0
485633,-0.150,0.139,0.989,-5.336,-4.092,2.511,58.0,0.0
485690,-0.135,0.095,1.027,-5.260,-5.916,6.221,58.0,0.0
485746,-0.130,0.146,1.018,10.031,-2.534,8.702,51.0,0.0
485804,-0.128,0.260,0.958,-5.656,-2.939,1.389,55.0,0.0
485860,-0.116,0.120,1.026,-17.420,-1.550,3.565,54.0,0.0
485917,-0.144,0.070,1.021,6.435,-1.634,7.137,60.0,0.0
485974,-0.136,0.168,0.969,3.015,-2.221,5.023,51.0,0.0
486031,-0.138,0.137,1.034,1.046,-3.282,7.435,52.0,0.0
486087,-0.199,0.120,1.030,14.336,-7.863,9.229,53.0,0.0
486147,-0.143,0.200,1.052,4.290,-20.855,16.733,50.0,0.0
486203,-0.099,0.322,1.019,8.435,-30.954,23.290,42.0,0.0
486260,-0.027,0.373,1.047,-47.237,-44.809,25.435,57.0,0.0
486318,-0.019,0.278,1.021,-84.298,-45.718,37.870,58.0,0.0
486374,0.046,0.217,0.910,-148.908,-42.550,51.412,43.0,0.0
486430,-0.017,0.093,0.858,-205.939,-39.137,58.702,46.0,0.0
486487,0.025,-0.461,0.848,-223.008,-55.863,68.427,43.0,0.0
486543,0.071,-0.580,0.681,-175.061,-59.420,68.015,43.0,0.0
486601,0.101,-0.763,0.598,-150.718,-54.573,67.435,16.0,0.0
486656,0.126,-0.979,0.600,-97.496,-42.779,68.466,16.0,0.0
486711,0.105,-0.823,0.521,-43.939,-34.260,58.924,15.0,0.0
486765,0.104,-0.870,0.517,-19.374,-29.305,43.656,14.0,0.0
486820,0.091,-0.786,0.458,-19.382,-26.779,29.771,14.0,0.0
486875,0.065,-0.881,0.494,-12.725,-22.031,24.427,13.0,0.0
486930,0.078,-0.870,0.511,-21.901,-19.527,24.153,12.0,0.0
486984,0.025,-0.921,0.530,-11.763,-16.443,25.893,13.0,0.0
487028,0.031,-0.846,0.484,-10.290,-18.023,25.168,12.0,6.0
487084,-0.000,-0.913,0.471,-2.328,-14.962,21.099,12.0,5.0
487127,0.002,-0.849,0.442,2.504,-13.863,14.466,14.0,5.0
487170,0.009,-0.879,0.479,-1.336,-10.901,10.679,12.0,3.0
487214,0.003,-0.853,0.490,3.542,-6.649,6.893,12.0,6.0
487257,0.010,-0.855,0.514,4.924,-5.504,3.580,12.0,6.0
487301,0.016,-0.844,0.535,4.427,-4.618,1.618,13.0,5.0
487344,0.025,-0.859,0.518,3.344,-5.237,-0.061,13.0,5.0
487387,0.051,-0.870,0.526,1.481,-5.252,3.298,13.0,5.0
487431,0.069,-0.871,0.524,4.420,-3.603,5.183,11.0,5.0
487477,0.038,-0.878,0.507,4.183,-1.137,3.435,12.0,5.0
487520,-0.008,-0.927,0.515,30.695,1.824,-4.206,12.0,6.0
487564,0.020,-0.907,0.510,56.969,9.649,-16.344,16.0,9.0
487609,0.081,-0.999,0.604,80.450,15.649,-43.817,17.0,16.0
487663,0.137,-1.019,0.693,133.473,9.824,-61.756,17.0,0.0
487729,0.163,-0.729,0.736,160.298,-17.344,-86.466,0.0,0.0
487784,0.156,-0.354,0.821,144.947,-51.214,-76.107,22.0,0.0
487840,0.284,-0.168,0.797,99.435,-48.275,-56.725,36.0,0.0
487891,0.352,-0.159,0.813,16.893,-24.107,-58.099,30.0,106.0
487954,0.362,-0.364,0.938,37.794,-4.847,-53.870,0.0,103.0
488005,0.279,-0.082,0.946,43.817,-14.443,-52.321,36.0,101.0
488055,0.368,-0.011,0.952,24.634,-31.260,-51.031,37.0,99.0
488107,0.415,-0.153,0.992,53.466,-43.000,-48.382,42.0,98.0
488166,0.437,0.160,0.838,40.137,-45.511,-38.511,0.0,97.0
488260,0.520,-0.014,0.874,-6.603,-42.061,-34.893,45.0,96.0
488320,0.472,0.040,0.850,20.794,-47.710,-28.992,0.0,96.0
488379,0.644,0.143,0.866,27.649,-34.168,-22.305,0.0,95.0
488432,0.619,0.149,0.832,-1.290,-37.473,-19.084,23.0,95.0
488492,0.662,0.008,0.819,22.656,-31.710,-12.847,0.0,95.0
488551,0.654,0.014,0.728,151.420,-30.061,15.214,0.0,93.0
488601,0.689,0.297,0.496,222.481,-26.221,36.267,36.0,92.0
488660,0.791,0.664,0.425,139.435,-24.267,39.183,0.0,91.0
488720,0.759,0.563,0.357,120.794,-5.588,33.832,0.0,91.0
488779,0.797,0.614,0.420,19.511,2.023,28.069,0.0,91.0
488829,0.777,0.479,0.416,47.924,10.206,36.588,36.0,91.0
488889,0.790,0.515,0.437,44.626,10.840,36.191,0.0,92.0
488941,0.783,0.524,0.422,9.023,10.122,26.702,30.0,92.0
488991,0.789,0.419,0.488,7.878,8.863,23.076,30.0,93.0
489040,0.811,0.418,0.493,3.084,3.053,13.198,29.0,93.0
489091,0.792,0.422,0.459,10.427,0.527,11.374,29.0,93.0
489140,0.765,0.404,0.487,13.878,-7.557,2.183,30.0,93.0
489190,0.787,0.516,0.417,8.863,-13.023,-2.351,30.0,93.0
489239,0.802,0.470,0.417,-1.374,-10.939,-6.527,30.0,93.0
489289,0.815,0.645,0.316,-7.237,-2.931,2.260,30.0,92.0
489338,0.802,0.509,0.403,-31.992,3.160,7.603,30.0,93.0
489389,0.804,0.531,0.391,-19.298,5.344,15.557,29.0,92.0
489436,0.794,0.393,0.447,-34.122,6.588,7.076,29.0,93.0
489486,0.782,0.399,0.448,-21.542,7.786,4.863,30.0,93.0
489535,0.794,0.600,0.398,-53.397,10.275,5.282,29.0,93.0
489583,0.795,0.609,0.432,-121.565,13.206,7.359,29.0,62.0
489631,0.739,0.216,0.590,-142.595,14.130,3.168,29.0,62.0
489679,0.765,0.344,0.529,-103.382,12.183,17.931,30.0,62.0
489730,0.756,0.159,0.610,-144.649,13.878,-1.267,38.0,96.0
489780,0.793,0.088,0.620,-148.573,20.069,-6.687,29.0,97.0
489833,0.755,-0.109,0.698,-105.458,26.672,-10.099,27.0,97.0
489884,0.719,-0.012,0.668,-75.260,35.840,-9.603,44.0,98.0
489935,0.683,0.036,0.684,-89.573,44.305,-7.260,43.0,98.0
489986,0.627,-0.081,0.764,-108.870,52.672,-1.626,43.0,99.0
490037,0.627,-0.149,0.815,-93.107,49.015,-0.015,41.0,100.0
490094,0.625,-0.227,0.745,-132.389,51.863,-16.130,44.0,0.0
490150,0.669,-0.633,0.854,-116.435,85.389,-17.183,43.0,0.0
490208,0.549,-0.485,0.783,-61.878,122.947,14.130,32.0,0.0
490270,0.283,-0.236,0.662,-104.405,151.901,9.145,46.0,0.0
490330,0.051,-0.647,0.814,-132.450,132.511,-16.527,45.0,0.0
490385,-0.022,-0.657,0.870,-56.313,110.710,-0.519,42.0,0.0
490441,-0.114,-0.608,0.874,-8.809,67.824,-9.229,49.0,0.0
490499,-0.022,-0.577,0.786,-16.573,48.611,-8.718,57.0,0.0
490554,-0.041,-0.813,0.841,55.878,43.099,-8.183,45.0,0.0
490610,-0.085,-0.621,0.800,68.420,47.038,-9.702,50.0,0.0
490668,-0.125,-0.753,0.946,47.878,42.779,-30.641,52.0,0.0
490724,-0.241,-0.727,0.960,86.053,30.863,-33.908,54.0,0.0
490781,-0.293,-0.774,1.097,170.809,-8.519,-57.985,60.0,0.0
490838,-0.221,-0.089,0.941,121.710,-13.328,-42.756,65.0,134.0
490891,-0.073,0.062,1.063,-23.626,-24.840,-77.466,70.0,131.0
490995,-0.127,-0.497,1.205,-7.580,-33.550,-90.153,0.0,128.0
491057,-0.118,-0.185,0.982,38.908,-47.092,-81.221,0.0,127.0
491117,0.036,-0.081,0.912,-49.725,-57.511,-83.084,0.0,125.0
491173,0.063,-0.333,0.838,41.328,-61.336,-70.275,117.0,124.0
491234,0.245,-0.019,0.585,37.878,-47.260,-54.443,123.0,0.0
491294,0.388,0.315,0.349,26.076,-20.458,-35.885,127.0,0.0
491363,0.450,-0.101,0.574,-37.191,15.626,-20.687,0.0,0.0
491427,0.295,-0.054,0.848,7.450,37.145,-14.878,0.0,0.0
491493,0.263,0.132,1.156,-7.427,38.603,-14.183,0.0,0.0
491552,0.183,-0.209,1.429,-27.992,19.336,-38.954,107.0,0.0
491612,0.137,-0.046,1.269,-4.855,-1.511,-45.229,106.0,0.0
491672,0.115,-0.096,1.146,3.267,-21.603,-43.290,109.0,0.0
491732,0.190,-0.105,1.059,-28.702,-33.405,-48.710,111.0,0.0
491792,0.243,-0.179,0.973,-29.962,-34.901,-47.405,113.0,0.0
491852,0.317,-0.161,0.987,23.687,-33.565,-48.183,117.0,0.0
491917,0.304,-0.093,0.966,23.466,-31.397,-66.779,122.0,0.0
491977,0.299,0.069,0.902,29.504,-31.740,-65.580,127.0,0.0
492039,0.313,0.203,0.831,4.221,-33.008,-57.305,132.0,0.0
492100,0.388,0.111,0.850,11.145,-33.855,-46.710,137.0,0.0
492162,0.422,0.209,0.796,24.870,-35.099,-41.641,141.0,0.0
492224,0.485,0.281,0.783,17.779,-32.328,-35.824,147.0,0.0
492290,0.498,0.329,0.708,31.374,-28.687,-38.031,0.0,0.0
492354,0.515,0.436,0.646,44.244,-25.580,-21.817,0.0,0.0
492423,0.533,0.499,0.585,42.725,-11.580,-18.969,0.0,0.0
492487,0.498,0.473,0.712,2.595,-8.542,-29.244,0.0,0.0
492553,0.507,0.625,0.667,44.282,-10.824,-21.359,0.0,0.0
492615,0.517,0.608,0.702,57.397,-9.603,-13.038,162.0,0.0
492679,0.513,0.667,0.707,-3.336,-0.046,-23.641,164.0,0.0
492742,0.469,0.698,0.712,23.870,1.229,-26.038,165.0,0.0
492805,0.409,0.711,0.702,3.466,0.084,-24.244,165.0,0.0
492868,0.409,0.692,0.683,5.679,-6.977,-13.405,167.0,0.0
492932,0.402,0.763,0.663,24.107,-10.771,-3.824,167.0,0.0
492998,0.401,0.778,0.638,22.809,-13.130,0.763,167.0,0.0
493062,0.418,0.748,0.546,17.595,-14.267,0.634,167.0,0.0
493124,0.427,0.576,0.569,25.000,-1.237,-10.679,168.0,0.0
493188,0.394,0.806,0.471,1.015,14.771,-20.931,168.0,0.0
493251,0.364,0.761,0.508,43.885,16.008,-13.901,167.0,0.0
493315,0.505,0.650,0.303,76.740,31.695,-19.244,168.0,0.0
493378,0.248,0.791,0.345,-35.069,25.061,9.931,167.0,0.0
493442,0.234,0.669,0.585,0.405,3.237,21.588,166.0,0.0
493505,0.193,0.756,0.817,-34.130,6.244,17.588,165.0,0.0
493571,0.278,0.952,0.516,-29.489,-20.649,13.710,164.0,0.0
493634,0.340,0.683,0.621,-29.939,-28.664,36.924,163.0,0.0
493698,0.413,0.856,0.552,19.832,-21.718,56.076,162.0,0.0
493760,0.438,0.937,0.538,12.588,-20.870,77.504,160.0,0.0
493824,0.487,0.878,0.498,15.267,-6.504,75.489,158.0,0.0
493886,0.549,0.759,0.525,38.099,-7.870,83.626,154.0,0.0
493948,0.556,0.841,0.384,62.771,6.893,101.580,151.0,0.0
494014,0.636,0.764,0.370,42.863,14.366,115.527,0.0,0.0
494080,0.652,0.461,0.465,23.527,12.023,120.321,0.0,0.0
494191,0.790,0.380,0.374,87.672,17.397,111.573,0.0,0.0
494257,0.794,0.212,0.431,55.397,23.534,86.137,0.0,0.0
494321,0.824,0.122,0.448,39.901,14.099,78.550,0.0,0.0
494379,0.875,0.113,0.441,20.916,9.420,67.153,57.0,0.0
494444,0.873,0.083,0.420,-3.061,9.069,49.969,0.0,0.0
494500,0.927,0.077,0.469,-12.641,9.985,37.466,51.0,0.0
494566,0.885,0.066,0.508,-36.870,9.168,15.809,0.0,0.0
494631,0.886,-0.029,0.575,-20.443,4.046,13.779,0.0,0.0
494697,0.856,0.033,0.477,-0.145,-9.832,19.977,0.0,0.0
494753,0.893,0.011,0.363,3.916,-9.160,23.374,49.0,0.0
494822,0.934,0.047,0.442,-5.832,-7.023,23.061,0.0,0.0
494878,0.948,-0.033,0.446,-9.008,-3.763,19.122,40.0,0.0
494935,0.913,-0.093,0.466,-3.191,-8.557,15.244,41.0,0.0
495000,0.899,-0.039,0.428,7.412,-10.160,14.855,0.0,0.0
495056,0.919,-0.049,0.392,3.901,-10.725,15.687,44.0,0.0
495113,0.940,-0.099,0.364,7.290,-10.420,9.779,44.0,0.0
495169,0.956,-0.037,0.354,-0.931,-5.672,4.305,43.0,0.0
495226,0.950,-0.026,0.365,-3.099,-3.679,0.580,44.0,0.0
495282,0.938,-0.011,0.391,-7.824,-3.962,-1.176,37.0,0.0
495341,0.938,0.002,0.406,0.435,-5.321,0.282,36.0,0.0
495397,0.944,0.045,0.377,2.122,-6.534,2.863,34.0,0.0
495454,0.929,0.021,0.356,-2.565,-7.015,3.443,35.0,0.0
495509,0.943,0.022,0.359,3.611,-7.870,10.366,33.0,0.0
495565,0.935,-0.009,0.324,5.466,-9.053,14.412,32.0,0.0
495631,0.952,-0.034,0.293,7.061,-5.443,15.885,0.0,0.0
495696,0.999,-0.047,0.295,19.611,3.168,3.046,0.0,0.0
495762,0.975,-0.046,0.306,26.527,8.863,-2.382,0.0,0.0
495827,0.929,0.040,0.335,-9.267,9.687,-0.969,0.0,0.0
495896,0.952,0.004,0.414,-8.863,8.901,-4.847,0.0,0.0
495962,0.919,0.089,0.377,5.443,8.000,-0.130,0.0,0.0
496026,0.919,0.052,0.369,-0.252,9.298,5.420,0.0,0.0
496092,0.935,0.013,0.337,0.985,10.000,9.313,0.0,0.0
496157,0.911,-0.004,0.334,2.603,15.893,5.137,0.0,0.0
496214,0.934,0.000,0.319,40.695,24.267,13.740,37.0,0.0
496279,0.913,-0.089,0.387,89.481,28.069,15.847,0.0,0.0
496332,0.850,-0.489,0.568,250.130,28.145,11.122,32.0,153.0
496398,0.910,0.430,0.045,250.130,23.710,8.504,0.0,0.0
496466,0.856,0.500,0.184,135.504,26.489,-40.885,0.0,0.0
496529,0.815,0.601,0.232,37.176,37.405,-61.542,0.0,137.0
496590,0.709,0.403,0.353,59.962,42.847,-46.435,0.0,132.0
496652,0.658,0.573,0.332,64.901,46.679,-38.954,0.0,126.0
496713,0.586,0.601,0.406,53.290,41.290,-45.473,0.0,121.0
496771,0.477,0.769,0.383,83.076,30.695,-56.550,0.0,50.0
496827,0.370,0.700,0.355,106.824,19.412,-50.794,0.0,43.0
496884,0.296,0.932,0.220,71.053,9.313,-52.412,0.0,39.0
496940,0.314,1.013,0.132,94.160,4.008,-56.863,193.0,34.0
496996,0.212,0.911,0.073,67.473,-4.824,-63.031,142.0,30.0
497048,0.193,1.116,-0.002,19.336,-3.885,-70.656,143.0,27.0
497100,0.218,1.150,0.028,42.832,-5.718,-60.954,145.0,23.0
497153,0.169,1.023,0.053,38.649,-0.985,-42.351,148.0,21.0
497249,0.052,1.081,-0.004,-11.435,-3.702,-33.550,151.0,17.0
497302,0.075,1.210,-0.062,10.969,-1.496,-16.282,152.0,16.0
497354,0.044,1.061,-0.025,-11.664,-5.122,-6.290,152.0,17.0
497406,0.049,1.162,-0.091,-1.145,-2.679,-0.450,152.0,16.0
497459,0.056,1.043,-0.030,-46.359,-3.420,2.122,152.0,16.0
497515,0.050,1.135,-0.072,-38.664,-3.786,7.771,152.0,16.0
497567,0.065,0.953,0.058,-87.290,-0.786,2.496,152.0,16.0
497619,0.094,1.167,0.043,-97.901,1.321,3.504,151.0,17.0
497672,0.088,1.223,0.084,-225.733,7.641,-8.748,151.0,19.0
497728,0.035,0.960,0.244,-250.137,3.344,-24.954,0.0,23.0
497787,-0.031,0.903,0.272,-250.137,-1.115,-43.443,0.0,85.0
497850,0.034,-0.469,0.831,-250.137,4.595,-48.015,0.0,145.0
497913,0.105,-0.597,1.124,-241.321,1.260,-32.573,0.0,148.0
497979,-0.021,-0.631,0.744,-250.137,-13.649,-48.023,0.0,0.0
498038,0.118,-0.674,0.532,-250.137,-25.824,-10.969,27.0,0.0
498095,0.072,-1.391,0.406,-250.137,-27.634,12.237,24.0,113.0
498145,0.052,-0.844,0.062,-168.473,-14.137,43.244,23.0,113.0
498194,0.202,-1.285,0.227,-122.069,0.198,43.473,22.0,113.0
498244,0.017,-1.024,0.102,-10.405,34.252,22.244,21.0,114.0
498293,-0.072,-1.132,0.224,-26.328,22.618,8.237,21.0,114.0
498343,-0.108,-0.997,0.111,-10.168,12.450,8.328,21.0,114.0
498394,-0.001,-1.067,0.120,-1.954,3.069,-0.664,21.0,114.0
498446,-0.032,-1.047,0.096,2.031,5.145,-1.366,22.0,113.0
498495,-0.000,-0.997,0.067,2.366,-1.809,-4.802,21.0,114.0
498545,0.030,-0.973,0.057,25.336,-14.061,-1.611,22.0,113.0
498594,0.050,-0.942,0.025,-4.244,-7.733,-2.153,23.0,112.0
498644,0.002,-0.988,0.039,16.740,-11.802,4.786,23.0,112.0
498694,-0.012,-0.966,0.022,2.031,-10.992,4.550,22.0,113.0
498744,0.043,-1.037,0.061,21.191,-6.221,6.962,22.0,113.0
498793,0.007,-1.007,0.077,21.267,-4.076,2.527,23.0,112.0
498843,0.018,-1.052,0.115,25.847,-2.137,5.847,23.0,112.0
498895,-0.005,-0.998,0.144,67.595,-5.618,1.588,24.0,112.0
498946,-0.048,-1.378,0.357,142.969,-17.595,-5.099,24.0,112.0
498996,0.070,-0.581,0.218,63.137,-13.137,-10.389,25.0,114.0
499047,0.060,-1.349,0.570,136.458,-12.458,-17.763,26.0,146.0
499102,0.074,-0.817,0.454,72.237,-12.511,-22.130,27.0,0.0
499159,0.131,-1.111,0.523,250.130,-6.977,-12.603,31.0,0.0
499217,0.122,-0.777,0.538,250.130,-24.878,-0.969,89.0,0.0
499278,0.190,-0.074,0.703,250.130,-4.702,-7.954,0.0,139.0
499343,0.044,-0.196,1.065,39.969,-13.481,-42.237,0.0,135.0
499401,-0.044,-0.028,0.980,81.771,-28.321,-18.107,0.0,83.0
499460,0.138,0.085,1.058,50.008,-36.336,-25.977,0.0,79.0
499520,0.189,0.152,1.089,-66.374,-22.260,-54.954,0.0,123.0
499580,0.001,-0.065,0.926,-174.031,1.885,-99.351,0.0,122.0
499646,0.110,-0.306,1.026,-86.695,6.206,-105.053,0.0,0.0
499712,0.118,0.043,0.840,7.031,9.863,-94.886,0.0,0.0
499772,0.145,0.155,0.874,-22.939,15.847,-77.748,128.0,0.0
499832,0.206,0.015,1.009,-23.588,4.802,-54.618,112.0,0.0
499896,0.143,-0.099,0.887,-1.924,12.939,-33.122,116.0,0.0
499956,0.155,-0.029,0.881,13.557,18.641,-23.229,119.0,0.0
500061,0.164,0.007,0.928,61.634,30.863,-32.244,125.0,0.0
500121,0.125,0.008,0.928,63.443,29.443,-57.855,130.0,0.0
500187,-0.188,0.145,0.723,102.695,23.313,-76.420,0.0,0.0
500250,0.066,0.496,0.592,138.908,55.794,-40.328,0.0,169.0
500316,-0.018,0.630,0.667,-93.198,109.855,-74.145,0.0,0.0
500374,-0.114,0.224,1.202,-64.580,144.252,-85.855,78.0,0.0
500429,-0.544,0.382,1.321,-75.603,150.771,-108.695,30.0,0.0
500488,-0.946,-0.094,1.330,-113.000,97.641,-124.290,34.0,0.0
500544,-0.942,-0.393,1.229,63.489,28.893,-39.656,36.0,0.0
500600,-0.792,0.165,1.022,136.015,-28.908,32.634,37.0,0.0
500657,-0.544,0.414,1.032,31.206,-42.817,44.481,39.0,0.0
500712,-0.662,0.167,0.978,-73.382,-56.389,29.557,41.0,0.0
500769,-0.690,-0.020,0.939,-95.878,-71.420,53.137,58.0,0.0
500827,-0.740,-0.155,0.652,-143.061,-79.145,78.634,58.0,0.0
500885,-0.480,-0.463,0.513,-141.405,-27.122,78.672,82.0,0.0
500945,-0.349,-0.379,0.383,-58.924,43.496,57.756,60.0,0.0
501003,0.032,-0.343,0.437,-5.588,45.679,5.595,58.0,0.0
501060,-0.125,-0.255,0.483,113.069,55.336,-73.824,58.0,0.0
501118,-0.328,0.123,0.535,172.908,91.756,-55.947,71.0,0.0
501177,-0.421,0.217,0.793,122.710,85.466,-94.069,75.0,0.0
501235,-0.562,0.486,0.947,23.817,117.397,-84.847,78.0,0.0
501294,-1.032,0.045,1.048,-77.649,134.076,-72.374,82.0,0.0
501352,-1.124,-0.504,1.301,7.603,52.221,-42.679,84.0,0.0
501411,-1.045,0.281,1.000,17.901,1.389,4.359,87.0,0.0
501473,-1.047,-0.300,1.136,-25.244,-40.298,3.321,87.0,0.0
501532,-0.864,-0.209,0.802,30.542,-76.840,11.511,86.0,0.0
501591,-0.755,-0.244,0.668,33.237,-64.870,-2.313,85.0,0.0
501650,-0.652,-0.113,0.512,78.489,-57.656,16.840,85.0,0.0
501708,-0.631,0.025,0.469,-33.420,-36.023,12.908,85.0,0.0
501767,-0.616,-0.257,0.658,-7.321,-33.191,30.366,84.0,0.0
501826,-0.535,0.004,0.611,-24.122,-28.015,33.435,85.0,0.0
501884,-0.575,-0.229,0.723,-56.183,-17.725,24.969,85.0,0.0
501944,-0.556,-0.273,0.801,-8.779,-8.947,11.824,86.0,0.0
502006,-0.575,-0.175,0.750,-4.710,-5.603,8.840,86.0,0.0
502065,-0.562,-0.120,0.794,-2.664,-6.511,15.046,87.0,0.0
502124,-0.542,-0.179,0.818,10.557,-5.412,15.244,88.0,0.0
502183,-0.549,-0.035,0.725,0.061,-3.305,17.802,90.0,0.0
502242,-0.497,-0.199,0.836,16.527,0.122,19.015,91.0,0.0
502301,-0.560,-0.053,0.805,42.756,0.160,24.076,92.0,0.0
502361,-0.498,-0.047,0.822,43.137,-0.023,17.641,94.0,0.0
502420,-0.539,0.104,0.775,40.351,17.817,11.824,95.0,0.0
502480,-0.670,0.063,0.773,-2.802,18.985,-5.260,97.0,0.0
502543,-0.650,0.041,0.803,7.595,19.092,-4.710,98.0,0.0
502602,-0.654,0.076,0.780,32.153,19.786,-7.015,100.0,0.0
502663,-0.618,0.173,0.748,40.458,15.023,-0.275,101.0,0.0
502722,-0.806,0.227,0.579,4.626,16.977,11.718,102.0,0.0
502782,-0.721,0.144,0.596,-58.573,18.099,47.443,103.0,0.0
502842,-0.822,0.181,0.470,-75.733,32.321,64.084,104.0,0.0
502902,-0.683,0.083,0.590,-72.321,44.725,64.298,103.0,0.0
502963,-0.679,0.024,0.644,-42.748,48.534,45.924,104.0,0.0
503069,-0.889,0.004,0.633,74.160,41.931,4.092,106.0,0.0
503130,-0.757,0.151,0.579,66.206,42.244,-4.847,107.0,0.0
503190,-0.784,0.180,0.516,44.504,42.573,-24.649,111.0,0.0
503250,-0.922,0.214,0.517,41.015,49.733,-33.985,111.0,0.0
503311,-1.106,0.138,0.466,16.183,23.748,-22.832,113.0,0.0
503370,-1.009,0.050,0.535,29.000,-5.603,3.015,86.0,0.0
503430,-0.798,0.156,0.512,57.405,-12.534,-5.550,85.0,0.0
503488,-0.773,0.241,0.518,68.992,-2.023,-32.824,87.0,0.0
503547,-0.934,0.278,0.427,50.931,1.206,-45.748,88.0,0.0
503610,-1.004,0.199,0.452,21.908,-9.099,-21.527,89.0,0.0
503671,-0.861,0.245,0.457,11.542,-7.901,3.031,123.0,0.0
503733,-0.837,0.303,0.445,-26.718,-2.397,5.595,123.0,0.0
503794,-0.932,0.181,0.477,-39.420,-7.725,11.595,122.0,0.0
503856,-0.963,0.183,0.483,-32.191,-13.557,29.153,122.0,0.0
503915,-0.904,0.200,0.461,-66.328,-19.588,40.405,90.0,0.0
503975,-0.900,0.109,0.500,-67.641,-28.611,46.183,117.0,0.0
504037,-0.836,0.170,0.470,-55.305,-21.771,41.748,116.0,0.0
504097,-0.811,0.173,0.447,-73.351,-23.137,39.511,112.0,0.0
504162,-0.847,0.120,0.492,-51.008,-24.679,47.221,112.0,0.0
504218,-0.909,0.188,0.425,-22.053,-20.992,59.290,44.0,0.0
504279,-0.946,0.233,0.384,-45.618,-14.985,68.359,107.0,0.0
504336,-0.906,0.181,0.424,-67.718,-18.817,69.351,44.0,0.0
504392,-0.854,0.177,0.515,-42.344,-17.137,82.763,43.0,0.0
504450,-0.777,0.263,0.540,-24.282,-12.565,102.130,45.0,0.0
504511,-0.583,0.270,0.607,-23.947,-21.580,86.176,130.0,0.0
504568,-0.705,0.310,0.718,-9.695,-11.695,68.008,51.0,0.0
504635,-0.592,0.346,0.697,1.145,1.817,65.794,0.0,0.0
504704,-0.515,0.376,0.614,-49.672,14.580,27.580,0.0,0.0
504769,-0.457,0.245,0.566,-76.115,24.771,-15.427,0.0,0.0
504835,-0.601,-0.017,0.580,-42.565,52.626,-68.847,0.0,0.0
504901,-0.933,-0.086,0.534,16.229,77.817,-95.718,0.0,0.0
504954,-1.118,-0.051,0.465,61.527,58.992,-103.748,37.0,156.0
505019,-0.988,0.034,0.471,90.092,37.588,-94.908,173.0,0.0
505076,-0.946,0.152,0.456,107.427,25.275,-90.565,44.0,0.0
505136,-0.987,0.207,0.430,106.160,12.252,-69.840,86.0,0.0
505198,-0.967,0.280,0.435,76.863,-2.366,-34.779,90.0,0.0
505257,-0.896,0.287,0.431,35.420,-6.527,2.275,89.0,0.0
505318,-0.900,0.307,0.432,-8.229,-2.664,26.374,89.0,0.0
505377,-0.902,0.198,0.474,-42.443,-6.550,46.244,87.0,0.0
505436,-0.946,0.156,0.480,-55.473,-11.107,65.916,85.0,0.0
505495,-0.991,0.091,0.510,-78.985,-19.489,74.672,84.0,0.0
505556,-0.901,-0.013,0.511,-87.908,-28.450,63.733,117.0,0.0
505618,-0.748,-0.057,0.517,-37.290,-30.145,39.397,21.0,0.0
505674,-0.732,0.019,0.491,16.466,-23.985,19.939,39.0,0.0
505733,-0.829,0.151,0.463,26.160,-12.221,9.855,38.0,0.0
505788,-0.815,0.207,0.536,-26.603,-2.931,11.527,38.0,0.0
505844,-0.754,0.152,0.631,-42.718,0.275,0.412,39.0,0.0
505900,-0.876,0.356,0.684,-96.977,-10.198,3.481,40.0,0.0
505952,-0.841,0.370,0.869,-250.137,-47.611,8.282,37.0,133.0
506013,-0.857,-0.280,1.034,-250.137,-110.588,-44.466,0.0,144.0
