Timestamp(ms),AccelX(g),AccelY(g),AccelZ(g),GyroX(deg/s),GyroY(deg/s),GyroZ(deg/s),DistanceLeft(cm),DistanceRight(cm)
154359,0.080,0.335,0.909,2.679,22.969,26.992,0.0,0.0
154426,0.123,0.061,0.838,-18.244,-15.855,-9.992,0.0,0.0
154494,-0.287,0.110,1.055,9.557,-26.962,-44.260,0.0,0.0
154560,-0.309,0.652,0.955,13.863,-7.885,-21.878,0.0,0.0
154626,0.082,0.364,0.996,5.160,13.168,19.260,0.0,0.0
154691,0.047,0.206,0.947,-41.977,3.450,39.733,0.0,0.0
154758,-0.146,-0.247,1.106,-28.267,-40.618,-34.924,0.0,110.0
154808,-0.144,0.331,0.906,21.290,-12.695,-47.679,30.0,108.0
154872,-0.634,-0.044,1.490,70.588,7.527,-9.382,0.0,0.0
154937,-0.241,0.458,0.926,-20.756,23.603,21.290,0.0,0.0
155004,0.085,0.180,0.917,9.725,13.008,19.328,0.0,0.0
155069,0.046,0.171,0.902,-25.611,-25.634,-28.947,0.0,0.0
155134,-0.279,0.226,1.063,50.954,-14.160,-17.053,0.0,0.0
155199,-0.090,0.390,1.012,-34.687,2.565,-18.565,0.0,0.0
155264,0.056,0.268,0.923,6.397,-4.710,-3.748,0.0,0.0
155328,-0.226,0.376,0.959,-9.450,-4.611,19.672,0.0,0.0
155393,-0.347,0.281,1.076,6.443,16.458,34.847,0.0,0.0
155458,-0.178,0.077,1.005,-44.267,8.191,-5.954,0.0,0.0
155523,0.052,-0.001,0.920,-2.435,-15.588,-48.962,0.0,0.0
155577,0.078,0.371,0.846,35.015,-14.947,-20.519,26.0,0.0
155635,-0.217,0.632,0.987,23.076,-14.687,17.832,27.0,0.0
155691,-0.323,0.234,1.116,-16.794,14.191,40.779,30.0,0.0
155755,-0.226,0.177,0.982,-22.969,19.748,17.725,0.0,0.0
155821,0.019,0.016,0.979,-13.092,-10.939,-35.298,0.0,0.0
155875,-0.162,0.390,0.963,47.382,-46.458,-18.893,23.0,0.0
155930,-0.003,0.487,0.740,-35.061,-8.153,-12.298,29.0,0.0
155984,-0.651,-0.424,1.690,55.649,-1.908,-7.015,24.0,0.0
156040,-0.160,0.765,0.733,-15.916,5.237,26.954,29.0,0.0
156098,-0.291,0.039,1.076,-29.832,10.153,24.626,30.0,0.0
156163,-0.211,-0.004,1.029,1.603,-0.588,-18.565,0.0,0.0
156228,0.128,0.569,0.910,35.496,8.656,21.527,0.0,0.0
156293,-0.108,0.229,0.924,-38.847,-3.733,30.985,0.0,0.0
156348,-0.230,-0.044,1.041,-6.244,-29.023,-43.947,22.0,0.0
156412,-0.289,0.269,1.100,50.267,-4.137,-31.748,0.0,0.0
156468,0.065,0.375,0.917,-40.794,1.748,-26.191,30.0,0.0
156523,0.015,0.194,0.955,16.511,-7.855,-0.252,30.0,0.0
156578,-0.272,0.544,0.958,-14.519,0.267,28.550,27.0,0.0
156636,-0.337,0.200,1.041,-0.817,23.733,41.573,27.0,0.0
156701,-0.177,-0.013,1.003,-29.924,11.206,1.802,0.0,0.0
156766,0.102,0.119,0.888,6.160,-24.321,-49.321,0.0,0.0
156821,-0.085,0.351,0.921,32.000,-63.466,-51.832,29.0,0.0
156876,-0.116,0.371,0.954,-6.504,-33.206,-38.298,33.0,0.0
156942,-0.168,0.397,0.918,-15.191,16.878,-6.924,0.0,0.0
156997,-0.570,0.147,1.342,26.840,12.695,17.290,30.0,0.0
157052,-0.199,0.481,0.834,-0.420,12.679,29.695,30.0,0.0
157108,0.047,0.220,1.036,-29.885,14.344,35.450,29.0,0.0
157175,0.128,0.036,0.914,-32.412,-3.733,11.771,0.0,0.0
157241,-0.122,0.061,1.045,32.038,-18.748,-29.267,0.0,0.0
157305,-0.403,0.441,1.018,9.443,-14.702,-23.176,0.0,0.0
157362,-0.147,0.373,1.005,-15.702,13.733,10.832,33.0,0.0
157470,-0.057,0.121,0.911,-37.267,-25.870,-19.702,0.0,0.0
157535,-0.098,0.213,0.922,41.237,-9.252,-16.718,0.0,0.0
157590,-0.097,0.542,1.098,56.489,-6.183,-5.420,32.0,0.0
157646,-0.021,0.260,0.962,-47.275,-7.443,-11.809,32.0,0.0
157711,-0.184,0.396,0.964,14.061,6.366,27.893,0.0,0.0
157779,-0.329,0.200,1.022,-24.992,17.053,19.305,0.0,0.0
157844,0.022,0.064,1.005,-5.725,8.817,-5.374,0.0,0.0
157910,0.118,0.256,0.822,-7.023,-21.740,-27.000,0.0,0.0
157965,-0.111,0.307,0.921,0.137,-26.878,-25.847,32.0,0.0
158021,-0.411,0.347,1.098,16.496,-8.672,-4.405,50.0,0.0
158077,-0.338,0.289,1.107,-23.595,12.382,18.901,50.0,0.0
158143,-0.208,0.243,0.942,-5.710,19.069,27.550,0.0,0.0
158198,0.182,0.125,0.849,-18.878,-7.122,0.649,30.0,0.0
158256,0.135,-0.056,1.046,7.534,-40.534,-34.092,52.0,0.0
158315,-0.191,0.368,0.907,5.679,-8.435,-29.267,51.0,0.0
158370,-0.332,0.705,1.099,53.802,6.656,27.702,33.0,0.0
158428,-0.241,0.383,0.929,-50.038,20.198,26.344,53.0,0.0
158492,0.219,0.043,1.002,-6.756,17.328,37.542,0.0,0.0
158558,0.238,-0.049,0.906,-11.687,-19.954,-9.962,0.0,0.0
158614,-0.323,0.221,1.102,43.481,-21.634,-24.924,37.0,0.0
158669,-0.443,0.531,0.973,-19.153,-19.290,-41.870,34.0,0.0
158727,-0.239,0.249,1.017,1.260,6.198,-1.305,52.0,0.0
158782,0.109,0.473,0.858,-9.481,14.557,28.023,37.0,0.0
158842,0.037,0.097,1.051,-36.351,-3.099,34.908,58.0,0.0
158908,-0.104,-0.213,1.113,-21.817,-48.397,-41.458,0.0,0.0
158965,-0.122,0.241,0.958,36.901,-29.542,-59.069,57.0,0.0
159022,-0.197,0.427,0.921,-14.031,18.015,-29.076,52.0,0.0
159079,-0.462,0.182,1.262,41.198,10.634,10.496,54.0,0.0
159136,-0.004,0.430,0.854,-14.504,3.542,25.053,53.0,0.0
159193,0.197,-0.096,1.066,-31.130,-7.397,0.855,51.0,0.0
159250,0.005,0.097,0.992,37.031,-14.061,-26.260,52.0,0.0
159305,-0.363,0.307,1.041,50.397,-20.580,-34.901,37.0,0.0
159365,-0.347,0.785,0.811,-13.580,1.565,5.992,36.0,0.0
159422,0.120,0.171,1.023,-31.863,13.237,34.954,53.0,0.0
159478,0.167,-0.113,1.066,-34.672,-13.176,-10.901,53.0,0.0
159535,-0.116,0.163,1.027,36.954,-20.023,-30.626,37.0,0.0
159591,-0.407,0.505,1.044,19.412,-13.840,-21.992,38.0,0.0
159647,-0.221,0.498,0.935,-48.366,12.351,13.832,37.0,0.0
159700,0.146,0.069,1.026,-28.893,3.931,11.947,61.0,124.0
159753,0.116,0.067,0.861,-6.519,-13.809,-2.534,57.0,124.0
159806,-0.171,0.088,1.040,16.893,-27.916,-42.290,55.0,123.0
159861,-0.073,0.314,1.020,29.618,-9.534,-23.008,55.0,122.0
159913,0.090,0.354,1.022,-10.817,-4.183,-7.672,56.0,114.0
159966,-0.266,0.460,0.940,-15.397,13.580,34.702,37.0,122.0
160018,-0.430,0.123,0.957,-24.740,11.084,19.130,56.0,123.0
160070,0.128,-0.002,1.038,6.244,-2.382,-11.847,55.0,123.0
160123,0.312,0.583,0.907,22.420,-7.130,8.763,55.0,122.0
160176,0.228,0.619,0.994,-5.519,-29.542,68.893,59.0,122.0
160232,0.250,0.636,0.993,33.947,-30.542,144.221,36.0,0.0
160291,0.148,0.433,0.927,-14.611,6.771,175.603,37.0,0.0
160385,-0.027,0.286,0.821,-8.267,75.802,151.397,26.0,102.0
160445,-0.295,0.149,0.882,-49.137,84.221,91.427,0.0,103.0
160501,-0.418,0.125,1.025,-32.252,47.321,35.046,37.0,0.0
160557,-0.304,0.240,0.953,-15.107,24.786,10.947,30.0,0.0
160623,-0.177,0.344,0.928,-11.588,27.206,22.298,0.0,0.0
160689,-0.438,0.153,1.205,30.237,-0.191,28.069,0.0,0.0
160754,-0.404,0.250,0.978,-27.443,1.588,34.534,0.0,0.0
160809,-0.092,0.073,1.102,-2.847,17.824,37.397,26.0,0.0
160868,0.092,0.151,0.958,-12.908,4.756,20.840,30.0,0.0
160933,0.121,0.093,0.988,4.519,-32.031,7.893,0.0,0.0
160999,-0.092,0.149,0.887,-14.809,-4.725,-2.443,0.0,0.0
161055,-0.785,-0.324,1.635,59.809,9.321,-6.947,29.0,0.0
161111,-0.217,0.497,0.708,-30.779,-9.664,-28.817,26.0,0.0
161176,-0.127,0.019,1.096,-3.290,4.992,-13.634,0.0,0.0
161242,0.082,0.627,0.832,10.298,4.878,24.023,0.0,0.0
161298,0.042,-0.131,0.994,-49.214,-17.374,4.137,30.0,0.0
161363,-0.108,0.175,0.944,35.618,-18.221,-8.908,0.0,0.0
161432,-0.688,-0.252,1.515,62.031,5.809,5.008,0.0,0.0
161488,-0.141,0.238,0.884,-68.573,-6.435,-11.069,29.0,0.0
161545,-0.016,-0.084,1.004,-6.031,0.321,-21.137,30.0,0.0
161600,-0.249,0.331,1.082,54.710,3.924,9.771,30.0,0.0
161666,-0.176,0.302,0.952,-55.527,5.519,-1.344,0.0,0.0
161731,0.092,0.114,0.930,1.595,-7.672,2.321,0.0,0.0
161797,-0.035,0.057,1.002,44.786,-26.809,-12.336,0.0,0.0
161863,-0.471,0.375,1.032,14.702,4.573,3.802,0.0,0.0
161918,-0.205,0.370,0.965,-45.687,11.214,43.893,31.0,0.0
161975,-0.125,-0.277,1.099,-54.344,-4.634,6.916,30.0,0.0
162038,-0.033,-0.236,1.041,41.992,-30.008,-63.740,0.0,102.0
162088,-0.120,0.455,0.800,26.084,-13.008,-71.336,32.0,99.0
162149,-0.194,0.464,0.941,-17.489,8.840,-35.198,0.0,98.0
162208,-0.158,0.634,0.983,24.817,10.901,30.977,0.0,98.0
162258,-0.178,0.127,1.093,-47.672,5.939,38.061,32.0,99.0
162309,0.005,0.163,0.969,-24.015,7.389,52.443,30.0,99.0
162364,0.003,-0.113,1.028,-20.237,-23.519,3.282,27.0,99.0
162423,-0.029,0.040,0.935,56.870,-21.695,-4.389,0.0,99.0
162475,-0.278,0.255,0.900,-41.595,28.069,-15.878,31.0,99.0
162525,-0.219,0.495,1.154,68.534,4.046,24.511,33.0,99.0
162574,-0.067,0.276,0.912,-54.901,6.046,-11.626,37.0,98.0
162623,0.082,0.019,0.993,0.275,-2.282,-9.992,32.0,98.0
162681,-0.020,0.128,0.926,23.046,-22.038,-28.298,0.0,97.0
162741,-0.205,0.295,0.971,0.641,-10.947,-38.198,0.0,97.0
162799,-0.319,0.859,0.861,0.069,4.008,24.618,0.0,97.0
162859,-0.184,0.105,1.072,-46.076,26.092,40.313,0.0,97.0
162917,0.056,0.006,0.872,-59.611,-0.168,-1.282,0.0,97.0
162970,-0.245,-0.112,1.045,40.740,-17.336,-39.908,44.0,97.0
163028,-0.259,0.730,0.929,65.886,2.305,18.573,0.0,97.0
163079,-0.002,0.217,0.935,-63.321,7.328,19.878,37.0,97.0
163137,0.092,-0.189,1.001,-29.885,-14.679,-14.168,0.0,97.0
163196,-0.274,0.010,1.113,50.137,-9.458,-24.046,0.0,96.0
163255,-0.256,0.807,0.871,-6.504,10.412,13.870,0.0,96.0
163357,-0.027,-0.149,1.031,40.794,-34.191,-34.015,0.0,97.0
163414,0.060,0.638,0.777,3.718,9.122,0.603,36.0,0.0
163478,-0.198,0.275,1.201,5.244,1.588,34.954,0.0,0.0
163539,-0.298,-0.115,1.110,-35.924,1.221,4.595,0.0,98.0
163604,-0.102,0.293,1.006,36.046,15.916,15.603,0.0,0.0
163654,-0.007,0.246,0.917,-53.282,0.076,9.618,46.0,97.0
163704,-0.083,-0.306,1.100,-10.450,-25.000,-29.084,43.0,98.0
163770,-0.284,0.085,0.975,38.664,-34.466,-49.725,0.0,0.0
163826,-0.099,0.219,0.944,-11.626,-5.672,-59.733,51.0,0.0
163881,-0.120,0.302,0.912,-5.244,9.863,-35.313,33.0,0.0
163937,-0.154,0.477,1.037,51.313,-4.611,25.679,33.0,0.0
163993,-0.196,0.373,0.935,-55.046,5.275,42.328,50.0,0.0
164052,-0.255,-0.111,1.026,-59.885,1.061,18.359,48.0,0.0
164109,-0.222,-0.260,1.131,33.618,6.374,-1.557,50.0,0.0
164173,0.007,0.737,0.867,45.176,12.145,37.366,0.0,0.0
164239,0.025,0.061,0.978,-60.679,-6.664,36.618,0.0,0.0
164294,-0.068,-0.132,1.069,43.206,-43.405,-8.939,37.0,0.0
164349,-0.153,0.138,0.897,-13.076,1.580,-44.939,30.0,0.0
164406,-0.171,0.119,0.959,-4.969,27.412,-50.504,50.0,0.0
164462,-0.269,0.945,0.838,55.183,3.252,15.985,51.0,0.0
164518,-0.225,0.135,1.103,-55.626,23.153,39.748,37.0,0.0
164578,0.012,0.090,0.880,-17.947,9.534,39.504,49.0,0.0
164633,-0.122,0.019,0.992,6.321,-26.458,-5.427,37.0,0.0
164699,-0.137,0.252,0.860,16.947,-10.260,-0.260,0.0,0.0
164763,-0.145,-0.200,1.280,26.977,-0.176,2.565,0.0,0.0
164819,-0.097,0.042,1.046,-13.137,-5.267,-35.718,50.0,0.0
164875,-0.250,0.663,0.862,29.595,8.336,27.046,32.0,0.0
164932,-0.290,0.125,1.034,-65.305,19.824,26.947,59.0,0.0
164987,-0.069,-0.167,0.946,-47.817,8.855,0.687,37.0,0.0
165053,-0.201,0.006,1.003,46.779,-13.450,-26.733,0.0,0.0
165113,-0.266,0.552,0.983,-4.214,7.954,16.435,61.0,0.0
165170,0.040,-0.106,0.960,-58.595,-1.649,-7.053,58.0,0.0
165227,-0.064,-0.117,1.053,27.275,-31.847,-38.901,50.0,0.0
165283,-0.229,0.482,0.822,12.595,-0.069,-10.878,53.0,0.0
165341,-0.563,0.210,1.216,26.908,4.634,35.679,62.0,0.0
165406,-0.311,0.171,0.948,-40.664,15.237,45.534,0.0,0.0
165463,0.003,-0.238,1.038,-12.405,-3.092,13.344,51.0,0.0
165519,0.059,0.128,0.928,48.733,-30.847,-2.336,52.0,0.0
165575,-0.110,0.317,0.848,-5.168,-2.511,3.534,37.0,0.0
165643,-0.767,-0.376,1.652,46.191,3.374,7.672,0.0,0.0
165700,-0.080,0.100,0.786,-45.611,-2.305,-36.817,60.0,0.0
165757,-0.010,-0.200,0.992,34.519,-8.382,-59.145,53.0,0.0
165813,-0.404,0.666,0.985,68.947,-2.153,-1.527,36.0,0.0
165870,-0.359,0.368,1.008,-71.550,16.992,44.244,54.0,0.0
165936,-0.186,-0.125,0.991,-57.824,15.229,40.229,0.0,0.0
165993,0.122,0.221,0.962,-20.481,-6.267,22.962,67.0,0.0
166049,0.149,0.638,0.935,56.023,-55.191,99.443,38.0,0.0
166108,0.271,0.590,0.895,16.237,-55.611,159.168,0.0,96.0
166161,0.116,0.128,0.984,-16.405,-3.634,162.450,30.0,100.0
166217,-0.132,-0.044,1.089,0.061,31.504,113.954,41.0,0.0
166326,-0.587,0.228,0.971,-33.603,34.573,29.145,0.0,0.0
166391,-0.580,0.067,0.909,-44.061,46.992,18.237,0.0,0.0
166457,-0.321,0.391,0.920,42.565,9.832,46.237,0.0,0.0
166512,0.062,0.196,0.921,-37.603,4.824,32.015,27.0,0.0
166567,0.031,-0.446,1.215,8.794,-5.412,-12.405,30.0,0.0
166623,-0.270,0.316,0.926,39.901,-13.344,-30.817,29.0,0.0
166688,-0.389,0.250,1.014,-4.435,-7.863,-21.290,0.0,0.0
166748,-0.048,0.207,1.079,-31.939,11.023,0.702,50.0,0.0
166804,0.042,0.113,1.007,-16.214,10.374,7.015,37.0,0.0
166870,-0.327,0.191,0.907,-3.229,-26.710,-8.908,0.0,0.0
166935,-0.148,0.224,0.805,12.267,-20.573,-10.870,0.0,0.0
166990,-0.667,-0.556,1.633,63.832,-1.359,-28.099,36.0,0.0
167047,0.152,0.622,0.760,-2.382,-12.740,-26.229,37.0,0.0
167112,-0.157,0.285,1.039,7.244,-2.809,9.473,0.0,0.0
167178,-0.410,0.262,0.993,-27.214,10.305,29.443,0.0,0.0
167233,-0.294,0.079,1.054,-30.313,17.435,25.450,31.0,0.0
167292,0.019,-0.062,0.932,-19.641,8.618,-15.809,30.0,0.0
167348,0.026,0.173,0.889,13.748,-17.137,-45.504,30.0,0.0
167404,-0.010,0.546,0.741,23.076,-14.534,-16.137,37.0,0.0
167460,-0.361,0.289,1.086,13.481,-14.244,1.420,38.0,0.0
167517,-0.416,0.158,1.079,-27.053,2.748,25.427,40.0,0.0
167573,-0.150,0.151,0.921,-26.687,16.481,23.344,32.0,0.0
167628,0.192,-0.176,1.123,-7.450,-2.947,-16.092,37.0,0.0
167695,-0.066,0.309,0.984,53.420,-1.550,-0.771,0.0,0.0
167761,-0.205,0.138,0.960,-68.130,-0.534,3.534,38.0,0.0
167826,-0.212,-0.220,1.122,42.267,-17.947,-11.183,0.0,0.0
167882,-0.038,0.522,0.758,7.145,-23.374,-29.458,44.0,0.0
167939,-0.297,0.133,0.942,-33.405,18.557,-15.809,51.0,0.0
168003,-0.311,0.616,1.023,38.015,-1.702,27.969,0.0,0.0
168068,-0.291,0.217,0.996,-71.092,13.252,45.397,0.0,0.0
168133,-0.112,-0.056,1.003,-47.931,0.015,25.695,0.0,0.0
168198,0.086,-0.633,1.256,24.847,-59.489,-78.298,0.0,0.0
168253,-0.038,0.646,0.692,90.939,-3.840,-45.168,36.0,0.0
168311,-0.366,0.468,0.903,-34.779,29.924,-16.153,37.0,0.0
168367,-0.192,0.174,1.210,31.611,-2.183,15.771,37.0,0.0
168423,0.097,0.083,0.958,-26.023,-8.038,-12.267,53.0,0.0
168488,-0.036,0.096,1.040,30.092,-4.885,-15.969,0.0,0.0
168544,-0.363,0.657,1.004,11.672,-7.313,10.076,37.0,0.0
168600,-0.398,0.187,1.012,-68.939,21.389,46.786,52.0,0.0
168655,-0.187,-0.008,0.950,-37.595,25.038,33.252,36.0,0.0
168712,0.007,-0.264,1.089,-3.115,5.794,-18.405,45.0,0.0
168776,-0.274,0.594,0.827,69.847,-0.099,8.573,0.0,0.0
168836,-0.222,0.205,0.987,-48.611,2.679,25.573,56.0,0.0
168891,0.025,-0.281,1.114,-41.595,-10.191,-19.305,36.0,0.0
168947,-0.296,-0.029,1.066,57.427,-16.053,-31.511,51.0,0.0
169004,-0.254,0.486,0.833,5.588,-25.863,-29.473,37.0,0.0
169059,-0.074,0.258,0.863,-20.038,-5.794,-20.183,37.0,0.0
169114,-0.339,0.390,1.088,57.221,2.939,28.275,37.0,0.0
169171,-0.190,0.290,0.976,-45.992,19.359,22.878,57.0,0.0
169227,0.002,-0.166,1.073,-34.099,4.389,-7.603,42.0,0.0
169327,-0.405,0.502,0.946,45.679,2.412,13.031,58.0,0.0
169387,-0.258,0.219,0.994,-65.824,9.573,29.183,58.0,0.0
169443,0.022,-0.126,1.044,-35.305,4.221,12.504,43.0,0.0
169499,0.005,0.052,0.892,10.427,-14.275,-33.740,47.0,0.0
169555,-0.182,0.202,0.881,46.588,-14.130,-40.023,43.0,0.0
169620,-0.549,0.541,1.054,55.878,-6.321,14.954,0.0,0.0
169676,-0.311,0.169,1.037,-78.298,11.153,35.298,56.0,0.0
169733,-0.028,-0.097,1.065,-19.588,7.305,31.366,38.0,0.0
169788,0.016,0.157,0.847,-4.282,-9.824,-0.878,39.0,0.0
169844,-0.163,0.112,0.901,18.710,-19.275,-27.985,38.0,0.0
169903,-0.183,-0.047,1.160,14.435,-16.908,-42.931,44.0,0.0
169961,-0.343,0.294,1.016,41.824,-30.496,-31.168,77.0,0.0
170027,-0.080,0.572,0.849,24.427,-12.382,23.023,0.0,0.0
170082,-0.099,0.190,0.802,-92.389,46.252,19.397,42.0,0.0
170138,-0.066,-0.085,1.200,5.145,-9.038,-6.435,45.0,0.0
170194,-0.069,0.116,0.917,11.092,-5.511,-20.282,45.0,0.0
170251,-0.029,0.117,0.985,39.099,-20.076,-49.366,51.0,0.0
170307,-0.187,0.420,0.821,16.313,0.092,-45.511,47.0,0.0
170364,-0.477,0.266,1.058,41.252,4.527,9.565,58.0,0.0
170424,-0.279,0.326,0.950,-32.847,-1.351,25.916,44.0,0.0
170479,-0.217,0.124,1.026,-15.626,5.237,35.664,42.0,0.0
170535,-0.119,0.103,1.055,-29.542,-5.664,3.298,47.0,0.0
170592,-0.202,0.146,1.025,8.992,-5.160,7.809,44.0,0.0
170648,-0.314,0.583,0.826,-16.664,-23.084,15.672,48.0,0.0
170704,-0.121,0.337,0.964,-31.679,-34.527,44.908,49.0,0.0
170761,0.000,0.247,0.957,-50.298,-33.901,50.649,44.0,0.0
170817,-0.027,0.107,1.016,-63.153,-29.779,45.321,36.0,0.0
170867,-0.068,-0.030,1.045,-36.305,-43.748,37.344,41.0,103.0
170920,0.006,-0.017,0.958,9.908,-48.107,37.008,37.0,106.0
170972,0.163,-0.000,0.924,-7.412,-37.450,32.924,37.0,107.0
171031,0.232,-0.068,0.907,-15.290,-21.023,20.496,0.0,109.0
171097,0.201,-0.134,1.009,-38.565,9.313,5.649,0.0,0.0
171151,0.000,-0.106,1.072,-21.130,11.679,3.611,21.0,0.0
171206,-0.043,-0.121,1.053,-1.740,-19.405,6.885,21.0,0.0
171272,0.104,-0.085,0.973,12.267,-13.779,13.305,0.0,0.0
171336,0.192,-0.011,1.143,-15.893,20.954,1.053,0.0,0.0
171402,0.037,-0.212,1.169,-10.725,-17.580,2.924,0.0,0.0
171458,0.193,-0.111,0.928,3.885,-0.481,7.321,19.0,0.0
171523,0.087,0.134,1.049,-11.427,20.198,9.740,0.0,0.0
171588,0.089,0.021,0.969,-44.641,2.359,12.756,0.0,0.0
171654,0.025,-0.194,1.045,-49.450,9.481,6.008,0.0,0.0
171718,0.064,-0.201,0.989,-21.023,-7.832,5.588,0.0,0.0
171784,0.041,-0.129,0.986,-13.748,-5.420,6.321,0.0,0.0
171849,0.083,-0.190,1.016,-26.282,5.656,12.275,0.0,0.0
171905,0.069,-0.230,1.083,-12.435,2.748,12.053,38.0,0.0
171961,0.011,-0.218,0.989,-21.985,0.664,7.313,38.0,0.0
172029,0.058,-0.300,1.025,-8.550,-3.160,8.252,0.0,0.0
172094,0.067,-0.180,0.980,-1.130,0.573,10.229,0.0,0.0
172160,-0.024,-0.261,0.967,-14.313,-1.275,6.794,0.0,0.0
172225,0.087,-0.301,1.025,9.466,-1.076,3.969,0.0,0.0
172334,0.012,-0.281,1.000,-5.969,-2.092,6.634,0.0,0.0
172399,0.065,-0.252,1.017,18.824,-0.252,8.168,0.0,0.0
172464,0.013,-0.137,0.973,4.634,-1.153,8.511,0.0,0.0
172529,0.010,-0.212,0.990,-1.977,-2.275,5.534,0.0,0.0
172595,0.042,-0.182,1.006,4.634,-0.908,6.832,0.0,0.0
172662,0.032,-0.203,0.995,1.198,-1.481,5.053,0.0,0.0
172728,0.027,-0.189,1.000,5.374,-2.198,7.664,0.0,0.0
172793,0.044,-0.145,1.008,3.374,-1.389,6.534,0.0,0.0
172859,0.018,-0.189,1.001,-3.000,-2.023,6.122,0.0,0.0
172923,0.037,-0.152,0.997,6.252,-1.626,5.458,0.0,0.0
172989,0.039,-0.176,1.013,4.771,-2.481,4.863,0.0,0.0
173054,0.029,-0.167,1.027,12.939,-2.344,0.542,0.0,0.0
173120,-0.038,-0.290,1.128,98.412,-4.282,-0.565,0.0,0.0
173186,-0.037,-0.158,1.120,121.313,-7.015,1.855,0.0,0.0
173254,0.014,0.042,0.963,48.237,-43.153,-21.450,0.0,0.0
173320,0.123,-0.117,1.000,0.046,-33.725,-65.397,0.0,0.0
173384,0.077,-0.021,0.975,31.962,-5.344,-92.756,0.0,0.0
173450,-0.020,0.283,0.808,49.588,0.351,-94.481,0.0,0.0
173515,-0.049,0.683,0.683,-100.969,8.580,-102.886,0.0,0.0
173575,-0.072,0.258,0.899,-37.076,27.847,-31.847,95.0,0.0
173640,-0.002,0.268,0.925,-22.389,30.855,-3.489,0.0,0.0
173706,-0.064,0.195,1.014,6.275,20.015,4.496,0.0,0.0
173771,-0.086,0.127,1.085,0.481,13.038,2.557,0.0,0.0
173840,-0.278,0.231,1.165,70.366,-3.443,15.489,0.0,0.0
173905,-0.082,0.422,0.844,-8.702,10.092,2.695,0.0,0.0
173971,-0.095,0.033,1.002,-15.145,-3.015,11.061,0.0,0.0
174036,-0.128,0.181,1.015,30.397,-13.076,6.214,0.0,0.0
174102,-0.106,0.258,0.976,38.137,-13.244,9.618,0.0,0.0
174168,-0.082,0.419,0.954,30.718,-6.427,11.206,0.0,0.0
174233,-0.042,0.314,0.969,-7.977,-6.160,6.641,0.0,0.0
174299,-0.022,0.420,0.937,-11.328,-9.137,6.466,0.0,0.0
174364,-0.067,0.252,0.992,-18.832,-7.527,5.702,0.0,0.0
174430,-0.052,0.260,0.963,-46.901,-12.710,-4.145,0.0,0.0
174498,-0.039,0.322,0.971,-46.084,-12.244,3.580,0.0,0.0
174564,-0.037,0.136,1.005,-50.252,-14.992,2.756,0.0,0.0
174629,0.007,0.074,0.993,-42.557,-15.527,1.954,0.0,0.0
174695,0.012,0.042,1.023,-38.366,-16.076,-4.710,0.0,0.0
174760,0.035,0.054,1.017,-20.435,-9.969,0.069,0.0,0.0
174826,0.019,-0.020,1.016,-24.069,-7.664,2.656,0.0,0.0
174886,0.049,0.022,1.027,-23.931,-6.809,1.802,96.0,0.0
174952,0.022,-0.037,1.024,-11.733,-3.573,7.489,0.0,0.0
175017,0.041,-0.044,1.009,-0.084,-3.817,9.595,0.0,0.0
175086,0.028,0.011,1.026,2.122,-8.214,6.740,0.0,0.0
175145,0.046,-0.005,1.032,2.191,-8.931,6.122,95.0,0.0
175205,0.043,0.044,0.997,-1.305,-8.634,4.038,96.0,0.0
175265,0.053,-0.063,1.011,8.412,-4.832,4.305,96.0,0.0
175325,0.081,0.022,1.019,4.969,-2.916,3.221,96.0,0.0
175384,0.102,0.000,1.031,21.046,-1.824,2.924,96.0,0.0
175450,0.099,0.087,0.992,9.603,5.351,-2.076,0.0,0.0
175508,0.030,0.083,1.010,17.321,13.466,-1.947,72.0,0.0
175610,0.012,0.144,0.983,6.275,2.947,4.718,73.0,0.0
175676,0.008,0.116,1.013,-4.748,0.779,9.496,72.0,0.0
175733,0.012,0.096,1.020,-11.740,-4.679,8.573,72.0,0.0
175789,0.030,0.063,1.018,-1.595,-3.427,7.954,36.0,0.0
175844,0.063,0.098,1.002,-3.176,2.244,2.786,39.0,0.0
175901,0.010,0.083,1.010,-0.557,10.519,3.740,72.0,0.0
175956,0.009,0.083,1.016,5.084,5.679,8.305,41.0,0.0
176014,0.006,0.085,1.012,2.931,15.748,7.664,72.0,0.0
176078,-0.049,0.125,1.018,17.153,15.794,22.855,0.0,0.0
176144,-0.055,0.182,1.019,0.687,-1.939,28.115,0.0,0.0
176210,-0.031,0.151,1.021,-7.191,-9.611,22.626,0.0,0.0
176268,0.006,0.132,0.996,-13.779,-6.115,15.412,57.0,0.0
176332,-0.029,0.106,1.038,-7.809,-8.924,16.000,0.0,0.0
176397,0.006,0.150,1.032,-10.046,-11.053,18.794,0.0,0.0
176461,0.012,0.135,1.009,-8.023,-13.267,25.588,0.0,0.0
176527,0.048,0.058,1.021,-20.305,-8.427,22.015,0.0,0.0
176591,0.036,0.110,0.998,-15.153,-6.336,25.573,0.0,0.0
176656,-0.011,0.023,1.029,-16.870,-7.733,20.786,0.0,0.0
176721,0.031,0.083,1.023,-22.183,-17.985,28.885,0.0,0.0
176789,0.083,0.022,1.027,-35.679,-22.656,47.061,0.0,0.0
176854,0.146,-0.023,1.011,-31.962,-25.519,54.542,0.0,0.0
176918,0.141,-0.017,0.945,-27.756,-14.214,53.817,0.0,0.0
176984,0.124,-0.167,0.998,-42.389,-8.908,49.015,0.0,0.0
177048,0.119,-0.205,1.013,-26.870,-6.817,41.626,0.0,0.0
177113,0.159,-0.232,0.982,-17.534,-3.718,26.000,0.0,0.0
177178,0.119,-0.263,0.995,-22.160,1.244,21.160,0.0,0.0
177243,0.144,-0.151,0.961,-27.756,11.191,31.046,0.0,0.0
177307,0.070,-0.198,0.980,-55.947,7.695,30.885,0.0,0.0
177376,0.051,-0.229,0.960,-75.405,-9.359,49.221,0.0,0.0
177440,0.039,-0.541,0.967,-64.481,-20.748,39.832,0.0,0.0
177505,0.069,-0.486,0.885,-13.939,-31.092,30.847,0.0,0.0
177560,0.083,-0.561,0.887,-17.473,-19.321,32.550,23.0,0.0
177625,0.090,-0.502,0.893,-13.115,-16.672,30.557,0.0,0.0
177690,0.077,-0.431,0.897,1.115,-27.015,20.435,0.0,0.0
177755,0.150,-0.468,0.864,-16.649,-22.733,13.702,0.0,0.0
177820,0.124,-0.560,0.878,-11.313,-16.504,17.702,0.0,0.0
177874,0.175,-0.476,0.844,-3.931,-11.580,23.115,19.0,0.0
177933,0.141,-0.498,0.838,-2.214,-5.557,19.511,20.0,0.0
177997,0.120,-0.531,0.861,-3.847,-5.977,16.191,0.0,0.0
178063,0.149,-0.569,0.839,-6.634,1.641,10.153,0.0,0.0
178127,0.124,-0.603,0.872,11.427,7.084,3.969,0.0,0.0
178182,0.068,-0.484,0.877,14.435,6.305,0.519,19.0,0.0
178237,0.109,-0.446,0.896,6.962,1.969,2.176,20.0,0.0
178291,0.103,-0.456,0.885,0.069,-1.588,6.847,19.0,0.0
178345,0.094,-0.500,0.887,3.840,1.626,7.550,20.0,0.0
178401,0.100,-0.475,0.913,-1.565,-1.122,4.122,20.0,0.0
178455,0.074,-0.424,0.918,-9.641,-9.267,2.924,18.0,0.0
178512,0.095,-0.432,0.860,-8.885,-12.756,3.847,19.0,0.0
178568,0.108,-0.540,0.875,-27.756,-13.397,5.809,18.0,0.0
178632,0.110,-0.520,0.849,-6.595,-10.992,7.344,0.0,0.0
178741,0.137,-0.497,0.843,-5.878,-19.069,11.748,0.0,0.0
178796,0.186,-0.565,0.815,-6.321,-8.351,15.122,19.0,0.0
178861,0.175,-0.552,0.856,-13.435,-4.786,20.084,0.0,0.0
178926,0.218,-0.566,0.828,-10.565,-1.275,7.282,0.0,0.0
178992,0.082,-0.626,0.856,7.939,-4.458,-8.565,0.0,0.0
179056,0.178,-0.445,0.799,-3.473,-10.817,-16.534,0.0,0.0
179125,0.241,-0.476,0.827,-14.802,3.221,-6.649,0.0,0.0
179189,0.184,-0.486,0.823,-12.679,8.802,13.183,0.0,0.0
179255,0.120,-0.640,0.837,-8.305,12.084,9.740,0.0,0.0
179319,0.164,-0.578,0.873,-24.496,3.466,7.389,0.0,0.0
179385,0.139,-0.584,0.847,-22.275,-6.695,1.115,0.0,0.0
179450,0.168,-0.623,0.800,-26.359,-7.397,-3.473,0.0,0.0
179515,0.157,-0.616,0.803,-25.267,-9.450,-0.641,0.0,0.0
179580,0.167,-0.641,0.762,-15.504,-4.824,1.977,0.0,0.0
179646,0.165,-0.676,0.741,-9.443,-0.336,4.336,0.0,0.0
179714,0.188,-0.629,0.787,-0.290,-0.122,5.740,0.0,0.0
179779,0.180,-0.664,0.752,13.099,4.649,7.969,0.0,0.0
179844,0.177,-0.688,0.844,39.763,2.649,1.595,0.0,0.0
179909,0.169,-0.613,0.822,40.832,0.641,-9.947,0.0,0.0
179975,0.118,-0.614,0.863,43.191,-6.840,-24.969,0.0,0.0
180039,0.206,-0.523,0.828,25.130,1.763,-39.855,0.0,0.0
180094,0.238,-0.460,0.844,122.962,28.443,-31.496,16.0,0.0
180150,0.245,-0.300,0.927,8.076,36.183,-49.710,19.0,0.0
180214,0.130,-0.621,1.167,166.588,39.076,-51.618,0.0,0.0
180268,0.079,0.238,0.938,132.794,-2.366,-61.733,28.0,103.0
180327,0.159,0.461,0.937,-21.931,-8.099,-53.489,0.0,102.0
180383,0.051,0.105,1.088,-1.427,0.496,-23.252,28.0,0.0
180439,0.071,0.216,1.026,17.840,-10.702,-10.481,33.0,0.0
180504,-0.021,0.383,0.876,-15.084,-25.893,10.550,0.0,0.0
180559,-0.021,-0.078,0.922,-28.626,-20.374,9.893,28.0,0.0
180625,0.121,-0.010,0.885,46.702,3.794,35.847,0.0,0.0
180690,0.237,0.042,0.878,0.481,46.481,30.832,0.0,0.0
180755,0.116,-0.079,1.032,-25.595,66.618,24.580,0.0,0.0
180824,0.040,-0.154,1.174,-21.656,46.374,23.901,0.0,0.0
180889,0.091,-0.162,1.113,58.237,40.573,35.649,0.0,0.0
180955,-0.109,0.125,0.976,64.069,65.313,24.641,0.0,0.0
181012,-0.248,0.167,0.910,72.176,68.763,-5.977,0.0,60.0
181069,-0.238,0.360,0.909,27.145,39.321,-23.290,0.0,57.0
181117,-0.250,0.139,0.993,27.580,-0.504,-46.481,9.0,99.0
181172,-0.136,0.333,0.920,25.489,-17.015,-36.664,7.0,0.0
181219,-0.042,0.324,0.875,18.840,-43.260,-49.931,9.0,55.0
181265,0.034,0.292,0.851,27.672,-59.206,-45.489,10.0,52.0
181313,-0.206,-0.915,1.504,66.947,-51.496,-29.679,6.0,52.0
181361,-0.158,0.327,0.882,250.130,-109.481,-8.649,33.0,49.0
181407,0.443,1.666,1.163,-53.985,-104.565,-40.153,33.0,36.0
181454,0.225,0.246,1.046,-204.840,-52.489,-50.443,34.0,52.0
181500,0.041,0.327,1.018,-136.397,-6.779,-27.183,36.0,17.0
181556,0.040,0.068,1.017,-60.969,9.214,10.466,0.0,15.0
181600,0.026,0.172,0.948,15.824,4.756,30.046,18.0,16.0
181655,0.010,0.261,0.991,0.443,-9.344,17.435,0.0,17.0
181745,-0.028,0.156,1.214,-28.504,-23.282,1.130,12.0,16.0
181790,-0.036,0.221,1.227,-41.496,-34.962,6.183,17.0,17.0
181837,0.010,0.173,1.238,-42.969,-46.626,17.397,16.0,57.0
181883,0.088,0.260,1.113,-64.740,-48.603,30.252,17.0,55.0
181935,0.182,0.066,1.080,-81.489,-42.985,31.000,12.0,127.0
181996,0.238,0.068,1.041,-72.725,-31.473,43.511,0.0,129.0
182057,0.172,-0.140,1.094,-157.489,-48.237,25.847,0.0,131.0
182123,0.187,-0.263,1.027,-178.321,-107.084,-2.489,0.0,0.0
182189,0.319,-0.453,0.823,-123.687,-139.588,-35.771,0.0,0.0
182257,0.428,-0.290,0.346,-72.954,-102.756,-15.588,0.0,0.0
182313,0.566,-0.537,0.380,-58.183,-46.321,-15.328,25.0,0.0
182379,0.795,-0.657,0.500,-62.496,-22.573,-25.160,0.0,0.0
182435,1.040,-0.899,0.632,-38.450,-19.824,-45.832,28.0,0.0
182501,1.405,-0.694,0.725,-4.809,-12.130,-36.924,0.0,0.0
182556,1.038,-0.054,0.517,-27.992,9.565,-68.504,30.0,0.0
182615,0.361,-0.387,0.407,-74.656,23.122,-94.962,69.0,0.0
182673,-0.052,-0.319,0.206,43.084,-5.458,-66.527,65.0,0.0
182738,-0.034,-0.273,0.099,42.863,-32.969,-7.603,0.0,0.0
182800,0.203,-0.365,0.233,-46.458,-17.374,60.198,67.0,0.0
182857,0.318,-0.433,0.324,-67.901,-22.679,67.794,60.0,0.0
182916,0.397,-0.481,0.390,-6.328,-21.145,58.481,59.0,0.0
182981,0.785,-0.522,0.411,-14.015,-12.053,20.908,0.0,0.0
183047,1.163,-0.466,0.501,17.939,4.015,-6.405,0.0,0.0
183103,1.356,-0.633,0.487,-16.855,12.962,-14.130,30.0,0.0
183169,1.414,-0.814,0.563,7.198,-5.481,6.053,0.0,0.0
183224,1.384,-0.671,0.433,-3.206,-21.863,8.542,26.0,0.0
183280,1.443,-0.734,0.388,-1.435,-24.374,8.740,27.0,0.0
183339,1.498,-0.548,0.374,30.931,2.542,-5.153,25.0,0.0
183400,1.065,-0.108,0.322,-30.710,35.099,-58.893,25.0,0.0
183456,0.499,-0.190,0.230,-60.565,47.107,-93.886,52.0,0.0
183513,0.401,-0.359,0.309,-13.244,35.115,-75.962,57.0,0.0
183569,0.327,-0.244,0.273,29.695,28.664,-42.802,59.0,0.0
183626,0.483,-0.344,0.389,-9.176,14.817,-24.282,60.0,0.0
183691,0.205,-0.482,0.326,-38.450,-13.107,15.389,0.0,0.0
183755,0.514,-0.816,0.380,47.344,-56.115,68.382,0.0,0.0
183815,-0.002,-0.310,0.173,-21.237,-62.344,80.252,59.0,0.0
183871,0.379,-0.156,0.242,-102.481,-49.733,82.473,54.0,0.0
183937,1.176,-0.589,0.391,-55.977,-21.496,24.588,0.0,0.0
184001,1.715,-0.600,0.382,-24.992,-9.634,-24.489,0.0,0.0
184066,1.608,-0.856,0.374,12.389,-21.313,-53.985,0.0,0.0
184131,1.468,-0.637,0.303,33.939,-21.015,-83.649,0.0,0.0
184186,1.180,-0.346,0.249,44.954,-13.809,-97.435,37.0,0.0
184244,1.060,-0.076,0.256,50.901,-9.832,-102.664,70.0,0.0
184301,1.221,0.184,0.397,-2.092,8.435,-107.992,72.0,0.0
184369,1.069,0.277,0.452,-38.153,36.427,-130.702,0.0,0.0
184434,0.359,0.369,0.235,-17.137,24.435,-156.260,0.0,0.0
184499,0.261,-0.251,0.270,57.962,-44.473,-83.573,0.0,0.0
184563,0.742,0.523,-0.112,180.092,-65.870,30.771,0.0,0.0
184629,0.920,0.400,-0.003,-24.718,-48.580,8.298,0.0,0.0
184693,0.892,0.287,-0.047,45.855,-43.496,-1.565,0.0,0.0
184802,0.930,0.425,-0.250,50.298,-5.885,-27.038,0.0,0.0
184866,0.876,0.474,-0.252,48.405,-9.893,-28.229,0.0,0.0
184932,0.804,0.420,-0.279,6.626,-14.702,-35.321,0.0,0.0
184999,0.860,0.474,-0.307,18.252,-8.504,-31.504,0.0,0.0
185064,0.830,0.584,-0.358,12.748,6.145,-43.076,0.0,0.0
185128,0.736,0.792,-0.387,-2.198,15.580,-40.802,0.0,0.0
185194,0.823,0.995,-0.338,-57.053,20.534,-47.634,0.0,0.0
185259,0.856,0.657,-0.178,-29.534,33.191,-16.466,0.0,0.0
185324,0.702,0.446,0.122,-1.053,15.008,23.351,0.0,0.0
185389,0.713,0.799,0.040,-72.603,-5.137,18.015,0.0,0.0
185453,0.687,0.840,0.006,20.191,-15.145,26.580,0.0,0.0
185519,0.783,0.355,0.148,8.748,-13.267,54.527,0.0,0.0
185594,0.779,0.692,-0.115,-27.405,-24.321,56.817,0.0,0.0
185660,0.795,0.238,-0.157,131.542,-27.748,98.443,0.0,0.0
185725,0.915,0.713,-0.495,153.076,-15.405,130.725,0.0,0.0
185782,0.946,0.441,-0.469,-11.229,18.076,72.840,59.0,0.0
185839,0.895,0.152,-0.334,-24.733,43.099,73.481,60.0,0.0
185895,0.912,0.029,-0.239,8.550,49.374,78.924,52.0,0.0
185952,0.956,-0.015,-0.266,25.802,52.588,63.511,51.0,0.0
186009,1.005,-0.104,-0.149,20.099,49.008,60.298,52.0,0.0
186074,0.883,-0.226,-0.066,76.939,39.382,61.802,0.0,0.0
186133,0.833,-0.037,-0.038,105.511,26.939,65.511,50.0,0.0
186190,1.009,-0.010,0.094,81.237,16.817,65.618,51.0,0.0
186255,0.882,-0.129,0.067,32.008,7.626,63.084,0.0,0.0
186320,0.788,-0.306,0.039,79.847,3.641,60.267,0.0,0.0
186385,0.865,-0.211,0.023,101.450,6.924,80.031,0.0,0.0
186450,0.773,-0.265,0.053,17.053,17.718,74.336,0.0,0.0
186505,0.804,-0.388,0.157,14.282,23.290,61.290,23.0,0.0
186560,0.747,-0.507,0.166,35.359,19.992,30.076,20.0,0.0
186615,0.948,-0.471,0.210,30.107,32.847,-9.779,22.0,0.0
186673,1.058,-0.570,0.400,47.534,61.511,-35.015,19.0,0.0
186728,0.979,-0.305,0.406,50.702,101.435,-34.634,22.0,0.0
186782,0.762,-0.268,0.499,5.985,119.672,-35.099,20.0,0.0
186838,0.702,-0.369,0.670,21.107,127.282,-26.527,20.0,0.0
186893,0.584,-0.266,0.681,32.901,136.527,-22.344,21.0,0.0
186948,0.401,-0.184,0.786,5.023,132.084,-18.641,23.0,0.0
187003,0.231,-0.100,0.882,-9.679,121.847,-8.802,30.0,0.0
187069,0.128,-0.123,1.005,-10.366,111.679,5.557,0.0,0.0
187125,0.203,-0.235,1.102,25.504,116.595,7.733,51.0,0.0
187185,-0.011,-0.058,1.147,26.710,108.489,8.115,41.0,0.0
187241,-0.135,-0.122,1.215,42.977,75.305,10.038,41.0,0.0
187297,-0.056,-0.124,1.164,76.824,51.107,15.160,44.0,0.0
187353,-0.148,0.198,1.131,46.038,37.046,24.038,40.0,0.0
187409,-0.151,0.045,1.147,2.015,10.817,13.916,41.0,0.0
187465,-0.160,-0.035,1.099,43.702,-6.740,18.092,40.0,0.0
187521,-0.029,0.228,1.005,20.649,2.550,34.290,32.0,0.0
187577,-0.192,0.194,0.986,-20.740,2.374,23.153,31.0,0.0
187641,-0.130,-0.011,1.001,8.046,2.618,28.427,0.0,0.0
187701,-0.239,0.101,1.116,10.779,-16.527,9.397,38.0,0.0
187766,-0.097,0.040,1.036,25.092,-17.137,6.351,0.0,0.0
187866,-0.047,0.100,1.165,34.725,-7.947,5.542,36.0,0.0
187921,-0.054,0.152,0.988,39.389,-1.969,15.076,31.0,0.0
187977,-0.083,0.242,0.990,61.420,-3.153,12.511,30.0,0.0
188033,-0.071,0.465,0.928,29.489,-2.481,11.962,30.0,0.0
188098,-0.043,0.365,0.924,2.229,-0.672,10.557,0.0,0.0
188153,-0.086,0.359,0.957,-35.321,-0.473,3.290,36.0,0.0
188210,-0.044,0.192,0.996,-10.252,-0.832,8.824,44.0,0.0
188269,-0.054,0.332,0.969,-31.321,0.061,8.687,37.0,0.0
188335,-0.093,0.302,0.960,-49.427,1.641,17.427,0.0,0.0
188400,-0.099,0.162,1.034,-8.176,0.405,20.542,0.0,0.0
188455,-0.058,0.226,1.001,-28.015,-1.405,18.023,26.0,0.0
188521,-0.039,0.069,1.017,-6.733,-1.130,15.061,0.0,0.0
188576,-0.033,0.184,0.979,15.153,-3.084,10.626,26.0,0.0
188632,-0.080,0.136,1.032,33.863,-1.824,8.282,27.0,0.0
188697,-0.100,0.361,0.925,17.626,-2.107,8.168,0.0,0.0
188763,-0.080,0.242,0.988,9.924,-3.931,7.130,0.0,0.0
188831,-0.031,0.304,1.004,1.015,-2.916,5.557,0.0,0.0
188896,-0.049,0.296,0.971,2.634,-3.053,3.374,0.0,0.0
188961,-0.063,0.259,0.959,-2.786,-2.267,2.664,0.0,0.0
189027,-0.045,0.298,0.979,0.649,-2.244,2.046,0.0,0.0
189092,-0.074,0.255,0.980,-0.656,-2.046,4.092,0.0,0.0
189158,-0.064,0.261,1.000,2.282,-1.863,5.595,0.0,0.0
189223,-0.049,0.308,0.975,19.099,-3.069,6.282,0.0,0.0
189279,-0.056,0.274,0.979,19.573,-3.626,3.298,27.0,0.0
189334,-0.065,0.407,0.928,-5.092,-1.557,3.756,30.0,0.0
189403,-0.063,0.326,0.961,-0.214,-2.542,0.176,0.0,0.0
189459,-0.049,0.313,0.962,-4.954,-2.679,-3.588,26.0,0.0
189524,-0.054,0.360,0.974,1.076,-5.573,-7.015,0.0,0.0
189580,-0.038,0.374,0.963,-18.298,-4.511,-11.183,30.0,0.0
189636,-0.060,0.266,0.979,-25.557,-3.908,-11.084,34.0,0.0
189692,-0.076,0.287,0.975,-10.267,-4.580,-9.939,35.0,0.0
189748,-0.071,0.276,0.988,-26.740,-4.496,-9.748,30.0,0.0
189804,-0.055,0.316,0.931,-14.214,-5.878,-13.534,37.0,0.0
189861,-0.053,0.171,1.016,-17.099,-6.015,-18.397,40.0,0.0
189921,-0.061,0.180,0.988,21.069,-6.511,-9.710,35.0,0.0
189986,-0.050,0.204,0.950,27.504,-8.611,-12.237,0.0,0.0
190052,-0.104,0.229,1.000,22.962,-4.679,-2.710,0.0,0.0
190108,-0.110,0.246,0.982,37.748,-4.763,5.962,36.0,0.0
190164,-0.061,0.354,0.957,23.092,-2.710,10.679,36.0,0.0
190221,-0.021,0.419,0.926,26.687,-2.901,11.847,36.0,0.0
190277,-0.033,0.549,0.851,5.183,-2.519,5.931,36.0,0.0
190334,-0.074,0.409,0.935,-16.313,-1.771,1.916,69.0,0.0
190393,-0.053,0.346,0.976,-11.771,-1.053,5.031,71.0,0.0
190453,-0.074,0.340,0.970,3.420,-1.855,7.351,37.0,0.0
190509,-0.063,0.440,0.933,-0.443,-1.053,7.298,35.0,0.0
190565,-0.056,0.369,0.948,0.290,-0.740,8.931,32.0,0.0
190621,-0.062,0.422,0.913,-6.908,0.038,8.542,33.0,0.0
190678,-0.058,0.352,0.961,0.641,-0.725,8.756,34.0,0.0
190734,-0.056,0.412,0.935,-1.931,-1.527,5.977,36.0,0.0
190790,-0.052,0.368,0.949,0.611,-1.794,5.969,36.0,0.0
