Timestamp(ms),AccelX(g),AccelY(g),AccelZ(g),GyroX(deg/s),GyroY(deg/s),GyroZ(deg/s),DistanceLeft(cm),DistanceRight(cm)
543068,-0.144,-0.879,-0.463,-2.412,-2.260,4.901,96.0,0.0
543126,-0.147,-0.864,-0.459,-2.023,-1.725,5.252,95.0,0.0
543185,-0.152,-0.882,-0.456,-1.542,-0.901,5.275,96.0,0.0
543244,-0.154,-0.862,-0.479,-3.901,-1.038,5.237,96.0,0.0
543303,-0.147,-0.890,-0.457,-2.038,-2.412,4.840,95.0,0.0
543363,-0.146,-0.867,-0.457,-2.947,-2.198,5.015,96.0,0.0
543421,-0.146,-0.886,-0.460,-3.008,-2.145,5.359,96.0,0.0
543480,-0.148,-0.889,-0.457,-3.237,-1.443,5.260,96.0,0.0
543540,-0.145,-0.860,-0.470,-3.290,-1.275,5.260,96.0,0.0
543601,-0.153,-0.880,-0.456,-1.649,-1.191,5.206,96.0,0.0
543661,-0.151,-0.878,-0.461,-3.885,-1.855,5.084,96.0,0.0
543720,-0.144,-0.882,-0.456,-3.137,-2.206,5.099,96.0,0.0
543778,-0.147,-0.868,-0.460,-2.557,-1.504,5.206,96.0,0.0
543838,-0.144,-0.876,-0.462,-3.176,-0.870,5.099,96.0,0.0
543897,-0.147,-0.874,-0.468,-2.489,-0.656,5.061,96.0,0.0
543955,-0.148,-0.886,-0.469,-1.550,-1.214,5.031,96.0,0.0
544016,-0.148,-0.871,-0.470,-4.740,-2.527,5.374,103.0,0.0
544075,-0.138,-0.875,-0.463,-1.702,-2.313,5.206,105.0,0.0
544138,-0.142,-0.873,-0.454,-3.924,-1.672,5.053,105.0,0.0
544193,-0.148,-0.879,-0.453,-3.122,-1.237,5.466,16.0,0.0
544247,-0.145,-0.877,-0.469,-2.817,-1.458,5.344,16.0,0.0
544302,-0.151,-0.882,-0.467,-2.573,-1.672,4.969,16.0,0.0
544357,-0.145,-0.871,-0.453,-2.748,-1.382,4.641,16.0,0.0
544411,-0.141,-0.873,-0.465,-2.473,-1.641,5.023,16.0,0.0
544465,-0.145,-0.874,-0.463,-3.046,-1.603,5.427,16.0,0.0
544521,-0.147,-0.875,-0.458,-3.176,-1.626,5.634,16.0,0.0
544575,-0.146,-0.875,-0.472,-2.351,-1.817,5.878,16.0,0.0
544633,-0.142,-0.876,-0.453,-2.099,-1.817,5.397,16.0,0.0
544688,-0.139,-0.873,-0.468,-2.977,-1.656,5.092,16.0,0.0
544742,-0.140,-0.878,-0.469,-1.855,-1.550,5.115,16.0,0.0
544797,-0.139,-0.880,-0.473,-2.015,-1.702,4.802,16.0,0.0
544851,-0.136,-0.872,-0.461,-1.756,-1.389,5.107,16.0,0.0
544917,-0.144,-0.882,-0.467,-2.649,-1.878,5.084,0.0,0.0
544971,-0.143,-0.880,-0.458,-3.718,-2.015,5.725,16.0,0.0
545027,-0.139,-0.874,-0.458,-2.198,-1.756,5.931,16.0,0.0
545084,-0.145,-0.880,-0.461,-3.084,-1.214,5.641,16.0,0.0
545139,-0.144,-0.865,-0.459,-3.366,-0.992,4.832,16.0,0.0
545193,-0.144,-0.881,-0.460,-2.298,-1.504,5.443,16.0,0.0
545249,-0.144,-0.877,-0.456,-3.145,-2.237,5.359,16.0,0.0
545303,-0.141,-0.878,-0.461,-2.824,-2.038,5.466,16.0,0.0
545358,-0.141,-0.878,-0.454,-3.252,-1.878,5.168,16.0,0.0
545413,-0.138,-0.868,-0.464,-3.267,-1.366,5.420,16.0,0.0
545468,-0.139,-0.883,-0.459,-3.115,-1.351,5.145,16.0,0.0
545522,-0.147,-0.869,-0.467,-2.840,-1.542,5.344,16.0,0.0
545591,-0.140,-0.875,-0.472,-5.824,-1.672,6.153,0.0,0.0
545646,-0.137,-0.893,-0.465,-2.695,-2.229,5.412,16.0,0.0
545700,-0.141,-0.875,-0.466,-0.969,-1.397,5.282,16.0,0.0
545756,-0.140,-0.878,-0.453,-2.405,-0.573,4.878,16.0,0.0
545815,-0.137,-0.874,-0.467,-1.092,-0.840,5.008,97.0,0.0
545869,-0.140,-0.874,-0.468,-2.229,-1.870,5.069,16.0,0.0
545973,-0.141,-0.873,-0.458,-2.511,-3.947,5.863,97.0,0.0
546032,-0.140,-0.880,-0.456,-2.641,-2.519,5.649,97.0,0.0
546092,-0.139,-0.879,-0.458,-3.023,-0.992,5.420,98.0,0.0
546154,-0.141,-0.877,-0.475,-2.748,-0.687,5.168,98.0,0.0
546209,-0.139,-0.867,-0.467,-3.313,-1.947,6.069,16.0,0.0
546265,-0.138,-0.881,-0.469,-2.206,-3.061,5.458,16.0,0.0
546324,-0.141,-0.865,-0.463,-2.061,-2.053,5.443,98.0,0.0
546383,-0.142,-0.876,-0.456,-2.443,-0.969,4.496,98.0,0.0
546443,-0.137,-0.868,-0.468,-2.908,-1.160,5.359,98.0,0.0
546498,-0.141,-0.890,-0.473,-1.954,-1.107,5.427,16.0,0.0
546553,-0.134,-0.866,-0.463,-2.000,-1.122,5.053,16.0,0.0
546608,-0.135,-0.877,-0.456,-1.473,0.733,4.427,16.0,0.0
546666,-0.124,-0.879,-0.455,-1.863,0.733,4.405,16.0,0.0
546721,-0.138,-0.882,-0.462,-1.176,-1.374,5.053,16.0,0.0
546776,-0.137,-0.879,-0.455,-1.588,-2.092,5.115,16.0,0.0
546831,-0.135,-0.871,-0.453,-2.595,-1.763,5.267,16.0,0.0
546886,-0.137,-0.883,-0.448,-2.435,-1.221,5.427,16.0,0.0
546941,-0.139,-0.874,-0.453,-3.328,-1.092,5.733,16.0,0.0
546996,-0.131,-0.873,-0.463,-3.176,-0.969,6.237,16.0,0.0
547051,-0.135,-0.890,-0.457,-2.786,-1.931,6.435,16.0,0.0
547106,-0.138,-0.879,-0.453,-1.687,-1.618,5.198,16.0,0.0
547165,-0.137,-0.872,-0.460,-3.725,-1.740,5.313,16.0,0.0
547220,-0.139,-0.876,-0.457,-2.534,-1.588,5.244,16.0,0.0
547274,-0.134,-0.884,-0.453,-2.397,-1.656,5.176,16.0,0.0
547330,-0.133,-0.891,-0.453,-2.695,-1.450,5.015,16.0,0.0
547385,-0.139,-0.862,-0.452,-3.725,-0.840,5.450,16.0,0.0
547440,-0.140,-0.886,-0.448,-4.359,-1.748,5.817,16.0,0.0
547495,-0.133,-0.862,-0.467,-6.229,-2.939,5.863,16.0,0.0
547551,-0.141,-0.885,-0.460,-4.634,-2.954,6.237,16.0,0.0
547605,-0.131,-0.876,-0.462,-3.282,-1.366,5.618,16.0,0.0
547663,-0.139,-0.865,-0.481,-2.901,-0.374,5.618,16.0,0.0
547719,-0.146,-0.878,-0.492,0.053,-1.740,4.527,16.0,0.0
547774,-0.138,-0.884,-0.480,2.038,-1.031,3.550,16.0,0.0
547833,-0.125,-0.897,-0.444,7.229,0.733,2.107,96.0,0.0
547894,-0.126,-0.868,-0.449,10.840,4.756,1.954,96.0,0.0
547948,-0.121,-0.890,-0.438,14.397,9.191,0.863,16.0,0.0
548008,-0.108,-0.900,-0.421,3.641,12.954,-1.298,95.0,0.0
548068,-0.095,-0.940,-0.418,14.031,16.542,-5.282,95.0,0.0
548127,-0.095,-0.896,-0.414,16.718,13.725,-10.573,95.0,0.0
548191,-0.060,-0.988,-0.395,2.489,10.153,-19.282,95.0,0.0
548250,-0.107,-0.859,-0.415,-16.336,2.809,-26.893,96.0,0.0
548311,-0.106,-1.072,-0.301,-29.756,-35.130,-55.397,97.0,0.0
548370,0.017,-1.001,-0.437,-14.168,-63.298,-78.282,98.0,0.0
548430,0.181,-1.100,-0.448,-8.321,-69.084,-107.137,102.0,0.0
548491,0.249,-0.955,-0.518,17.908,-41.084,-127.519,105.0,0.0
548552,0.364,-0.772,-0.503,10.382,-8.924,-114.519,109.0,0.0
548618,0.414,-0.672,-0.472,0.824,14.901,-96.275,0.0,0.0
548686,0.482,-0.636,-0.426,-22.237,32.924,-70.397,0.0,0.0
548753,0.525,-0.651,-0.413,-15.878,37.542,-48.710,0.0,0.0
548818,0.542,-0.602,-0.388,6.099,31.557,-29.779,0.0,0.0
548927,0.632,-0.417,-0.421,1.206,17.794,40.916,0.0,0.0
548994,0.682,-0.775,-0.322,-63.031,2.878,43.229,0.0,0.0
549049,0.614,-0.937,-0.241,23.244,-6.275,37.267,30.0,0.0
549105,0.654,-0.843,-0.378,23.695,1.580,14.359,30.0,0.0
549171,0.631,-0.880,-0.362,30.969,21.496,-12.336,0.0,0.0
549237,0.691,-0.279,-0.483,51.313,72.206,15.443,0.0,0.0
549306,0.632,-0.939,-0.110,-83.260,87.305,17.580,0.0,0.0
549372,0.477,-1.300,0.102,39.954,5.740,-31.099,0.0,0.0
549438,0.398,-0.052,-0.316,50.458,-28.969,-6.611,0.0,0.0
549504,0.588,-0.709,-0.218,-23.634,-18.939,56.015,0.0,0.0
549570,0.977,-1.407,-0.067,-3.855,-11.252,-39.092,0.0,0.0
549636,0.687,-0.623,-0.134,9.969,-1.878,-88.702,0.0,0.0
549701,0.554,-0.444,-0.209,16.344,1.351,-20.115,0.0,0.0
549768,0.794,-0.730,-0.214,-21.122,5.183,-19.756,0.0,0.0
549823,0.814,-0.789,-0.238,58.397,27.076,-48.267,20.0,0.0
549882,0.829,-0.491,-0.254,32.748,51.855,-61.740,23.0,0.0
549944,0.899,-0.417,-0.147,7.481,78.412,-46.962,21.0,0.0
549998,0.867,-0.342,-0.061,6.107,97.305,-27.504,21.0,0.0
550052,0.821,-0.244,0.077,-14.305,106.473,-4.458,22.0,0.0
550108,0.779,-0.321,0.203,-36.153,85.962,19.687,21.0,0.0
550162,0.861,-0.548,0.316,33.244,85.000,33.687,21.0,0.0
550217,0.819,-0.319,0.200,88.985,102.916,40.351,22.0,0.0
550272,0.726,-0.183,0.268,45.008,127.886,39.061,22.0,0.0
550328,0.399,-0.175,0.388,-66.519,106.359,44.626,51.0,0.0
550395,0.254,-0.361,0.625,-153.092,48.046,46.534,0.0,0.0
550461,0.312,-0.969,0.941,78.985,6.466,40.237,0.0,0.0
550525,0.198,-0.422,0.744,225.985,8.168,57.115,0.0,0.0
550582,0.150,-0.171,0.805,109.183,18.725,43.695,44.0,0.0
550646,0.306,-0.279,0.988,25.076,20.275,15.634,0.0,0.0
550712,0.128,-0.396,1.125,63.672,36.351,7.832,0.0,0.0
550776,0.117,-0.173,1.132,60.298,16.252,0.969,0.0,0.0
550831,0.313,-0.417,1.267,84.565,-15.481,-28.779,16.0,0.0
550896,0.190,-0.091,1.078,80.870,-26.702,-20.122,0.0,0.0
550964,0.455,0.095,0.955,105.137,-31.573,15.885,0.0,0.0
551020,0.545,-0.148,1.065,71.855,-21.664,-1.985,0.0,44.0
551066,0.644,0.204,0.833,91.298,1.908,27.664,30.0,45.0
551121,0.599,0.347,0.816,-5.855,18.626,14.641,29.0,0.0
551186,0.505,0.120,0.951,-89.947,19.580,-9.985,0.0,0.0
551242,0.285,0.009,1.050,1.405,20.374,2.542,0.0,44.0
551299,0.279,0.231,0.969,3.038,12.176,8.626,0.0,44.0
551355,0.319,0.085,0.915,-5.092,4.244,4.641,0.0,44.0
551410,0.400,0.045,0.958,12.634,0.916,-0.046,0.0,44.0
551470,0.388,0.129,1.025,30.824,5.718,0.130,0.0,43.0
551526,0.241,0.292,1.029,-9.153,-2.267,5.863,0.0,43.0
551581,0.333,0.203,0.868,-21.931,-2.000,-0.145,0.0,44.0
551638,0.358,0.015,1.005,-8.260,-7.832,6.878,0.0,44.0
551694,0.312,0.140,0.986,-14.534,-2.863,2.809,0.0,44.0
551750,0.370,0.182,0.945,-26.115,-5.397,6.779,0.0,43.0
551806,0.343,0.097,0.941,-42.725,-4.023,5.550,0.0,43.0
551863,0.339,0.053,0.980,-34.084,-2.107,4.794,0.0,45.0
551962,0.308,0.010,0.954,-25.237,0.672,9.038,0.0,47.0
552030,0.276,-0.008,0.927,-16.405,-1.779,3.809,0.0,0.0
552095,0.349,0.082,0.977,-19.443,-1.969,6.756,0.0,0.0
552160,0.366,-0.070,0.965,-23.160,-2.397,7.168,0.0,0.0
552225,0.393,-0.034,0.940,-26.366,-4.565,5.511,0.0,0.0
552291,0.366,-0.093,0.933,-21.634,1.282,5.771,0.0,0.0
552355,0.266,-0.132,0.973,-8.229,3.122,6.053,0.0,0.0
552421,0.222,-0.067,0.950,15.634,-2.924,2.649,0.0,0.0
552485,0.297,-0.077,0.957,16.573,-1.023,0.359,0.0,0.0
552551,0.253,-0.017,1.009,85.916,-5.649,2.679,0.0,0.0
552620,0.233,0.168,0.922,15.473,-12.412,5.435,0.0,0.0
552684,0.257,-0.015,1.010,-12.588,-14.427,12.496,0.0,0.0
552740,0.277,0.136,0.930,59.603,-16.206,35.023,0.0,45.0
552797,0.421,0.173,0.899,33.466,-4.901,14.458,0.0,43.0
552853,0.418,0.202,0.943,-29.458,-0.023,11.397,0.0,44.0
552909,0.483,0.056,0.993,-5.061,4.809,0.244,0.0,44.0
552966,0.393,0.162,0.901,13.466,4.855,-8.519,0.0,45.0
553022,0.233,0.223,0.853,-1.038,2.664,-18.847,0.0,46.0
553078,0.338,0.095,1.009,17.023,2.534,-13.954,0.0,47.0
553139,0.310,0.239,0.904,4.496,1.740,-9.458,0.0,47.0
553195,0.360,0.104,0.984,4.710,4.023,-6.366,0.0,47.0
553251,0.354,0.237,0.917,14.420,2.183,5.382,0.0,47.0
553308,0.253,0.155,0.940,1.183,1.122,7.817,0.0,49.0
553364,0.284,0.201,0.985,9.221,-0.305,10.053,0.0,50.0
553421,0.323,0.211,0.959,-1.580,4.496,14.405,0.0,51.0
553478,0.340,0.249,0.920,-17.511,4.008,9.611,0.0,50.0
553534,0.343,0.233,0.931,1.099,0.237,12.267,0.0,51.0
553591,0.248,0.228,0.927,-14.908,-1.908,11.168,0.0,53.0
553649,0.377,0.135,0.951,23.473,0.107,14.618,0.0,55.0
553708,0.293,0.245,0.954,8.366,5.229,9.626,0.0,54.0
553765,0.312,0.256,0.985,-8.664,-0.779,9.916,0.0,55.0
553823,0.338,0.195,0.967,10.466,-2.092,13.115,0.0,57.0
553880,0.354,0.238,0.940,8.305,-4.519,14.275,0.0,57.0
553936,0.293,0.291,0.870,-1.893,-6.290,11.282,0.0,58.0
553994,0.330,0.181,0.932,-2.855,1.282,6.450,0.0,59.0
554051,0.313,0.210,0.957,28.313,4.985,12.763,0.0,61.0
554109,0.311,0.251,0.964,10.779,-3.038,9.901,0.0,62.0
554167,0.323,0.233,0.955,12.534,4.244,10.015,0.0,63.0
554227,0.309,0.337,0.932,-0.305,1.519,6.863,0.0,65.0
554285,0.343,0.266,0.958,7.069,4.702,13.511,0.0,66.0
554343,0.370,0.295,0.912,-20.183,1.473,5.527,0.0,71.0
554401,0.314,0.055,1.046,12.076,-0.924,10.733,0.0,69.0
554459,0.239,0.300,0.914,30.565,1.031,13.603,0.0,70.0
554517,0.296,0.356,0.885,8.198,-3.260,15.450,0.0,71.0
554575,0.374,0.304,0.920,0.725,-3.366,16.382,0.0,79.0
554634,0.328,0.063,1.017,18.038,0.733,14.992,0.0,73.0
554692,0.302,0.389,0.804,20.237,5.939,7.389,0.0,74.0
554754,0.323,0.278,0.938,2.031,3.641,0.679,0.0,76.0
554812,0.325,0.460,0.916,-8.267,2.656,5.641,0.0,78.0
554870,0.278,0.257,0.943,-14.351,-4.321,5.122,0.0,79.0
554973,0.262,0.409,0.897,11.947,0.947,6.885,0.0,79.0
555031,0.399,0.290,0.890,17.328,-1.397,5.916,0.0,80.0
555089,0.276,0.303,0.818,10.794,7.412,5.893,0.0,82.0
555149,0.311,0.394,0.929,-15.031,0.565,2.969,0.0,83.0
555207,0.202,0.310,0.895,-3.450,-8.221,15.122,0.0,83.0
555256,0.327,0.224,0.938,-26.763,-8.672,6.519,31.0,83.0
555305,0.351,0.271,0.950,10.015,-5.748,10.733,30.0,84.0
555368,0.303,0.368,0.865,-5.046,-0.779,1.832,0.0,84.0
555426,0.257,0.319,0.951,4.191,-1.863,6.634,0.0,84.0
555486,0.445,0.202,0.934,-22.794,5.198,7.496,0.0,85.0
555535,0.295,0.259,0.920,17.626,9.634,2.962,30.0,84.0
555593,0.254,0.378,0.892,16.878,5.061,0.183,0.0,84.0
555653,0.281,0.328,0.968,19.565,4.382,3.489,0.0,84.0
555702,0.250,0.412,0.896,-2.985,9.321,-8.137,32.0,84.0
555751,0.230,0.414,0.932,-8.145,0.916,-3.107,32.0,83.0
555809,0.262,0.402,0.923,-5.969,-1.008,3.672,0.0,83.0
555881,0.202,0.399,0.895,-33.611,-7.122,7.382,0.0,82.0
555940,0.179,0.319,0.869,-14.099,-1.443,11.580,0.0,83.0
555990,0.291,0.280,0.887,7.718,0.939,5.687,33.0,83.0
556048,0.263,0.305,0.932,22.878,6.107,-1.221,0.0,83.0
556107,0.284,0.439,0.947,9.290,2.099,-0.061,0.0,83.0
556166,0.262,0.468,0.887,-2.084,-1.084,7.496,0.0,83.0
556225,0.251,0.372,0.885,-2.992,-0.718,6.573,0.0,83.0
556284,0.243,0.376,0.921,5.382,-0.076,9.267,0.0,83.0
556343,0.239,0.438,0.895,-9.282,-0.481,6.962,0.0,83.0
556405,0.257,0.356,0.918,-4.389,0.328,5.038,0.0,83.0
556465,0.241,0.385,0.918,1.840,-0.053,3.069,0.0,83.0
556523,0.249,0.408,0.930,-2.031,-1.023,4.015,0.0,83.0
556582,0.224,0.393,0.904,-13.992,-4.153,6.115,0.0,83.0
556642,0.271,0.384,0.903,-9.427,-0.656,7.344,0.0,83.0
556700,0.230,0.347,0.910,-9.298,1.496,5.924,0.0,83.0
556760,0.249,0.381,0.927,4.000,-0.840,4.916,0.0,83.0
556818,0.237,0.368,0.933,-2.336,-0.870,3.069,0.0,83.0
556877,0.226,0.372,0.922,-2.328,-1.985,4.061,0.0,83.0
556937,0.240,0.369,0.916,0.130,-0.985,3.748,0.0,83.0
556999,0.232,0.395,0.914,-3.305,-0.832,5.214,0.0,83.0
557058,0.234,0.368,0.917,-1.672,-1.328,5.260,0.0,83.0
557117,0.230,0.385,0.930,-3.656,-1.733,4.809,0.0,83.0
557176,0.232,0.394,0.907,-3.069,-1.817,5.084,0.0,83.0
557236,0.232,0.386,0.909,-3.573,-1.298,4.870,0.0,83.0
557294,0.243,0.377,0.920,-0.481,-1.267,4.786,0.0,83.0
557353,0.224,0.374,0.932,-3.962,-1.527,5.137,0.0,83.0
557418,0.231,0.367,0.927,-2.023,-0.725,5.321,0.0,83.0
557476,0.224,0.378,0.925,-1.046,-1.107,5.305,0.0,83.0
557537,0.219,0.376,0.913,1.519,-1.107,5.626,0.0,83.0
557595,0.241,0.372,0.923,-4.198,-0.832,4.328,0.0,83.0
557654,0.230,0.395,0.881,5.901,-0.557,8.901,0.0,83.0
557711,0.204,0.349,0.934,-5.137,-2.763,4.786,0.0,82.0
557769,0.233,0.412,0.896,4.977,-1.397,6.160,0.0,83.0
557828,0.217,0.424,0.921,-2.557,-2.053,6.084,0.0,83.0
557929,0.237,0.386,0.912,-2.328,-1.031,4.046,0.0,83.0
557987,0.223,0.391,0.913,5.466,-0.901,4.527,0.0,82.0
558045,0.242,0.405,0.909,1.702,-1.290,4.099,0.0,82.0
558106,0.225,0.433,0.905,1.466,-0.496,5.229,0.0,82.0
558164,0.207,0.398,0.895,-0.267,-1.389,6.618,0.0,82.0
558222,0.234,0.418,0.916,-3.076,-2.153,4.344,0.0,82.0
558280,0.235,0.385,0.923,3.939,-1.260,5.061,0.0,82.0
558339,0.186,0.412,0.868,1.130,-3.252,3.992,0.0,82.0
558397,0.219,0.430,0.910,0.718,-2.450,5.496,0.0,82.0
558455,0.234,0.439,0.903,-1.489,-3.649,7.206,0.0,82.0
558513,0.248,0.400,0.891,-5.168,-2.344,7.733,0.0,82.0
558571,0.250,0.436,0.887,-0.534,-2.267,7.252,0.0,82.0
558629,0.260,0.388,0.898,-5.626,-2.412,2.550,0.0,81.0
558691,0.262,0.416,0.900,1.733,-2.176,2.656,0.0,81.0
558748,0.232,0.454,0.903,2.038,-3.008,2.489,0.0,80.0
558807,0.238,0.420,0.865,-5.107,-4.786,2.237,0.0,80.0
558865,0.249,0.417,0.944,0.000,-2.450,2.588,0.0,80.0
558922,0.218,0.453,0.885,-8.870,-6.687,2.550,0.0,79.0
558981,0.211,0.411,0.848,-2.527,-3.565,4.328,0.0,78.0
559039,0.207,0.384,0.961,-8.153,-1.634,1.527,0.0,77.0
559096,0.241,0.366,0.913,-9.473,-4.794,-2.305,0.0,77.0
559155,0.249,0.449,0.885,7.870,-0.740,0.198,0.0,76.0
559215,0.212,0.444,0.880,-3.740,1.176,9.893,0.0,75.0
559273,0.217,0.409,0.894,-13.519,1.908,13.427,0.0,75.0
559331,0.229,0.375,0.942,6.916,-2.344,11.802,0.0,74.0
559389,0.240,0.428,0.879,-6.221,-1.023,5.214,0.0,73.0
559447,0.240,0.418,0.910,0.756,-3.344,4.885,0.0,73.0
559505,0.308,0.436,0.879,-10.511,-8.282,3.496,0.0,72.0
559553,0.242,0.348,0.906,2.458,0.260,6.008,37.0,71.0
559610,0.208,0.426,0.906,-0.756,-1.221,5.809,0.0,70.0
559668,0.276,0.411,0.889,-4.275,-3.992,7.046,0.0,70.0
559726,0.242,0.357,0.937,-0.153,0.634,6.412,0.0,67.0
559780,0.288,0.438,0.868,-6.824,0.420,5.565,0.0,66.0
559838,0.258,0.438,0.896,5.092,1.130,11.954,0.0,65.0
559895,0.260,0.370,0.912,-4.595,1.885,10.580,0.0,64.0
559952,0.242,0.427,0.888,2.374,1.298,11.214,0.0,62.0
560010,0.251,0.374,0.901,-4.267,-0.542,9.473,0.0,60.0
560058,0.232,0.418,0.918,2.794,0.626,11.618,37.0,58.0
560105,0.273,0.448,0.867,-7.382,-1.229,10.580,38.0,59.0
560162,0.240,0.390,0.901,5.603,1.084,14.198,0.0,57.0
560209,0.210,0.463,0.848,-4.427,-0.237,11.748,37.0,57.0
560270,0.249,0.346,0.894,-3.160,0.847,11.840,0.0,55.0
560326,0.190,0.446,0.921,7.527,0.672,10.962,0.0,53.0
560384,0.236,0.433,0.830,-10.908,-0.435,9.771,0.0,53.0
560445,0.181,0.519,0.862,6.244,1.321,12.382,0.0,139.0
560502,0.202,0.431,0.955,7.351,-0.901,12.901,0.0,55.0
560559,0.228,0.448,0.863,-12.985,-1.580,10.237,0.0,52.0
560615,0.263,0.444,0.893,1.183,0.366,10.351,0.0,49.0
560672,0.121,0.467,0.829,2.794,-1.939,11.878,0.0,48.0
560729,0.206,0.353,0.944,-4.634,-0.832,10.221,0.0,57.0
560841,0.233,0.479,0.906,3.489,-4.038,11.015,0.0,0.0
560906,0.229,0.379,0.902,-14.305,-1.794,12.351,0.0,0.0
560958,0.247,0.368,0.964,-6.985,-2.344,13.840,38.0,131.0
561024,0.212,0.544,0.867,-22.107,-11.489,18.847,0.0,0.0
561085,0.289,0.248,0.943,-43.305,-16.817,20.298,0.0,127.0
561142,0.319,0.323,0.904,-47.405,-16.397,19.977,0.0,57.0
561203,0.297,0.286,0.968,-31.244,-12.168,17.534,0.0,126.0
561268,0.310,0.267,0.982,-28.969,-15.405,13.573,0.0,0.0
561334,0.324,0.202,0.923,-6.206,-21.786,11.397,0.0,0.0
561402,0.417,0.283,0.853,7.168,-13.282,12.046,0.0,0.0
561468,0.378,0.248,0.886,-3.672,-2.176,11.771,0.0,0.0
561533,0.396,0.216,0.920,11.641,4.565,19.023,0.0,0.0
561599,0.398,0.182,0.939,-12.863,-7.885,28.664,0.0,0.0
561665,0.193,0.506,1.009,-146.397,-37.260,41.244,0.0,0.0
561730,0.535,-0.401,0.697,-55.443,-59.267,76.763,0.0,0.0
561795,0.554,-0.267,0.808,36.695,-27.038,48.473,0.0,0.0
561860,0.575,-0.152,0.854,29.626,7.794,15.802,0.0,0.0
561926,0.522,0.190,1.022,-51.656,19.863,26.695,0.0,0.0
561994,0.571,-0.338,1.141,-104.023,-14.519,16.405,0.0,0.0
562060,0.535,-0.327,0.980,-51.885,-0.214,5.710,0.0,0.0
562125,0.431,-0.227,0.838,-52.092,-4.366,-7.847,0.0,0.0
562187,0.437,-0.223,0.792,-18.855,0.626,-29.885,0.0,118.0
562238,0.412,-0.086,0.691,-41.504,-4.840,-27.656,36.0,116.0
562298,0.501,-0.258,0.707,-14.847,0.252,-28.580,0.0,114.0
562364,0.556,-0.093,0.672,-53.901,1.237,-45.634,0.0,0.0
562420,0.512,-0.301,0.722,-29.870,7.481,-44.855,34.0,0.0
562477,0.546,-0.295,0.873,-25.687,18.511,-44.015,37.0,0.0
562545,0.522,-0.289,0.877,-12.840,10.420,-52.763,0.0,0.0
562611,0.422,-0.343,0.969,7.985,4.626,-53.603,0.0,0.0
562676,0.635,-0.024,0.815,-2.565,2.931,-29.427,0.0,0.0
562742,0.528,-0.250,0.877,-20.153,0.947,-17.641,0.0,0.0
562807,0.565,0.025,0.760,-46.847,-11.229,-19.115,0.0,0.0
562866,0.622,-0.221,0.805,-69.725,-20.389,-18.779,68.0,0.0
562924,0.633,-0.338,0.857,-29.672,-20.733,-11.031,68.0,0.0
562981,0.602,-0.224,0.737,23.702,-14.466,9.038,67.0,0.0
563040,0.575,-0.106,0.688,-40.573,-12.282,-0.336,67.0,0.0
563101,0.609,-0.277,0.717,-18.237,-14.420,18.115,67.0,0.0
563160,0.689,-0.314,0.722,-24.824,-19.053,12.756,66.0,0.0
563218,0.691,-0.326,0.739,-4.435,-14.481,15.977,67.0,0.0
563275,0.697,-0.298,0.697,-4.176,-12.725,10.794,66.0,0.0
563334,0.659,-0.305,0.688,-6.939,-11.504,10.588,66.0,0.0
563392,0.674,-0.349,0.662,-6.115,-9.443,8.809,66.0,0.0
563449,0.676,-0.325,0.674,-5.786,-7.435,8.794,67.0,0.0
563508,0.626,-0.333,0.677,-4.260,-7.076,8.496,66.0,0.0
563566,0.704,-0.348,0.680,9.359,-8.336,5.779,73.0,0.0
563628,0.696,-0.328,0.656,-4.534,-3.389,5.565,67.0,0.0
563685,0.724,-0.350,0.675,2.504,0.260,5.374,67.0,0.0
563743,0.675,-0.312,0.678,-0.863,1.084,3.359,66.0,0.0
563802,0.682,-0.300,0.685,1.427,-0.649,4.763,67.0,0.0
563859,0.688,-0.278,0.662,7.527,-1.145,5.466,67.0,0.0
563960,0.652,-0.300,0.680,0.649,4.817,4.519,67.0,0.0
564019,0.580,-0.267,0.696,14.519,6.298,8.023,66.0,0.0
564077,0.618,-0.260,0.681,-8.397,7.527,16.466,66.0,0.0
564134,0.662,-0.308,0.686,-0.718,12.252,19.893,65.0,0.0
564196,0.667,-0.270,0.697,-2.061,19.977,21.206,65.0,0.0
564255,0.528,-0.286,0.764,10.305,28.160,38.664,75.0,0.0
564313,0.357,-0.268,0.730,5.450,49.550,76.069,64.0,0.0
564369,0.338,-0.421,0.858,48.359,73.282,115.771,38.0,0.0
564435,0.237,-0.244,0.943,50.855,31.038,81.550,0.0,0.0
564501,0.379,-0.373,0.981,89.718,-18.214,68.397,0.0,0.0
564567,0.402,-0.155,0.784,75.305,-36.504,49.267,0.0,0.0
564633,0.569,-0.237,0.863,84.565,-24.260,34.847,0.0,0.0
564699,0.639,-0.209,1.010,29.725,4.473,35.985,0.0,0.0
564767,0.502,-0.290,1.121,42.160,-12.802,22.107,0.0,0.0
564834,0.325,-0.055,0.954,158.168,-23.573,44.817,0.0,0.0
564889,0.342,0.208,0.838,107.412,-21.160,44.122,23.0,0.0
564945,0.456,0.262,0.895,30.374,-11.947,31.702,25.0,0.0
565011,0.430,0.091,0.920,9.443,7.901,28.779,0.0,0.0
565078,0.447,0.205,0.943,3.947,10.832,20.328,0.0,0.0
565138,0.358,0.062,0.986,2.832,8.046,12.443,24.0,0.0
565192,0.423,0.169,0.919,33.191,12.626,12.954,25.0,0.0
565248,0.377,0.342,0.840,14.855,12.137,11.229,23.0,0.0
565305,0.441,0.246,0.904,-9.672,12.275,1.496,23.0,0.0
565359,0.353,0.269,0.910,6.038,17.076,11.359,22.0,0.0
565414,0.351,0.260,0.925,3.519,11.496,6.344,22.0,0.0
565479,0.357,0.169,0.954,14.763,13.947,2.893,0.0,0.0
565533,0.347,0.219,0.905,23.550,17.817,-5.046,0.0,16.0
565587,0.248,0.300,0.889,30.832,16.092,-0.786,0.0,10.0
565645,0.308,0.332,0.983,57.282,15.664,6.053,0.0,71.0
565689,0.328,0.362,0.969,5.870,2.504,-9.351,29.0,11.0
565743,0.255,0.359,0.935,22.870,-1.641,-2.298,0.0,17.0
565797,0.259,0.422,0.870,14.107,-2.534,3.557,0.0,18.0
565855,0.324,0.333,0.876,-9.198,3.733,-2.557,0.0,17.0
565900,0.256,0.283,0.958,9.374,4.405,1.298,29.0,22.0
565944,0.244,0.358,0.898,22.603,6.221,-1.550,26.0,16.0
565989,0.255,0.511,0.861,0.908,16.290,14.206,28.0,16.0
566033,0.188,0.511,0.916,-47.534,8.679,10.115,28.0,16.0
566078,0.227,0.372,0.900,-65.725,-2.321,8.504,27.0,18.0
566122,0.267,0.267,0.907,-72.130,8.504,6.588,28.0,19.0
566167,0.225,0.149,0.984,-31.557,10.435,7.908,28.0,20.0
566212,0.158,0.172,1.009,0.458,0.611,1.168,28.0,19.0
566259,0.263,0.356,0.883,-15.931,3.824,6.611,30.0,21.0
566304,0.204,0.226,1.012,-24.107,2.779,10.511,29.0,21.0
566349,0.212,0.187,0.978,4.763,4.840,14.664,30.0,22.0
566394,0.238,0.183,0.922,25.023,6.366,11.244,29.0,22.0
566439,0.232,0.223,0.966,42.435,8.855,7.122,29.0,24.0
566484,0.139,0.304,0.979,52.137,9.313,12.336,30.0,24.0
566530,0.225,0.492,0.917,33.947,2.145,17.656,28.0,24.0
566575,0.191,0.440,0.917,-4.969,1.366,13.321,27.0,26.0
566620,0.208,0.315,0.946,-5.145,1.824,14.985,29.0,30.0
566712,0.239,0.382,0.923,2.359,3.740,13.794,30.0,27.0
566757,0.175,0.335,0.957,0.206,2.664,11.489,30.0,29.0
566803,0.188,0.363,0.932,-5.893,0.527,10.863,31.0,30.0
566848,0.223,0.313,0.958,0.107,0.275,11.305,33.0,29.0
566903,0.167,0.337,0.927,0.351,2.061,7.023,0.0,30.0
566959,0.207,0.365,0.923,2.534,-1.672,6.702,0.0,31.0
567015,0.199,0.357,0.933,1.130,0.420,6.053,0.0,32.0
567070,0.194,0.378,0.939,2.023,-1.588,7.733,0.0,32.0
567126,0.165,0.375,0.926,-0.855,-0.916,4.939,0.0,33.0
567175,0.201,0.378,0.940,-3.878,-1.466,5.290,32.0,33.0
567220,0.198,0.380,0.922,-2.458,-0.611,6.687,32.0,34.0
567266,0.174,0.404,0.904,-1.534,-2.107,4.893,32.0,34.0
567312,0.206,0.365,0.953,-3.496,-2.145,4.443,31.0,35.0
567358,0.188,0.377,0.922,-0.893,-1.588,4.458,30.0,36.0
567404,0.177,0.403,0.900,-0.427,-3.519,1.794,30.0,36.0
567450,0.211,0.378,0.949,-1.099,-1.954,5.298,30.0,36.0
567496,0.173,0.398,0.914,-0.733,-2.328,3.221,30.0,38.0
567542,0.188,0.411,0.908,-0.969,-3.107,1.863,30.0,39.0
567591,0.172,0.402,0.913,0.779,-1.588,4.053,30.0,38.0
567638,0.151,0.421,0.913,-0.092,-3.718,2.061,30.0,40.0
567684,0.155,0.376,0.935,-1.840,-3.542,1.397,30.0,40.0
567730,0.172,0.424,0.917,0.382,-2.779,0.275,30.0,42.0
567777,0.167,0.411,0.913,-2.160,-4.282,1.427,30.0,44.0
567823,0.182,0.418,0.915,-3.130,-3.832,1.153,30.0,43.0
567869,0.217,0.396,0.935,-4.061,-2.290,2.840,30.0,44.0
567916,0.176,0.413,0.906,-2.435,-5.145,-0.710,31.0,45.0
567962,0.156,0.385,0.920,-5.496,-4.679,-0.275,30.0,46.0
568009,0.250,0.386,0.945,1.550,-4.092,-0.565,30.0,49.0
568059,0.238,0.380,0.952,-0.954,-1.641,0.595,31.0,49.0
568105,0.189,0.430,0.877,-1.244,-3.031,1.756,29.0,49.0
568153,0.189,0.378,0.932,0.366,-4.794,-1.504,30.0,50.0
568200,0.215,0.434,0.915,4.420,-3.718,-0.733,30.0,51.0
568247,0.199,0.408,0.935,-5.282,-2.802,0.893,30.0,52.0
568294,0.183,0.392,0.922,-4.038,-4.237,-0.847,30.0,53.0
568341,0.184,0.382,0.906,-3.618,-2.878,0.695,30.0,54.0
568388,0.182,0.389,0.917,3.481,-6.763,-6.763,30.0,55.0
568436,0.218,0.413,0.895,5.237,-2.168,-0.641,31.0,56.0
568486,0.209,0.433,0.913,2.351,-4.237,0.000,31.0,57.0
568534,0.193,0.416,0.899,0.183,-2.611,0.061,30.0,57.0
568581,0.185,0.420,0.903,-2.634,-2.107,5.962,31.0,58.0
568629,0.157,0.420,0.883,-3.061,-3.275,1.443,31.0,59.0
568676,0.195,0.395,0.938,1.389,-3.550,2.046,31.0,60.0
568724,0.195,0.442,0.910,-4.763,-1.511,3.344,31.0,61.0
568771,0.202,0.395,0.915,-4.366,-3.893,2.305,32.0,62.0
568819,0.220,0.403,0.918,-2.947,-2.519,3.885,31.0,62.0
568867,0.200,0.414,0.906,-3.206,-3.977,4.313,32.0,63.0
568919,0.223,0.392,0.919,-2.519,-2.878,4.298,32.0,63.0
568966,0.197,0.398,0.903,-1.198,-2.328,5.756,32.0,63.0
569014,0.203,0.404,0.907,1.252,-4.336,5.008,32.0,64.0
569062,0.216,0.411,0.939,-3.015,-0.557,5.863,31.0,64.0
569153,0.200,0.382,0.927,-1.389,-2.603,5.473,31.0,64.0
569201,0.182,0.408,0.908,-1.183,-4.252,3.916,31.0,65.0
569249,0.188,0.439,0.897,0.504,-6.107,3.267,30.0,64.0
569297,0.208,0.485,0.902,-2.351,-6.298,2.809,30.0,64.0
569355,0.190,0.482,0.888,-11.458,-4.351,0.840,0.0,64.0
569406,0.206,0.409,0.903,-13.405,-5.649,5.802,32.0,64.0
569463,0.196,0.391,0.903,-4.061,-6.901,5.656,0.0,64.0
569522,0.196,0.418,0.906,4.634,-6.611,4.870,0.0,65.0
569570,0.190,0.458,0.882,6.397,-7.092,3.588,38.0,64.0
569627,0.203,0.453,0.889,7.130,-5.176,4.672,0.0,64.0
569694,0.225,0.462,0.892,-5.427,-4.695,6.344,0.0,65.0
569741,0.214,0.405,0.894,-3.282,-3.420,6.397,31.0,64.0
569798,0.219,0.374,0.905,6.237,-2.977,4.588,0.0,64.0
569845,0.242,0.454,0.860,13.786,-3.053,4.786,31.0,64.0
569905,0.210,0.465,0.892,6.962,-2.931,2.710,0.0,64.0
569962,0.203,0.490,0.872,9.153,-5.473,6.214,0.0,64.0
570019,0.221,0.501,0.865,-4.969,-4.725,5.656,0.0,65.0
570077,0.220,0.516,0.863,-14.786,-4.573,6.397,0.0,64.0
570124,0.215,0.488,0.867,-16.450,-5.420,6.718,32.0,64.0
570171,0.207,0.540,0.854,-23.275,-3.924,7.664,30.0,65.0
570218,0.230,0.483,0.871,-42.756,-1.221,5.130,30.0,64.0
570266,0.251,0.295,0.956,-38.573,0.611,9.359,30.0,65.0
570322,0.260,0.300,0.920,-18.924,0.588,11.985,0.0,65.0
570371,0.248,0.259,0.928,10.603,-0.771,3.565,31.0,65.0
570421,0.235,0.327,0.935,33.374,-2.252,1.282,36.0,65.0
570468,0.224,0.400,0.900,41.176,-2.718,1.076,37.0,64.0
570516,0.202,0.559,0.867,34.061,-3.466,3.908,37.0,65.0
570563,0.218,0.557,0.842,0.992,-6.160,6.214,32.0,64.0
570611,0.251,0.480,0.880,-2.595,-4.626,7.481,30.0,64.0
570658,0.244,0.478,0.882,-1.092,-2.053,5.466,32.0,64.0
570716,0.231,0.458,0.872,-0.786,-1.702,4.893,0.0,64.0
570772,0.232,0.489,0.881,0.710,-2.725,3.771,0.0,65.0
570829,0.237,0.480,0.867,-3.420,-2.137,4.924,0.0,65.0
570890,0.235,0.486,0.868,-2.473,-1.977,5.321,0.0,65.0
570947,0.236,0.481,0.873,-3.756,-2.366,5.435,0.0,65.0
570995,0.238,0.475,0.876,-2.710,-1.977,5.260,36.0,65.0
571042,0.231,0.477,0.867,-3.542,-1.679,5.634,30.0,65.0
571090,0.235,0.457,0.863,-2.939,-1.840,4.656,30.0,65.0
571138,0.229,0.484,0.861,0.382,-2.099,6.351,36.0,65.0
571186,0.233,0.496,0.866,-5.137,-2.298,4.977,37.0,64.0
571234,0.244,0.469,0.882,-7.405,-2.534,5.405,36.0,65.0
571290,0.239,0.456,0.870,-2.534,-1.847,5.634,0.0,65.0
571351,0.236,0.490,0.873,-4.794,-2.153,5.595,0.0,65.0
571399,0.236,0.463,0.879,-5.779,-1.756,5.374,29.0,64.0
571446,0.225,0.469,0.877,-2.931,-1.634,6.015,29.0,64.0
571493,0.236,0.523,0.901,-10.473,-1.397,7.374,30.0,64.0
571541,0.176,0.502,0.976,-55.908,-9.595,4.214,30.0,65.0
571588,0.204,0.427,0.890,-79.076,-18.191,8.863,30.0,64.0
571636,0.229,0.420,0.854,-118.908,-13.099,25.275,37.0,64.0
571683,0.368,0.200,0.979,-105.886,-12.450,1.985,31.0,65.0
571774,0.334,0.024,0.946,-52.931,8.076,-11.527,30.0,64.0
571826,0.282,0.062,0.967,0.496,11.099,-6.863,31.0,64.0
571873,0.238,0.207,0.915,-4.443,7.656,-1.412,31.0,64.0
571921,0.258,0.103,0.984,-26.756,4.435,-5.115,30.0,64.0
571978,0.215,0.004,1.012,-39.397,-4.580,-17.832,0.0,64.0
572036,0.188,-0.124,1.116,-1.031,-24.916,-33.947,0.0,63.0
572093,0.184,0.031,1.108,42.244,-32.191,-20.115,0.0,62.0
572141,0.336,0.269,1.012,76.893,-35.115,15.748,32.0,64.0
572188,0.535,0.465,0.840,86.206,-21.198,53.115,29.0,63.0
572246,0.516,0.486,0.727,50.603,4.595,97.397,0.0,63.0
572296,0.400,0.236,0.794,-31.542,22.061,76.107,23.0,64.0
572343,0.334,0.080,0.815,-54.855,41.809,67.542,21.0,65.0
572390,0.204,-0.049,0.959,-50.443,45.366,47.573,22.0,67.0
572448,0.125,-0.023,1.060,-4.779,33.168,33.893,0.0,67.0
572495,0.183,0.143,1.007,10.931,15.282,20.099,22.0,66.0
572542,0.118,0.135,0.914,-16.244,15.908,10.718,24.0,66.0
572591,0.180,0.079,1.010,-8.450,12.580,11.580,30.0,66.0
572638,0.164,0.128,0.955,0.931,8.107,14.885,21.0,66.0
572685,0.207,0.137,0.984,-22.840,4.359,1.595,20.0,66.0
572736,0.252,0.067,0.987,-22.038,0.641,-0.198,20.0,72.0
572783,0.246,0.110,1.002,-11.237,-4.359,3.076,22.0,67.0
572838,0.213,0.208,0.867,-52.000,-4.985,3.687,21.0,0.0
572886,0.293,-0.182,0.977,-82.580,4.527,-0.855,23.0,68.0
572943,0.290,-0.115,1.015,-32.878,-1.038,10.992,0.0,69.0
573008,0.197,-0.192,0.975,-38.962,-2.313,6.710,0.0,0.0
573067,0.201,-0.416,1.065,46.832,4.939,-2.916,0.0,70.0
573115,0.343,0.070,0.940,48.328,10.069,5.969,22.0,74.0
573172,0.184,0.089,0.939,25.496,9.847,8.305,0.0,67.0
573222,0.123,-0.008,0.988,-8.382,3.290,2.214,17.0,67.0
573270,0.181,-0.021,1.007,-16.069,5.244,-0.511,17.0,67.0
573317,0.169,0.121,0.939,-37.603,5.840,3.122,22.0,67.0
573375,0.152,-0.123,0.989,-80.817,-0.969,-14.863,0.0,67.0
573433,0.109,-0.420,1.130,-20.756,-15.603,-32.725,0.0,73.0
573491,0.172,-0.302,0.959,-37.328,-33.053,-80.618,0.0,72.0
573556,0.334,-0.152,0.931,-58.382,-34.382,-93.237,0.0,0.0
573623,0.417,-0.196,0.827,-119.443,-10.359,-97.160,0.0,0.0
573688,0.392,-0.571,0.946,-160.015,23.214,-91.565,0.0,0.0
573746,0.243,-0.470,1.022,2.885,19.092,-40.611,17.0,0.0
573801,0.226,-0.237,0.948,-4.947,0.252,-23.550,16.0,0.0
573856,0.274,-0.381,0.943,-9.924,-16.634,-9.947,16.0,0.0
573912,0.363,-0.340,0.833,-21.145,-17.458,1.061,17.0,0.0
573967,0.395,-0.401,0.820,-18.351,-10.771,7.649,22.0,0.0
574022,0.380,-0.408,0.792,-18.176,-4.389,6.947,23.0,0.0
574077,0.377,-0.437,0.835,-10.267,-4.794,1.786,23.0,0.0
574133,0.372,-0.425,0.818,-7.321,-6.672,4.092,21.0,0.0
574188,0.410,-0.495,0.838,-7.427,-4.664,2.405,24.0,0.0
574246,0.374,-0.424,0.819,6.489,-2.573,3.023,23.0,0.0
574302,0.395,-0.421,0.793,-8.580,-0.389,4.496,22.0,0.0
574358,0.435,-0.449,0.803,1.198,-0.969,1.405,25.0,0.0
574423,0.415,-0.395,0.816,5.855,1.763,1.092,0.0,0.0
574532,0.334,-0.372,0.829,15.992,4.328,4.939,0.0,0.0
574598,0.200,-0.325,0.885,25.298,-3.893,18.817,0.0,0.0
574653,0.060,-0.147,0.755,83.939,-8.038,69.229,17.0,0.0
574718,0.345,-0.337,0.837,87.092,-0.626,77.695,0.0,0.0
574784,0.547,-0.198,0.896,129.290,-1.420,44.008,0.0,0.0
574844,0.540,-0.271,1.106,135.679,-4.145,31.550,0.0,59.0
574902,0.392,-0.049,1.172,119.672,-11.786,27.145,0.0,52.0
574959,0.409,0.276,1.115,24.198,-38.748,11.985,0.0,52.0
575016,0.391,0.083,1.014,-32.466,-46.641,16.863,0.0,57.0
575064,0.487,-0.001,0.843,-37.534,-46.595,-9.382,22.0,57.0
575111,0.494,-0.066,0.753,-33.473,-25.916,-34.969,20.0,59.0
575158,0.442,0.176,0.784,12.511,-1.885,-34.450,23.0,57.0
575206,0.354,0.441,0.776,-13.992,6.382,-24.878,22.0,58.0
575253,0.488,0.142,0.892,-22.718,-2.298,-3.191,22.0,57.0
575303,0.594,0.041,0.880,-18.733,-18.092,-0.496,26.0,58.0
575361,0.578,0.007,0.882,-5.588,-21.870,-11.580,0.0,57.0
575421,0.504,0.164,0.856,9.336,-3.359,11.496,0.0,96.0
575470,0.508,0.143,0.851,-11.366,-2.481,10.130,25.0,96.0
575526,0.473,0.016,0.888,-22.214,-6.702,5.550,30.0,0.0
575592,0.510,-0.035,0.896,10.985,-10.664,-4.198,0.0,0.0
575657,0.540,0.177,0.829,9.626,-8.489,1.282,0.0,0.0
575720,0.524,0.204,0.796,51.344,-1.244,25.969,0.0,138.0
575785,0.637,0.306,0.765,65.382,29.313,73.504,0.0,0.0
575836,0.472,0.278,0.843,54.168,47.534,100.718,21.0,37.0
575881,0.448,0.161,0.882,10.359,36.542,91.137,21.0,32.0
575927,0.330,-0.048,1.075,0.389,15.061,47.931,17.0,31.0
575972,0.404,-0.192,1.104,7.992,-6.092,24.267,21.0,29.0
576018,0.401,0.134,1.019,-7.641,-8.015,9.931,26.0,30.0
576066,0.396,0.117,1.024,-48.458,-22.573,-13.305,26.0,60.0
576121,0.356,-0.007,1.043,-30.252,-47.267,-24.542,22.0,0.0
576178,0.461,0.148,0.837,-9.206,-59.427,-35.046,22.0,0.0
576236,0.534,0.132,0.717,-31.153,-38.458,-34.756,20.0,0.0
576291,0.612,0.175,0.783,7.389,-20.206,-16.443,20.0,0.0
576348,0.682,0.287,0.695,27.893,-2.779,13.252,19.0,0.0
576403,0.664,0.284,0.729,18.802,11.076,38.855,23.0,0.0
576458,0.607,0.264,0.775,19.290,23.344,60.527,18.0,0.0
576514,0.551,0.198,0.826,-0.405,31.878,62.023,18.0,0.0
576575,0.480,0.089,0.852,8.565,36.252,53.412,23.0,0.0
576640,0.537,0.089,1.033,-17.756,13.282,14.718,0.0,0.0
576694,0.448,0.053,0.906,36.168,16.351,10.534,19.0,0.0
576759,0.432,0.281,0.864,-14.939,12.527,-8.542,0.0,0.0
576827,0.463,0.117,0.913,13.695,-3.634,-12.954,0.0,0.0
576881,0.481,0.300,0.804,20.519,-4.695,-0.885,18.0,0.0
576935,0.477,0.319,0.839,-26.313,1.992,-0.481,23.0,0.0
577001,0.443,0.077,0.990,-2.481,-1.443,3.450,0.0,0.0
577065,0.455,0.259,0.855,-2.840,0.908,3.168,0.0,0.0
577130,0.456,0.144,0.970,-32.176,1.336,5.931,0.0,0.0
577195,0.457,0.114,0.905,-6.206,-3.786,16.176,0.0,0.0
577260,0.477,0.108,0.924,2.580,0.046,14.534,0.0,0.0
577314,0.452,0.187,0.899,10.107,-0.282,15.115,17.0,0.0
