Timestamp(ms),AccelX(g),AccelY(g),AccelZ(g),GyroX(deg/s),GyroY(deg/s),GyroZ(deg/s),DistanceLeft(cm),DistanceRight(cm)
194415,0.127,0.792,0.474,5.756,7.527,6.939,33.0,79.0
194459,0.119,1.053,0.339,4.954,8.282,7.863,32.0,43.0
194508,0.118,0.760,0.482,-9.603,5.260,3.427,161.0,5.0
194557,0.130,0.960,0.477,27.527,5.137,9.985,113.0,44.0
194601,0.141,0.970,0.469,9.389,2.069,4.756,32.0,43.0
194642,0.201,0.870,0.468,26.130,3.092,8.885,30.0,5.0
194686,0.206,0.865,0.444,28.374,6.954,10.298,30.0,44.0
194733,0.217,0.940,0.398,12.298,4.122,6.092,31.0,80.0
194778,0.199,0.889,0.437,8.511,4.412,1.916,37.0,44.0
194825,0.168,0.973,0.389,2.000,1.710,13.893,35.0,44.0
194869,0.234,0.881,0.442,-4.641,2.824,12.122,30.0,43.0
194914,0.228,0.878,0.438,1.473,2.244,8.550,29.0,57.0
194958,0.261,0.819,0.500,-0.550,1.954,7.519,30.0,43.0
195002,0.217,0.857,0.480,9.000,0.008,6.756,34.0,44.0
195047,0.227,0.868,0.469,13.969,-0.916,8.756,34.0,57.0
195092,0.234,0.922,0.442,3.542,-0.809,5.053,33.0,57.0
195138,0.238,0.842,0.458,8.275,2.405,4.954,28.0,80.0
195184,0.230,0.901,0.420,16.000,5.336,5.099,30.0,80.0
195232,0.217,0.832,0.519,0.168,0.298,5.389,30.0,57.0
195278,0.280,0.842,0.505,19.099,-3.580,6.786,30.0,80.0
195324,0.276,0.850,0.485,17.916,0.382,2.481,30.0,80.0
195371,0.260,0.778,0.510,41.756,-3.229,9.473,33.0,80.0
195417,0.346,1.068,0.379,5.145,-4.443,5.595,31.0,80.0
195463,0.320,0.783,0.485,-24.450,1.809,0.366,32.0,81.0
195509,0.271,0.707,0.546,15.511,2.740,-4.137,31.0,81.0
195556,0.292,0.922,0.439,20.389,3.985,-3.458,30.0,80.0
195602,0.295,0.870,0.465,7.435,10.740,-1.855,30.0,80.0
195651,0.298,0.893,0.448,5.229,12.519,-4.031,29.0,80.0
195697,0.237,0.766,0.514,15.641,12.405,-1.244,29.0,80.0
195743,0.232,0.963,0.434,28.328,7.145,4.305,29.0,80.0
195790,0.213,0.844,0.456,22.870,2.649,1.412,30.0,80.0
195834,0.163,0.945,0.416,18.771,1.092,8.802,31.0,45.0
195879,0.195,0.942,0.424,10.366,-0.015,15.160,30.0,57.0
195924,0.232,0.829,0.455,11.908,2.481,12.305,37.0,57.0
195970,0.280,0.765,0.475,9.198,3.817,7.053,33.0,57.0
196022,0.317,0.814,0.468,25.611,1.489,-1.031,159.0,53.0
196072,0.260,0.953,0.434,2.588,0.702,-0.878,110.0,53.0
196123,0.265,0.859,0.453,13.344,3.389,3.924,111.0,45.0
196172,0.234,0.855,0.467,15.168,9.519,3.611,111.0,46.0
196217,0.236,0.922,0.452,16.008,5.397,7.817,32.0,43.0
196261,0.240,0.887,0.450,11.832,2.229,8.695,32.0,45.0
196306,0.241,0.863,0.455,12.435,2.687,7.290,37.0,44.0
196356,0.233,0.839,0.452,20.626,3.412,4.985,111.0,47.0
196400,0.232,0.851,0.450,31.145,0.626,5.305,37.0,46.0
196454,0.251,0.905,0.443,43.122,-6.809,8.504,159.0,79.0
196501,0.275,0.959,0.431,30.099,-15.137,13.359,33.0,79.0
196549,0.342,0.861,0.485,26.718,-21.458,15.191,37.0,57.0
196596,0.397,0.896,0.462,37.664,-24.656,19.282,35.0,80.0
196643,0.416,0.891,0.373,40.008,-23.176,24.290,38.0,81.0
196688,0.452,0.981,0.250,23.824,-15.527,25.206,37.0,44.0
196782,0.435,0.865,0.245,6.595,11.725,23.603,157.0,16.0
196832,0.419,0.810,0.271,19.947,13.130,21.740,156.0,16.0
196883,0.395,0.809,0.288,48.023,10.145,19.802,156.0,45.0
196935,0.414,0.872,0.235,37.473,4.603,17.382,156.0,45.0
196987,0.411,0.851,0.262,47.321,6.588,17.740,155.0,44.0
197041,0.455,0.936,0.218,46.366,8.656,24.725,155.0,16.0
197093,0.509,0.907,0.228,60.779,12.145,27.947,155.0,57.0
197143,0.491,0.970,0.135,47.962,16.031,38.221,155.0,16.0
197203,0.526,0.851,0.165,29.023,17.954,34.244,154.0,0.0
197264,0.530,0.840,0.122,45.756,21.618,32.809,154.0,0.0
197315,0.562,0.782,0.120,34.969,24.649,24.351,154.0,23.0
197365,0.559,0.838,0.093,36.626,26.420,23.794,153.0,23.0
197426,0.595,0.757,0.132,26.198,22.763,18.687,152.0,0.0
197476,0.610,0.777,0.094,33.038,21.817,17.611,153.0,22.0
197530,0.643,0.747,0.107,42.550,23.855,15.092,163.0,19.0
197581,0.642,0.820,0.088,41.397,22.992,21.183,170.0,21.0
197633,0.711,0.744,0.106,45.366,22.908,23.046,158.0,23.0
197685,0.700,0.732,0.079,54.489,27.153,27.160,192.0,19.0
197736,0.700,0.739,0.031,53.649,28.305,19.901,164.0,18.0
197788,0.646,0.715,0.062,54.649,26.443,7.435,194.0,18.0
197844,0.597,0.807,0.061,64.901,22.489,-4.817,164.0,17.0
197895,0.528,0.840,0.145,25.130,2.748,-16.847,162.0,21.0
197947,0.472,1.020,0.110,-12.382,-13.092,-12.420,163.0,16.0
197996,0.523,0.850,0.177,-24.702,-40.779,-6.962,154.0,16.0
198045,0.507,0.820,0.060,-49.779,-55.603,-19.511,153.0,17.0
198094,0.499,0.713,-0.027,-26.656,-71.092,-45.641,155.0,16.0
198144,0.599,1.032,-0.354,-171.977,-57.107,-76.015,154.0,17.0
198193,0.616,0.877,-0.153,-152.000,-16.916,-68.634,154.0,16.0
198244,0.614,0.986,0.004,-213.534,31.282,-51.305,155.0,51.0
198295,0.510,0.546,0.493,-156.855,32.481,-33.473,157.0,47.0
198339,0.457,0.509,0.729,-52.779,29.916,-9.046,30.0,48.0
198386,0.434,0.724,0.697,-2.198,19.275,2.374,26.0,47.0
198439,0.421,0.701,0.676,9.466,12.634,-2.504,0.0,47.0
198483,0.409,0.704,0.698,-14.733,18.000,-8.473,25.0,48.0
198528,0.321,0.667,0.685,5.748,15.015,-3.000,30.0,47.0
198571,0.348,0.743,0.677,12.893,7.718,-2.221,27.0,47.0
198615,0.340,0.730,0.651,10.168,5.229,-1.939,25.0,46.0
198658,0.317,0.712,0.671,5.779,4.557,-0.908,25.0,47.0
198701,0.238,0.754,0.698,21.435,0.405,2.031,23.0,46.0
198745,0.230,0.739,0.663,27.924,-6.267,1.542,25.0,46.0
198792,0.236,0.729,0.591,38.656,-8.496,-0.198,37.0,47.0
198840,0.347,0.686,0.551,45.916,-5.389,-8.687,110.0,47.0
198884,0.395,0.771,0.476,44.870,5.511,-16.916,30.0,45.0
198928,0.382,0.702,0.535,39.634,9.817,-24.756,30.0,45.0
198971,0.325,0.828,0.526,55.443,8.611,-15.580,30.0,45.0
199015,0.337,0.916,0.533,29.084,-1.992,-9.977,30.0,44.0
199059,0.357,0.807,0.538,24.588,-5.031,-5.595,30.0,44.0
199103,0.310,0.826,0.500,31.137,-1.786,-5.565,29.0,45.0
199146,0.313,0.882,0.495,22.397,0.916,-7.366,30.0,45.0
199193,0.267,0.869,0.490,18.603,6.214,-4.985,29.0,43.0
199280,0.256,0.878,0.475,7.969,7.679,-10.939,30.0,44.0
199324,0.252,0.870,0.482,20.282,5.221,-5.053,29.0,47.0
199366,0.286,0.924,0.466,7.908,3.740,-9.344,30.0,9.0
199410,0.273,0.812,0.504,-3.511,3.198,-11.351,30.0,47.0
199454,0.268,0.843,0.498,25.191,1.504,-9.534,30.0,47.0
199495,0.233,0.889,0.473,15.992,1.740,-12.427,32.0,6.0
199537,0.218,0.915,0.451,18.237,3.847,-5.321,33.0,9.0
199579,0.211,0.901,0.479,2.489,5.626,-2.023,35.0,4.0
199626,0.193,0.849,0.468,5.061,3.382,3.641,32.0,45.0
199668,0.188,0.883,0.493,7.008,3.763,4.603,28.0,10.0
199709,0.172,0.877,0.477,12.198,5.466,7.763,29.0,3.0
199751,0.194,0.960,0.428,5.435,6.687,14.244,28.0,4.0
199792,0.177,0.830,0.509,-2.763,5.924,10.244,29.0,8.0
199835,0.193,0.749,0.510,18.237,3.588,11.969,29.0,17.0
199876,0.258,0.881,0.479,25.359,0.931,14.954,27.0,9.0
199920,0.254,0.869,0.517,2.710,-2.076,3.015,30.0,48.0
199964,0.266,0.791,0.531,15.084,-3.557,8.084,30.0,47.0
200011,0.249,0.862,0.466,20.168,-2.824,2.763,28.0,47.0
200055,0.240,0.850,0.498,9.786,-3.198,1.992,30.0,47.0
200100,0.264,0.858,0.459,26.916,-0.420,5.527,34.0,49.0
200143,0.294,0.881,0.496,28.107,0.695,10.389,30.0,44.0
200187,0.264,0.872,0.499,15.237,-5.840,7.382,30.0,46.0
200231,0.264,0.831,0.549,23.382,-16.786,13.168,30.0,45.0
200275,0.282,0.825,0.550,45.962,-29.672,18.519,30.0,45.0
200318,0.329,0.931,0.459,53.229,-33.229,27.802,34.0,16.0
200370,0.383,0.989,0.382,35.519,-29.160,32.145,159.0,45.0
200425,0.413,0.893,0.328,33.733,-15.908,39.229,157.0,44.0
200476,0.432,0.895,0.259,23.634,-6.420,38.885,156.0,44.0
200527,0.514,0.819,0.296,49.321,5.870,47.046,156.0,46.0
200579,0.549,0.861,0.237,63.076,16.519,54.802,155.0,47.0
200631,0.586,0.883,0.176,65.412,27.000,60.366,154.0,50.0
200682,0.604,0.793,0.182,58.282,35.023,53.420,154.0,51.0
200734,0.575,0.774,0.154,42.092,42.504,53.405,153.0,57.0
200786,0.630,0.684,0.246,58.794,39.519,46.626,153.0,57.0
200848,0.637,0.735,0.194,56.382,38.519,40.878,175.0,0.0
200901,0.663,0.620,0.242,57.603,23.618,27.718,161.0,23.0
200952,0.655,0.693,0.184,71.916,18.076,10.427,164.0,22.0
201004,0.630,0.760,0.153,53.290,13.412,-8.847,183.0,20.0
201054,0.502,0.738,0.206,45.359,-0.321,-20.130,163.0,17.0
201104,0.539,0.890,0.242,17.863,-20.802,-31.336,156.0,21.0
201154,0.569,0.900,0.171,-6.130,-51.038,-26.153,167.0,16.0
201204,0.765,1.074,-0.073,-69.237,-50.122,-21.710,153.0,22.0
201265,0.804,0.886,-0.101,-186.664,-22.679,-29.611,152.0,0.0
201317,0.772,0.810,0.022,-250.137,30.160,-16.374,183.0,37.0
201364,0.629,0.365,0.483,-215.137,66.397,-13.664,30.0,25.0
201417,0.493,0.441,0.600,-176.122,75.641,-3.588,0.0,26.0
201474,0.368,0.211,0.842,-102.939,74.924,4.046,0.0,34.0
201527,0.297,0.477,0.835,-43.183,67.168,11.046,0.0,26.0
201584,0.186,0.468,0.888,-66.740,50.840,14.863,0.0,32.0
201627,0.216,0.219,1.003,-41.489,36.389,19.076,21.0,30.0
201714,0.205,0.166,1.003,4.527,15.527,18.107,29.0,30.0
201757,0.236,0.285,0.964,12.405,8.595,15.878,30.0,35.0
201801,0.236,0.227,0.904,-15.679,8.427,11.786,30.0,36.0
201858,0.299,0.122,0.966,-8.687,12.260,8.931,0.0,35.0
201902,0.269,0.154,0.947,-3.183,17.611,12.260,30.0,36.0
201949,0.259,0.135,0.966,-4.450,17.756,11.863,27.0,96.0
201993,0.196,0.177,0.958,5.679,14.183,13.679,28.0,36.0
202036,0.204,0.124,0.957,-11.580,10.008,13.008,25.0,36.0
202090,0.206,0.114,0.919,-0.450,10.534,10.573,0.0,36.0
202134,0.172,0.058,1.036,-1.252,2.580,5.802,29.0,36.0
202188,0.181,0.075,0.984,20.763,-6.206,2.840,0.0,57.0
202232,0.193,0.074,0.956,5.466,-8.275,-9.603,19.0,57.0
202280,0.251,-0.033,1.022,33.382,-8.733,-14.817,18.0,57.0
202336,0.251,0.041,0.938,39.244,-10.267,-29.992,0.0,58.0
202379,0.246,0.063,0.909,53.496,-9.748,-50.374,20.0,36.0
202423,0.160,0.069,0.930,92.702,-16.847,-51.573,23.0,36.0
202465,0.329,0.258,0.860,136.695,-21.298,-54.992,22.0,25.0
202508,0.295,0.436,0.910,137.466,-24.939,-47.595,23.0,26.0
202551,0.310,0.731,0.960,103.122,-37.458,-22.153,25.0,19.0
202596,0.454,0.845,0.847,29.870,-41.397,-6.656,24.0,57.0
202639,0.521,0.508,0.877,-2.420,-23.275,11.038,28.0,17.0
202684,0.526,0.546,0.819,-5.924,4.351,24.878,23.0,18.0
202727,0.420,0.523,0.746,-43.885,29.580,27.481,22.0,19.0
202770,0.331,0.360,0.855,-45.710,41.489,27.992,25.0,30.0
202813,0.285,0.369,0.886,-21.977,42.473,29.977,23.0,21.0
202856,0.301,0.429,0.859,-33.328,40.771,29.267,22.0,22.0
202899,0.273,0.305,0.905,-38.954,33.244,26.015,22.0,27.0
202942,0.256,0.265,0.919,-32.580,24.573,24.305,22.0,28.0
202985,0.243,0.172,0.966,-16.107,14.916,19.771,21.0,37.0
203032,0.238,0.246,0.925,14.740,7.618,17.153,21.0,31.0
203075,0.246,0.285,0.921,-0.527,5.985,15.145,21.0,32.0
203118,0.266,0.238,0.938,-12.412,10.550,13.794,23.0,32.0
203164,0.230,0.206,0.941,1.855,9.000,16.565,22.0,78.0
203210,0.239,0.177,0.946,-5.015,7.740,11.947,21.0,76.0
203255,0.221,0.170,0.901,8.550,7.931,10.176,31.0,59.0
203300,0.238,0.210,0.917,4.603,15.863,13.198,29.0,59.0
203345,0.268,0.308,1.038,-7.122,-3.458,6.374,20.0,57.0
203388,0.282,-0.013,0.931,-19.863,-5.885,-5.802,20.0,36.0
203432,0.235,0.009,0.952,40.779,-1.863,-13.863,20.0,37.0
203480,0.153,-0.084,1.014,81.099,-14.679,-43.542,19.0,42.0
203523,0.235,0.081,0.912,143.244,-14.481,-50.847,20.0,28.0
203566,0.176,0.313,0.872,142.733,-18.557,-61.840,22.0,23.0
203609,0.199,0.530,0.829,142.145,-24.290,-42.282,23.0,20.0
203652,0.275,0.750,0.905,114.260,-33.687,-24.183,29.0,17.0
203695,0.429,0.851,0.769,89.763,-36.557,2.000,26.0,16.0
203738,0.509,0.818,0.715,39.740,-24.122,17.656,27.0,16.0
203781,0.552,0.768,0.659,-12.466,-1.634,28.809,33.0,20.0
203832,0.503,0.622,0.674,-54.992,29.214,35.489,30.0,21.0
203874,0.429,0.467,0.757,-48.031,51.237,39.718,26.0,18.0
203916,0.305,0.499,0.780,-48.221,60.756,42.046,23.0,24.0
204005,0.188,0.323,0.903,-50.061,41.061,30.061,22.0,93.0
204048,0.192,0.341,0.938,-22.656,28.076,27.351,22.0,30.0
204094,0.178,0.350,0.947,-18.771,20.115,24.847,21.0,93.0
204136,0.218,0.330,0.932,-18.542,10.015,21.107,23.0,29.0
204179,0.270,0.299,0.930,-25.290,11.244,20.878,21.0,39.0
204222,0.266,0.190,0.948,-25.092,18.588,20.214,20.0,35.0
204267,0.238,0.111,0.989,-7.962,23.076,17.420,21.0,34.0
204310,0.197,0.229,0.994,11.282,21.092,18.023,21.0,35.0
204352,0.214,0.264,0.970,-2.977,18.435,16.626,20.0,35.0
204395,0.222,0.236,0.987,-27.939,18.573,19.603,19.0,35.0
204438,0.234,0.089,1.016,-17.313,18.786,20.718,23.0,36.0
204480,0.228,0.162,0.958,-8.863,21.603,21.672,19.0,36.0
204526,0.231,0.111,0.920,-19.099,29.382,18.008,19.0,96.0
204569,0.144,0.149,0.949,9.840,17.473,20.908,19.0,38.0
204612,0.059,0.103,0.970,3.000,15.153,16.427,21.0,39.0
204658,-0.010,0.125,0.895,3.153,7.664,8.969,30.0,39.0
204702,-0.025,0.033,0.912,19.000,-2.290,-5.489,41.0,37.0
204745,-0.009,-0.009,0.887,36.252,-13.565,-29.565,30.0,39.0
204788,0.008,-0.149,0.939,85.412,-25.786,-56.519,30.0,36.0
204831,0.118,0.015,0.892,152.260,-39.481,-78.427,21.0,33.0
204874,0.180,0.167,0.844,186.145,-43.656,-92.130,23.0,32.0
204916,0.133,0.513,0.863,240.527,-51.427,-61.618,25.0,27.0
204959,0.185,1.029,0.748,196.275,-73.336,-37.565,27.0,17.0
205001,0.313,1.067,0.719,123.817,-72.832,-10.420,30.0,19.0
205056,0.358,1.004,0.681,69.397,-56.618,10.023,183.0,16.0
205097,0.323,0.838,0.637,52.298,-39.725,25.969,30.0,18.0
205140,0.336,0.832,0.596,67.695,-35.893,40.702,30.0,17.0
205182,0.354,0.782,0.484,85.748,-29.756,56.977,30.0,16.0
205233,0.501,0.770,0.406,117.366,-15.847,71.382,169.0,18.0
205283,0.558,0.894,0.204,111.046,3.206,75.008,168.0,18.0
205334,0.645,0.784,0.202,55.221,26.466,77.107,168.0,37.0
205386,0.658,0.632,0.263,55.145,36.351,72.115,167.0,37.0
205450,0.689,0.677,0.292,63.962,33.840,68.511,167.0,0.0
205511,0.701,0.578,0.326,46.351,15.260,56.687,180.0,0.0
205574,0.704,0.634,0.254,56.321,9.336,25.504,0.0,0.0
205627,0.625,0.594,0.352,49.000,-5.313,-8.298,0.0,38.0
205679,0.597,0.723,0.269,46.618,-13.176,-22.901,181.0,30.0
205729,0.578,0.871,0.167,33.641,-26.603,-30.725,167.0,28.0
205780,0.581,0.842,0.143,7.435,-41.145,-31.656,177.0,22.0
205833,0.594,0.832,0.043,-36.137,-52.374,-35.496,183.0,23.0
205883,0.635,0.961,-0.105,-115.496,-46.824,-38.527,154.0,23.0
205940,0.714,0.745,0.088,-119.061,-17.412,-39.099,0.0,57.0
205991,0.621,0.856,0.169,-121.756,19.443,-19.542,165.0,31.0
206044,0.568,0.622,0.400,-81.176,16.221,-25.718,197.0,31.0
206097,0.542,0.615,0.508,-33.267,16.641,-31.901,0.0,30.0
206155,0.494,0.700,0.566,-0.229,7.672,-25.710,0.0,50.0
206199,0.493,0.802,0.533,46.305,3.145,-11.809,30.0,47.0
206243,0.481,0.861,0.482,20.702,-1.565,-6.153,29.0,47.0
206287,0.497,0.763,0.543,25.389,-2.229,-2.290,30.0,47.0
206331,0.488,0.768,0.510,23.328,-6.351,-0.366,30.0,47.0
206423,0.495,0.858,0.404,31.924,-0.076,12.321,32.0,47.0
206467,0.507,0.854,0.391,9.496,-3.237,18.794,30.0,47.0
206511,0.495,0.787,0.400,-6.214,-9.748,22.634,30.0,48.0
206556,0.513,0.750,0.416,-14.565,-13.771,21.748,30.0,49.0
206600,0.536,0.709,0.437,-7.802,-12.214,20.183,30.0,50.0
206654,0.548,0.713,0.433,-2.687,-9.267,18.733,0.0,50.0
206698,0.547,0.692,0.470,-2.977,-7.641,19.695,27.0,50.0
206752,0.583,0.656,0.484,6.740,-9.733,15.832,0.0,49.0
206796,0.586,0.669,0.445,16.275,-11.847,10.298,30.0,49.0
206844,0.625,0.670,0.439,18.519,-10.824,9.992,30.0,50.0
206888,0.628,0.695,0.427,28.145,-7.710,9.198,27.0,50.0
206932,0.603,0.716,0.406,21.267,-6.137,7.618,25.0,50.0
206987,0.625,0.682,0.395,17.824,-6.496,2.183,199.0,48.0
207040,0.608,0.708,0.377,20.977,-4.153,-2.733,193.0,50.0
207094,0.615,0.750,0.367,14.702,-1.588,-2.656,196.0,50.0
207149,0.624,0.720,0.366,14.618,-1.313,-1.954,196.0,50.0
207201,0.615,0.730,0.334,19.244,-1.733,-4.656,193.0,23.0
207255,0.627,0.731,0.338,13.481,-1.076,-5.763,193.0,50.0
207303,0.618,0.721,0.345,19.847,-0.779,-5.679,30.0,50.0
207347,0.613,0.778,0.337,14.931,0.038,-3.679,30.0,57.0
207392,0.621,0.752,0.361,14.221,-0.611,-2.908,24.0,62.0
207438,0.613,0.753,0.359,17.290,0.221,-1.511,25.0,83.0
207484,0.606,0.756,0.347,13.481,1.443,0.947,28.0,84.0
207532,0.600,0.746,0.351,9.863,0.344,1.130,29.0,86.0
207587,0.587,0.771,0.352,9.924,-2.664,1.435,183.0,84.0
207641,0.590,0.749,0.361,9.229,-4.450,0.870,0.0,47.0
207685,0.607,0.773,0.336,-0.702,-1.053,0.321,26.0,50.0
207732,0.614,0.690,0.332,-0.107,1.595,-4.336,26.0,56.0
207777,0.647,0.714,0.316,11.366,3.305,-5.092,25.0,50.0
207821,0.632,0.733,0.309,9.084,5.405,-4.099,27.0,54.0
207866,0.626,0.746,0.321,13.603,6.809,-0.969,26.0,54.0
207910,0.623,0.769,0.344,13.290,9.061,0.924,26.0,55.0
207955,0.596,0.756,0.366,8.878,11.008,1.771,26.0,56.0
208000,0.577,0.764,0.386,6.939,12.702,1.092,27.0,50.0
208045,0.564,0.760,0.387,2.008,11.863,-1.542,26.0,55.0
208089,0.553,0.734,0.389,5.122,9.855,-2.908,28.0,50.0
208137,0.564,0.721,0.387,8.008,8.038,-5.397,30.0,49.0
208190,0.553,0.750,0.374,9.809,6.305,-5.794,182.0,49.0
208234,0.549,0.745,0.371,10.145,4.626,-4.840,30.0,49.0
208279,0.559,0.751,0.375,11.809,4.626,-3.931,27.0,50.0
208324,0.563,0.763,0.384,10.611,2.969,-4.298,30.0,56.0
208368,0.571,0.761,0.401,13.924,3.282,-4.557,28.0,56.0
208413,0.547,0.781,0.403,12.420,4.328,-4.229,28.0,56.0
208458,0.546,0.777,0.417,8.359,5.664,-3.939,30.0,56.0
208503,0.542,0.799,0.429,2.069,4.015,-3.588,29.0,55.0
208551,0.510,0.758,0.436,-0.137,-0.244,-3.855,28.0,57.0
208596,0.545,0.761,0.411,8.092,1.656,-5.198,30.0,56.0
208642,0.524,0.747,0.398,8.008,6.939,-4.672,30.0,50.0
208696,0.510,0.722,0.366,10.313,13.427,-7.153,192.0,55.0
208750,0.487,0.710,0.388,15.763,19.321,-15.153,191.0,55.0
208849,0.452,0.841,0.428,7.672,13.817,-17.328,0.0,84.0
208907,0.447,0.810,0.454,14.221,6.855,-13.221,0.0,82.0
208963,0.468,0.823,0.442,13.527,1.496,-11.084,0.0,82.0
209019,0.451,0.810,0.447,6.382,1.389,-8.336,0.0,81.0
209065,0.438,0.817,0.463,10.267,1.557,-5.511,30.0,81.0
209116,0.389,0.760,0.492,14.420,2.099,-9.244,29.0,81.0
209162,0.426,0.802,0.451,30.069,1.397,-5.061,31.0,81.0
209216,0.429,0.834,0.445,29.710,-1.954,-4.595,168.0,81.0
209263,0.400,0.867,0.418,12.450,-6.168,-5.023,32.0,81.0
209310,0.413,0.906,0.393,-4.176,-7.038,-1.359,32.0,81.0
209356,0.394,0.769,0.424,-12.954,-4.252,0.000,31.0,82.0
209403,0.430,0.774,0.397,19.595,2.008,3.160,30.0,82.0
209449,0.414,0.897,0.360,11.985,14.496,1.305,30.0,82.0
209497,0.393,0.841,0.407,-14.458,16.328,0.290,30.0,82.0
209547,0.365,0.790,0.439,-25.366,9.756,-0.206,29.0,82.0
209593,0.394,0.699,0.504,-1.710,0.809,0.817,30.0,82.0
209640,0.434,0.744,0.519,27.481,0.427,-0.145,30.0,83.0
209686,0.410,0.825,0.476,21.328,5.649,-1.809,30.0,82.0
209733,0.405,0.847,0.495,13.687,9.748,-0.053,30.0,82.0
209780,0.369,0.851,0.505,9.710,6.756,3.267,30.0,82.0
209825,0.395,0.830,0.494,18.176,2.176,10.412,30.0,57.0
209879,0.392,0.823,0.494,9.412,-0.435,11.557,179.0,57.0
209925,0.465,0.810,0.519,13.748,2.824,16.328,37.0,58.0
209974,0.547,0.879,0.492,-10.092,10.000,24.359,31.0,55.0
210024,0.581,0.774,0.505,-40.298,14.458,32.244,29.0,50.0
210067,0.613,0.696,0.518,-54.046,16.374,37.664,29.0,50.0
210110,0.542,0.715,0.522,-65.328,19.725,45.542,27.0,36.0
210154,0.508,0.599,0.643,-72.924,17.649,42.351,26.0,48.0
210197,0.500,0.459,0.738,-45.008,17.687,32.160,30.0,38.0
210250,0.356,0.727,0.766,-51.160,21.305,27.466,0.0,31.0
210307,0.317,0.479,0.726,-84.000,14.176,12.481,0.0,32.0
210349,0.300,0.273,0.834,10.573,28.099,7.176,25.0,30.0
210395,0.384,0.579,0.690,31.397,38.107,12.634,25.0,39.0
210438,0.479,0.497,0.746,2.687,53.053,9.252,24.0,38.0
210481,0.333,0.378,0.810,-36.061,42.649,-12.145,24.0,39.0
210524,0.452,0.148,1.008,4.076,10.901,-19.130,25.0,33.0
210566,0.436,0.516,0.804,22.145,6.076,-20.031,25.0,29.0
210608,0.319,0.454,0.864,-5.061,4.290,-18.344,28.0,23.0
210651,0.345,0.499,0.825,20.618,-0.496,-6.031,26.0,35.0
210693,0.249,0.508,0.835,0.084,-5.824,-0.107,25.0,23.0
210736,0.277,0.573,0.768,31.962,-17.260,22.985,26.0,23.0
210781,0.438,0.476,0.679,47.618,-19.313,38.053,28.0,29.0
210824,0.494,0.601,0.623,23.099,-9.336,42.878,28.0,25.0
210866,0.529,0.387,0.722,-0.313,12.695,43.031,27.0,25.0
210909,0.524,0.354,0.775,-8.374,34.641,38.786,24.0,39.0
210952,0.396,0.219,0.842,-27.000,41.748,19.962,23.0,30.0
210994,0.345,0.151,0.912,-7.847,41.550,2.786,22.0,29.0
211037,0.256,0.321,0.962,22.244,41.305,1.695,24.0,25.0
211079,0.125,0.476,0.998,36.153,18.779,9.374,26.0,29.0
211122,0.255,0.565,0.953,29.099,5.756,17.496,23.0,29.0
211211,0.289,0.208,0.954,-6.931,13.687,20.855,29.0,28.0
211253,0.336,0.329,0.909,2.916,14.695,18.687,26.0,25.0
211296,0.277,0.298,0.913,22.366,5.275,17.267,28.0,36.0
211339,0.333,0.445,0.853,1.282,0.534,14.489,23.0,37.0
211382,0.294,0.216,0.899,-0.779,-6.489,10.351,22.0,39.0
211426,0.354,0.246,0.881,1.565,-26.641,-5.771,23.0,50.0
211469,0.405,0.066,0.882,13.916,-47.267,-32.435,24.0,37.0
211512,0.487,0.120,0.806,43.214,-54.351,-50.611,23.0,29.0
211555,0.448,0.308,0.788,45.489,-50.153,-64.847,26.0,44.0
211601,0.496,0.480,0.774,29.344,-45.176,-65.427,24.0,38.0
211644,0.518,0.423,0.769,41.260,-26.733,-51.550,24.0,34.0
211688,0.541,0.643,0.716,36.061,-6.779,-29.397,30.0,37.0
211731,0.527,0.569,0.737,6.710,15.534,-13.260,27.0,29.0
211774,0.445,0.516,0.800,10.733,23.374,-1.015,28.0,37.0
211818,0.379,0.508,0.825,29.901,18.664,8.069,26.0,52.0
211862,0.424,0.607,0.835,21.611,11.458,12.626,25.0,50.0
211906,0.335,0.444,0.866,-5.809,-2.672,5.870,28.0,51.0
211949,0.379,0.466,0.815,15.313,-15.817,5.710,27.0,30.0
211995,0.358,0.420,0.776,17.153,-20.260,-5.763,26.0,32.0
212038,0.364,0.382,0.757,95.534,-28.847,2.504,25.0,35.0
212081,0.482,0.646,0.638,90.282,-31.435,-3.115,27.0,39.0
212125,0.513,0.573,0.615,75.221,-25.855,-10.878,29.0,37.0
212169,0.574,0.548,0.595,83.176,-10.534,-10.992,30.0,50.0
212213,0.616,0.569,0.569,100.031,7.733,-14.863,29.0,47.0
212257,0.610,0.787,0.507,89.298,28.802,-8.473,32.0,36.0
212301,0.540,0.937,0.503,18.412,40.092,-6.931,34.0,45.0
212348,0.489,0.875,0.570,-39.244,40.748,-0.969,30.0,46.0
212392,0.468,0.645,0.656,-60.130,29.550,0.176,30.0,46.0
212436,0.433,0.420,0.732,6.786,23.954,1.221,30.0,47.0
212482,0.365,0.911,0.594,1.634,32.977,5.901,30.0,52.0
212525,0.332,0.765,0.734,-66.344,33.168,9.267,28.0,36.0
212568,0.327,0.556,0.871,-53.565,28.168,11.382,27.0,37.0
212613,0.365,0.599,0.765,-64.458,34.603,3.611,27.0,51.0
212656,0.352,0.445,0.877,-59.573,42.847,0.229,26.0,38.0
212699,0.372,0.479,0.916,-39.756,52.611,-2.458,25.0,32.0
212745,0.252,0.587,0.788,-80.305,59.878,-3.893,30.0,33.0
212788,0.176,0.366,0.800,-107.046,62.649,1.221,24.0,30.0
212831,0.188,0.399,0.771,-118.939,66.573,-0.901,24.0,31.0
212875,0.091,0.084,0.815,-132.931,67.053,12.061,24.0,32.0
212918,0.081,-0.077,1.008,-51.389,55.580,28.588,25.0,31.0
212961,0.055,0.056,0.941,-11.038,44.595,25.061,29.0,32.0
213004,0.037,0.068,0.906,-5.466,37.321,1.076,26.0,33.0
213048,-0.022,-0.086,0.967,23.695,29.687,3.298,28.0,32.0
213091,-0.050,-0.087,1.017,86.313,22.817,10.687,29.0,33.0
213137,-0.089,0.215,1.025,129.053,-4.893,13.756,28.0,32.0
213181,0.053,0.468,0.934,84.229,-14.221,-0.305,27.0,33.0
213224,0.080,0.433,0.961,-7.298,-1.992,5.672,27.0,33.0
213268,0.072,0.320,0.977,-25.336,13.656,11.733,28.0,34.0
213311,0.031,0.266,0.902,-87.969,31.328,4.450,30.0,33.0
213354,0.035,0.041,1.155,-29.435,25.740,18.191,27.0,34.0
213441,0.015,0.064,1.016,-24.084,17.931,3.153,28.0,33.0
213485,-0.063,0.005,0.996,-6.924,29.863,14.023,30.0,33.0
213529,-0.116,0.145,0.952,-26.634,34.008,14.534,30.0,34.0
213585,-0.149,-0.107,1.102,-14.817,27.618,9.260,0.0,34.0
213629,-0.145,0.007,0.995,-5.550,22.908,9.931,29.0,35.0
213672,-0.168,-0.090,1.048,16.542,25.153,11.649,28.0,35.0
213716,-0.186,0.106,1.009,15.756,16.595,17.870,28.0,38.0
213770,-0.125,0.064,1.044,-18.802,4.168,10.427,0.0,35.0
213824,-0.135,-0.152,1.004,-22.023,-0.328,14.328,0.0,35.0
213877,-0.099,-0.076,0.966,-19.916,-0.435,8.412,0.0,33.0
213932,-0.096,-0.068,0.897,7.153,18.977,16.069,0.0,36.0
213975,-0.167,-0.117,0.961,23.710,20.557,12.061,26.0,36.0
214032,-0.205,-0.121,0.971,29.855,15.565,10.122,0.0,36.0
214084,-0.213,0.094,0.902,16.504,15.771,6.458,30.0,39.0
214137,-0.281,-0.063,1.007,10.061,17.397,15.405,0.0,38.0
214194,-0.187,0.043,0.967,-4.290,18.107,14.740,0.0,39.0
214247,-0.159,-0.183,0.952,62.786,16.947,14.809,0.0,35.0
214303,-0.240,-0.231,1.054,95.397,13.038,2.000,0.0,30.0
214346,-0.325,0.196,1.052,50.710,12.443,-13.282,28.0,29.0
214398,-0.308,0.124,1.037,113.595,-0.733,2.931,0.0,28.0
214455,-0.308,0.013,1.065,-16.565,25.641,-7.908,0.0,29.0
214500,-0.313,0.016,0.996,127.221,13.992,-3.076,30.0,27.0
214543,-0.254,0.663,0.684,67.855,-1.336,-8.855,30.0,24.0
214585,-0.299,-0.222,1.286,86.244,9.046,-15.443,26.0,27.0
214627,-0.378,0.976,0.437,169.450,10.145,12.847,25.0,24.0
214670,-0.314,0.562,0.767,-124.504,2.679,-13.626,28.0,23.0
214712,-0.327,0.169,0.921,-47.481,7.298,21.962,23.0,25.0
214754,-0.374,0.575,0.754,-94.924,-9.153,22.687,24.0,27.0
214799,-0.291,0.058,1.081,-127.084,-32.504,8.809,58.0,30.0
214844,-0.240,0.044,1.002,-38.916,-34.443,14.702,23.0,30.0
214888,-0.240,0.126,1.026,-36.649,-27.069,5.046,26.0,39.0
214931,-0.306,0.016,0.929,-52.336,-12.740,-1.634,26.0,36.0
214974,-0.279,0.002,0.951,-62.519,-7.511,-11.962,27.0,36.0
215017,-0.219,-0.183,0.958,-13.305,-1.450,-7.481,25.0,39.0
215062,-0.125,-0.049,0.893,20.290,4.137,-7.748,57.0,35.0
215114,-0.178,-0.051,0.936,-4.466,4.672,-7.840,0.0,35.0
215168,-0.099,-0.054,0.918,40.237,6.855,-4.573,0.0,36.0
215221,-0.048,-0.065,0.925,22.229,21.450,-10.809,0.0,36.0
215268,-0.128,-0.349,1.083,82.985,37.359,-3.427,30.0,36.0
215320,-0.308,0.067,1.176,108.855,15.244,-6.725,0.0,36.0
215373,-0.256,0.198,0.987,86.985,-8.221,-16.519,0.0,34.0
215431,-0.230,0.280,0.874,86.397,3.908,-1.603,0.0,34.0
215473,-0.279,0.006,1.218,48.389,12.298,-4.656,18.0,33.0
215516,-0.251,0.381,1.018,101.336,7.229,2.435,29.0,33.0
215569,-0.225,0.135,0.998,85.076,3.412,-7.939,0.0,33.0
215612,-0.263,0.110,0.881,223.580,21.481,-2.626,23.0,36.0
215655,-0.392,0.808,0.652,125.832,22.107,-4.450,25.0,38.0
215701,-0.438,1.047,0.521,85.634,-0.725,12.130,24.0,36.0
215744,-0.344,1.184,0.249,-128.527,-13.351,16.305,23.0,35.0
215787,-0.336,0.535,0.716,-247.290,-25.588,19.359,26.0,35.0
215874,-0.200,-0.083,0.994,-113.565,-9.718,4.954,25.0,34.0
215917,-0.160,-0.168,1.027,-14.481,-0.809,-7.901,27.0,35.0
215960,-0.172,0.030,0.926,23.504,7.924,-12.847,24.0,35.0
216003,-0.188,0.056,1.091,26.519,4.336,-13.947,25.0,35.0
216046,-0.253,0.025,1.000,120.008,6.427,-2.809,26.0,34.0
216089,-0.195,0.281,0.814,93.656,7.145,-8.221,25.0,35.0
216136,-0.294,0.235,0.951,109.863,21.038,4.687,30.0,35.0
216180,-0.276,0.760,0.895,12.901,3.664,6.137,53.0,35.0
216224,-0.154,0.266,1.107,-92.893,-30.420,-3.687,28.0,35.0
216267,-0.027,-0.135,1.157,-50.641,-49.870,-3.290,23.0,35.0
216310,0.130,0.026,0.968,14.832,-40.153,6.908,23.0,35.0
216353,0.039,0.144,0.824,28.008,-11.275,23.237,23.0,34.0
216396,-0.069,0.327,0.816,41.466,15.221,35.328,23.0,33.0
216439,-0.166,0.314,0.787,5.885,29.916,26.931,23.0,33.0
216481,-0.295,0.221,0.952,14.183,31.015,23.626,19.0,32.0
216527,-0.289,0.345,0.934,24.168,25.870,18.954,29.0,32.0
216581,-0.476,0.186,0.919,22.290,20.466,7.603,0.0,31.0
216624,-0.252,0.199,1.092,81.214,13.611,-0.847,25.0,31.0
216667,-0.276,0.448,0.937,40.542,7.298,-11.191,28.0,29.0
216710,-0.220,0.214,1.113,62.725,9.153,-8.260,30.0,30.0
216753,-0.212,0.344,0.977,140.084,16.786,4.534,26.0,30.0
216796,-0.213,0.367,0.941,121.466,6.618,-1.260,25.0,31.0
216840,-0.250,0.730,0.514,167.084,15.771,11.504,26.0,36.0
216886,-0.333,0.923,0.544,-38.481,-1.260,9.206,23.0,36.0
216929,-0.307,0.715,0.707,-86.748,-15.191,13.435,23.0,30.0
216972,-0.245,0.492,0.739,-134.206,-16.214,11.099,22.0,30.0
217015,-0.178,0.143,0.955,-106.489,-3.252,4.557,22.0,38.0
217058,-0.129,-0.009,1.096,-28.618,0.344,-5.794,23.0,33.0
217101,-0.123,0.247,0.980,56.168,4.092,-5.443,28.0,32.0
217145,-0.136,0.480,0.831,12.939,-6.344,-15.229,27.0,32.0
217188,-0.061,0.230,0.911,-3.740,-0.672,-20.916,27.0,31.0
217232,-0.110,0.338,0.879,41.725,11.908,-11.656,30.0,36.0
217278,-0.280,0.545,0.982,20.038,6.076,-0.412,29.0,29.0
217321,-0.252,0.646,0.930,-14.084,-9.634,8.298,24.0,29.0
217364,-0.164,0.377,0.918,-84.924,-21.855,3.832,26.0,30.0
217407,-0.138,-0.064,1.069,-29.328,-10.893,1.336,25.0,31.0
217450,-0.166,0.182,1.059,45.092,0.305,9.542,25.0,30.0
217493,-0.227,0.415,0.948,-17.618,-19.145,-3.550,22.0,33.0
217536,-0.266,0.200,1.054,13.458,-27.053,6.321,23.0,30.0
217579,-0.202,0.328,0.964,19.565,-31.305,22.229,23.0,30.0
217623,-0.050,0.352,0.869,-0.069,-27.145,26.198,21.0,37.0
217669,0.010,0.342,0.887,-56.939,-13.397,20.374,19.0,37.0
217712,0.027,0.236,0.889,-134.168,-2.344,20.321,21.0,35.0
217756,-0.005,-0.053,0.939,-157.992,7.725,12.908,29.0,35.0
217799,-0.083,-0.278,1.030,-130.153,9.000,23.916,28.0,36.0
217853,-0.009,-0.524,1.206,-23.687,7.061,13.527,0.0,36.0
217896,-0.024,0.008,0.878,8.321,4.221,11.389,26.0,36.0
217951,-0.000,-0.177,0.959,-27.321,8.962,2.580,0.0,36.0
218004,-0.035,-0.290,1.037,6.542,18.145,13.069,0.0,35.0
218057,-0.153,-0.189,0.972,-9.672,18.229,8.893,0.0,36.0
218159,-0.134,-0.091,0.884,37.733,0.725,10.954,51.0,35.0
218204,-0.132,-0.095,0.968,2.359,-3.794,15.344,51.0,37.0
218248,-0.111,-0.092,0.922,2.718,-3.282,14.924,30.0,40.0
218292,-0.072,-0.191,0.958,-11.740,-0.511,13.206,29.0,41.0
218338,-0.077,-0.240,0.914,-17.305,7.160,8.427,62.0,40.0
218384,-0.110,-0.354,0.987,-0.122,11.603,11.351,60.0,42.0
218429,-0.143,-0.262,0.999,10.679,7.473,6.527,51.0,43.0
218474,-0.133,-0.106,0.949,-1.771,-0.458,10.534,44.0,41.0
218527,-0.093,-0.258,0.938,-14.901,3.481,17.069,51.0,122.0
218576,-0.159,-0.541,1.082,-1.382,4.664,14.206,26.0,123.0
218631,-0.177,-0.275,0.873,17.565,1.450,-3.687,0.0,43.0
218676,-0.180,-0.453,0.972,100.992,-1.695,-24.229,51.0,39.0
218723,-0.297,-0.338,0.900,155.443,-7.748,-46.626,45.0,86.0
218777,-0.248,-0.033,0.923,182.466,-29.916,-56.237,0.0,35.0
218821,-0.218,0.008,0.927,201.573,-52.534,-63.145,23.0,36.0
218865,-0.141,0.182,0.789,247.855,-61.023,-42.305,26.0,40.0
218909,-0.055,0.482,0.693,241.252,-63.740,-21.786,28.0,33.0
218956,0.129,0.753,0.648,232.153,-64.969,0.908,29.0,37.0
218999,0.234,1.093,0.612,157.473,-52.847,17.397,30.0,16.0
219043,0.306,1.130,0.663,74.000,-34.969,41.740,29.0,36.0
219088,0.344,0.958,0.670,61.115,-13.252,77.802,32.0,49.0
219142,0.426,0.923,0.630,61.939,2.183,92.969,0.0,38.0
219194,0.446,0.755,0.592,15.740,25.229,96.573,168.0,36.0
219246,0.437,0.548,0.632,39.496,26.527,78.206,167.0,38.0
219297,0.466,0.653,0.581,48.779,25.924,71.687,165.0,36.0
219352,0.438,0.663,0.501,60.893,24.107,61.267,0.0,37.0
219408,0.447,0.549,0.497,26.015,27.321,37.824,159.0,59.0
219461,0.363,0.586,0.540,84.901,18.458,9.435,191.0,37.0
219514,0.319,0.938,0.424,72.992,3.130,-9.916,186.0,30.0
219566,0.425,0.915,0.404,59.221,1.397,-11.252,163.0,23.0
219616,0.413,0.991,0.406,27.824,-2.359,-7.038,164.0,22.0
219667,0.356,0.823,0.479,10.962,-15.771,-14.061,158.0,23.0
219717,0.376,0.778,0.454,7.313,-33.229,-32.824,157.0,16.0
219770,0.415,0.979,0.260,-63.519,-44.565,-67.496,163.0,57.0
219821,0.484,0.921,0.251,-131.443,-38.282,-91.855,163.0,16.0
219878,0.462,0.867,0.367,-141.939,6.412,-71.565,176.0,48.0
219922,0.342,0.661,0.680,-116.733,30.863,-47.885,29.0,36.0
219966,0.220,0.715,0.713,-81.618,26.519,-23.695,30.0,36.0
220010,0.200,0.603,0.803,-112.412,11.313,-23.412,27.0,36.0
220059,0.175,0.440,0.924,-85.840,-0.115,-22.527,27.0,35.0
220102,0.165,0.376,0.925,-36.290,-2.779,-15.924,28.0,35.0
220145,0.173,0.390,0.922,21.435,0.618,-11.618,28.0,32.0
220188,0.136,0.617,0.867,8.870,4.634,-0.779,27.0,31.0
220233,0.160,0.518,0.900,-11.038,6.939,-2.290,27.0,32.0
220276,0.155,0.456,0.930,-1.504,4.931,2.260,26.0,35.0
220319,0.175,0.451,0.902,6.282,-0.618,2.374,28.0,32.0
220361,0.200,0.469,0.878,-4.779,2.046,-2.947,28.0,32.0
220404,0.131,0.418,0.887,-16.901,2.275,-2.481,28.0,33.0
220447,0.154,0.438,0.922,-14.756,3.687,-1.450,28.0,35.0
220490,0.114,0.349,0.952,-18.160,8.534,2.076,28.0,33.0
220576,0.111,0.333,1.049,-29.382,18.405,6.901,25.0,32.0
220619,0.164,0.404,0.973,-17.878,8.244,10.328,28.0,33.0
220665,0.192,0.271,0.960,-31.290,12.870,9.092,28.0,32.0
220708,0.153,0.246,0.965,-16.519,19.466,12.305,28.0,33.0
220761,0.140,0.183,0.946,-6.824,20.183,6.794,0.0,34.0
220804,0.092,0.464,0.942,-11.290,21.328,-3.099,30.0,33.0
220847,0.036,0.207,1.012,-33.939,15.664,-4.183,30.0,34.0
220891,0.094,0.208,0.994,-19.221,8.695,0.328,30.0,35.0
220934,0.053,0.216,0.967,-14.420,5.183,-1.756,29.0,35.0
220986,0.073,0.165,0.943,-27.763,7.069,0.351,0.0,35.0
221043,0.094,0.060,0.962,-16.679,10.595,-3.985,0.0,36.0
221099,-0.009,0.091,1.010,-33.939,4.458,-0.702,0.0,36.0
221156,0.078,-0.030,0.920,-16.855,0.901,-7.855,0.0,36.0
221199,0.005,0.051,0.981,-24.580,-4.710,-1.069,29.0,37.0
221243,0.080,-0.106,0.991,-10.290,-3.427,-1.137,38.0,37.0
221287,0.063,-0.092,1.014,-2.573,-2.076,2.809,37.0,38.0
221330,0.075,-0.067,1.042,-2.267,-3.351,0.466,38.0,37.0
221374,0.104,-0.070,1.015,4.336,-3.695,5.824,37.0,37.0
221418,0.108,-0.066,1.006,-2.153,-1.122,2.817,42.0,37.0
221462,0.078,-0.123,1.009,11.878,1.031,2.198,44.0,38.0
221509,0.075,-0.057,1.006,7.359,1.695,4.473,41.0,39.0
221553,0.112,-0.097,1.011,17.122,0.374,4.427,39.0,37.0
221597,0.105,0.002,0.970,10.260,4.328,3.244,39.0,37.0
221641,0.112,-0.125,1.043,14.550,2.427,2.214,38.0,37.0
221684,0.136,-0.027,1.009,20.649,4.267,0.305,36.0,38.0
221728,0.097,-0.078,1.045,16.260,4.595,-1.580,36.0,37.0
221772,0.110,-0.052,1.029,28.817,3.511,2.481,37.0,38.0
221816,0.078,-0.009,0.993,15.290,-0.359,-2.191,37.0,37.0
221860,0.046,-0.146,1.059,27.779,-12.115,-4.618,38.0,36.0
221906,-0.001,0.018,0.948,59.550,-21.573,-3.702,37.0,36.0
221950,0.080,0.078,0.944,51.382,-28.924,-5.420,40.0,35.0
221995,0.098,0.109,0.949,57.290,-25.847,-5.290,41.0,36.0
222048,0.190,0.205,0.876,31.153,-24.359,-7.794,0.0,36.0
222105,0.207,-0.025,0.972,46.985,-19.634,-11.275,0.0,35.0
222149,0.236,0.160,0.985,59.244,-14.481,-16.168,29.0,36.0
222192,0.338,0.165,0.987,82.489,-15.145,-14.008,30.0,36.0
222235,0.269,0.407,0.867,64.573,-15.359,-17.298,23.0,35.0
222278,0.286,0.258,0.979,35.420,-13.687,-22.901,21.0,35.0
222324,0.300,0.266,0.994,52.481,-8.588,-16.374,26.0,35.0
222368,0.338,0.333,0.961,64.626,-10.542,-12.153,27.0,35.0
222411,0.338,0.384,0.940,51.809,-4.855,-3.298,27.0,35.0
222454,0.347,0.426,0.925,48.221,-2.771,-0.443,27.0,36.0
222498,0.304,0.467,0.882,38.466,-1.405,-1.053,30.0,35.0
222541,0.269,0.442,0.872,29.924,-1.069,-4.160,30.0,35.0
222586,0.273,0.455,0.881,30.687,-2.153,-2.718,58.0,35.0
222640,0.292,0.439,0.862,36.473,-2.878,-5.458,0.0,36.0
222684,0.290,0.514,0.863,33.145,-8.137,-4.985,27.0,36.0
222730,0.321,0.487,0.837,44.779,-7.076,-1.740,28.0,36.0
222774,0.333,0.599,0.789,39.092,-8.885,2.481,28.0,37.0
222817,0.333,0.559,0.780,14.969,-8.618,-4.916,25.0,37.0