Timestamp(ms),AccelX(g),AccelY(g),AccelZ(g),GyroX(deg/s),GyroY(deg/s),GyroZ(deg/s),DistanceLeft(cm),DistanceRight(cm)
331293,0.521,0.408,0.666,-22.817,20.198,-195.740,45.0,0.0
331359,0.087,0.635,0.783,47.107,20.641,-187.489,0.0,0.0
331423,-0.048,1.057,0.552,-17.458,-10.435,-82.893,0.0,0.0
331489,0.287,0.955,0.706,2.305,5.405,-21.244,0.0,0.0
331549,0.258,0.822,0.776,-29.351,11.267,-18.221,0.0,109.0
331613,0.172,0.801,0.729,-33.947,14.405,-13.969,0.0,108.0
331672,0.150,0.587,0.739,-34.237,17.046,-17.397,0.0,107.0
331732,0.059,0.616,0.575,-39.748,20.885,-23.275,0.0,106.0
331793,0.151,0.518,0.544,-17.282,70.443,-33.885,0.0,106.0
331849,-0.227,0.862,0.396,-141.878,131.061,-26.542,0.0,51.0
331907,-0.456,0.476,0.821,-103.122,109.527,42.832,0.0,57.0
331967,-0.281,0.664,0.980,-32.435,86.992,102.725,0.0,112.0
332024,-0.306,0.552,0.973,-40.649,64.977,120.763,48.0,0.0
332081,-0.252,0.627,0.868,-55.740,55.847,133.901,47.0,0.0
332140,-0.227,0.718,0.959,-47.931,55.824,161.313,41.0,0.0
332196,-0.263,0.474,1.045,-92.527,32.885,183.939,37.0,0.0
332247,-0.240,0.329,1.084,-70.962,8.802,180.687,32.0,90.0
332302,-0.218,0.255,0.994,-47.733,-19.260,170.580,32.0,0.0
332357,-0.099,0.122,0.999,-13.588,-41.351,129.092,24.0,0.0
332413,-0.140,0.302,0.929,36.481,-19.725,108.977,25.0,0.0
332469,-0.149,0.533,0.904,34.153,-3.855,101.275,27.0,0.0
332524,-0.103,0.385,0.779,-10.977,10.031,69.489,25.0,0.0
332579,0.112,-0.035,0.849,-54.221,22.153,-21.382,24.0,0.0
332639,-0.088,0.032,0.885,-11.084,59.595,-103.611,29.0,0.0
332694,-0.478,0.673,0.868,-3.710,56.260,-76.824,30.0,0.0
332761,-0.318,0.552,0.986,5.473,28.527,-32.206,0.0,0.0
332816,-0.212,0.435,0.893,-19.534,21.000,-8.115,30.0,0.0
332872,-0.293,0.330,1.083,-10.466,-4.649,4.748,32.0,0.0
332928,-0.146,0.314,0.894,3.206,-18.374,-5.023,29.0,0.0
332984,-0.197,0.380,1.008,-9.252,-13.779,-0.221,34.0,0.0
333049,-0.161,0.306,1.028,-4.198,-5.504,-0.084,0.0,0.0
333118,-0.391,0.472,1.001,-27.458,-2.687,4.481,0.0,0.0
333173,-0.531,0.239,0.910,-44.786,-19.069,30.756,30.0,0.0
333230,-0.298,0.311,1.010,-20.725,-33.511,47.794,30.0,0.0
333285,-0.120,0.160,0.989,-7.359,-35.443,33.725,22.0,0.0
333341,-0.009,0.194,0.975,-12.198,-33.611,17.092,22.0,0.0
333396,0.038,0.308,0.961,-30.618,-32.977,5.389,23.0,0.0
333452,0.078,0.191,0.989,-37.305,-40.107,-1.664,20.0,0.0
333507,0.175,0.121,1.010,-19.321,-45.908,1.878,17.0,0.0
333562,0.304,0.104,1.017,-24.008,-49.802,-4.939,18.0,0.0
333616,0.397,0.022,1.069,-26.366,-53.405,-2.863,27.0,101.0
333665,0.487,0.018,1.056,-24.679,-56.214,1.267,17.0,100.0
333714,0.450,0.043,1.010,-37.901,-60.237,8.458,19.0,99.0
333774,0.422,0.018,0.991,-23.679,-67.290,19.527,0.0,99.0
333824,0.512,0.038,0.919,12.656,-71.603,42.763,24.0,100.0
333875,0.518,0.165,0.848,-2.641,-76.237,50.740,25.0,113.0
333925,0.585,0.010,0.836,19.595,-81.061,57.290,23.0,114.0
333974,0.616,-0.161,0.779,87.260,-72.275,60.321,19.0,88.0
334022,0.647,-0.027,0.635,158.748,-54.176,56.626,20.0,85.0
334074,0.630,0.156,0.495,141.580,-16.756,29.763,20.0,83.0
334167,0.474,0.295,0.491,71.893,53.580,-38.786,21.0,76.0
334215,0.387,0.273,0.556,62.725,83.412,-70.008,24.0,74.0
334263,0.302,0.295,0.621,96.977,117.779,-95.328,24.0,71.0
334311,0.065,0.746,0.612,57.756,136.542,-119.802,27.0,69.0
334369,-0.103,0.887,0.740,-31.870,133.435,-124.466,0.0,68.0
334428,-0.546,0.447,1.044,3.718,93.107,-88.489,0.0,68.0
334486,-0.267,0.915,0.874,45.122,47.275,-49.710,0.0,68.0
334552,-0.310,0.729,0.814,10.779,19.763,-39.588,0.0,0.0
334621,-0.332,0.682,0.895,19.519,9.298,-16.412,0.0,0.0
334687,-0.584,0.851,0.915,-30.053,-21.076,20.740,0.0,0.0
334752,-0.471,0.798,0.902,2.137,-74.038,74.939,0.0,0.0
334811,-0.304,0.607,0.877,-41.443,-94.550,79.908,0.0,68.0
334869,-0.125,0.655,0.825,-35.382,-85.191,70.084,0.0,68.0
334932,-0.010,0.551,0.846,-106.985,-74.878,31.481,0.0,67.0
334980,0.058,0.439,0.885,-129.924,-59.344,4.382,26.0,67.0
335027,0.136,0.246,0.900,-132.145,-48.420,-32.046,28.0,69.0
335089,0.124,0.191,0.855,-107.779,-39.214,-66.183,0.0,106.0
335138,0.201,0.168,0.812,-85.595,-30.557,-109.420,22.0,103.0
335187,0.220,0.161,0.823,-64.954,-28.076,-142.000,23.0,92.0
335236,0.214,0.181,0.812,-27.855,-23.267,-152.618,26.0,89.0
335284,0.345,0.371,0.732,-33.794,-12.626,-157.832,31.0,85.0
335340,0.328,0.145,0.851,-39.290,4.626,-176.542,38.0,0.0
335405,0.320,0.444,0.829,16.672,24.473,-165.977,0.0,0.0
335456,0.180,0.439,0.876,14.206,25.832,-153.924,39.0,114.0
335506,0.162,0.559,0.772,-7.466,31.038,-133.847,37.0,107.0
335558,0.169,0.419,0.799,-1.198,38.061,-118.374,36.0,96.0
335607,0.108,0.427,0.754,13.313,40.023,-106.466,36.0,92.0
335656,-0.048,0.494,0.786,-13.496,46.427,-120.756,37.0,90.0
335706,-0.302,0.309,0.929,-51.916,50.863,-115.557,32.0,94.0
335755,-0.495,0.106,1.037,-22.321,38.809,-100.565,32.0,92.0
335810,-0.521,0.147,1.009,42.321,23.740,-70.695,0.0,34.0
335856,-0.505,0.308,0.994,55.885,9.229,-51.916,36.0,30.0
335910,-0.409,0.442,0.903,39.954,4.748,-33.122,0.0,28.0
335966,-0.437,0.436,0.846,12.183,19.550,-23.649,0.0,28.0
336024,-0.586,0.413,1.085,3.282,1.725,0.809,0.0,26.0
336079,-0.460,0.450,1.051,9.130,-9.985,23.901,0.0,30.0
336135,-0.497,0.538,0.976,-30.763,-15.473,56.435,0.0,30.0
336190,-0.468,0.478,0.969,-51.176,-26.130,89.351,0.0,36.0
336249,-0.380,0.460,0.953,-48.679,-41.328,122.229,0.0,93.0
336308,-0.235,0.524,0.862,-44.550,-38.947,162.802,0.0,90.0
336367,-0.105,0.401,0.885,-55.000,-23.687,187.580,0.0,96.0
336432,0.028,0.483,0.811,-45.336,-6.267,196.466,0.0,0.0
336491,-0.022,0.325,0.715,-54.649,1.931,192.023,53.0,0.0
336548,0.071,0.319,0.766,-40.740,25.969,188.511,58.0,0.0
336598,-0.055,0.260,0.861,-52.168,44.099,179.817,36.0,83.0
336647,-0.179,0.073,0.918,-43.924,44.023,164.221,47.0,87.0
336698,-0.249,0.117,0.947,-10.901,35.534,143.107,48.0,99.0
336748,-0.285,0.107,0.927,-8.092,27.992,116.626,43.0,103.0
336813,-0.265,0.141,0.990,2.221,31.542,94.748,0.0,0.0
336862,-0.395,0.152,0.909,-43.130,44.939,61.931,44.0,65.0
336953,-0.449,0.084,0.894,-6.282,43.160,47.053,41.0,68.0
337005,-0.589,0.050,0.840,-12.092,37.634,43.061,39.0,70.0
337062,-0.487,0.031,0.905,-3.695,26.473,39.420,0.0,73.0
337120,-0.527,0.029,0.923,-13.649,30.229,37.924,0.0,74.0
337178,-0.602,0.077,0.935,-22.634,33.328,35.122,0.0,76.0
337226,-0.598,0.040,0.892,-30.870,29.405,24.603,25.0,78.0
337274,-0.702,-0.138,1.094,-20.802,12.916,19.916,24.0,79.0
337323,-0.473,-0.088,0.981,15.282,-19.435,-1.824,23.0,79.0
337371,-0.390,0.075,0.861,30.267,-6.137,-8.916,25.0,79.0
337419,-0.463,0.083,0.890,-24.901,1.855,-17.275,22.0,78.0
337469,-0.507,-0.097,0.930,-0.443,-2.679,-23.611,22.0,77.0
337517,-0.535,-0.001,0.865,-2.412,-0.817,-32.015,23.0,76.0
337575,-0.553,-0.100,0.866,-3.160,-1.427,-42.107,0.0,74.0
337624,-0.578,-0.034,0.864,5.099,2.511,-46.198,27.0,72.0
337672,-0.545,-0.065,0.854,6.412,-0.168,-50.107,35.0,70.0
337721,-0.560,-0.109,0.854,20.405,-0.076,-58.519,58.0,67.0
337769,-0.527,-0.059,0.851,37.466,2.725,-68.305,36.0,66.0
337825,-0.469,-0.067,0.905,25.916,5.015,-82.855,39.0,0.0
337882,-0.480,-0.032,0.940,35.382,7.382,-84.634,42.0,0.0
337941,-0.491,-0.052,0.937,21.069,5.985,-88.687,49.0,0.0
337997,-0.488,-0.011,0.902,51.802,0.855,-89.458,49.0,0.0
338054,-0.552,-0.014,0.903,49.252,-7.176,-88.450,50.0,0.0
338111,-0.496,0.023,0.835,49.794,-12.718,-89.603,54.0,0.0
338168,-0.459,0.023,0.822,22.321,-4.405,-87.832,57.0,0.0
338226,-0.470,-0.012,0.820,4.763,4.015,-87.641,61.0,0.0
338284,-0.471,-0.087,0.856,7.740,9.168,-89.198,72.0,0.0
338349,-0.473,-0.131,0.877,34.237,7.985,-92.588,0.0,0.0
338411,-0.475,-0.056,0.872,45.176,10.840,-88.748,83.0,0.0
338465,-0.473,-0.052,0.893,36.092,8.466,-86.053,88.0,122.0
338526,-0.472,-0.072,0.886,48.084,5.550,-76.237,0.0,116.0
338586,-0.440,0.062,0.878,49.122,9.229,-76.908,0.0,110.0
338646,-0.459,0.085,0.924,18.618,16.588,-77.282,0.0,105.0
338706,-0.521,-0.015,0.955,8.443,11.237,-74.435,0.0,101.0
338765,-0.438,0.020,0.939,63.824,5.115,-59.115,0.0,97.0
338825,-0.453,0.009,0.930,56.198,-10.504,-50.130,0.0,95.0
338884,-0.405,0.264,0.841,28.290,-1.641,-39.649,0.0,92.0
338946,-0.394,0.249,0.898,50.046,-1.573,2.931,0.0,90.0
339005,-0.378,0.243,0.901,-1.504,-5.084,15.779,0.0,90.0
339064,-0.371,-0.042,1.054,-21.221,-7.382,9.038,0.0,91.0
339124,-0.430,-0.132,0.919,7.267,-7.405,8.756,0.0,91.0
339182,-0.405,0.017,0.878,-10.679,3.931,2.504,0.0,91.0
339241,-0.369,-0.042,0.963,7.931,5.595,3.252,0.0,90.0
339301,-0.435,0.081,0.990,-2.107,3.901,1.908,0.0,91.0
339359,-0.392,-0.006,0.949,-4.107,-0.305,3.061,0.0,91.0
339419,-0.395,-0.035,0.902,-4.336,-0.947,2.076,0.0,93.0
339482,-0.404,-0.038,0.886,7.748,-1.939,4.573,0.0,94.0
339540,-0.399,-0.101,0.932,28.840,-0.939,4.466,0.0,93.0
339598,-0.401,0.134,0.927,24.397,2.641,4.534,0.0,41.0
339653,-0.455,0.110,1.163,3.473,8.168,-4.916,0.0,38.0
339710,-0.537,0.123,0.882,52.321,-12.244,16.397,0.0,40.0
339810,-0.500,0.200,0.890,13.153,-26.771,109.954,0.0,42.0
339867,-0.459,0.537,0.875,2.221,-29.969,147.802,0.0,44.0
339923,-0.384,0.467,0.964,-19.992,-46.977,178.763,0.0,47.0
339992,-0.226,0.333,0.992,35.023,-58.969,225.290,0.0,98.0
340055,0.052,0.609,0.829,12.687,-33.855,243.855,0.0,117.0
340111,-0.049,0.393,0.822,-70.977,-23.466,235.985,42.0,0.0
340160,-0.030,0.284,0.772,-127.168,-37.191,219.137,36.0,86.0
340208,0.049,-0.204,0.860,-164.115,-57.122,180.573,31.0,88.0
340257,0.306,-0.929,1.072,-5.939,-66.695,138.130,30.0,91.0
340306,0.208,-0.147,0.953,98.260,-52.771,83.275,27.0,92.0
340356,-0.157,0.378,0.990,56.198,-64.649,80.740,38.0,94.0
340405,0.241,-0.044,0.912,10.702,-66.786,82.389,24.0,95.0
340453,0.515,-0.577,0.899,26.687,-51.489,20.145,23.0,96.0
340514,0.483,-0.093,0.958,65.702,-23.580,-29.412,0.0,95.0
340563,0.327,0.543,0.971,51.420,-26.771,15.656,22.0,94.0
340612,0.577,0.249,0.892,19.550,-24.481,49.893,24.0,95.0
340671,0.598,0.076,0.815,16.557,-15.679,45.107,0.0,95.0
340719,0.515,0.051,0.798,63.931,-7.450,43.870,19.0,96.0
340768,0.575,0.345,0.787,34.748,-11.076,31.550,22.0,109.0
340823,0.504,0.176,0.911,-6.519,-14.427,23.313,19.0,0.0
340878,0.588,0.162,0.852,20.260,-20.229,22.206,25.0,0.0
340926,0.693,0.166,0.846,24.756,-9.496,19.092,19.0,88.0
340977,0.666,0.196,0.818,17.145,14.885,20.305,20.0,87.0
341025,0.528,0.150,0.820,28.282,3.496,8.580,25.0,86.0
341072,0.692,0.268,0.760,48.840,3.794,5.573,17.0,86.0
341121,0.622,0.264,0.799,22.611,7.260,-4.046,17.0,85.0
341168,0.591,0.267,0.769,48.015,10.870,6.198,16.0,85.0
341216,0.581,0.567,0.732,-2.282,14.359,8.076,18.0,84.0
341264,0.483,0.213,0.919,-44.076,4.893,-3.916,18.0,85.0
341311,0.513,0.251,0.883,0.389,-11.588,4.023,17.0,85.0
341359,0.559,0.354,0.856,-36.038,-23.237,1.458,20.0,86.0
341410,0.599,0.175,0.773,-20.756,-19.168,2.489,20.0,87.0
341458,0.647,0.271,0.707,-6.687,-4.725,2.153,17.0,86.0
341507,0.601,0.219,0.738,-4.573,7.069,3.634,21.0,86.0
341555,0.558,0.205,0.813,-4.229,6.580,1.611,18.0,87.0
341602,0.565,0.273,0.795,18.824,1.328,6.389,17.0,86.0
341650,0.587,0.319,0.741,-7.687,4.214,4.366,20.0,87.0
341698,0.567,0.220,0.812,17.076,5.107,6.718,19.0,86.0
341756,0.576,0.328,0.790,0.733,1.702,6.206,0.0,86.0
341815,0.562,0.209,0.803,9.840,0.298,2.840,0.0,86.0
341876,0.577,0.355,0.758,2.252,5.221,5.718,0.0,86.0
341935,0.547,0.240,0.849,21.969,4.282,3.870,0.0,86.0
341993,0.544,0.344,0.789,6.443,0.710,1.366,0.0,85.0
342041,0.537,0.328,0.832,8.290,-2.389,3.458,20.0,85.0
342089,0.556,0.401,0.766,5.962,-5.305,5.412,21.0,85.0
342137,0.573,0.326,0.778,-5.137,-5.710,4.954,22.0,85.0
342196,0.584,0.325,0.763,0.794,-5.115,9.237,0.0,85.0
342244,0.546,0.367,0.805,-8.893,-9.344,8.153,19.0,85.0
342292,0.493,0.324,0.798,-8.824,-9.015,9.855,19.0,85.0
342342,0.578,0.282,0.774,9.397,-4.397,9.504,17.0,86.0
342445,0.572,0.356,0.760,12.679,-1.649,11.687,0.0,85.0
342493,0.549,0.390,0.814,-13.412,-2.031,2.313,16.0,86.0
342540,0.520,0.381,0.884,-70.557,-18.107,-6.214,18.0,85.0
342595,0.565,0.237,0.798,-125.359,-40.046,-33.374,18.0,0.0
342644,0.559,-0.062,0.858,-70.160,-49.092,-58.847,19.0,94.0
342692,0.562,0.086,0.845,-6.084,-61.687,-78.282,19.0,90.0
342751,0.540,0.256,0.773,34.115,-74.664,-84.481,0.0,87.0
342809,0.638,0.604,0.535,-0.481,-71.092,-79.802,0.0,84.0
342861,0.696,0.498,0.549,-7.969,-51.947,-51.649,27.0,82.0
342909,0.727,0.499,0.526,53.588,-37.229,-15.313,20.0,81.0
342958,0.761,0.622,0.332,110.099,-16.794,25.137,19.0,81.0
343006,0.845,0.771,0.254,57.206,10.191,31.573,22.0,82.0
343054,0.834,0.602,0.311,3.046,46.550,41.542,30.0,83.0
343103,0.768,0.564,0.339,18.115,80.710,60.763,22.0,85.0
343151,0.732,0.513,0.474,35.275,107.031,74.947,17.0,89.0
343205,0.523,0.500,0.662,27.176,99.153,76.366,18.0,0.0
343261,0.547,0.354,0.782,60.725,78.756,66.206,23.0,0.0
343322,0.500,0.462,0.756,6.519,48.389,26.771,0.0,83.0
343370,0.529,0.360,0.872,-11.031,25.977,13.092,17.0,83.0
343418,0.513,0.460,0.788,-21.382,10.534,5.305,18.0,83.0
343467,0.582,0.421,0.771,-59.328,-1.672,-7.611,17.0,84.0
343525,0.564,0.317,0.820,7.580,-6.397,1.344,0.0,84.0
343573,0.559,0.430,0.674,-4.145,-1.580,10.321,19.0,84.0
343621,0.618,0.446,0.709,-29.947,5.481,8.878,19.0,85.0
343670,0.586,0.324,0.760,-25.802,4.527,12.405,19.0,84.0
343718,0.563,0.313,0.768,1.588,1.748,15.405,20.0,85.0
343770,0.534,0.380,0.799,-2.588,0.168,7.420,17.0,85.0
343818,0.548,0.321,0.821,-8.626,-4.679,11.145,22.0,85.0
343876,0.576,0.308,0.757,-1.618,-2.916,10.504,0.0,85.0
343924,0.601,0.312,0.736,-5.763,-2.313,-0.061,16.0,85.0
343972,0.572,0.334,0.732,10.183,2.344,-1.344,17.0,85.0
344032,0.550,0.392,0.787,12.588,2.466,1.733,0.0,85.0
344090,0.541,0.368,0.778,4.366,-1.542,2.748,0.0,85.0
344148,0.553,0.405,0.741,-0.672,-1.435,4.244,0.0,85.0
344208,0.586,0.363,0.749,-19.969,-0.450,2.779,0.0,85.0
344269,0.550,0.361,0.793,0.473,-1.389,3.718,0.0,85.0
344328,0.555,0.396,0.781,-22.855,-1.435,0.992,0.0,85.0
344387,0.547,0.324,0.788,-8.809,-4.672,-0.504,0.0,85.0
344445,0.578,0.424,0.747,1.878,-3.115,5.809,0.0,85.0
344505,0.552,0.329,0.758,7.939,-1.573,6.092,0.0,85.0
344563,0.551,0.367,0.796,-5.282,-0.084,6.710,0.0,85.0
344622,0.547,0.333,0.770,-7.580,-2.412,4.649,0.0,85.0
344681,0.546,0.365,0.767,-9.145,-4.053,2.084,0.0,85.0
344739,0.557,0.379,0.761,-10.924,-3.405,1.611,0.0,85.0
344799,0.569,0.343,0.779,-5.466,-2.443,6.229,0.0,85.0
344861,0.564,0.341,0.770,-1.641,-1.603,4.366,0.0,85.0
344909,0.556,0.363,0.767,-1.511,-1.481,0.847,21.0,85.0
344968,0.545,0.346,0.791,0.321,-1.130,2.710,0.0,85.0
345017,0.563,0.378,0.773,-2.840,-2.191,5.344,23.0,85.0
345066,0.550,0.361,0.771,-3.855,-2.076,3.824,23.0,85.0
345157,0.546,0.355,0.785,-8.412,-0.206,6.160,19.0,86.0
345206,0.549,0.366,0.787,-9.244,-1.092,6.573,21.0,85.0
345254,0.548,0.338,0.807,-6.611,-3.244,5.695,20.0,85.0
345314,0.553,0.347,0.777,-7.069,-3.626,3.947,0.0,86.0
345375,0.567,0.311,0.785,-2.244,-0.527,5.901,0.0,85.0
345435,0.551,0.385,0.775,-1.015,-0.794,5.962,0.0,86.0
345494,0.550,0.354,0.793,-1.817,-2.458,5.725,0.0,85.0
345552,0.576,0.301,0.792,19.740,2.137,11.267,0.0,85.0
345612,0.547,0.364,0.798,-0.290,0.183,3.214,0.0,85.0
345670,0.529,0.411,0.799,-10.847,-4.115,-3.931,0.0,85.0
345730,0.538,0.366,0.822,-72.473,-17.672,-21.481,0.0,86.0
345785,0.493,0.257,0.860,-92.183,-30.771,-28.588,19.0,0.0
345840,0.500,0.131,0.840,-38.542,-41.405,-30.687,21.0,0.0
345893,0.608,0.105,0.752,9.679,-44.489,-38.450,20.0,92.0
345943,0.700,0.077,0.618,28.130,-26.374,-56.290,26.0,91.0
345992,0.565,0.480,0.702,38.443,-8.405,-71.969,23.0,89.0
346041,0.485,0.848,0.746,9.069,-7.000,-32.099,21.0,88.0
346089,0.630,0.541,0.679,3.397,-12.802,16.351,23.0,88.0
346138,0.659,0.137,0.640,17.481,-9.962,2.267,21.0,88.0
346187,0.556,0.425,0.674,30.061,-0.985,-22.137,23.0,88.0
346236,0.500,0.752,0.688,12.496,5.275,-13.344,21.0,87.0
346286,0.586,0.600,0.678,-8.237,1.420,11.580,22.0,88.0
346338,0.631,0.441,0.662,-4.305,3.763,18.748,30.0,88.0
346397,0.581,0.523,0.667,-7.069,9.504,17.053,0.0,88.0
346446,0.583,0.587,0.666,-28.870,18.389,21.710,29.0,90.0
346497,0.559,0.424,0.700,-54.084,21.901,18.359,31.0,89.0
346546,0.582,0.353,0.797,-37.885,18.527,19.145,21.0,90.0
346605,0.526,0.325,0.844,-14.069,11.740,22.221,0.0,90.0
346654,0.498,0.375,0.795,-2.260,9.122,12.267,27.0,92.0
346714,0.484,0.339,0.838,-22.389,1.710,6.519,0.0,92.0
346778,0.530,0.281,0.799,1.626,-1.916,8.924,0.0,92.0
346840,0.536,0.393,0.779,-0.756,-1.061,1.855,0.0,92.0
346898,0.514,0.363,0.790,-20.046,-1.611,0.740,0.0,91.0
346947,0.558,0.294,0.825,0.412,-1.550,9.206,37.0,91.0
347005,0.513,0.358,0.759,-0.519,-0.534,7.328,0.0,91.0
347064,0.489,0.378,0.823,-0.069,-1.183,7.939,0.0,91.0
347122,0.471,0.361,0.892,1.672,-14.344,27.275,0.0,91.0
347181,0.532,0.384,0.809,31.107,-29.687,42.939,0.0,91.0
347230,0.638,0.324,0.747,36.244,-39.244,43.527,25.0,92.0
347288,0.688,0.247,0.693,-9.458,-33.878,13.099,0.0,92.0
347339,0.696,-0.066,0.690,-22.634,-13.710,-57.443,25.0,91.0
347398,0.533,0.391,0.712,46.885,-1.298,-31.313,0.0,90.0
347457,0.661,0.670,0.583,69.893,-9.321,0.939,0.0,101.0
347522,0.651,0.629,0.538,-22.305,-0.756,-6.962,0.0,0.0
347571,0.638,0.450,0.657,-63.137,13.740,1.053,23.0,89.0
347629,0.615,0.401,0.701,-30.168,19.649,15.725,0.0,89.0
347677,0.599,0.465,0.714,-28.008,21.756,19.397,28.0,90.0
347725,0.545,0.318,0.772,-62.466,19.695,15.954,25.0,91.0
347774,0.572,0.135,0.876,-43.626,16.580,8.771,23.0,91.0
347826,0.547,0.148,0.863,26.595,8.344,3.290,22.0,91.0
347917,0.528,0.492,0.744,-3.282,0.473,-5.573,23.0,91.0
347966,0.566,0.369,0.752,-21.183,4.366,-4.107,25.0,91.0
348014,0.575,0.307,0.764,-16.237,10.885,3.580,23.0,91.0
348063,0.572,0.338,0.764,-11.710,17.893,12.908,28.0,93.0
348112,0.550,0.365,0.776,-22.191,18.206,11.702,25.0,103.0
348162,0.592,0.264,0.793,-11.298,18.771,7.634,27.0,103.0
348217,0.636,0.254,0.787,11.672,27.489,12.221,28.0,0.0
348267,0.680,0.375,0.823,14.855,41.885,13.160,28.0,104.0
348324,0.576,0.396,0.873,-7.626,61.420,26.710,30.0,0.0
348380,0.465,0.319,0.907,-43.542,68.313,38.084,28.0,0.0
348435,0.333,0.214,0.938,-36.359,67.710,50.985,25.0,0.0
348483,0.313,0.210,0.943,-20.802,65.450,52.137,27.0,74.0
348529,0.247,0.168,0.943,-14.901,62.427,41.481,15.0,72.0
348576,0.108,0.278,0.945,-18.244,61.527,39.794,17.0,71.0
348623,0.047,0.229,0.932,-28.511,57.534,40.046,16.0,64.0
348670,0.048,0.123,0.960,-23.450,52.634,34.130,30.0,66.0
348718,-0.081,0.235,0.943,-23.382,44.023,37.290,17.0,66.0
348778,-0.065,0.110,0.934,-28.053,31.702,26.229,0.0,67.0
348824,-0.007,0.025,0.953,11.397,40.534,23.305,8.0,68.0
348872,-0.080,0.109,0.863,7.466,53.389,14.023,23.0,68.0
348918,-0.179,0.166,0.919,-12.496,65.221,5.534,10.0,68.0
348964,-0.427,0.134,0.949,-44.351,44.847,-2.107,11.0,68.0
349011,-0.376,0.023,1.083,-19.412,14.435,2.634,12.0,68.0
349059,-0.349,0.044,1.001,20.122,2.878,14.840,10.0,68.0
349105,-0.248,0.129,0.900,14.634,11.290,17.939,10.0,68.0
349152,-0.195,0.091,0.861,-11.351,31.641,8.458,11.0,69.0
349201,-0.541,-0.185,1.143,-5.664,48.740,-5.504,10.0,70.0
349248,-0.528,0.094,1.383,39.031,-8.962,3.405,11.0,69.0
349294,-0.521,0.078,1.172,-19.931,-46.817,-15.145,10.0,69.0
349341,-0.517,-0.144,1.217,-6.137,-73.427,-33.786,12.0,67.0
349388,-0.472,-0.018,1.083,11.214,-79.664,-40.214,12.0,67.0
349437,-0.343,0.044,1.018,-16.137,-74.931,-60.359,57.0,65.0
349485,-0.183,-0.019,1.039,-37.153,-57.137,-83.534,16.0,63.0
349532,-0.164,-0.010,0.970,-42.237,-38.061,-103.656,23.0,62.0
349582,-0.041,-0.036,0.986,-38.603,-17.267,-122.702,17.0,69.0
349631,-0.068,0.017,0.924,-32.084,-5.656,-134.061,17.0,103.0
349680,-0.071,-0.025,0.905,-13.298,-2.168,-146.122,17.0,99.0
349729,-0.038,0.076,0.852,-1.649,5.595,-140.916,21.0,96.0
349785,-0.041,0.026,0.932,-12.084,5.527,-143.298,25.0,0.0
349841,0.021,0.091,0.848,6.924,13.611,-138.122,41.0,0.0
349896,0.017,0.066,0.837,20.962,27.328,-133.534,38.0,0.0
349953,0.010,0.235,0.812,18.473,34.282,-117.305,41.0,0.0
350006,-0.041,0.169,0.953,4.168,25.160,-117.374,59.0,128.0
350069,-0.051,0.119,1.010,20.298,13.458,-100.534,0.0,120.0
350130,-0.119,0.235,0.975,54.878,12.290,-74.214,0.0,115.0
350190,-0.021,0.365,0.951,8.786,27.702,-49.679,0.0,112.0
350251,-0.069,0.244,0.966,-27.084,40.748,-37.466,0.0,109.0
350310,-0.087,0.096,1.042,-52.214,34.977,-42.214,0.0,106.0
350370,-0.089,-0.125,1.094,-2.977,26.588,-50.160,0.0,105.0
350428,-0.259,0.086,0.993,63.511,35.527,-36.160,0.0,50.0
350527,-0.327,0.090,0.994,43.985,11.718,-28.130,0.0,47.0
350587,-0.183,0.333,0.922,19.656,35.733,-19.160,0.0,45.0
350644,-0.210,0.411,0.991,-78.420,71.924,-37.740,0.0,48.0
350700,-0.834,0.026,1.546,-101.687,-26.603,-3.832,0.0,50.0
350757,-0.592,0.024,1.401,8.321,-100.282,104.336,0.0,50.0
350818,-0.272,0.345,1.111,52.328,-110.130,169.252,0.0,107.0
350878,-0.133,0.393,0.902,1.389,-91.618,197.672,0.0,116.0
350935,-0.090,0.265,0.802,-36.168,-81.962,209.092,43.0,0.0
350991,0.051,0.045,0.829,-16.191,-79.511,208.275,39.0,0.0
351047,0.125,0.061,0.742,59.328,-51.733,213.389,34.0,0.0
351100,0.167,0.188,0.683,78.542,-0.221,217.718,31.0,95.0
351150,0.119,0.248,0.700,55.771,36.321,204.221,28.0,88.0
351199,0.022,0.209,0.738,22.458,56.382,178.206,29.0,100.0
351249,-0.009,0.104,0.887,22.000,71.679,147.901,30.0,104.0
351296,-0.036,0.094,0.969,40.359,76.893,124.198,17.0,63.0
351343,-0.094,0.280,0.972,32.084,87.221,97.214,10.0,64.0
351390,-0.198,0.195,1.086,40.519,78.084,78.015,10.0,68.0
351438,-0.208,0.329,0.978,14.740,87.336,64.000,30.0,68.0
351484,-0.489,0.273,1.058,-29.901,67.534,31.641,9.0,68.0
351535,-0.482,0.185,1.038,-15.588,51.084,29.992,10.0,69.0
351582,-0.443,0.235,0.984,-18.458,42.794,15.893,10.0,69.0
351629,-0.422,0.323,0.953,-42.985,36.885,5.023,9.0,70.0
351676,-0.631,0.213,1.019,-86.435,21.061,-5.153,10.0,71.0
351723,-0.530,-0.044,1.124,-43.489,-8.962,1.298,9.0,72.0
351771,-0.383,0.041,0.883,-30.405,-5.641,-6.763,10.0,71.0
351818,-0.390,-0.121,0.935,-39.252,7.359,-24.763,11.0,71.0
351865,-0.489,-0.159,1.002,7.733,9.527,-36.244,12.0,70.0
351912,-0.460,0.001,0.947,16.122,3.260,-49.290,12.0,68.0
351972,-0.400,-0.080,0.899,-21.115,8.206,-78.046,15.0,65.0
352019,-0.393,-0.206,0.937,-14.573,20.275,-92.641,16.0,63.0
352066,-0.484,-0.188,0.911,23.061,23.328,-106.038,17.0,62.0
352114,-0.482,-0.121,0.851,27.382,26.046,-114.977,26.0,58.0
352161,-0.514,-0.072,0.896,37.389,26.405,-121.076,30.0,57.0
352218,-0.559,-0.161,0.916,14.252,32.031,-126.969,33.0,0.0
352269,-0.605,-0.131,0.853,35.115,33.008,-123.115,36.0,99.0
352319,-0.561,-0.104,0.811,20.252,37.031,-125.252,37.0,93.0
352372,-0.567,-0.209,0.811,21.779,39.885,-122.374,45.0,91.0
352430,-0.586,-0.125,0.758,15.496,43.573,-116.214,48.0,0.0
352495,-0.534,-0.337,0.815,51.977,38.695,-117.496,0.0,0.0
352552,-0.547,-0.155,0.807,40.603,38.305,-115.641,57.0,0.0
352611,-0.523,-0.249,0.832,60.092,38.221,-112.084,58.0,0.0
352672,-0.495,-0.229,0.865,67.321,35.710,-111.252,0.0,133.0
352734,-0.494,-0.131,0.833,72.748,30.344,-104.557,0.0,123.0
352795,-0.542,-0.204,0.876,75.832,27.282,-94.443,0.0,117.0
352859,-0.523,-0.121,0.832,60.008,21.611,-84.176,0.0,111.0
352919,-0.566,-0.063,0.813,46.344,15.137,-61.832,0.0,108.0
352977,-0.514,-0.047,0.882,15.305,12.672,-45.672,0.0,53.0
353037,-0.458,-0.069,0.881,-2.351,9.504,-34.527,0.0,102.0
353094,-0.490,-0.136,0.893,13.550,7.344,-25.954,0.0,51.0
353161,-0.445,-0.093,0.911,23.458,4.840,-18.733,0.0,0.0
353264,-0.436,-0.014,0.936,24.710,-2.267,-0.603,0.0,99.0
353320,-0.391,0.203,0.842,-1.107,-4.496,7.664,0.0,44.0
353378,-0.461,-0.283,0.950,-8.344,-5.786,1.840,0.0,44.0
353438,-0.434,-0.287,0.985,8.366,-5.542,0.237,0.0,46.0
353495,-0.437,-0.128,0.879,10.527,-1.015,3.641,0.0,44.0
353557,-0.435,-0.228,0.892,5.962,-2.763,5.153,0.0,44.0
353613,-0.422,-0.190,0.885,14.237,-1.924,3.527,0.0,43.0
353669,-0.432,-0.113,0.882,13.779,-2.069,5.847,0.0,43.0
353725,-0.439,-0.161,0.958,6.389,-1.740,6.947,0.0,42.0
353780,-0.406,-0.061,0.902,-2.969,-1.924,5.641,0.0,44.0
353837,-0.422,-0.097,0.933,-2.817,-3.382,6.725,0.0,44.0
353892,-0.416,-0.080,0.905,-0.191,-3.496,5.359,0.0,43.0
353951,-0.431,-0.097,0.892,-16.122,-1.725,3.870,0.0,43.0
354007,-0.431,-0.172,0.864,-1.824,-0.176,6.008,0.0,44.0
354063,-0.433,-0.161,0.880,3.580,-2.405,5.107,0.0,43.0
354118,-0.420,-0.135,0.913,3.176,-2.649,5.947,0.0,43.0
354174,-0.437,-0.083,0.897,4.588,-3.176,7.695,0.0,44.0
354231,-0.427,-0.040,0.930,-19.733,-0.206,3.405,0.0,44.0
354286,-0.420,-0.144,0.941,-16.519,-1.985,5.863,0.0,43.0
354335,-0.421,-0.127,0.889,-8.489,-2.466,3.840,84.0,46.0
354392,-0.424,-0.140,0.883,-4.702,-1.618,3.794,0.0,46.0
354451,-0.433,-0.192,0.884,-20.015,-1.420,4.695,0.0,45.0
354506,-0.426,-0.215,0.891,-4.832,-1.160,4.115,0.0,47.0
354563,-0.442,-0.169,0.870,-6.221,-0.305,5.992,0.0,47.0
354619,-0.402,-0.211,0.951,7.252,-2.076,4.305,0.0,45.0
354675,-0.439,-0.142,0.914,1.481,-0.191,3.489,0.0,46.0
354732,-0.429,-0.141,0.883,6.420,1.832,5.229,0.0,44.0
354787,-0.440,-0.114,0.870,-12.092,0.695,4.359,0.0,45.0
354843,-0.391,-0.197,0.881,-5.427,-1.840,4.740,0.0,44.0
354899,-0.427,-0.216,0.901,-3.527,-3.863,3.542,0.0,45.0
354958,-0.417,-0.107,0.910,12.183,1.015,3.137,0.0,44.0
355008,-0.445,-0.146,0.907,9.870,1.084,0.977,83.0,43.0
355063,-0.461,-0.079,0.866,-9.053,-0.511,3.458,0.0,43.0
355120,-0.433,-0.247,0.933,-2.351,1.687,3.000,0.0,43.0
355175,-0.439,-0.140,0.903,-3.198,-0.069,2.015,0.0,43.0
355231,-0.453,-0.159,0.855,0.389,-1.282,5.252,0.0,44.0
355288,-0.441,-0.134,0.878,-7.389,1.771,3.664,0.0,44.0
355344,-0.448,-0.195,0.903,6.504,-1.458,6.924,0.0,43.0
355399,-0.386,-0.120,0.886,-3.740,-4.504,6.427,0.0,43.0
355459,-0.450,-0.233,0.906,23.244,-5.382,10.153,0.0,44.0
355515,-0.458,-0.069,0.897,32.420,-1.198,9.206,0.0,44.0
355571,-0.446,0.034,0.845,12.160,0.863,12.420,0.0,43.0
355627,-0.451,-0.133,0.922,-31.885,-2.435,16.328,0.0,43.0
355683,-0.463,-0.126,0.912,4.489,0.321,22.443,0.0,42.0
355739,-0.413,-0.230,0.975,5.504,-3.779,15.519,0.0,42.0
355795,-0.449,0.039,0.838,10.756,-4.817,13.466,0.0,42.0
355851,-0.461,-0.060,0.873,0.412,-4.756,15.076,0.0,42.0
355907,-0.436,-0.005,0.883,6.519,-3.847,13.931,0.0,40.0
355966,-0.447,-0.046,0.938,12.756,-4.382,12.511,0.0,41.0
356023,-0.399,0.062,0.895,5.183,-2.458,11.702,0.0,41.0
356122,-0.426,-0.016,0.927,-4.557,-2.885,12.450,0.0,39.0
356177,-0.439,-0.044,0.897,-12.366,-2.046,11.435,0.0,39.0
356234,-0.428,-0.018,0.899,0.145,-2.275,10.969,0.0,39.0
356289,-0.429,-0.006,0.924,-4.786,-2.084,9.626,0.0,38.0
356345,-0.421,0.002,0.904,-2.305,-3.145,10.550,0.0,40.0
356402,-0.429,-0.018,0.910,-5.695,-3.672,9.939,0.0,39.0
356457,-0.431,-0.028,0.910,16.275,-4.046,11.458,0.0,39.0
356516,-0.435,0.016,0.938,4.176,-3.420,10.107,0.0,39.0
356573,-0.428,0.032,0.898,0.427,-3.198,10.115,0.0,38.0
356628,-0.431,0.023,0.906,4.206,-3.290,10.878,0.0,38.0
356684,-0.421,0.028,0.912,3.641,-2.893,9.405,0.0,39.0
356741,-0.420,0.068,0.921,6.908,-3.115,10.168,0.0,38.0
356796,-0.426,0.058,0.927,0.221,-1.420,6.763,0.0,37.0
356852,-0.414,0.096,0.913,-2.863,-2.313,7.458,0.0,37.0
356908,-0.414,0.063,0.938,-9.573,-1.275,4.565,0.0,37.0
356964,-0.419,0.070,0.863,-6.679,-2.733,7.466,0.0,37.0
357023,-0.423,0.017,0.938,-2.679,-2.374,5.153,0.0,38.0
357079,-0.421,0.058,0.921,-8.046,-0.397,4.168,0.0,38.0
357135,-0.415,0.026,0.957,-3.481,-1.076,4.656,0.0,37.0
357191,-0.380,0.104,1.032,-18.786,-0.229,5.885,0.0,37.0
357246,-0.596,0.175,1.080,-43.061,-2.809,17.924,0.0,39.0
357303,-0.617,-0.188,0.975,27.397,-43.618,48.855,0.0,44.0
357359,-0.498,0.241,0.946,82.427,-86.366,122.008,0.0,40.0
357416,-0.348,0.303,0.908,55.664,-86.794,150.183,0.0,45.0
357473,-0.200,0.376,0.730,99.183,-71.191,176.931,0.0,50.0
357535,-0.082,0.389,0.719,58.000,-37.687,186.458,0.0,96.0
357596,0.072,0.444,0.691,39.618,-16.282,178.466,0.0,100.0
357647,0.205,0.500,0.737,32.672,20.618,163.840,51.0,106.0
357703,0.224,0.442,0.819,0.122,41.534,142.733,45.0,0.0
357760,0.131,0.319,0.762,-59.802,58.786,110.519,42.0,0.0
357816,0.196,0.223,0.953,-34.191,80.198,92.947,39.0,0.0
357872,0.035,0.139,1.012,-19.206,84.702,69.687,39.0,0.0
357928,-0.043,0.190,1.103,-41.718,52.656,38.092,47.0,0.0
357979,-0.094,0.078,1.165,-43.794,34.565,17.176,39.0,89.0
358038,-0.063,0.090,1.167,5.145,18.840,7.435,46.0,0.0
358094,-0.068,0.164,1.058,44.366,2.214,-2.649,37.0,0.0
358151,-0.043,0.292,0.954,44.702,1.985,-3.710,41.0,0.0
358207,-0.031,0.415,0.972,21.511,-2.427,-8.557,38.0,0.0
358263,-0.057,0.394,1.025,19.641,-6.046,2.336,51.0,0.0
358320,0.009,0.466,1.019,-0.206,-4.985,1.420,41.0,0.0
358377,-0.019,0.346,0.969,-38.214,-0.641,1.198,50.0,0.0
358433,-0.034,0.240,0.967,-0.260,-8.634,-8.053,39.0,0.0
358490,-0.006,0.363,0.927,9.084,-3.466,-3.611,38.0,0.0
358549,-0.027,0.393,0.951,5.023,-2.359,-4.145,39.0,0.0
358605,-0.010,0.410,0.941,1.015,-1.519,0.756,50.0,0.0
358662,-0.029,0.438,0.946,-5.122,-0.802,4.954,39.0,0.0
358719,-0.018,0.342,0.955,-17.527,-2.305,3.153,49.0,0.0
358775,-0.033,0.310,0.969,-5.527,-0.588,4.198,38.0,0.0
358831,-0.040,0.350,0.945,5.679,-0.939,6.069,37.0,0.0
358888,-0.029,0.389,0.942,-4.298,1.244,4.695,47.0,0.0
358987,-0.013,0.350,0.960,2.053,-1.092,5.046,37.0,0.0
359044,-0.043,0.335,0.966,-1.099,-1.534,3.412,36.0,0.0
359103,-0.031,0.397,0.939,0.397,-0.802,5.786,46.0,0.0
359159,-0.035,0.358,0.954,-3.954,-0.359,4.763,39.0,0.0
359216,-0.035,0.368,0.948,-2.351,0.053,5.718,37.0,0.0
359273,-0.037,0.344,0.950,-4.588,1.046,5.061,56.0,0.0
359329,-0.046,0.367,0.953,-5.107,1.733,6.290,43.0,0.0
359387,-0.036,0.348,0.930,-4.855,3.107,5.771,47.0,0.0
359443,-0.051,0.364,0.953,-6.908,4.076,3.832,47.0,0.0
359500,-0.062,0.350,0.964,-11.802,3.656,4.794,43.0,0.0
359557,-0.061,0.322,0.976,-14.435,3.145,4.176,44.0,0.0
359613,-0.085,0.312,0.971,-1.107,-0.748,4.008,37.0,0.0
359672,-0.062,0.335,0.946,0.985,-0.672,4.542,42.0,0.0
359729,-0.072,0.347,0.958,-1.664,-1.214,5.115,38.0,0.0
359794,-0.064,0.325,0.958,1.321,0.527,5.053,0.0,0.0
359851,-0.083,0.365,0.953,6.977,-0.046,4.679,38.0,0.0
359907,-0.077,0.337,0.959,-1.534,-0.496,5.176,38.0,0.0
359963,-0.067,0.340,0.953,2.527,1.008,6.710,36.0,0.0
360019,-0.085,0.374,0.955,5.183,-0.298,5.565,36.0,0.0
360076,-0.070,0.389,0.936,-0.840,-1.679,4.969,39.0,0.0
360132,-0.083,0.358,0.948,-5.595,-1.450,5.191,37.0,0.0
360193,-0.068,0.369,0.952,-2.634,-1.450,5.275,37.0,0.0
360249,-0.081,0.384,0.945,-3.557,-1.725,3.626,37.0,0.0
360305,-0.085,0.364,0.952,-5.038,-1.718,4.466,35.0,0.0
360361,-0.063,0.354,0.943,-5.733,-0.992,4.908,34.0,0.0
360418,-0.091,0.372,0.951,-1.908,-1.901,6.809,36.0,0.0
360483,-0.068,0.413,1.004,-19.061,-7.718,5.595,0.0,0.0
360540,0.102,0.449,1.072,-65.214,-11.527,18.336,38.0,0.0
360605,0.106,0.282,1.048,-69.847,-25.664,21.321,0.0,0.0
360662,0.132,0.159,1.000,-27.756,-37.878,28.221,36.0,0.0
360715,0.061,0.152,0.811,2.947,-29.748,23.962,33.0,88.0
360765,-0.004,0.282,0.809,-21.855,-12.962,15.282,34.0,85.0
360829,-0.023,0.147,0.890,-48.908,5.435,11.466,0.0,85.0
360888,0.002,0.059,1.017,-43.534,18.466,23.115,0.0,85.0
360937,-0.070,0.044,1.023,-49.969,25.695,23.214,50.0,85.0
360986,-0.130,-0.027,1.042,-49.069,17.939,17.832,42.0,86.0
361041,-0.109,-0.102,1.031,-32.687,11.794,10.534,40.0,0.0
361098,-0.125,-0.086,1.021,-9.534,3.779,-0.076,47.0,0.0
361153,-0.093,-0.081,0.999,11.672,-0.397,-12.550,34.0,0.0
361212,-0.081,0.045,1.005,-12.924,9.573,-18.336,51.0,0.0
361268,-0.043,-0.084,1.104,-4.244,2.649,-14.137,37.0,0.0
361323,-0.021,0.069,1.002,-17.168,-5.489,-10.008,37.0,0.0
361379,-0.024,-0.063,1.012,-13.931,-5.809,-12.389,35.0,0.0
361435,-0.014,-0.064,1.015,-16.305,-0.985,-8.908,34.0,0.0
361490,-0.074,-0.049,1.026,-13.107,-1.832,-1.336,35.0,0.0
361545,-0.076,-0.032,1.012,-32.489,-9.847,2.771,34.0,0.0
361601,0.000,-0.140,1.039,-33.145,-8.313,5.137,33.0,0.0
361656,-0.017,-0.187,0.990,-3.145,-4.557,14.328,33.0,0.0
361714,-0.020,-0.180,1.052,-11.160,-1.756,9.176,34.0,0.0
361769,-0.013,-0.098,0.989,-4.519,-5.542,5.595,33.0,0.0
361869,-0.006,-0.107,1.009,-8.664,-6.313,7.443,33.0,0.0
361924,-0.006,-0.116,1.012,-7.580,-6.634,8.740,33.0,0.0
361979,0.008,-0.231,0.994,-8.328,-5.962,2.573,33.0,0.0
362035,-0.019,-0.171,0.984,-0.450,-1.328,4.023,33.0,0.0
362090,0.020,-0.164,1.016,-2.229,0.290,4.496,33.0,0.0
362145,-0.012,-0.134,1.000,1.031,0.229,4.137,33.0,0.0
362201,-0.002,-0.185,1.042,-2.618,-2.985,1.511,33.0,0.0
362259,-0.005,-0.110,0.975,-0.885,-1.328,7.221,33.0,0.0
362314,-0.013,-0.156,1.020,-5.672,-1.076,7.038,33.0,0.0
362370,0.000,-0.167,1.008,1.794,-1.748,6.122,33.0,0.0
362425,0.016,-0.215,1.016,5.802,-1.397,5.733,33.0,0.0
362480,0.006,-0.328,1.093,63.275,6.382,0.122,33.0,0.0
362535,-0.118,-0.090,1.128,112.947,-1.809,1.855,36.0,0.0
362585,-0.144,0.070,1.197,107.863,-38.550,-1.389,37.0,84.0
362635,-0.100,0.166,1.093,124.137,-69.160,29.229,50.0,83.0
362684,0.067,0.364,0.976,109.122,-95.122,42.511,40.0,83.0
362735,0.123,0.414,0.848,95.389,-98.252,56.176,22.0,82.0
362783,0.300,0.445,0.742,74.847,-87.344,65.260,27.0,82.0
362831,0.391,0.328,0.748,106.244,-66.176,74.908,25.0,83.0
362880,0.528,0.536,0.575,112.763,-43.305,83.786,28.0,83.0
362938,0.579,0.672,0.576,50.740,-24.771,70.618,0.0,84.0
362987,0.532,0.604,0.580,-18.718,-4.977,60.450,23.0,85.0
363035,0.582,0.417,0.679,-11.260,3.779,55.779,29.0,86.0
363094,0.553,0.433,0.699,0.229,8.878,45.115,0.0,87.0
363146,0.699,0.050,0.663,-48.260,6.664,-20.496,31.0,87.0
363204,0.557,-0.151,0.984,59.832,-9.252,-80.458,0.0,86.0
363252,0.269,1.920,0.197,106.206,2.153,48.252,26.0,86.0
363301,0.625,0.628,0.562,-140.740,6.504,45.221,30.0,87.0
363351,0.763,-0.579,1.013,-44.504,1.519,-34.679,25.0,87.0
363399,0.253,1.043,0.624,119.939,2.107,-9.244,30.0,86.0
363457,0.586,1.023,0.407,-100.611,5.924,34.221,0.0,87.0
363516,0.647,-0.360,0.987,13.061,3.802,-23.374,0.0,87.0
363565,0.318,1.328,0.435,16.992,-3.664,13.351,26.0,87.0
363617,0.567,0.150,0.841,-45.947,-6.084,7.656,24.0,88.0
363665,0.605,0.458,0.619,15.588,-6.794,15.687,26.0,89.0
363714,0.555,0.395,0.753,-9.092,0.069,-18.031,26.0,89.0
363762,0.415,0.859,0.555,-9.588,6.954,17.656,25.0,89.0
363811,0.578,0.273,0.705,-50.473,7.969,9.115,25.0,90.0
363860,0.580,0.175,0.709,21.710,15.183,-6.534,29.0,90.0
363909,0.591,0.425,0.506,60.840,45.275,-18.595,27.0,89.0
363958,0.562,0.518,0.510,-12.084,97.886,-54.931,26.0,89.0
364007,0.311,0.317,0.646,-49.672,125.481,-104.145,30.0,89.0
364059,-0.092,0.570,0.803,-76.748,124.473,-83.840,30.0,89.0
364108,-0.151,0.609,1.044,-132.427,81.527,-67.824,33.0,89.0
364158,-0.058,0.271,1.170,-125.771,35.641,-58.145,37.0,88.0
364217,-0.121,0.015,1.243,-21.137,4.756,-55.427,0.0,88.0
364282,-0.142,0.377,0.991,75.672,-11.031,-27.649,0.0,0.0
364339,-0.133,0.574,0.866,10.832,-17.092,-13.450,39.0,0.0
364396,-0.030,0.362,0.961,5.473,-9.718,-7.992,64.0,0.0
364452,-0.081,0.420,0.963,21.618,17.061,9.702,40.0,0.0
