Timestamp(ms),AccelX(g),AccelY(g),AccelZ(g),GyroX(deg/s),GyroY(deg/s),GyroZ(deg/s),DistanceLeft(cm),DistanceRight(cm)
314848,-1.893,0.192,-0.136,17.832,-3.954,8.420,152.0,0.0
314938,-1.161,0.199,0.120,0.802,-27.901,-11.954,146.0,0.0
315028,-0.270,0.084,-0.037,-114.374,-13.519,-18.168,139.0,0.0
315115,-0.533,-0.065,0.065,159.763,-81.366,31.489,135.0,155.0
315201,-1.787,0.230,-0.028,69.053,-63.481,0.802,133.0,136.0
315287,-1.340,0.208,-0.406,242.702,-99.855,16.840,136.0,138.0
315377,-0.121,0.772,-0.609,54.519,-16.595,-24.595,140.0,0.0
315470,-0.003,0.247,0.146,81.076,-8.473,34.198,0.0,146.0
315565,-1.127,1.791,-0.573,-13.947,11.275,-10.260,0.0,0.0
315654,-2.000,-0.083,-0.007,55.260,-15.779,27.588,128.0,0.0
315746,-0.815,1.037,-0.410,-133.229,10.504,-57.527,0.0,184.0
315835,0.055,-0.409,-0.012,232.893,-62.840,22.046,126.0,188.0
315929,-0.846,-0.308,-0.142,-78.290,-5.443,-16.824,0.0,0.0
316022,-1.794,1.150,-0.679,225.305,-48.305,19.878,0.0,0.0
316116,-1.490,0.214,-0.282,157.328,-56.687,-50.290,0.0,0.0
316214,0.238,0.752,-0.271,125.939,-33.565,31.374,0.0,0.0
316307,-0.072,0.318,-0.090,53.000,-25.450,34.023,0.0,0.0
316401,-1.584,0.994,-0.312,-193.504,50.534,-37.542,0.0,0.0
316494,-2.000,-0.765,0.108,-14.954,-5.573,16.412,0.0,0.0
316589,-0.257,0.437,-0.157,141.420,-52.107,38.443,0.0,0.0
316681,-0.202,-0.579,0.130,32.779,-27.763,-3.260,178.0,0.0
316775,-1.646,0.011,-0.099,207.237,-16.954,44.771,0.0,0.0
316869,-1.662,-0.637,0.441,106.893,-6.511,6.458,0.0,0.0
316962,-0.180,1.162,-0.343,24.473,17.130,6.687,0.0,0.0
317060,0.072,0.140,0.038,127.344,-4.229,57.565,0.0,0.0
317154,-1.692,-0.094,-0.105,-122.191,47.031,-1.244,0.0,0.0
317246,-2.000,0.754,-0.332,205.000,-35.618,87.893,0.0,167.0
317339,-1.147,-0.164,0.130,-69.962,-15.840,-26.740,0.0,0.0
317432,0.019,0.056,-0.095,28.435,-30.588,26.916,0.0,180.0
317526,-0.692,-0.724,-0.017,156.397,-46.809,47.290,0.0,184.0
317619,-1.796,0.477,-0.130,78.756,-31.885,-33.435,0.0,183.0
317712,-1.301,0.388,-0.164,196.954,-62.084,3.489,0.0,182.0
317805,-0.096,0.442,-0.304,231.198,-59.634,71.832,0.0,188.0
317902,-0.010,0.491,-0.150,21.580,-13.382,4.992,0.0,0.0
317993,-1.777,0.617,-0.269,-12.198,-24.336,-6.718,0.0,161.0
318087,-2.000,0.700,-0.123,51.015,-13.031,5.840,0.0,167.0
318179,-1.141,-0.532,0.168,-250.137,43.511,-101.939,0.0,178.0
318270,0.459,2.000,-1.249,93.886,-57.191,-14.321,0.0,148.0
318363,-1.193,-0.393,-0.178,220.328,-10.420,103.214,0.0,185.0
318455,-1.824,0.369,0.294,144.244,-42.008,23.458,0.0,159.0
318548,-0.780,0.671,-0.330,92.802,6.893,7.916,0.0,183.0
318654,0.088,0.512,-0.156,27.351,1.992,5.084,0.0,0.0
318747,-0.271,0.539,-0.172,3.282,25.931,50.634,0.0,0.0
318840,-1.991,0.610,-0.276,-120.382,36.023,33.939,0.0,0.0
318934,-1.857,0.340,-0.279,-66.282,10.748,59.107,0.0,0.0
319027,-0.703,0.363,-0.106,-142.748,15.794,55.351,0.0,0.0
319120,-0.142,0.041,0.241,-145.145,-42.977,103.634,0.0,0.0
319214,-1.116,1.067,0.291,-174.313,-108.198,57.656,0.0,0.0
319307,-0.876,0.899,0.704,-149.534,-82.252,36.542,0.0,0.0
319400,-0.499,0.552,0.650,-121.779,-42.031,58.031,0.0,0.0
319488,0.035,-0.205,0.467,-132.489,-76.824,71.786,42.0,0.0
319570,0.016,0.086,0.580,-55.534,-81.527,4.557,11.0,0.0
319654,-0.223,0.337,1.016,-16.672,-56.031,-0.489,39.0,0.0
319738,-0.212,0.343,1.248,-11.206,-4.115,-9.107,38.0,0.0
319832,-0.245,0.329,1.019,20.489,4.473,-12.427,0.0,0.0
319916,-0.077,0.183,0.787,-12.244,8.176,-0.931,35.0,0.0
319998,-0.245,0.093,0.734,-17.885,-17.908,-33.832,33.0,198.0
320092,-0.213,0.195,1.020,-101.641,-28.626,-128.221,0.0,190.0
320175,-0.296,0.048,1.243,-38.725,1.313,-144.702,37.0,183.0
320270,-0.184,0.034,1.023,4.878,-4.031,-65.176,0.0,176.0
320362,-0.002,-0.046,0.785,-1.916,-7.565,-41.527,0.0,168.0
320453,0.055,-0.010,0.868,-11.244,-20.321,-25.092,0.0,161.0
320543,-0.189,0.137,1.194,9.458,-21.115,-25.115,0.0,153.0
320634,-0.038,0.065,1.120,-18.382,-27.809,-10.985,0.0,146.0
320723,-0.176,0.061,1.055,-1.328,-0.038,-42.985,0.0,139.0
320812,0.044,-0.048,0.873,-23.145,-1.832,-39.588,158.0,133.0
320902,-0.023,-0.071,0.889,-18.977,5.641,-62.832,153.0,0.0
320996,-0.186,-0.065,0.924,-18.084,13.740,-97.214,152.0,0.0
321087,-0.398,-0.096,0.997,35.740,45.031,-110.618,152.0,0.0
321177,-0.583,-0.007,0.976,44.542,62.542,-102.313,156.0,0.0
321269,-0.368,0.066,1.063,95.282,50.534,-103.992,162.0,0.0
321360,-0.198,0.145,0.871,52.267,12.802,-79.511,167.0,0.0
321453,-0.272,0.290,0.858,92.344,20.855,-53.504,173.0,0.0
321546,-0.446,0.400,0.819,70.893,20.817,-34.893,197.0,0.0
321636,-0.418,0.264,0.755,59.679,36.985,-26.870,139.0,0.0
321726,-0.589,0.482,0.710,101.466,62.481,-47.321,140.0,0.0
321822,-0.921,0.340,0.359,185.206,24.466,-75.168,0.0,0.0
321909,-1.139,0.370,-0.268,250.130,7.695,-54.183,88.0,0.0
321997,-0.953,0.727,-0.481,222.099,-67.145,16.351,90.0,0.0
322091,-0.894,0.713,-0.084,60.344,-125.969,27.840,0.0,0.0
322184,-0.971,1.217,-0.067,134.656,-77.855,56.565,197.0,0.0
322271,-0.417,0.942,-0.060,27.962,-18.840,81.840,180.0,98.0
322356,0.257,0.506,0.132,-14.954,33.527,104.214,146.0,100.0
322435,0.096,0.249,0.213,-25.137,94.221,97.817,47.0,98.0
322522,-0.366,2.000,-0.919,37.412,158.504,127.603,142.0,95.0
322605,-0.381,1.907,-0.652,-137.053,204.786,250.130,131.0,84.0
322690,-0.763,-0.080,-0.187,-103.588,97.519,173.832,118.0,126.0
322775,0.165,0.509,-0.198,19.756,20.305,30.382,115.0,126.0
322860,0.149,1.001,0.694,-123.534,-35.252,-38.321,129.0,127.0
322946,0.782,1.579,0.267,-77.519,-58.412,12.687,132.0,130.0
323031,0.306,-0.215,0.335,-75.443,-0.160,-53.206,109.0,136.0
323116,0.293,0.132,-0.025,-32.687,-13.412,25.702,121.0,135.0
323203,0.527,0.326,0.047,99.252,-35.779,21.893,125.0,145.0
323291,1.265,2.000,0.274,38.214,37.450,-5.145,118.0,126.0
323376,0.252,1.108,0.438,-57.298,-14.565,-2.771,116.0,134.0
323460,0.012,0.487,-0.353,-83.382,-74.435,-38.924,110.0,132.0
323545,-0.075,0.464,-0.275,-74.015,-137.756,-50.206,112.0,128.0
323630,0.863,1.507,0.025,12.649,-160.786,-18.786,117.0,123.0
323715,0.704,1.490,0.314,-60.863,-68.366,-8.496,118.0,125.0
323803,0.429,0.859,0.063,-86.901,-85.519,26.122,115.0,194.0
323890,0.403,0.201,0.038,-69.092,-61.649,-10.252,112.0,163.0
323980,0.611,0.232,0.296,-5.855,2.702,37.099,115.0,169.0
324066,0.794,1.391,-0.148,65.008,8.641,37.702,120.0,131.0
324152,0.774,1.433,0.104,21.153,-2.237,7.794,122.0,143.0
324238,0.392,1.081,0.155,-66.695,-27.260,-12.885,117.0,143.0
324324,0.083,0.208,-0.118,-90.084,-74.573,-32.122,114.0,144.0
324410,0.338,0.901,-0.173,-95.252,-104.595,3.099,116.0,130.0
324496,0.805,1.430,-0.017,-30.061,-86.221,-26.443,119.0,146.0
324583,0.581,1.502,0.107,-33.053,-17.298,-25.992,117.0,160.0
324674,0.189,0.459,0.157,-43.969,-44.092,17.153,114.0,163.0
324761,0.273,0.327,0.121,-22.046,-5.092,16.092,115.0,165.0
324850,0.635,1.174,0.049,-36.496,-25.733,35.832,120.0,0.0
324940,0.912,1.419,0.131,-39.511,4.603,22.679,122.0,0.0
325029,0.293,0.991,0.143,-18.672,-24.252,-11.992,118.0,0.0
325112,0.057,0.590,-0.199,-59.443,-63.145,-12.031,115.0,99.0
325196,0.210,0.442,-0.144,-69.321,-125.389,-12.985,117.0,92.0
325279,0.868,1.729,-0.001,-27.779,-126.053,-13.588,121.0,90.0
325369,0.757,1.449,0.123,-90.275,-45.397,-23.198,119.0,0.0
325456,0.191,0.303,0.159,-62.145,-39.198,-27.412,114.0,103.0
325540,0.298,0.278,-0.140,-69.939,14.366,13.069,113.0,103.0
325623,0.524,0.676,0.112,3.198,-41.137,28.710,117.0,99.0
325707,1.016,1.720,0.033,4.534,-9.641,13.878,120.0,99.0
325791,0.408,1.369,0.232,43.015,20.038,11.298,119.0,94.0
325874,-0.161,0.443,-0.015,-50.641,-50.237,-47.718,115.0,99.0
325964,0.203,0.775,-0.209,-52.183,-122.443,-32.260,115.0,0.0
326049,0.414,1.316,-0.040,-79.947,-134.145,-2.237,116.0,123.0
326137,0.777,1.247,0.125,-91.145,-82.595,-13.924,115.0,131.0
326224,0.386,0.479,0.277,-48.336,-39.023,16.618,111.0,151.0
326310,0.169,0.261,0.161,-75.863,-9.763,49.290,110.0,147.0
326396,0.663,0.670,0.178,-33.389,-21.733,14.374,114.0,139.0
326479,0.807,1.296,-0.085,118.275,-45.382,13.046,118.0,94.0
326563,0.057,1.238,0.136,62.969,-34.260,-99.580,117.0,88.0
326652,-0.674,-0.221,-0.112,-3.901,-189.695,-250.137,120.0,0.0
326744,-1.079,0.574,0.727,205.176,-250.137,-250.137,137.0,0.0
326838,-1.815,2.000,-1.023,-147.305,-185.313,-230.916,0.0,0.0
326935,-0.625,0.257,-0.326,97.290,-93.145,18.496,187.0,0.0
327028,-0.458,0.513,-0.235,74.969,-49.229,-39.137,184.0,0.0
327121,-0.391,0.505,0.048,-29.061,6.969,-50.038,181.0,0.0
327215,-1.407,0.851,0.140,-27.466,24.534,-7.412,177.0,0.0
327308,-1.227,0.469,0.500,-68.832,-15.992,37.267,174.0,0.0
327400,-0.990,0.334,-0.195,25.611,-58.244,52.534,170.0,0.0
327492,-0.835,0.105,-0.299,24.435,12.901,35.985,167.0,0.0
327584,-0.900,0.009,0.461,-51.290,1.198,-30.985,169.0,0.0
327683,-0.820,1.083,-0.215,74.916,-24.542,-0.229,0.0,0.0
327777,-0.955,0.409,0.290,-1.634,-23.496,-34.863,0.0,0.0
327871,-0.665,0.420,0.114,7.168,-37.328,-24.305,0.0,0.0
327965,-0.605,0.552,0.087,22.824,-9.519,-6.000,0.0,0.0
328059,-0.837,0.688,0.161,56.382,-22.305,-51.252,0.0,0.0
328154,-0.969,0.641,0.151,51.649,-27.328,-42.954,0.0,0.0
328247,-1.002,0.403,0.369,-3.275,-28.527,-36.160,176.0,0.0
328340,-0.767,0.342,-0.061,46.710,-32.702,-13.481,173.0,0.0
328433,-0.983,0.364,-0.127,56.290,19.183,-29.504,172.0,0.0
328529,-1.018,0.650,0.336,-78.786,52.443,-65.267,171.0,0.0
328622,-0.615,-0.063,0.634,76.046,-26.809,-10.511,168.0,0.0
328712,-0.391,0.258,-0.459,64.595,0.557,25.947,124.0,0.0
328802,-1.593,-0.282,-0.523,42.634,40.611,-35.893,119.0,0.0
328892,-1.678,0.070,-0.087,33.809,45.260,-41.084,118.0,0.0
328981,-1.103,0.007,0.174,66.427,-21.122,-5.992,118.0,0.0
329071,-0.636,0.013,-0.181,114.748,-55.504,27.275,117.0,0.0
329161,-0.796,-0.326,-0.257,119.191,-54.046,41.763,117.0,0.0
329251,-1.132,0.118,-0.261,149.313,-28.130,37.267,121.0,152.0
329342,-1.016,0.416,-0.087,95.092,-25.947,-31.374,124.0,0.0
329433,-0.926,0.412,0.006,41.252,-3.473,-32.130,127.0,0.0
329523,-0.836,0.316,0.052,7.733,3.656,4.076,128.0,194.0
329616,-0.892,0.266,0.055,1.626,2.321,39.885,0.0,188.0
329711,-0.819,0.427,0.046,55.763,-2.985,43.641,0.0,0.0
329805,-0.604,0.494,0.077,4.634,16.206,12.366,0.0,195.0
329900,-0.815,0.529,0.152,-15.328,17.305,9.137,0.0,199.0
330000,-0.558,0.632,0.196,50.779,3.672,71.107,0.0,0.0
330096,-1.382,1.096,-0.203,24.382,39.305,79.550,0.0,0.0
330189,-1.471,0.931,-0.478,-37.183,90.000,170.992,200.0,0.0
330268,-0.622,0.019,-0.267,-114.969,27.832,101.656,55.0,95.0
330347,-0.417,-0.689,-0.043,-94.672,-38.443,6.183,44.0,96.0
330426,-1.651,1.549,-0.196,107.038,-130.519,-9.840,46.0,94.0
330506,-0.673,1.231,-0.138,67.992,-89.298,20.840,56.0,97.0
330585,-0.003,0.669,-0.068,29.366,-87.244,-31.496,47.0,102.0
330671,0.337,0.185,0.095,69.069,-50.321,-20.695,164.0,104.0
330758,0.295,0.499,0.154,2.076,-8.412,42.634,0.0,97.0
330846,-1.220,2.000,-0.436,25.748,18.740,115.702,164.0,88.0
330925,-1.293,1.601,-0.352,-104.237,50.511,132.718,51.0,93.0
331004,-0.532,0.190,-0.229,-52.420,12.053,43.458,46.0,101.0
331083,-0.368,-0.275,-0.202,17.450,-69.313,-70.985,37.0,103.0
331161,-0.591,-0.164,-0.043,31.954,-115.519,-67.870,40.0,97.0
331240,-1.935,2.000,-0.610,179.160,-208.130,-53.840,50.0,91.0
331320,-0.427,1.607,-0.457,24.763,-118.191,25.176,58.0,96.0
331405,0.301,0.506,-0.015,-19.084,-128.710,-32.153,135.0,105.0
331496,0.719,-0.116,0.218,81.290,-64.504,7.786,155.0,159.0
331583,0.459,0.254,0.166,35.275,20.473,45.206,163.0,115.0
331674,-1.726,2.000,-1.121,55.015,64.321,133.672,149.0,0.0
331759,-0.808,0.964,-0.250,-46.015,20.504,78.840,50.0,0.0
331848,-0.342,0.092,-0.118,-71.389,-70.053,-58.282,133.0,0.0
331938,-0.460,-0.410,-0.187,-38.855,-134.489,-63.489,133.0,0.0
332028,-1.674,1.727,-0.727,207.046,-250.137,-96.840,143.0,194.0
332121,-0.470,1.662,-0.457,54.038,-133.939,15.534,161.0,195.0
332210,0.197,0.510,-0.042,101.351,-110.466,-21.489,137.0,139.0
332300,0.429,0.372,0.102,62.916,-37.969,-10.626,182.0,139.0
332391,0.204,0.388,0.115,-98.954,15.519,47.382,164.0,0.0
332478,-1.831,2.000,-0.552,62.374,16.237,150.191,152.0,129.0
332565,-0.927,1.237,-0.054,11.282,15.427,94.046,147.0,141.0
332656,-0.361,0.280,0.078,-65.458,9.450,-56.336,140.0,0.0
332738,-0.452,-0.293,-0.016,-34.244,-49.794,-94.504,44.0,156.0
332821,-2.000,1.218,-0.728,93.344,-231.336,-70.412,48.0,154.0
332912,-0.894,1.961,-0.236,170.290,-166.947,-7.611,0.0,155.0
333004,0.192,0.765,-0.088,-2.069,-99.740,0.649,164.0,163.0
333088,0.448,0.039,0.099,33.046,-53.840,20.321,50.0,171.0
333179,0.421,0.172,0.233,22.786,11.641,48.099,181.0,177.0
333270,-0.986,2.000,-0.783,24.847,78.435,37.160,149.0,186.0
333356,-1.302,1.327,-0.256,-106.496,64.389,41.954,50.0,0.0
333441,-0.609,-0.108,0.088,5.954,-9.740,-50.733,51.0,0.0
333533,-0.579,-0.236,0.020,48.878,-65.206,-74.435,164.0,0.0
333626,-1.521,0.348,-0.178,94.351,-154.649,-166.641,0.0,0.0
333723,-1.861,1.593,-0.888,250.130,-181.145,-34.656,0.0,0.0
333817,-0.137,1.109,-0.562,88.634,-76.893,22.710,0.0,0.0
333911,0.460,0.379,0.060,-73.977,36.023,32.893,0.0,0.0
334005,-0.093,0.343,0.193,-58.389,73.580,56.840,0.0,0.0
334098,-2.000,2.000,-0.524,-110.779,50.443,71.252,0.0,0.0
334190,-1.080,0.689,0.016,-11.252,23.290,76.023,165.0,0.0
334283,-0.281,-0.030,-0.016,6.145,-0.359,-6.221,176.0,0.0
334374,-0.451,-0.231,-0.011,-27.931,-63.542,14.863,153.0,0.0
334468,-1.878,1.307,-0.131,137.305,-141.282,-76.924,185.0,0.0
334563,-0.732,1.254,-0.190,128.977,-67.427,18.565,185.0,0.0
334654,-0.163,0.711,-0.049,26.122,-78.115,-30.947,0.0,137.0
334745,0.328,0.125,0.197,31.634,-36.023,-0.740,0.0,143.0
334837,0.434,0.250,0.171,20.534,8.397,-0.473,178.0,0.0
334923,-2.000,2.000,-0.641,8.588,-7.313,154.221,177.0,87.0
335008,-0.730,0.958,-0.027,54.122,59.595,131.443,147.0,93.0
335088,-0.504,0.121,-0.033,-135.618,45.496,-18.931,58.0,98.0
335168,-0.382,-0.438,0.016,-101.092,-46.763,-49.481,54.0,99.0
335251,-1.168,0.377,0.095,130.870,-176.924,-54.298,51.0,92.0
335336,-1.204,2.000,-0.169,230.160,-219.588,23.336,150.0,90.0
335421,-0.213,1.287,-0.240,13.160,-93.618,15.580,144.0,96.0
335506,0.102,0.285,0.039,-28.313,-72.893,-33.122,138.0,102.0
335592,0.281,0.040,0.126,25.718,-34.412,-0.573,162.0,102.0
335677,0.145,0.747,0.168,8.542,-3.534,30.084,146.0,93.0
335762,-1.320,2.000,-0.306,0.939,1.962,118.565,149.0,89.0
335841,-0.632,1.026,0.135,-30.908,-4.924,48.885,46.0,94.0
335921,-0.188,0.133,0.186,-4.206,17.130,-29.779,44.0,99.0
336004,-0.324,-0.235,0.046,11.504,-4.962,-50.359,46.0,99.0
336082,-1.218,1.068,-0.172,54.557,-119.595,-47.405,46.0,93.0
336167,-0.910,1.916,-0.084,94.191,-178.939,-5.473,149.0,91.0
336254,-0.611,0.857,0.060,-4.664,-108.275,-103.412,177.0,96.0
336344,-0.026,0.917,-0.137,42.702,-54.550,-39.870,0.0,100.0
336431,0.196,0.103,0.212,1.160,-5.588,2.153,176.0,100.0
336518,-0.676,1.172,-0.038,87.466,-17.855,44.916,0.0,92.0
336604,-1.255,1.556,-0.405,-104.405,27.450,42.550,163.0,90.0
336693,-0.851,0.621,-0.049,-10.840,8.542,1.794,166.0,94.0
336780,-0.450,0.266,-0.021,-24.244,-20.954,-22.771,178.0,98.0
336867,-0.332,0.347,-0.002,11.427,-68.489,-3.168,163.0,98.0
336953,-1.072,1.067,-0.013,123.840,-77.725,25.130,170.0,94.0
337039,-1.072,1.635,-0.065,-69.122,-24.305,15.870,156.0,95.0
337133,0.548,-1.424,0.286,3.649,-59.702,-250.137,0.0,0.0
337227,-0.869,2.000,-0.782,86.031,-143.168,-127.237,0.0,0.0
337321,0.136,1.796,-0.199,17.550,-30.878,-30.557,0.0,0.0
337416,-2.000,0.171,0.057,-250.137,-44.305,32.489,0.0,0.0
337513,-0.842,-0.212,-0.303,-46.550,-33.122,18.863,0.0,0.0
337607,-0.199,-0.596,0.391,-32.992,-12.237,23.015,200.0,0.0
337701,-0.763,0.344,0.002,5.031,11.405,23.947,198.0,0.0
337796,-1.265,0.953,0.996,-153.130,-37.160,-123.198,0.0,0.0
337891,-0.851,0.814,-0.127,41.359,-55.153,64.985,0.0,0.0
337984,-0.738,-0.229,0.669,-55.115,-0.802,61.275,185.0,0.0
338077,-0.542,0.400,0.393,53.588,-37.985,-0.038,180.0,0.0
338170,-0.417,0.070,0.389,-12.863,-9.603,13.649,178.0,0.0
338267,-0.890,0.188,0.623,-12.710,19.221,42.733,176.0,0.0
338359,-1.049,0.553,0.883,-45.771,-10.397,4.496,174.0,0.0
338452,-0.642,0.926,0.276,-62.908,-16.107,-2.550,168.0,0.0
338544,-0.605,0.151,0.037,21.763,19.374,41.443,163.0,0.0
338636,-0.355,-0.122,0.451,62.084,14.885,6.603,162.0,0.0
338728,-1.062,0.789,0.533,59.809,6.779,-22.664,165.0,0.0
338821,-1.076,0.167,0.672,49.374,-32.221,-27.160,167.0,0.0
338909,-0.906,0.510,0.400,-34.840,3.023,-7.954,79.0,0.0
339003,-0.812,0.358,0.650,-4.565,-1.626,1.626,0.0,0.0
339094,-0.589,0.484,0.356,-29.298,0.466,-14.740,92.0,0.0
339182,-0.648,0.355,0.526,-104.412,33.397,4.939,90.0,0.0
339276,-0.882,0.871,0.600,-12.206,16.359,41.069,0.0,0.0
339371,-0.918,0.673,0.429,-94.634,-9.916,97.893,0.0,0.0
339465,-0.812,0.056,0.402,30.481,-14.366,40.076,0.0,0.0
339560,-0.768,-0.233,0.604,10.282,-10.115,72.733,0.0,0.0
339654,-0.695,0.133,0.521,-34.641,14.267,29.214,0.0,0.0
339748,-0.647,0.285,0.570,-30.740,16.557,3.099,0.0,0.0
339843,-0.727,0.519,0.422,10.863,25.031,10.122,0.0,0.0
339940,-0.766,0.209,0.565,-2.351,29.695,19.885,0.0,0.0
340035,-0.916,0.277,0.620,25.809,15.061,2.023,0.0,0.0
340129,-0.775,0.779,0.355,-33.718,2.008,14.099,0.0,0.0
340221,-0.510,1.481,0.120,-56.939,43.336,121.832,158.0,0.0
340314,-0.676,0.594,0.412,-50.397,22.794,130.588,155.0,0.0
340405,-0.878,0.612,0.333,-8.649,17.076,151.985,152.0,0.0
340491,-0.178,0.982,0.454,11.855,25.382,109.084,128.0,111.0
340577,-0.294,0.930,0.629,-129.573,29.626,31.397,140.0,113.0
340658,-0.600,0.570,1.046,-18.916,19.695,36.802,47.0,115.0
340742,-0.668,1.229,0.814,-68.427,-15.679,58.473,47.0,113.0
340820,-0.532,0.793,0.672,-131.015,-61.160,66.008,43.0,72.0
340899,0.468,-0.205,0.802,-250.137,-130.786,-167.748,40.0,87.0
340985,-0.444,0.665,0.479,-62.267,-81.840,-250.137,57.0,199.0
341079,0.943,-0.248,0.682,-250.137,11.992,-250.137,163.0,0.0
341172,-0.771,0.598,0.604,-41.473,-9.122,-95.565,170.0,0.0
341264,-0.208,0.140,0.979,-19.160,-27.053,-22.863,71.0,0.0
341351,0.226,-0.092,0.835,-30.664,-5.916,-23.099,72.0,0.0
341440,0.354,-0.187,0.979,47.275,-23.053,21.153,71.0,0.0
341533,0.263,-0.369,1.176,26.191,-14.305,25.214,0.0,0.0
341619,0.088,-0.350,1.144,22.183,-4.305,-17.359,72.0,0.0
341712,0.146,-0.297,1.093,28.855,-14.916,-12.924,0.0,0.0
341799,0.070,0.371,0.905,-95.550,15.206,-18.153,72.0,0.0
341891,0.107,0.387,0.806,14.763,-15.466,21.901,169.0,0.0
341983,0.259,0.139,0.890,28.450,-13.687,32.809,168.0,0.0
342074,-0.002,-0.050,1.116,24.084,-33.092,7.198,168.0,0.0
342161,0.156,0.326,0.925,-125.565,2.344,-6.382,69.0,0.0
342249,0.325,0.760,0.587,-39.275,-23.824,32.878,68.0,0.0
342336,0.258,0.427,0.687,60.427,-39.321,31.053,67.0,0.0
342421,0.075,-0.322,0.966,16.260,-17.977,-6.824,66.0,0.0
342507,0.319,-0.035,0.980,-168.427,18.397,-44.061,66.0,0.0
342593,0.470,0.995,0.613,-111.382,7.046,-38.840,67.0,0.0
342679,0.308,-0.035,0.975,65.588,-36.985,6.290,67.0,0.0
342773,0.357,-0.431,1.127,32.496,-33.099,9.916,0.0,0.0
342859,0.429,-0.045,0.955,0.603,-22.809,6.840,67.0,0.0
342945,0.712,0.460,0.709,82.153,-63.595,39.725,70.0,0.0
343033,0.466,-0.474,1.043,34.115,-32.809,9.458,64.0,0.0
343119,0.702,0.280,0.714,-45.710,-9.061,4.252,65.0,0.0
343205,0.495,-0.010,0.877,-2.427,-25.282,7.649,62.0,0.0
343290,0.570,0.000,0.788,-58.069,-14.107,14.382,62.0,0.0
343376,0.639,-0.224,0.867,7.084,-31.779,3.435,60.0,0.0
343461,0.891,0.180,0.576,-2.824,-16.885,5.382,60.0,0.0
343547,0.839,0.373,0.647,10.397,-16.405,18.382,59.0,0.0
343632,0.605,0.042,0.734,2.351,-6.092,-0.618,59.0,0.0
343718,0.583,0.282,0.588,11.130,-12.901,15.359,59.0,0.0
343806,0.705,0.111,0.717,-9.649,-1.885,-2.107,58.0,0.0
343899,0.674,0.291,0.762,-58.931,-1.931,17.122,167.0,0.0
343985,0.386,-0.107,0.847,108.916,-38.099,-1.076,57.0,0.0
344070,0.816,0.058,0.848,-16.786,-31.916,-22.748,54.0,0.0
344155,0.695,0.062,0.664,0.420,-63.160,28.863,51.0,0.0
344240,0.869,0.267,0.449,25.595,-57.511,9.985,50.0,0.0
344325,0.863,0.112,0.350,15.557,-42.405,2.511,46.0,0.0
344410,0.835,0.112,0.173,-5.702,-24.763,-32.802,45.0,0.0
344495,0.716,0.434,0.009,9.534,-27.252,19.038,46.0,0.0
344583,0.850,0.160,0.393,15.977,-9.519,-19.748,44.0,0.0
344668,0.977,0.211,0.274,-9.275,-7.168,-4.733,48.0,0.0
344752,0.870,-0.191,0.254,115.511,-24.893,-25.817,43.0,0.0
344837,0.953,0.156,0.417,-152.099,7.198,36.107,48.0,0.0
344922,0.906,0.701,0.063,66.450,-16.061,-12.908,46.0,0.0
345008,0.749,0.660,0.199,11.870,0.985,8.145,52.0,0.0
345093,0.778,0.652,0.218,36.038,-15.321,21.061,50.0,0.0
345178,0.694,0.296,0.201,19.664,-18.176,21.641,51.0,0.0
345263,0.846,0.166,0.372,-43.504,-17.458,0.443,46.0,0.0
345351,0.942,0.538,0.131,6.145,-23.733,-4.893,47.0,0.0
345437,0.938,0.404,0.195,14.634,-20.679,-7.260,58.0,0.0
345522,0.943,0.528,0.014,-19.565,-10.664,19.099,50.0,0.0
345607,0.925,0.303,0.161,-25.443,-6.573,21.008,50.0,0.0
345693,0.932,0.491,0.215,-33.618,-0.275,-33.809,50.0,0.0
345778,0.954,0.446,0.236,-23.405,-5.214,-6.008,50.0,0.0
345863,0.884,0.451,0.161,-8.611,-6.023,-10.336,50.0,0.0
345948,0.939,0.366,0.174,-26.366,-1.679,-1.908,51.0,0.0
346034,0.944,0.276,0.302,15.595,-8.656,-4.397,50.0,0.0
346122,1.019,0.442,0.117,40.641,-22.313,18.550,51.0,0.0
346208,0.719,-0.017,0.337,-47.985,-6.511,-7.237,69.0,0.0
346294,0.927,0.838,0.002,-49.687,4.702,-18.489,50.0,0.0
346379,0.908,0.518,0.124,69.656,-11.832,11.855,57.0,0.0
346465,0.882,0.359,0.108,-46.527,20.145,18.763,51.0,0.0
346550,0.779,0.224,0.321,-11.450,4.374,1.733,56.0,0.0
346636,0.853,0.208,0.292,-63.573,1.916,-7.031,51.0,0.0
346721,0.896,0.723,0.142,-26.511,-3.817,0.588,51.0,0.0
346807,0.784,0.292,0.302,-30.397,-4.710,-2.366,51.0,0.0
346895,0.739,0.210,0.353,-54.252,0.435,-9.618,51.0,0.0
346980,0.792,0.694,0.156,-24.084,-4.786,-8.176,53.0,0.0
347066,0.727,0.504,0.348,-23.237,-6.534,-7.908,57.0,0.0
347152,0.648,0.251,0.391,-16.786,5.840,-25.412,55.0,0.0
347239,0.589,0.433,0.397,-83.695,10.214,-40.878,76.0,0.0
347325,0.449,0.573,0.342,16.855,-15.160,-48.527,75.0,0.0
347411,0.505,0.312,0.386,-98.107,0.298,-47.458,57.0,0.0
347497,0.583,0.701,0.264,-125.191,2.115,-59.802,57.0,0.0
347583,0.558,0.630,0.120,-16.450,1.542,-61.641,61.0,0.0
347674,0.483,0.381,0.186,-1.328,22.244,-62.008,83.0,0.0
347761,0.022,0.434,0.210,-66.931,62.725,-88.107,92.0,0.0
347851,-0.327,0.700,0.051,68.145,94.198,-105.160,119.0,0.0
347940,-0.460,1.115,0.338,85.351,125.122,-174.740,118.0,0.0
348033,-1.067,1.050,0.500,49.321,108.870,-176.458,171.0,193.0
348126,-1.118,0.863,0.428,-14.901,88.771,-127.656,0.0,179.0
348217,-0.989,1.152,0.159,-34.443,99.069,-100.115,0.0,150.0
348308,-1.038,0.632,0.286,8.153,77.962,-57.412,0.0,146.0
348402,-0.871,0.371,0.205,110.084,11.321,-3.656,0.0,145.0
348493,-0.924,0.846,-0.206,-156.084,26.405,-28.031,0.0,146.0
348587,-1.192,0.654,-0.240,-250.137,15.191,34.649,0.0,176.0
348681,-0.992,0.693,0.194,-114.214,-56.137,122.763,0.0,0.0
348770,-0.798,0.791,0.194,-235.115,-86.092,77.206,110.0,0.0
348864,-0.479,0.123,0.527,-138.130,-74.305,5.290,0.0,0.0
348949,-0.499,-0.019,0.564,-55.359,-44.137,6.160,42.0,0.0
349034,-0.568,0.270,0.592,-6.099,-27.244,-7.893,38.0,0.0
349119,-0.502,0.153,0.734,-3.740,-13.527,-1.458,37.0,0.0
349207,-0.558,0.242,0.770,-8.992,-6.870,0.122,36.0,0.0
349292,-0.469,0.231,0.814,13.649,-8.176,4.679,40.0,0.0
349377,-0.471,0.314,0.812,4.779,-5.618,7.618,39.0,0.0
349463,-0.515,0.302,0.903,-0.863,1.198,2.985,51.0,0.0
349548,-0.613,0.397,0.849,19.916,-3.962,-3.137,41.0,0.0
349633,-0.409,0.364,0.769,2.298,-5.870,1.840,42.0,0.0
349718,-0.511,0.415,0.741,-24.702,10.763,-3.450,41.0,0.0
349803,-0.438,0.426,0.748,-19.168,5.550,-1.313,42.0,0.0
349889,-0.503,0.392,0.764,-10.687,2.550,-6.000,43.0,0.0
349977,-0.538,0.395,0.769,-12.992,-5.824,-15.435,41.0,0.0
350062,-0.599,0.314,0.839,10.771,-6.176,-36.237,41.0,0.0
350147,-0.629,0.394,0.682,7.641,-14.534,-28.893,41.0,0.0
350232,-0.643,0.273,0.746,4.618,-13.351,-27.626,38.0,0.0
350317,-0.570,0.289,0.743,-5.122,-11.595,-24.389,39.0,0.0
350403,-0.521,0.225,0.744,-9.725,-15.588,-10.351,38.0,0.0
350488,-0.491,0.206,0.768,-7.260,-8.298,-4.298,36.0,0.0
350573,-0.572,0.215,0.721,11.519,-5.229,-2.916,38.0,0.0
350658,-0.546,0.016,0.534,147.008,7.031,-31.916,40.0,0.0
350756,-0.575,0.077,0.361,226.496,43.954,-89.710,0.0,0.0
350850,-1.165,0.384,-0.317,250.130,37.733,-99.710,181.0,0.0
350944,-0.992,0.929,-0.459,215.252,-28.588,-97.595,0.0,0.0
351038,-1.048,0.527,-0.356,19.649,-33.473,-104.534,0.0,200.0
351132,-1.132,0.137,-0.243,59.565,-20.321,-37.405,0.0,197.0
351225,-0.971,0.373,-0.323,195.916,-36.878,57.214,0.0,164.0
351319,-1.138,0.970,-0.376,123.969,66.557,198.389,0.0,175.0
351411,-0.755,1.321,-0.375,-250.137,250.130,250.130,165.0,0.0
351494,-0.312,1.679,-0.869,18.733,58.282,95.282,132.0,16.0
351579,-0.161,0.464,-0.232,9.122,13.641,21.313,130.0,108.0
351665,0.125,0.387,-0.384,-14.527,43.710,19.130,129.0,110.0
351755,0.114,0.632,-0.675,-3.565,19.336,4.817,129.0,0.0
351840,0.269,0.726,-0.529,30.305,4.527,41.015,129.0,112.0
351926,0.273,0.775,-0.595,31.153,19.389,34.305,129.0,112.0
352011,0.254,0.820,-0.724,-8.878,11.557,42.901,132.0,112.0
352093,0.505,1.410,-0.895,36.214,23.771,47.176,162.0,16.0
352173,0.292,1.091,-0.790,54.344,4.756,32.221,131.0,16.0
352258,0.387,0.707,-0.625,24.962,17.702,45.244,150.0,16.0
352343,0.270,0.610,-0.537,41.153,-12.321,0.611,129.0,17.0
352421,0.548,0.439,-0.497,-20.786,22.061,4.824,127.0,16.0
352505,0.612,0.530,-0.577,-11.931,22.863,-3.351,122.0,114.0
352584,0.592,0.724,-0.531,-42.733,72.954,-3.702,119.0,16.0
352662,0.524,0.833,-0.519,12.802,51.809,7.740,118.0,16.0
352747,0.645,0.689,-0.328,5.191,58.000,3.359,134.0,114.0
352830,0.600,0.619,-0.214,-50.191,42.214,-10.679,116.0,109.0
352909,0.744,0.670,-0.371,1.183,50.237,-1.000,115.0,16.0
352995,0.762,0.815,-0.342,19.550,75.420,18.374,118.0,108.0
353074,0.654,0.668,-0.014,-16.458,50.313,-27.573,129.0,16.0
353153,0.697,1.175,-0.468,6.489,7.053,-30.198,125.0,16.0
353236,0.745,0.936,-0.341,-34.779,37.145,9.527,113.0,109.0
353314,0.721,0.766,-0.245,6.282,44.321,18.244,112.0,17.0
353392,0.699,0.648,-0.104,-0.237,58.542,13.115,115.0,16.0
353470,0.432,0.810,-0.254,10.092,11.771,-11.481,112.0,16.0
353554,0.568,0.740,-0.252,36.267,-34.473,-7.427,112.0,103.0
353634,0.621,0.632,0.027,15.832,32.466,-63.962,113.0,10.0
353712,0.778,0.942,-0.233,83.740,14.626,-30.626,115.0,10.0
353790,0.671,0.951,-0.117,31.779,111.473,-41.252,115.0,8.0
353868,0.519,1.024,-0.276,48.359,94.122,-2.664,115.0,8.0
353946,0.364,0.859,-0.297,21.924,72.496,-7.672,114.0,17.0
354024,0.426,0.845,-0.342,-9.557,30.733,11.527,113.0,18.0
354104,0.659,0.963,-0.477,52.977,9.008,52.924,130.0,16.0
354182,0.474,0.311,0.014,30.198,-20.885,4.267,114.0,17.0
354272,0.766,0.524,-0.249,-7.168,-15.450,-11.824,141.0,0.0
354364,0.614,0.534,-0.133,-40.305,2.084,-12.221,116.0,0.0
354443,0.626,0.797,-0.260,-63.687,-37.427,-5.664,128.0,18.0
354521,0.661,0.399,-0.171,-35.878,-23.321,-22.031,111.0,16.0
354599,0.550,1.023,-0.285,-25.901,-36.420,35.015,111.0,17.0
354677,0.607,0.890,-0.292,-32.534,-14.260,-10.939,111.0,17.0
354766,0.599,0.609,-0.200,-6.595,-26.412,6.130,111.0,0.0
354854,0.410,0.898,-0.294,9.870,-45.130,38.237,111.0,0.0
354944,0.504,0.599,-0.302,-35.191,-34.092,8.947,112.0,0.0
355036,0.682,0.595,-0.339,-12.252,-11.473,23.450,118.0,0.0
355124,0.635,0.858,-0.331,0.786,-20.344,12.924,114.0,0.0
355214,0.669,0.761,-0.262,-9.137,-6.214,5.344,135.0,0.0
355304,0.744,0.846,-0.519,-10.084,-28.069,38.214,125.0,0.0
355393,0.739,0.936,-0.486,-26.565,-4.580,-0.351,123.0,0.0
355482,0.645,0.629,-0.334,5.656,-18.794,2.153,113.0,0.0
355570,0.664,1.032,-0.482,4.244,3.015,-0.069,113.0,0.0
355660,0.615,0.815,-0.355,-2.641,-1.328,-0.550,132.0,0.0
355749,0.602,0.712,-0.382,23.527,-0.542,-21.924,126.0,0.0
355842,0.531,0.488,-0.272,73.794,5.000,4.794,115.0,0.0
355931,0.547,0.192,0.086,35.092,0.053,-5.321,115.0,0.0
356020,0.667,0.427,-0.213,-69.969,32.260,1.733,115.0,0.0
356110,0.635,1.285,-0.673,-55.763,26.061,29.328,143.0,0.0
356200,0.708,1.384,-0.756,30.542,-17.679,7.214,131.0,0.0
356285,0.658,0.147,0.222,-3.863,-23.282,-24.534,117.0,127.0
356374,0.728,0.368,0.049,-111.527,-3.489,10.092,114.0,0.0
356462,0.552,1.396,-0.603,-91.183,-24.412,10.427,112.0,0.0
356547,0.527,1.158,-0.509,-11.290,-51.924,-8.107,111.0,126.0
356639,0.554,0.491,0.012,5.863,-64.458,-7.481,111.0,0.0
356722,0.489,0.548,-0.028,-20.084,-42.840,-7.809,112.0,101.0
356805,0.568,0.907,-0.121,-6.267,-34.115,-11.893,113.0,98.0
356888,0.453,0.965,-0.201,24.145,-30.435,-2.473,116.0,96.0
356971,0.458,0.749,-0.173,-0.985,-9.466,1.053,117.0,95.0
357055,0.426,0.856,-0.325,-10.878,-3.947,-9.229,119.0,93.0
357144,0.419,0.896,-0.454,-0.954,-20.573,-7.321,122.0,0.0
357233,0.356,0.796,-0.437,5.763,-39.511,-4.878,124.0,0.0
357323,0.319,0.792,-0.470,11.321,-59.275,-2.840,126.0,0.0
357416,0.260,0.844,-0.536,-28.160,-65.763,-12.740,128.0,0.0
357507,0.226,0.883,-0.535,5.061,-75.267,-9.260,131.0,0.0
357591,0.202,0.762,-0.406,-53.656,-103.443,-44.954,134.0,105.0
357676,0.021,0.776,-0.408,17.893,-113.481,-70.137,138.0,99.0
357767,-0.103,0.940,-0.376,-44.557,-109.366,-110.130,144.0,0.0
357860,-0.429,0.981,-0.379,-98.221,-76.695,-181.168,179.0,0.0
357954,-0.660,0.752,-0.195,-32.916,-23.099,-192.427,0.0,0.0
358048,-1.151,0.762,-0.191,-110.160,-19.855,-189.168,0.0,0.0
358146,-1.481,0.182,0.105,-163.939,-36.153,-89.344,0.0,0.0
358240,-1.220,0.211,0.126,-120.534,-111.412,38.985,0.0,0.0
358334,-0.689,0.359,0.140,-39.374,-96.824,20.595,0.0,0.0
358419,-0.431,0.171,0.353,-63.359,-53.435,19.229,47.0,199.0
358504,-0.714,0.306,0.646,-8.382,-57.298,3.580,43.0,195.0
358588,-1.045,0.253,0.716,-32.473,-89.519,23.954,43.0,191.0
358682,-0.785,0.336,0.677,20.130,-67.122,37.405,0.0,188.0
358766,-0.565,0.304,0.720,-51.740,-43.313,7.817,50.0,185.0
358854,-0.376,0.233,0.689,-22.573,-38.038,8.550,52.0,183.0
358939,-0.392,0.276,0.746,0.977,-27.969,-7.427,53.0,181.0
359023,-0.401,0.199,0.870,5.145,-21.412,-23.489,44.0,180.0
359107,-0.420,0.219,0.849,6.137,-12.115,-16.863,44.0,178.0
359191,-0.452,0.190,0.824,-9.137,0.221,-14.359,50.0,176.0
359275,-0.500,0.116,0.834,-14.405,3.550,-17.550,49.0,174.0
359359,-0.535,0.075,0.881,24.817,0.748,-26.489,42.0,172.0
359443,-0.533,0.118,0.844,8.710,-3.061,-10.206,51.0,169.0
359526,-0.359,0.062,0.719,9.687,-3.473,1.718,45.0,165.0
359612,-0.368,0.014,0.792,44.824,9.649,-14.328,45.0,160.0
359704,-0.632,0.358,0.486,137.443,34.466,-63.336,0.0,154.0
359798,-0.760,0.229,0.478,170.221,92.275,-100.206,0.0,0.0
359892,-1.272,0.005,0.069,250.130,97.206,-134.389,0.0,0.0
359986,-1.539,-0.339,-0.603,250.130,-129.771,-87.252,177.0,0.0
360076,-0.644,2.000,-0.860,68.863,-32.817,22.939,141.0,0.0
360169,-1.551,-0.553,0.008,-239.687,-30.969,-13.504,166.0,0.0
360259,-0.101,2.000,-1.354,125.115,7.282,-13.733,137.0,0.0
360350,-0.490,-0.145,0.417,250.130,-34.611,56.290,135.0,0.0
360443,-0.359,-0.397,0.328,67.023,-13.931,17.618,130.0,0.0
360534,-1.030,-0.034,-0.089,106.443,-25.748,27.473,125.0,0.0
360624,-1.417,0.012,-0.133,64.878,-14.008,12.832,121.0,0.0
360713,-1.110,0.179,-0.056,83.260,-24.794,14.122,121.0,0.0
360801,-0.827,0.511,-0.205,154.595,-32.550,27.206,123.0,163.0
360889,-1.112,-0.576,0.140,118.382,-75.351,15.443,124.0,165.0
360983,-0.848,0.845,-0.385,1.634,-63.168,21.420,0.0,0.0
361075,-0.492,1.158,-0.364,196.069,-92.634,39.718,0.0,164.0
361171,-0.893,-0.167,0.323,105.031,-44.015,61.664,0.0,163.0
361265,-0.988,0.351,0.038,-147.504,-2.534,-19.855,0.0,190.0
361358,-0.590,1.010,-0.052,104.969,-70.015,30.786,0.0,165.0
361450,-0.847,0.060,0.300,29.183,-31.191,30.130,0.0,168.0
361544,-0.887,0.697,-0.248,-138.985,22.160,-41.267,0.0,0.0
361637,-0.773,1.180,-0.325,2.214,-1.015,-4.649,0.0,174.0
361729,-0.575,1.051,-0.089,131.122,-17.954,30.443,0.0,144.0
361823,-0.739,0.688,-0.127,23.420,-6.748,-7.298,0.0,200.0
361917,-0.888,0.547,-0.189,-12.168,0.084,-44.053,0.0,187.0
362008,-0.913,0.407,-0.127,-45.252,-0.107,-38.038,0.0,185.0
362098,-1.082,0.462,-0.000,61.817,-35.519,25.969,0.0,134.0
362190,-0.897,0.609,0.063,5.992,-41.466,-22.557,0.0,150.0
362284,-0.690,0.968,0.082,-86.824,-16.344,-44.618,0.0,185.0
362378,-1.010,0.152,0.325,-94.969,-11.450,-59.397,0.0,186.0
362471,-1.037,0.405,0.367,-60.198,-31.160,-49.359,0.0,189.0
362565,-0.955,0.158,0.407,35.863,-56.206,-48.069,0.0,196.0
362659,-0.786,-0.094,0.527,-51.069,-36.603,-58.985,0.0,193.0
362758,0.031,1.555,-0.300,4.748,6.924,-41.412,0.0,194.0
362852,-1.217,-0.294,0.828,18.282,12.817,24.695,0.0,0.0
362946,-1.103,-0.266,0.433,-78.183,-13.221,-49.031,0.0,0.0
363040,-1.107,-0.313,0.172,-47.695,3.779,21.031,0.0,0.0
363136,-0.854,-0.781,0.313,40.931,-19.290,-30.634,0.0,0.0
363230,-0.640,-0.127,0.223,-17.145,1.557,-32.252,0.0,0.0
363324,-1.197,-0.382,0.415,3.565,-12.756,-26.076,0.0,0.0
363419,-1.095,-0.628,0.656,30.756,-27.550,-42.977,0.0,0.0
363520,-0.564,-0.148,0.597,-16.008,-31.053,-52.954,0.0,0.0
363624,-0.966,-0.722,0.524,-131.282,-29.817,-71.198,0.0,0.0
363717,-0.661,-0.596,0.286,-40.519,-19.924,-14.084,0.0,145.0
363811,-0.280,-0.576,0.445,5.031,-1.466,-4.237,0.0,173.0
363902,-0.410,-0.658,0.564,6.099,14.954,-14.855,0.0,128.0
363996,-0.506,-0.578,0.647,-18.267,26.351,2.137,0.0,149.0
364092,-0.539,-0.358,0.573,-3.977,16.840,20.053,0.0,0.0
364188,-0.942,-0.678,0.512,-73.954,10.366,24.298,0.0,0.0
364283,-0.819,-0.696,0.240,-20.229,-6.328,57.344,0.0,0.0
364383,-0.806,-0.655,0.083,-25.473,4.229,14.542,0.0,0.0
364478,-0.734,-0.634,0.198,10.038,12.015,11.244,0.0,0.0
364574,-0.755,-0.620,0.249,22.351,0.924,17.603,0.0,0.0
364669,-0.868,-0.595,0.209,95.947,-11.305,5.008,0.0,0.0
364766,-0.777,-0.283,0.666,18.947,13.740,-37.443,0.0,0.0
364862,-0.715,-0.007,0.544,55.221,-1.885,22.580,0.0,0.0
364957,-0.657,-0.361,0.620,16.985,1.328,17.618,0.0,0.0
365053,-0.641,-0.309,0.749,-3.435,-8.084,-10.160,0.0,0.0
365150,-0.729,-0.361,0.684,15.756,-8.832,36.176,0.0,0.0
365248,-0.894,-0.159,0.499,-17.710,-4.160,43.962,0.0,0.0
365344,-0.907,-0.105,0.639,-37.336,-5.954,38.672,0.0,0.0
365441,-0.981,-0.407,0.661,-87.374,-29.496,-6.580,0.0,0.0
365537,-0.839,-0.110,0.355,9.412,-24.198,68.466,0.0,0.0
365633,-0.721,-0.218,0.490,-44.901,-0.450,30.656,0.0,0.0
365728,-0.755,-0.044,0.559,-30.351,-14.901,-37.565,0.0,0.0
365825,-0.726,0.228,0.530,-6.504,-1.977,0.366,0.0,0.0
365921,-0.849,0.082,0.554,11.321,1.626,42.809,0.0,0.0
366016,-0.802,0.094,0.601,-6.595,-6.939,26.450,0.0,0.0
366115,-0.660,0.353,0.421,-11.802,-0.817,15.824,0.0,0.0
366212,-0.714,0.111,0.618,-15.534,0.397,1.328,0.0,0.0
366307,-0.793,0.040,0.673,4.122,-3.763,11.855,0.0,0.0
366403,-0.674,0.132,0.404,17.527,-4.557,15.718,0.0,0.0
366499,-0.801,-0.029,0.595,-26.229,16.748,-0.107,0.0,0.0
366596,-0.869,-0.048,0.710,-34.969,9.931,-0.519,0.0,0.0
366692,-0.767,0.094,0.640,-8.275,-3.824,9.557,0.0,0.0
366788,-0.720,0.076,0.507,-22.504,-0.840,15.221,0.0,0.0
366883,-0.719,0.011,0.458,-2.389,5.634,19.908,0.0,0.0
366983,-0.913,-0.008,0.362,70.069,-16.893,69.244,0.0,0.0
367079,-1.013,0.285,0.047,230.786,-28.382,112.405,0.0,0.0
367175,-0.616,0.776,0.109,-12.969,24.733,15.046,0.0,0.0
367271,-0.844,0.680,0.350,71.435,10.183,26.550,0.0,0.0
367368,-0.422,1.304,0.736,34.229,-11.168,4.206,195.0,0.0
367463,-0.752,1.267,0.800,-34.122,-7.252,34.435,198.0,0.0
367553,-0.318,0.734,0.613,-109.702,-37.779,109.252,183.0,103.0
367649,-0.317,0.451,0.522,-196.313,-54.542,100.931,189.0,0.0
367744,-0.252,0.151,0.750,-130.397,-67.893,43.725,169.0,0.0
367841,-0.065,0.245,0.884,-39.145,-45.618,33.466,169.0,0.0
367928,-0.147,0.424,0.816,-23.397,-5.481,22.008,33.0,0.0
368015,-0.071,0.375,0.918,-55.573,5.992,-0.031,32.0,0.0
368102,-0.017,0.166,0.978,-28.679,-0.290,-26.580,40.0,0.0
368188,0.070,0.380,0.885,-28.092,-11.588,-34.565,30.0,0.0
368275,-0.029,0.203,0.987,-37.061,-7.008,-68.817,40.0,0.0
368362,-0.059,0.029,1.054,-52.656,-13.214,-73.282,37.0,0.0
