Timestamp(ms),AccelX(g),AccelY(g),AccelZ(g),GyroX(deg/s),GyroY(deg/s),GyroZ(deg/s),DistanceLeft(cm),DistanceRight(cm)
78000,-0.532,-0.202,-0.097,-2.550,-93.237,-58.847,40.0,102.0
78077,-1.515,2.000,-0.316,160.886,-191.458,-75.382,46.0,96.0
78156,-0.231,1.656,-0.247,-39.412,-97.244,38.542,55.0,100.0
78235,0.306,0.321,0.070,5.626,-88.725,-5.443,51.0,106.0
78319,0.476,-0.064,0.141,50.397,-37.977,8.840,145.0,106.0
78397,0.364,-0.001,0.333,22.107,18.229,58.969,52.0,98.0
78475,-1.673,2.000,-0.567,21.550,34.282,85.779,48.0,89.0
78555,-0.568,1.021,-0.282,-113.107,8.374,99.221,41.0,96.0
78638,-0.194,-0.074,-0.147,-57.947,-10.359,-53.855,133.0,103.0
78716,-0.344,-0.531,-0.159,24.878,-51.351,-45.565,44.0,103.0
78794,-1.167,0.921,-0.268,92.634,-171.611,-62.908,44.0,97.0
78878,-0.975,2.000,-0.727,163.931,-206.061,43.443,146.0,95.0
78957,0.175,0.703,-0.070,-67.634,-118.588,-48.947,51.0,103.0
79039,0.442,0.015,0.181,61.244,-66.916,-28.382,51.0,159.0
79119,0.454,0.044,0.199,0.458,-5.015,32.832,51.0,117.0
79198,-0.199,1.606,0.209,69.115,2.527,72.496,50.0,100.0
79285,-1.298,2.000,-0.631,-104.061,75.130,157.679,45.0,0.0
79368,-0.461,0.700,-0.135,-66.183,-10.847,49.344,38.0,0.0
79452,-0.360,-0.256,-0.289,-23.435,-81.435,-3.313,38.0,0.0
79536,-0.247,-0.415,-0.138,49.885,-134.298,-14.794,37.0,0.0
79620,-1.691,2.000,-0.623,124.191,-247.832,-74.313,42.0,0.0
79705,0.046,1.803,-0.451,16.969,-170.603,24.450,57.0,0.0
79789,0.537,0.152,0.092,12.672,-111.588,-23.992,50.0,0.0
79870,0.486,-0.189,0.228,17.107,-33.298,30.511,51.0,157.0
79956,0.316,0.506,0.270,49.855,3.061,62.122,57.0,158.0
80040,-0.764,2.000,-0.758,48.504,75.435,151.542,46.0,0.0
80118,-0.480,0.999,-0.215,-71.084,40.855,70.099,37.0,105.0
80207,-0.298,-0.044,-0.160,52.649,-28.031,-31.122,132.0,0.0
80291,-0.331,-0.528,-0.145,-102.221,-92.542,-76.412,36.0,0.0
80376,-1.611,2.000,-0.678,193.809,-217.702,-46.344,51.0,0.0
80461,-0.258,2.000,-0.675,-96.015,-154.916,30.534,51.0,0.0
80545,0.258,0.195,0.064,67.786,-160.611,20.740,47.0,0.0
80634,0.782,0.059,0.121,1.664,-73.824,18.947,129.0,0.0
80721,0.501,-0.047,0.260,11.718,8.893,6.374,45.0,0.0
80812,-0.738,2.000,-1.256,146.794,89.427,146.244,144.0,0.0
80896,-0.671,0.500,-0.235,-133.786,44.802,73.809,42.0,0.0
80979,-0.349,-0.014,-0.150,23.626,2.206,-14.527,127.0,113.0
81063,-0.240,-0.371,-0.018,-57.191,-48.053,-55.397,38.0,0.0
81147,-1.336,2.000,-0.346,116.450,-181.756,-76.824,43.0,0.0
81232,-0.216,2.000,-0.675,9.427,-140.038,53.160,51.0,0.0
81316,0.361,0.446,-0.016,-31.191,-116.221,-31.321,50.0,0.0
81401,0.491,-0.003,0.153,19.397,-68.282,-17.863,47.0,0.0
81494,0.351,0.106,0.146,-3.931,-4.481,15.901,137.0,0.0
81572,-1.134,2.000,-1.044,53.183,60.511,87.534,57.0,98.0
81651,-0.886,1.389,-0.282,-112.344,37.718,96.313,41.0,97.0
81730,-0.108,0.360,0.042,20.740,-18.878,-10.954,45.0,103.0
81808,-0.362,-0.116,-0.120,20.267,-57.969,-48.550,38.0,104.0
81887,-0.413,-0.161,-0.042,-5.649,-119.832,-19.328,40.0,99.0
81965,-1.447,2.000,-0.908,73.939,-212.137,3.176,44.0,94.0
82043,-0.117,1.152,-0.245,-2.618,-152.061,26.885,41.0,99.0
82125,0.477,0.212,0.028,27.405,-151.687,-37.374,44.0,105.0
82204,0.675,-0.035,0.217,30.992,-47.725,-1.649,51.0,104.0
82283,0.217,0.698,0.151,7.160,10.282,37.473,43.0,96.0
82367,-1.318,2.000,-0.648,-42.695,42.908,103.466,148.0,91.0
82445,-0.604,0.928,-0.145,-11.969,-15.092,55.061,42.0,97.0
82524,-0.190,0.307,-0.088,-11.992,-51.229,-40.374,40.0,103.0
82603,-0.385,-0.386,-0.242,-8.794,-88.733,-47.595,38.0,103.0
82680,-0.718,0.579,-0.325,52.053,-174.618,-29.939,41.0,97.0
82759,-1.044,2.000,-0.502,68.275,-177.198,17.076,43.0,95.0
82841,-0.042,1.036,-0.164,16.885,-114.641,9.908,41.0,101.0
82920,0.438,0.162,0.026,36.443,-119.344,5.786,44.0,107.0
83005,0.629,-0.037,0.192,32.481,-41.573,23.679,145.0,106.0
83089,0.244,1.107,0.118,56.099,15.405,47.679,142.0,96.0
83173,-1.069,2.000,-0.927,-11.809,123.023,113.847,143.0,95.0
83252,-0.578,0.621,-0.350,-61.015,20.908,-12.130,39.0,102.0
83331,-0.244,-0.037,-0.083,-2.725,-48.450,-72.763,40.0,105.0
83409,-0.158,-0.136,0.015,-32.557,-73.115,-50.435,41.0,103.0
83490,-1.354,1.584,-0.363,103.015,-167.916,-24.473,46.0,95.0
83570,-0.906,2.000,-0.579,27.550,-93.221,60.252,51.0,96.0
83649,0.069,0.677,0.000,-37.092,-81.832,-14.824,46.0,102.0
83733,0.451,0.066,0.455,66.458,-50.137,12.366,144.0,105.0
83818,0.405,0.212,0.253,-73.649,30.351,22.038,137.0,100.0
83896,-1.272,2.000,-0.400,41.282,33.702,-35.115,51.0,91.0
83981,-1.275,1.705,-0.620,-83.794,12.634,44.405,147.0,91.0
84065,-0.580,0.498,-0.126,12.977,-37.443,2.221,141.0,97.0
84149,-0.284,0.020,-0.075,9.519,-52.527,2.405,137.0,100.0
84236,-0.148,-0.003,0.203,-19.252,-69.305,-5.550,140.0,97.0
84328,-0.778,-0.507,1.061,161.511,-250.137,-250.137,175.0,0.0
84421,-1.727,2.000,-0.959,-250.137,-2.924,-43.252,0.0,0.0
84514,0.342,0.521,0.062,193.710,-29.298,-10.466,0.0,0.0
84609,0.142,0.054,0.336,58.718,-12.824,-5.794,0.0,0.0
84702,-1.658,0.882,-0.019,36.420,-17.489,3.466,0.0,0.0
84795,-1.834,0.374,-0.031,-36.328,2.275,-12.527,0.0,0.0
84888,-0.553,-0.283,0.386,24.389,-27.985,-5.947,0.0,0.0
84981,-0.091,-0.505,-0.065,74.183,-41.687,-26.763,0.0,0.0
85078,-2.000,0.011,-0.032,177.092,-47.695,-12.359,0.0,190.0
85170,-1.580,0.623,0.153,159.069,-44.725,-24.321,0.0,170.0
85262,-0.334,0.704,-0.060,68.115,-11.557,10.092,0.0,173.0
85354,0.018,0.212,0.053,31.901,-8.779,42.664,0.0,181.0
85447,-1.477,0.024,-0.005,28.069,1.252,10.893,0.0,190.0
85540,-2.000,0.550,0.312,33.634,-5.954,-19.748,0.0,195.0
85634,-1.009,0.658,0.274,14.298,-36.702,-29.908,0.0,199.0
85727,-0.056,-0.662,-0.290,-28.725,-49.656,-35.863,194.0,0.0
85824,-0.724,0.003,-0.280,113.603,-28.534,-26.763,0.0,0.0
85917,-1.765,0.747,0.235,142.412,-26.244,-23.313,0.0,0.0
86010,-0.897,0.729,0.167,123.985,-36.351,12.504,0.0,187.0
86104,-0.056,0.418,-0.021,45.092,-13.664,14.611,0.0,0.0
86198,-0.432,0.287,0.059,-23.412,9.443,3.603,0.0,0.0
86291,-1.724,0.372,0.063,-53.672,18.015,-6.328,0.0,0.0
86384,-1.317,0.474,0.119,-38.977,6.153,-12.260,0.0,0.0
86478,-0.377,0.109,-0.036,18.275,-28.641,18.084,0.0,0.0
86572,-0.307,0.060,-0.033,72.527,-42.618,23.137,0.0,0.0
86669,-1.675,0.223,0.477,29.290,-68.687,-12.160,0.0,0.0
86763,-1.091,0.628,0.131,42.725,-40.840,-12.779,0.0,0.0
86857,-0.289,0.189,0.222,58.221,-27.359,2.435,0.0,0.0
86950,0.006,0.381,0.067,12.527,-12.176,16.786,0.0,0.0
87045,-1.495,0.550,0.237,3.015,15.924,15.924,0.0,0.0
87139,-1.584,0.592,0.302,-23.450,19.076,-22.817,0.0,0.0
87233,-0.733,0.125,0.321,13.573,-26.015,1.794,0.0,0.0
87326,-0.265,-0.248,-0.148,66.962,-53.580,9.252,195.0,0.0
87420,-1.388,-0.193,0.435,121.099,-29.405,-33.359,194.0,0.0
87517,-1.525,0.633,0.441,62.145,-10.137,-51.511,190.0,0.0
87611,-0.479,0.569,0.229,65.947,-23.313,-6.435,191.0,0.0
87703,0.154,0.436,0.133,-4.466,-16.496,-6.710,184.0,0.0
87796,-1.154,0.139,0.169,5.985,3.191,10.885,179.0,0.0
87889,-1.864,0.210,0.028,17.244,36.183,-27.008,0.0,0.0
87982,-1.085,0.012,0.636,19.290,18.275,-38.885,168.0,0.0
88076,-0.275,-0.210,0.171,56.244,-47.939,0.290,191.0,0.0
88169,-0.545,-0.115,0.008,89.954,-27.893,4.084,190.0,0.0
88262,-1.690,0.332,0.201,74.328,-5.527,-52.313,189.0,0.0
88357,-1.188,0.313,0.334,116.924,-2.824,-34.366,170.0,0.0
88450,-0.319,0.263,0.171,61.351,-5.603,-19.466,166.0,0.0
88548,-0.170,0.278,0.039,55.649,-3.550,17.695,160.0,0.0
88638,-1.703,0.120,0.046,-15.351,30.198,-8.687,153.0,0.0
88728,-1.894,-0.033,0.346,59.519,16.420,-27.855,149.0,0.0
88818,-0.844,0.099,0.231,83.084,-32.435,-35.122,145.0,0.0
88908,-0.238,0.065,-0.381,62.878,-29.176,-0.824,141.0,0.0
88997,-0.921,-0.162,0.257,103.031,-10.000,-1.466,137.0,0.0
89086,-1.742,-0.359,0.668,112.496,-30.901,-57.809,137.0,0.0
89180,-0.906,0.287,0.065,62.870,-16.389,-38.023,138.0,0.0
89268,-0.036,0.319,0.007,56.824,3.450,-7.351,135.0,180.0
89357,-0.506,0.097,0.256,30.786,6.809,28.947,131.0,0.0
89445,-1.731,-0.171,0.504,-24.221,-3.458,-7.099,125.0,194.0
89533,-1.766,-0.007,0.233,45.336,-18.145,-5.611,121.0,198.0
89622,-0.734,-0.027,0.076,33.771,-17.153,-6.397,119.0,0.0
89715,-0.285,-0.275,0.018,39.756,-38.397,19.282,0.0,0.0
89808,-1.388,-0.337,0.259,91.748,-34.275,35.870,0.0,0.0
89902,-1.512,-0.110,0.638,67.679,-4.397,-37.870,0.0,0.0
89997,-0.617,0.668,0.174,23.153,-5.382,-18.000,0.0,0.0
90090,-0.003,0.513,0.064,0.885,-3.069,14.763,0.0,0.0
90183,-1.121,0.099,0.060,5.878,18.198,54.176,0.0,0.0
90276,-2.000,0.106,0.556,-74.611,42.061,9.771,0.0,0.0
90370,-1.281,-0.006,0.599,2.687,-19.947,-23.924,0.0,0.0
90462,-0.200,-0.207,-0.302,8.191,-41.305,-21.176,0.0,0.0
90555,-0.297,-0.099,0.025,70.298,-3.260,-20.565,0.0,0.0
90648,-1.540,0.465,0.436,35.275,11.084,-75.282,0.0,0.0
90741,-1.297,0.459,0.341,112.954,-1.290,-23.817,0.0,0.0
90838,-0.297,0.322,0.112,25.458,5.389,0.573,0.0,0.0
90930,-0.190,0.319,0.156,-4.359,8.153,16.626,193.0,0.0
91023,-1.708,0.288,-0.011,-53.328,32.053,22.763,0.0,0.0
91116,-1.885,-0.241,0.154,5.504,31.534,0.824,0.0,0.0
91208,-0.618,-0.106,0.307,32.557,-3.672,-17.282,175.0,0.0
91299,-0.198,-0.054,-0.010,19.183,-48.076,27.931,159.0,0.0
91393,-1.489,-0.216,0.058,84.420,-26.840,38.427,199.0,0.0
91483,-1.730,-0.022,0.373,69.565,5.687,-59.496,159.0,0.0
91575,-0.736,0.514,0.099,107.969,-9.313,-31.389,167.0,0.0
91671,0.076,0.394,0.029,80.504,-2.237,18.252,0.0,0.0
91761,-1.072,0.413,-0.009,32.046,16.977,13.695,0.0,144.0
91851,-1.861,-0.172,0.239,-3.748,25.015,18.954,0.0,153.0
91942,-1.363,-0.014,0.278,50.229,11.969,-20.687,0.0,156.0
92034,-0.503,0.089,0.026,86.542,-31.328,0.664,0.0,160.0
92125,-0.380,-0.274,-0.105,66.412,-46.053,-2.802,0.0,164.0
92216,-1.758,-0.081,-0.021,142.550,-36.221,4.450,0.0,166.0
92307,-1.416,0.165,0.168,111.809,-3.023,-29.038,0.0,167.0
92399,-0.328,0.515,-0.004,111.992,6.550,-4.733,0.0,172.0
92494,-0.054,0.323,0.087,71.580,10.076,16.725,0.0,179.0
92587,-1.673,0.115,0.099,34.870,8.282,14.573,0.0,188.0
92680,-2.000,0.116,0.069,-11.519,4.947,-27.420,0.0,197.0
92773,-1.015,0.124,0.211,43.489,-19.496,-38.794,0.0,0.0
92867,-0.188,-0.198,-0.023,73.893,-43.855,20.137,0.0,0.0
92960,-0.617,-0.303,-0.306,130.405,-29.092,23.992,0.0,0.0
93053,-1.666,-0.047,0.409,5.748,44.389,-28.679,0.0,0.0
93146,-1.079,0.334,0.274,150.611,13.519,1.527,0.0,183.0
93240,-0.050,0.500,0.191,6.000,8.580,-24.290,153.0,0.0
93333,-0.688,0.249,0.121,44.427,-12.076,20.069,0.0,0.0
93426,-2.000,0.115,-0.137,-97.366,1.298,32.458,0.0,0.0
93519,-1.277,-0.342,0.106,31.405,-4.107,20.008,0.0,0.0
93613,-0.187,-0.111,-0.013,51.649,-25.496,-9.221,0.0,0.0
93706,-0.146,-0.369,0.137,62.099,-62.244,0.702,0.0,0.0
93799,-1.749,0.434,-0.195,101.443,-28.656,-18.870,0.0,0.0
93893,-1.162,0.062,0.073,118.733,3.374,-17.237,0.0,0.0
93985,-0.210,0.570,0.060,48.656,26.481,-6.977,190.0,0.0
94080,-0.168,0.314,0.179,15.298,10.947,9.763,200.0,0.0
94171,-2.000,0.045,-0.151,-31.275,17.519,23.481,0.0,0.0
94263,-1.766,-0.395,0.054,-0.252,3.908,4.092,180.0,0.0
94356,-0.605,-0.105,0.089,66.092,-23.046,-11.748,194.0,0.0
94448,-0.137,-0.184,-0.016,78.664,-44.557,2.656,171.0,0.0
94536,-1.968,0.195,-0.277,63.145,-15.214,-11.115,116.0,0.0
94629,-1.611,-0.100,0.297,50.939,15.618,-8.847,194.0,0.0
94723,-0.522,0.539,-0.005,156.122,-9.405,-17.122,176.0,0.0
94814,-0.085,0.268,0.047,56.122,-7.618,-6.107,171.0,0.0
94909,-1.227,0.346,0.022,18.191,7.267,31.053,163.0,0.0
94999,-1.976,0.067,0.178,-8.382,-1.321,-0.481,154.0,0.0
95090,-1.410,-0.286,0.323,18.038,-22.153,-6.710,147.0,0.0
95180,-0.384,-0.161,-0.043,178.214,-88.214,-17.771,142.0,0.0
95270,-0.213,-0.187,-0.204,69.046,-59.153,-1.580,140.0,0.0
95358,-1.823,-0.300,0.209,138.718,-30.992,20.603,138.0,153.0
95447,-1.146,0.319,0.268,169.435,-9.901,-77.802,140.0,165.0
95538,-0.198,0.417,0.265,101.015,-3.802,-47.244,0.0,165.0
95630,-0.138,0.524,0.111,36.885,1.038,3.931,0.0,170.0
95726,-1.681,0.150,0.352,-121.336,24.382,37.305,0.0,181.0
95814,-2.000,-0.558,0.354,22.573,-33.985,13.916,121.0,197.0
95908,-0.824,-0.221,0.112,38.275,-36.496,-21.786,0.0,0.0
96000,0.012,-0.363,0.079,105.191,-51.626,25.489,0.0,160.0
96092,-1.603,-0.137,0.124,132.565,-56.115,-17.489,0.0,162.0
96183,-1.704,0.128,0.474,-19.473,-10.466,-54.069,0.0,165.0
96277,-0.613,0.815,0.054,109.634,-20.748,-33.580,0.0,0.0
96367,-0.019,0.471,0.130,39.779,3.237,-10.183,0.0,135.0
96460,-0.477,0.464,0.252,51.840,-4.198,44.389,0.0,186.0
96557,-1.677,0.189,0.414,-107.489,25.496,20.504,0.0,0.0
96651,-1.203,-0.087,0.503,36.580,3.405,-14.183,0.0,0.0
96744,-0.379,-0.065,0.071,-15.282,-9.718,-24.710,0.0,0.0
96838,-0.498,-0.030,0.091,22.145,-27.771,-51.298,0.0,0.0
96932,-1.608,0.145,0.462,58.389,-21.153,-29.824,0.0,0.0
97026,-1.163,0.155,0.503,106.542,-6.450,-33.069,0.0,0.0
97120,-0.169,0.523,0.106,47.260,-5.611,-14.420,0.0,0.0
97213,-0.238,0.353,0.210,2.053,-8.153,10.489,0.0,0.0
97307,-1.836,-0.134,0.379,-53.000,-1.275,8.962,0.0,0.0
97403,-1.667,-0.264,0.403,-6.206,31.893,-8.237,0.0,0.0
97498,-0.320,-0.151,0.413,-28.740,26.069,-36.008,0.0,0.0
97591,-0.036,0.262,0.050,99.366,-33.023,-2.290,0.0,0.0
97682,-1.774,-0.093,0.227,58.168,-28.290,-7.305,0.0,156.0
97774,-1.675,-0.038,0.417,81.954,-10.336,-4.656,0.0,158.0
97865,-0.557,0.587,0.129,84.038,2.504,-7.985,0.0,161.0
97957,0.096,0.434,0.053,90.733,-13.031,18.885,0.0,168.0
98050,-1.072,0.278,0.165,-11.870,4.282,7.786,0.0,178.0
98143,-1.869,0.227,0.280,43.260,4.023,-8.206,0.0,188.0
98240,-1.241,0.117,0.301,71.588,-2.137,0.023,0.0,195.0
98334,-0.307,0.090,0.098,110.489,-34.740,10.565,197.0,0.0
98427,-0.435,0.081,0.077,62.924,-64.756,117.748,0.0,0.0
98522,-2.000,1.046,-0.525,250.130,-24.076,154.183,0.0,193.0
98614,-0.480,1.322,-0.102,7.954,25.710,92.908,169.0,0.0
98704,0.366,0.181,0.489,29.901,-45.870,-3.527,168.0,176.0
98794,0.331,0.426,0.309,11.359,-39.023,15.023,144.0,180.0
98887,-1.009,1.466,0.042,68.947,-42.420,74.870,0.0,187.0
98978,-0.871,1.583,-0.100,-48.092,-5.962,23.344,149.0,0.0
99066,-0.448,0.957,-0.084,23.649,62.611,11.931,145.0,0.0
99158,-0.359,0.406,-0.093,-121.756,23.847,13.397,139.0,0.0
99248,-0.101,0.144,0.196,-12.687,-17.786,85.031,137.0,0.0
99328,0.568,2.000,-1.115,25.702,77.679,250.130,41.0,106.0
99414,-1.123,-1.962,0.571,-250.137,24.107,196.718,117.0,156.0
99501,0.447,1.999,-0.368,-53.069,-13.908,-7.145,111.0,155.0
99587,0.288,-0.147,0.060,42.221,26.092,56.870,109.0,150.0
99673,0.926,1.619,0.274,93.611,50.061,47.038,115.0,140.0
99762,1.059,1.639,0.484,3.832,45.450,15.756,115.0,137.0
99845,0.131,0.415,0.263,-50.435,23.527,-48.458,111.0,92.0
99922,-0.171,0.468,-0.534,-31.282,-41.618,-74.008,31.0,90.0
100000,0.104,1.132,-0.086,-39.649,-78.626,-29.214,36.0,86.0
100086,0.634,1.897,0.348,-44.573,-87.115,-21.672,118.0,131.0
100176,0.244,1.299,0.461,-112.183,-67.031,-56.672,115.0,123.0
100259,0.288,0.492,0.125,-72.267,-35.275,-0.870,26.0,0.0
100343,0.002,-0.159,-0.112,-31.901,-29.580,58.351,110.0,129.0
100425,0.277,0.968,-0.086,100.511,-72.809,52.595,30.0,163.0
100506,0.616,2.000,0.653,-8.069,34.626,-21.641,27.0,117.0
100590,0.038,1.527,0.502,-87.397,15.550,-27.023,115.0,122.0
100669,-0.519,0.252,-0.358,-152.206,-75.947,-50.053,25.0,130.0
100753,0.038,0.383,-0.758,-69.008,-191.977,-63.702,109.0,129.0
100837,0.507,2.000,0.129,34.053,-203.618,-25.748,115.0,123.0
100921,0.406,1.837,0.976,-113.847,-94.809,-81.947,115.0,123.0
101001,0.221,0.980,0.148,-116.840,-93.076,-31.275,30.0,131.0
101081,0.294,-0.286,-0.145,-108.023,-48.443,3.351,25.0,136.0
101168,0.361,-0.014,-0.218,11.542,-56.130,36.092,117.0,133.0
101252,0.827,1.600,0.596,124.779,-67.298,35.244,116.0,124.0
101330,0.906,1.917,1.039,1.878,3.031,-10.000,26.0,122.0
101414,0.426,1.089,0.579,-52.069,12.344,-9.702,115.0,127.0
101494,-0.206,0.293,-0.248,-18.298,-30.710,-39.359,23.0,131.0
101573,-0.228,-0.012,-0.098,-47.641,-97.901,-67.481,26.0,129.0
101657,0.388,1.413,0.222,-25.496,-213.756,-55.160,116.0,122.0
101741,1.063,2.000,0.418,-98.420,-80.336,-51.534,118.0,120.0
101828,0.397,0.821,0.365,-37.313,-62.824,-25.481,113.0,126.0
101912,0.268,0.066,0.042,-35.939,-34.756,5.168,109.0,128.0
101996,0.039,-0.285,0.443,37.954,-54.168,42.237,112.0,126.0
102080,1.031,1.338,-0.033,20.313,9.672,1.061,117.0,121.0
102164,0.743,1.716,0.424,41.298,70.565,8.634,118.0,120.0
102248,0.108,1.013,0.339,-50.847,16.382,22.229,114.0,125.0
102332,-0.322,0.192,-0.561,-57.618,-5.260,-35.504,112.0,126.0
102416,-0.020,1.012,0.028,32.244,-125.374,-42.817,116.0,120.0
102500,0.950,2.000,0.149,-100.000,-100.710,13.374,119.0,119.0
102587,0.335,0.690,0.184,-84.771,-87.527,6.282,112.0,126.0
102671,0.347,-0.378,0.035,-37.313,-60.756,2.855,108.0,131.0
102755,0.179,-0.076,-0.011,-15.763,-35.305,24.206,111.0,127.0
102840,0.652,1.438,0.095,51.206,-33.237,11.099,119.0,119.0
102924,1.129,2.000,0.424,10.473,0.473,11.664,123.0,118.0
103008,0.406,1.497,0.187,-17.947,16.008,-4.634,118.0,124.0
103095,-0.193,0.156,-0.215,-81.855,-29.015,-35.687,111.0,169.0
103181,-0.089,0.028,-0.315,-56.763,-109.321,-33.344,111.0,170.0
103265,0.328,1.725,0.058,-68.237,-198.275,-30.687,23.0,149.0
103351,1.174,2.000,-0.073,-77.290,-116.145,-5.634,120.0,143.0
103431,0.566,1.158,0.135,-61.947,-90.443,34.489,26.0,148.0
103512,0.326,-0.310,0.055,-108.313,-32.496,10.290,25.0,153.0
103598,0.356,0.127,-0.177,0.122,-24.550,36.679,113.0,162.0
103678,0.426,1.125,0.083,84.733,-64.580,14.817,25.0,147.0
103759,1.238,1.810,0.304,25.595,-18.962,-3.702,24.0,155.0
103840,0.365,1.537,0.385,-44.672,6.328,-17.939,27.0,158.0
103929,-0.222,0.415,-0.246,-62.237,-70.710,-36.107,115.0,164.0
104018,0.320,-0.014,-0.144,-47.802,-102.046,-46.947,115.0,0.0
104102,0.246,1.752,0.090,-36.023,-166.031,-5.542,25.0,0.0
104185,0.578,1.769,0.218,-84.466,-94.191,-18.420,24.0,0.0
104269,0.441,0.651,0.178,-86.153,-76.206,3.038,25.0,0.0
104347,0.237,0.144,-0.209,-15.160,-36.863,15.786,24.0,105.0
104430,0.229,0.046,0.043,-43.282,-16.733,28.389,23.0,0.0
104514,0.845,2.000,0.048,132.878,-49.710,25.473,27.0,0.0
104592,0.531,1.723,0.304,-27.534,21.183,-35.473,28.0,94.0
104678,-0.045,0.830,0.085,-47.924,-18.084,-52.427,122.0,96.0
104761,-0.216,0.004,-0.087,-87.206,-70.168,-82.321,122.0,100.0
104845,-0.231,0.692,-0.177,-41.069,-132.038,-84.580,30.0,0.0
104924,-0.155,1.845,-0.124,68.527,-216.557,-59.237,32.0,107.0
105009,0.377,1.491,-0.174,-25.260,-146.282,-64.748,38.0,0.0
105093,0.055,0.613,0.098,-22.183,-94.931,-65.130,37.0,0.0
105177,0.317,0.320,0.115,-9.687,-14.977,29.084,39.0,0.0
105255,0.202,0.488,0.267,-53.534,22.275,29.496,44.0,103.0
105337,-0.306,2.000,-0.116,67.351,-32.672,-2.015,41.0,103.0
105416,-0.206,1.528,-0.067,-39.511,-31.924,-22.550,41.0,101.0
105501,-0.242,0.328,0.119,-35.214,-47.908,-40.069,41.0,0.0
105585,-0.195,-0.001,0.097,32.962,-66.374,-17.176,39.0,0.0
105664,-0.632,0.500,0.101,9.634,-177.588,-66.237,41.0,100.0
105750,-0.880,2.000,-0.813,132.168,-174.779,67.458,57.0,0.0
105835,0.053,0.802,-0.129,-103.695,-91.580,-7.443,42.0,0.0
105919,0.222,-0.007,0.095,76.053,-94.069,-4.985,41.0,0.0
106009,0.213,0.180,-0.030,115.153,-44.733,44.466,134.0,0.0
106091,-0.214,1.220,-0.187,62.420,-28.809,19.145,51.0,102.0
106177,-0.509,2.000,-0.763,89.908,-70.198,58.466,52.0,0.0
106261,-0.368,0.938,-0.115,37.260,-70.443,30.382,143.0,96.0
106345,-0.301,0.525,-0.165,7.595,-91.450,7.962,139.0,99.0
106430,-0.358,0.009,0.036,-13.366,-197.099,76.550,139.0,98.0
106514,-0.567,1.990,-0.850,11.580,-250.137,167.420,142.0,95.0
106599,0.162,1.849,-0.613,3.427,-64.519,234.656,137.0,101.0
106684,0.141,0.099,-0.245,106.008,-123.542,111.542,130.0,110.0
106771,0.294,-0.530,0.050,-7.137,-30.809,40.427,128.0,111.0
106856,0.261,0.149,-0.359,-5.786,-54.832,42.290,132.0,107.0
106945,0.498,1.503,-1.056,40.740,-41.153,22.687,138.0,191.0
107033,0.459,1.434,-0.643,4.534,-16.748,-1.328,139.0,160.0
107118,0.069,0.403,-0.188,-24.458,27.885,-11.580,133.0,111.0
107204,-0.352,0.103,-0.142,-56.115,-66.519,101.649,132.0,119.0
107289,0.398,1.396,-1.015,20.382,-113.221,53.748,141.0,107.0
107376,0.539,1.551,-0.856,-31.786,-78.618,25.031,183.0,108.0
107464,0.429,0.747,-0.235,-20.557,-57.443,48.458,131.0,111.0
107549,0.137,-0.018,-0.089,-37.809,-17.840,43.405,129.0,113.0
107634,0.243,0.434,-0.701,23.962,-40.176,44.878,133.0,108.0
107718,0.601,1.381,-1.040,26.252,10.244,1.321,138.0,84.0
107802,0.373,1.557,-0.968,18.275,-2.481,28.443,158.0,80.0
107887,0.146,0.808,-0.359,-35.969,-5.878,6.672,160.0,80.0
107970,-0.205,0.089,-0.203,-81.321,-6.824,31.366,132.0,83.0
108056,-0.106,0.609,-0.794,-29.931,-74.328,82.763,133.0,115.0
108140,0.516,1.462,-0.982,-3.321,-72.015,9.519,148.0,88.0
108227,0.488,0.969,-0.533,-16.557,-73.550,43.031,135.0,89.0
108313,0.336,-0.022,-0.172,-47.733,-67.374,52.733,133.0,133.0
108401,0.421,0.125,-0.395,-11.282,-22.992,48.084,147.0,136.0
108492,0.438,1.210,-1.199,8.595,-5.595,55.176,160.0,197.0
108582,0.374,1.187,-1.048,-16.336,-1.328,32.702,159.0,185.0
108672,0.032,0.532,-0.481,-59.038,-14.176,24.649,141.0,174.0
108762,-0.035,0.430,-0.394,-65.366,-31.695,65.328,141.0,185.0
108851,0.407,1.514,-0.982,-2.420,-70.313,54.618,137.0,178.0
108943,0.726,0.969,-0.362,-49.931,-40.397,19.160,131.0,175.0
109031,0.481,0.470,-0.346,-20.931,-42.031,65.550,138.0,158.0
109118,0.057,-0.270,0.349,-69.427,-14.954,64.634,135.0,138.0
109206,0.718,1.144,-1.093,24.939,-50.481,54.420,180.0,129.0
109296,0.928,1.479,-0.797,-21.130,2.153,67.748,0.0,124.0
109383,0.752,1.424,-0.588,-41.580,-46.802,-46.771,152.0,123.0
109472,0.193,0.491,-0.296,-81.458,-33.130,19.321,156.0,162.0
109560,-0.112,0.246,-0.344,-83.084,-80.824,69.908,136.0,166.0
109647,0.673,1.373,-0.786,-98.557,-94.863,93.053,152.0,123.0
109736,0.952,1.057,-0.369,-102.649,-84.695,26.718,131.0,125.0
109828,0.312,-0.012,-0.184,-45.840,-153.595,-4.878,145.0,0.0
109914,0.403,-0.458,0.206,-49.664,-59.122,14.740,135.0,114.0
110005,0.475,0.405,-0.597,-18.305,-39.672,19.023,147.0,0.0
110089,0.913,1.586,-1.133,5.763,-0.489,30.359,139.0,99.0
110176,0.292,0.818,-0.088,0.351,-22.328,-82.702,144.0,130.0
110260,-0.243,0.127,-0.023,-83.840,-18.061,-9.298,132.0,96.0
110351,0.001,0.861,-0.668,-92.565,-61.901,78.527,133.0,0.0
110438,0.519,2.000,-1.028,-32.702,-87.519,49.481,136.0,94.0
110523,0.460,1.658,-0.898,-7.275,-98.725,37.122,134.0,110.0
110609,0.323,-0.292,0.132,-10.374,-94.336,-20.008,130.0,117.0
110699,0.323,-0.248,0.127,-103.260,-24.893,-13.695,131.0,0.0
110789,0.534,1.199,-1.162,5.817,-0.183,34.511,137.0,0.0
110875,0.179,2.000,-1.220,4.802,56.542,-8.313,140.0,114.0
110966,0.072,1.009,-0.394,10.198,7.420,-45.008,134.0,115.0
111051,-0.082,0.283,-0.166,-122.702,18.687,-64.847,129.0,124.0
111142,-0.149,-0.295,-0.074,-140.321,-63.725,-61.321,131.0,0.0
111233,-1.352,2.000,-0.809,67.450,-212.893,-250.137,143.0,0.0
111323,-0.441,1.784,-0.508,91.412,-66.427,-1.000,145.0,0.0
111413,0.352,0.410,0.153,-25.160,-69.527,-26.061,139.0,0.0
111503,0.393,0.183,0.249,-50.298,7.740,-17.901,154.0,0.0
111594,-0.663,0.922,-0.008,-23.916,11.489,-64.374,163.0,0.0
111687,-1.712,1.427,-0.406,-20.336,-36.962,-34.481,0.0,0.0
111780,-0.745,0.577,-0.138,14.565,-20.267,-30.435,0.0,0.0
111874,-0.121,0.186,-0.024,-47.069,-8.687,-59.160,0.0,0.0
111967,-0.667,-0.042,0.102,-12.122,-56.733,-8.366,157.0,0.0
112060,-2.000,1.248,-0.214,237.603,-182.145,62.336,0.0,0.0
112146,-0.692,1.150,-0.202,101.573,-88.206,100.115,188.0,91.0
112231,0.072,0.384,0.020,58.595,-100.786,9.176,157.0,97.0
112316,0.253,0.155,0.091,64.206,-72.626,19.145,160.0,97.0
112395,0.186,0.453,0.193,10.130,-20.756,42.321,58.0,91.0
112479,-1.644,2.000,-0.507,64.939,-17.412,98.550,157.0,86.0
112558,-0.693,1.152,-0.129,-18.969,-5.275,101.786,48.0,91.0
112645,-0.303,0.221,-0.012,-41.534,-7.832,-14.557,146.0,98.0
112723,-0.143,-0.436,-0.046,-34.221,-39.023,-73.053,45.0,98.0
112807,-0.954,-0.152,0.050,97.130,-109.435,-79.878,158.0,88.0
112893,-1.509,2.000,-0.485,113.366,-177.870,72.519,172.0,87.0
112977,-0.243,0.711,0.021,-32.885,-108.580,-27.443,148.0,93.0
113062,0.346,0.072,0.202,120.718,-67.053,-31.031,157.0,97.0
113148,0.203,0.174,0.259,-10.481,-37.275,3.053,176.0,93.0
113235,-1.205,1.281,0.016,185.115,-63.244,-4.489,0.0,86.0
113321,-1.938,1.997,-0.616,-100.977,-102.115,2.473,0.0,85.0
113412,-0.813,0.317,0.346,68.321,-127.374,31.382,0.0,93.0
113497,-0.680,0.505,0.480,-40.924,-225.206,85.000,158.0,99.0
113582,-1.022,1.145,0.464,-80.435,-250.137,191.893,133.0,107.0
113670,-0.702,1.372,0.917,-237.718,-212.802,70.099,111.0,0.0
113761,0.044,0.614,0.785,-158.382,-198.786,71.687,152.0,0.0
113845,0.197,-0.499,0.068,201.237,-207.176,49.504,37.0,0.0
113931,-0.021,0.926,-0.760,-250.137,-5.847,-39.405,76.0,0.0
114017,0.479,-0.692,0.611,-6.344,-62.450,24.458,69.0,0.0
114105,1.262,0.198,0.763,-97.443,5.313,-31.527,67.0,0.0
114191,0.614,0.198,0.835,-65.656,-1.618,-25.382,67.0,0.0
114277,0.238,0.267,0.616,-79.038,-25.458,-43.206,65.0,0.0
114362,0.628,-0.220,0.624,-131.748,-23.145,-44.786,62.0,0.0
114447,1.436,0.144,1.108,-63.870,13.611,-87.756,60.0,0.0
114533,0.970,0.343,0.771,-81.603,-6.115,-68.939,65.0,0.0
114624,0.619,0.285,0.179,-41.679,-22.954,-59.046,167.0,0.0
114710,0.284,0.237,0.146,-37.015,-32.695,-40.664,63.0,0.0
114795,1.122,0.179,0.624,-12.962,13.305,-7.374,61.0,0.0
114884,0.690,0.230,1.184,-1.786,11.046,-15.046,61.0,0.0
114969,0.322,0.485,0.501,-9.214,-18.344,-38.695,62.0,0.0
115055,0.108,0.401,0.171,-74.641,-39.198,-4.626,64.0,0.0
115140,0.732,-0.160,0.609,-171.038,-14.580,-35.618,63.0,0.0
115226,0.830,0.261,1.066,-95.328,5.046,-88.122,64.0,0.0
115312,0.930,0.265,0.823,13.244,-39.237,-34.458,66.0,0.0
115398,0.759,0.004,0.449,-77.450,-24.076,-22.092,71.0,0.0
115483,0.711,-0.120,0.337,-66.832,-65.580,12.550,62.0,0.0
115575,1.141,-0.779,0.481,-30.084,-69.634,17.160,168.0,0.0
115663,1.472,-0.390,1.090,-102.206,20.511,-42.939,61.0,0.0
115749,0.693,0.557,0.665,-42.153,-7.756,-9.679,63.0,0.0
115843,-0.014,0.011,0.549,-55.771,-22.107,-28.000,0.0,0.0
115936,0.502,0.433,0.404,39.756,-80.443,36.519,0.0,0.0
116022,1.311,-0.558,0.821,-147.053,20.885,-64.679,61.0,0.0
116107,1.172,-0.141,0.568,-93.992,-3.718,-50.985,58.0,0.0
116193,0.280,0.042,0.073,-50.710,-6.450,-17.092,58.0,0.0
116278,0.076,0.029,0.032,47.771,-18.878,-33.534,57.0,0.0
116366,0.925,-0.432,0.425,-39.214,2.176,-12.305,57.0,0.0
116452,1.293,0.625,1.178,-89.802,68.336,-64.786,59.0,0.0
116537,0.818,0.040,1.219,53.824,-32.252,-49.924,61.0,0.0
116627,-0.273,0.530,0.262,-52.962,-19.557,-8.908,126.0,0.0
116712,0.501,-0.397,0.656,-74.641,-49.527,-25.832,60.0,0.0
116798,1.700,-0.222,1.152,-160.191,18.679,-96.298,61.0,201.0
116891,1.205,-0.280,0.723,-65.718,1.443,-77.313,0.0,196.0
116977,0.399,0.457,-0.064,-51.061,-4.969,-63.832,64.0,191.0
117062,0.508,0.400,0.087,-7.015,-27.603,31.832,61.0,187.0
117149,1.180,0.097,0.334,57.015,-9.382,62.420,59.0,185.0
117234,1.361,0.079,1.120,-40.137,66.115,-22.695,62.0,182.0
117319,0.496,0.166,1.558,0.885,5.702,-28.084,64.0,177.0
117403,-0.306,0.619,0.458,-12.031,-45.840,2.489,64.0,174.0
117487,0.217,-0.175,0.549,-209.916,5.489,-53.733,61.0,174.0
117571,1.414,-0.406,0.919,25.786,-23.656,-56.115,62.0,172.0
117656,0.975,0.058,0.734,-179.985,34.145,-78.351,65.0,169.0
117742,0.381,-0.262,0.401,6.702,-25.412,-62.725,65.0,0.0
117828,0.150,0.659,-0.089,-25.282,-42.855,-14.122,65.0,0.0
117917,1.278,-0.438,0.479,0.710,2.969,10.206,63.0,0.0
118002,0.978,-0.269,1.604,-58.947,26.450,-95.298,64.0,0.0
118089,0.399,1.619,0.450,46.061,-16.069,-27.427,73.0,0.0
118175,-0.195,-0.064,0.362,-178.076,47.634,-40.008,72.0,0.0
118262,0.767,0.568,0.566,76.260,-51.031,-11.969,71.0,0.0
118348,0.825,-0.904,1.883,-149.824,11.160,-95.321,70.0,0.0
118434,1.031,0.986,0.335,-108.214,22.405,-96.412,71.0,0.0
118521,0.111,-0.579,0.516,54.443,-37.702,-54.229,73.0,0.0
118610,0.132,0.028,0.383,-92.183,-10.916,-53.519,77.0,0.0
118697,0.728,0.330,0.611,4.427,-2.542,-20.557,76.0,0.0
118785,0.847,0.134,1.494,-58.611,62.282,-81.183,87.0,0.0
118873,0.394,0.445,1.262,32.809,-14.985,-59.634,84.0,0.0
118964,-0.270,-0.420,0.681,-190.260,26.763,-94.496,159.0,0.0
119053,0.133,0.372,0.647,9.954,-19.916,-103.458,111.0,0.0
119141,0.571,-0.150,1.266,-212.160,51.443,-126.336,110.0,0.0
119230,0.367,0.271,0.805,-71.267,83.260,-87.870,111.0,0.0
119319,-0.011,-0.011,0.361,93.748,34.908,-45.634,112.0,0.0
119406,0.074,0.440,0.106,157.733,24.092,-22.779,39.0,0.0
119491,0.139,0.634,0.694,88.550,61.115,-18.847,44.0,0.0
119580,-0.481,0.763,1.646,173.282,92.664,-82.137,108.0,0.0
119660,-0.846,1.258,0.486,221.802,99.748,-145.076,51.0,106.0
119752,-0.484,0.757,0.108,75.092,92.779,-184.458,180.0,0.0
119846,-0.395,0.231,0.412,-48.687,32.885,-120.260,0.0,0.0
119941,-1.939,0.709,0.313,115.305,39.962,-123.901,0.0,0.0
120034,-1.233,0.654,0.228,66.718,1.351,-19.183,0.0,0.0
120120,-0.509,0.571,0.117,134.450,-10.458,-18.687,57.0,0.0
120216,0.157,0.585,0.243,64.382,13.740,25.412,0.0,182.0
120301,-0.613,0.562,0.302,-72.527,40.916,-3.756,51.0,193.0
120395,-2.000,0.387,-0.101,-40.153,-42.053,53.374,0.0,0.0
120489,-1.292,0.375,-0.133,16.427,-16.206,108.588,0.0,0.0
120583,-0.260,0.043,0.014,-25.580,6.244,27.939,0.0,0.0
120677,-0.387,-0.217,-0.128,-26.626,-24.916,15.290,0.0,0.0
120771,-1.092,0.177,-0.094,127.924,-73.153,-24.137,0.0,0.0
120865,-1.848,1.469,0.072,112.160,-48.649,20.496,0.0,0.0
120963,-0.740,0.690,0.162,39.985,-29.947,35.740,0.0,0.0
121056,-0.006,0.420,0.093,65.511,-7.847,59.618,196.0,0.0
121150,0.182,0.269,0.115,-25.214,35.038,68.183,192.0,0.0
121241,-0.859,2.000,-0.655,-46.351,98.290,-3.611,167.0,0.0
121332,-1.957,1.350,-0.198,-113.237,45.924,156.595,150.0,0.0
121412,-0.552,0.826,-0.342,118.756,52.122,250.130,43.0,107.0
121492,-0.444,-2.000,0.471,-250.137,-2.000,-78.053,32.0,116.0
121577,-0.186,1.589,-0.048,81.046,-144.481,135.939,30.0,0.0
121661,0.262,1.699,-0.036,-180.405,-94.947,46.649,24.0,0.0
121753,0.462,1.119,0.405,32.214,-56.687,-23.214,116.0,0.0
121837,0.475,0.154,-0.110,-172.519,-38.565,-17.053,24.0,0.0
121922,0.279,0.042,-0.213,-10.160,8.550,-0.153,25.0,0.0
122006,0.397,1.852,0.181,82.779,-11.099,4.374,23.0,0.0
122095,0.268,1.602,0.689,2.382,-13.901,-3.450,23.0,0.0
122172,-0.024,1.019,0.156,-50.656,-21.786,-27.672,23.0,92.0
122255,-0.063,0.074,-0.184,-83.947,-81.405,-71.176,23.0,0.0
122341,0.139,1.184,-0.052,-0.969,-148.053,-56.550,27.0,120.0
122421,0.490,1.871,0.233,38.695,-118.992,41.122,22.0,83.0
122504,0.114,1.154,0.541,-54.817,-89.718,-23.473,22.0,0.0
122587,0.046,0.329,0.083,-106.183,-74.595,-32.115,22.0,0.0
122670,0.222,0.178,-0.069,-3.191,-62.229,15.626,23.0,0.0
122746,0.504,1.103,0.183,103.740,-2.344,17.893,22.0,85.0
122821,-0.224,2.000,0.942,-13.405,52.344,10.176,23.0,71.0
122904,0.051,1.548,0.450,-7.031,3.962,-5.237,23.0,0.0
122987,-0.467,0.222,-0.078,-59.053,-55.382,-26.985,21.0,0.0
123066,0.056,0.280,-0.185,-60.809,-118.252,-37.588,21.0,121.0
123147,-0.027,2.000,0.190,98.130,-131.679,-0.244,22.0,119.0
123225,0.223,1.267,0.505,-109.672,-105.947,-71.145,20.0,115.0
123308,0.222,1.108,0.305,-44.542,-99.244,11.099,21.0,0.0
123390,0.090,-0.347,0.085,-69.985,-59.656,7.191,22.0,0.0
123470,0.450,0.592,-0.039,46.382,10.527,19.580,21.0,139.0
123549,0.671,1.556,0.245,65.168,77.534,30.000,26.0,128.0
123625,0.226,1.852,0.524,46.183,5.214,18.763,26.0,80.0
123702,0.016,0.729,0.264,-64.290,30.137,-15.107,26.0,79.0
123778,-0.049,0.178,-0.055,-19.237,-21.634,-28.252,22.0,80.0
123856,-0.181,1.109,-0.094,-42.550,-93.702,-56.229,25.0,74.0
123939,0.090,1.789,0.196,-26.664,-95.779,-64.550,122.0,90.0
124018,0.254,1.571,0.542,-3.870,-128.053,1.985,22.0,118.0
124096,0.036,0.362,0.353,-97.458,-89.076,-4.198,23.0,123.0
124175,0.087,-0.087,-0.146,-104.672,-76.450,1.351,22.0,124.0
124254,0.353,0.570,0.293,58.153,-58.565,-6.542,24.0,120.0
124333,0.455,2.000,0.540,5.580,-43.221,11.969,25.0,115.0
124410,0.338,1.487,0.706,18.992,-13.893,-13.382,26.0,116.0
124492,0.024,0.625,0.490,-31.695,53.550,-35.496,25.0,120.0
124571,-0.255,0.166,-0.231,-114.405,-76.237,1.580,23.0,121.0
124650,-0.251,0.813,0.203,5.336,-144.122,-83.634,30.0,114.0
124728,0.245,2.000,0.741,-31.069,-89.321,-76.817,25.0,115.0
124807,0.102,1.369,0.701,-37.763,-111.183,16.863,24.0,120.0
124886,-0.087,0.145,0.222,-111.580,-97.756,-22.092,22.0,126.0
124965,0.146,-0.197,-0.120,-20.481,-101.649,-25.519,23.0,128.0
125044,0.292,1.174,0.654,36.649,-4.992,26.023,23.0,122.0
125123,0.002,1.357,0.999,-83.954,-37.641,-25.389,23.0,121.0
125205,0.305,1.588,0.784,-11.405,-3.115,-0.947,22.0,123.0
125285,-0.366,0.300,0.401,-53.611,-35.443,-20.145,22.0,149.0
125365,-0.537,0.398,0.034,-33.924,-56.840,-119.092,18.0,141.0
125445,0.357,1.148,0.863,20.267,-89.786,-96.931,36.0,125.0
125523,0.111,1.440,1.491,-22.481,-107.489,-63.069,22.0,123.0
125607,0.455,0.641,0.761,-113.733,-103.313,-41.305,43.0,0.0
125690,0.267,0.104,0.152,53.702,-62.260,-5.527,18.0,0.0
125773,0.190,-0.001,0.321,-38.000,-46.015,3.145,16.0,0.0
125869,0.445,1.631,0.557,42.756,-6.198,14.740,29.0,0.0
125950,0.547,1.532,1.028,-11.053,9.496,3.145,23.0,125.0
126035,0.189,0.419,0.577,-87.962,-2.405,-6.969,21.0,0.0
126132,-0.205,0.042,0.052,-18.084,-60.649,-93.351,0.0,0.0
126227,0.614,0.440,0.240,-162.229,-66.000,-75.435,0.0,0.0
126309,0.237,2.000,0.746,138.466,-90.496,-41.786,22.0,121.0
126390,0.173,0.704,0.766,-91.924,-78.580,-97.092,22.0,124.0
126481,0.365,0.201,0.167,45.015,-59.481,-17.710,0.0,125.0
126563,0.310,-0.122,0.126,-33.916,-19.618,22.076,21.0,123.0
126648,0.370,1.042,0.806,55.046,-62.321,-5.504,37.0,115.0
126728,0.157,1.902,0.312,186.779,-103.603,-67.519,29.0,108.0
126810,0.194,1.495,0.101,2.366,-42.382,-88.679,39.0,107.0
126891,-0.054,0.448,0.210,-83.511,-34.718,-109.847,33.0,107.0
126972,-0.298,0.358,0.187,-89.733,-84.305,-52.656,37.0,106.0
127058,-0.361,2.000,0.602,-198.496,-174.687,-83.298,38.0,0.0
127154,-0.612,1.003,1.162,-173.878,-108.359,-89.435,179.0,0.0
127249,0.063,0.429,0.462,-113.771,-47.405,-47.214,182.0,0.0
127339,0.195,-0.182,0.306,-119.153,-36.214,-15.832,57.0,0.0
127435,0.141,0.143,1.154,-116.672,-47.786,-17.267,0.0,0.0
127532,-0.229,0.233,1.605,-3.962,-30.244,-43.611,0.0,0.0
127628,0.011,0.036,1.157,-2.656,20.328,-37.305,0.0,0.0
127714,-0.136,0.092,0.546,-2.687,-4.130,-50.672,32.0,0.0
127809,-0.159,-0.031,0.617,-48.176,-26.824,-78.939,0.0,0.0
127895,-0.670,0.269,1.333,73.344,-36.107,-132.718,14.0,0.0
127980,-0.247,0.254,1.189,83.893,3.053,-143.595,8.0,0.0
128065,0.135,0.571,0.402,198.092,-2.313,-134.046,13.0,0.0
128154,0.328,0.251,-0.008,200.321,-18.244,-93.336,28.0,0.0
128241,0.260,0.370,0.296,250.130,18.901,-59.336,36.0,0.0
128328,-1.894,2.000,0.040,250.130,-23.427,-136.672,51.0,0.0
128421,-0.481,1.419,-0.094,83.443,-10.275,-59.351,159.0,0.0
128515,-0.289,0.163,-0.148,-62.725,-24.611,-81.198,0.0,143.0
128607,-0.206,-0.294,-0.079,11.435,-122.466,-42.542,187.0,145.0
128700,-2.000,1.309,-0.409,226.053,-224.382,-24.786,0.0,140.0
128791,-0.919,1.568,-0.391,194.328,-57.702,56.786,183.0,143.0
128888,0.053,0.653,0.075,-31.756,-61.641,-42.672,0.0,151.0
128982,0.493,0.076,0.311,11.573,-1.901,11.603,0.0,159.0
129076,-0.545,0.723,0.157,11.969,18.527,-1.351,0.0,164.0
129170,-2.000,1.064,-0.504,150.397,5.260,-12.542,0.0,172.0
129265,-0.914,0.154,-0.429,44.740,-36.275,-8.382,0.0,185.0
129361,-0.576,0.158,0.228,232.847,-106.855,-250.137,0.0,0.0
129458,-0.921,-1.379,0.614,150.649,-9.763,24.244,0.0,0.0
129554,-1.914,-0.406,0.046,15.824,18.870,59.427,0.0,0.0
129650,-0.558,0.642,0.044,-14.794,-11.000,-5.244,0.0,0.0
129750,0.074,0.682,-0.112,-53.847,-3.939,3.336,0.0,0.0
129846,-1.541,-0.100,-0.519,-12.069,23.878,54.397,0.0,0.0
129942,-2.000,-0.111,0.100,23.641,-10.198,-33.534,0.0,0.0
130038,-0.935,-0.070,-0.156,-107.260,-15.290,-23.580,0.0,0.0
130135,0.038,-0.638,-0.036,61.130,-23.595,56.000,0.0,0.0
130230,-1.544,-0.395,-0.021,150.405,-14.260,-1.695,0.0,0.0
130326,-1.965,0.639,0.032,105.244,-28.275,-42.008,0.0,0.0
130422,-0.634,0.677,-0.144,67.985,-19.656,3.282,0.0,0.0
