Timestamp(ms),AccelX(g),AccelY(g),AccelZ(g),GyroX(deg/s),GyroY(deg/s),GyroZ(deg/s),DistanceLeft(cm),DistanceRight(cm)
166036,-0.053,0.022,1.016,0.069,-2.878,0.962,0.0,154.0
166126,-0.057,0.024,1.008,0.221,-1.679,-0.031,0.0,154.0
166216,-0.049,0.039,1.008,-0.634,-1.183,0.046,0.0,154.0
166306,-0.052,0.038,1.007,0.939,1.130,0.153,0.0,154.0
166395,-0.046,0.032,1.018,1.458,0.405,0.618,0.0,154.0
166486,-0.052,0.029,1.024,-0.374,0.008,-0.076,0.0,154.0
166576,-0.044,0.034,1.017,-2.084,1.237,-1.290,0.0,153.0
166669,-0.057,0.044,0.999,1.130,4.977,0.359,0.0,153.0
166759,-0.056,0.026,1.018,-3.153,2.962,-2.298,0.0,154.0
166849,-0.054,0.044,1.006,0.496,3.786,-0.244,0.0,153.0
166939,-0.061,0.031,0.993,4.008,8.817,2.252,0.0,153.0
167029,-0.074,0.025,0.985,14.565,18.794,5.344,0.0,154.0
167119,0.000,0.018,0.787,44.244,51.198,14.282,0.0,155.0
167211,-0.206,-0.040,0.506,191.244,137.786,-1.534,0.0,154.0
167300,-0.673,0.055,0.484,160.626,188.786,-78.420,0.0,139.0
167387,-1.296,0.187,-0.052,250.130,145.244,-135.366,0.0,91.0
167476,-1.525,0.427,-0.216,250.130,41.160,-194.809,0.0,77.0
167562,-1.350,0.624,-0.262,85.214,6.099,-141.519,0.0,67.0
167647,-1.097,0.413,-0.125,-51.008,14.977,-89.962,0.0,61.0
167732,-0.980,0.259,-0.017,-57.603,13.527,-35.916,0.0,60.0
167818,-0.882,0.268,-0.002,4.153,-2.092,4.443,0.0,61.0
167903,-0.927,0.402,-0.100,6.023,-11.847,49.893,0.0,66.0
167989,-1.084,0.352,-0.233,-48.969,-12.244,83.794,0.0,75.0
168076,-0.999,0.297,-0.172,-56.237,-7.351,103.687,0.0,86.0
168164,-0.916,0.274,-0.147,-64.954,-3.702,90.824,0.0,99.0
168255,-0.862,0.243,-0.136,-43.458,2.221,55.069,0.0,112.0
168344,-0.886,0.237,-0.161,-31.359,5.702,12.214,0.0,123.0
168433,-1.093,0.306,-0.040,18.137,5.130,-83.511,0.0,129.0
168522,-1.073,0.185,0.118,-1.008,5.748,-78.053,0.0,134.0
168612,-1.203,0.042,0.057,-14.534,1.053,-65.275,0.0,139.0
168702,-0.797,0.202,0.122,10.061,9.756,-58.214,0.0,145.0
168794,-0.536,0.300,0.196,-12.069,28.206,-74.527,0.0,152.0
168885,-0.400,0.431,0.101,1.603,70.809,-66.786,0.0,163.0
168977,-0.075,0.164,0.178,-103.466,19.947,-22.046,0.0,179.0
169073,-1.166,0.421,-0.340,68.115,-61.099,-16.641,0.0,197.0
169158,-2.000,-0.065,-1.171,-126.962,-14.145,250.130,0.0,66.0
169246,-1.782,-0.719,-0.753,-36.160,13.985,108.405,0.0,101.0
169334,-1.194,-0.437,-0.231,100.260,-2.893,-101.870,0.0,97.0
169424,-0.927,0.415,-0.143,40.244,0.099,-77.855,0.0,136.0
169515,-1.462,0.076,-0.355,28.397,5.550,-102.794,0.0,154.0
169607,-1.193,-0.408,-0.339,38.450,28.351,-8.092,0.0,163.0
169700,-0.771,0.071,-0.210,103.229,-12.931,7.756,0.0,0.0
169796,-0.381,0.440,-0.064,28.679,7.168,-3.244,0.0,0.0
169889,-0.327,0.249,0.132,-14.412,-0.740,30.450,0.0,0.0
169982,-1.920,0.439,-0.427,3.443,-37.878,63.580,0.0,0.0
170076,-1.786,0.036,-0.462,-85.229,-23.992,203.366,190.0,0.0
170170,-0.639,0.113,-0.172,0.076,-6.679,161.901,0.0,0.0
170263,-0.384,-0.298,-0.065,-27.023,-27.427,42.672,0.0,0.0
170356,-0.751,-0.083,-0.037,100.206,-73.733,-45.733,0.0,0.0
170450,-1.443,0.354,-0.123,145.160,-88.473,-135.947,0.0,0.0
170544,-1.349,0.437,-0.149,108.015,-22.061,-144.664,0.0,0.0
170641,-0.990,0.065,-0.059,53.176,-36.649,-84.160,0.0,0.0
170732,-0.716,0.177,-0.158,182.145,-10.000,12.084,171.0,0.0
170824,-0.735,0.328,-0.210,123.634,5.107,34.450,172.0,0.0
170915,-0.918,0.213,-0.136,92.611,29.260,15.344,174.0,186.0
171004,-1.003,0.192,-0.190,101.573,22.145,12.008,123.0,183.0
171096,-1.049,0.162,-0.192,123.351,-3.099,23.344,177.0,184.0
171190,-1.028,0.267,-0.321,167.359,-28.840,8.542,0.0,0.0
171283,-0.803,0.354,-0.322,138.115,-28.710,7.832,0.0,0.0
171378,-0.670,0.272,-0.162,122.618,-42.336,-3.740,0.0,183.0
171469,-0.869,0.029,-0.124,94.023,-52.718,28.290,0.0,154.0
171560,-1.103,0.131,-0.077,118.130,-47.481,25.336,0.0,146.0
171650,-1.639,0.281,0.065,90.702,-50.725,-28.473,0.0,122.0
171740,-2.000,-0.276,0.434,98.137,-162.947,-0.061,0.0,131.0
171829,-1.146,0.292,-0.066,95.641,-158.321,70.473,0.0,120.0
171917,-0.563,-0.503,-0.517,89.817,-129.008,25.267,0.0,111.0
172006,-0.135,0.456,0.034,-62.504,-95.924,42.588,0.0,106.0
172094,-0.218,-0.042,-0.492,60.115,-185.962,80.061,0.0,101.0
172186,0.355,0.745,0.665,250.130,-213.076,164.489,0.0,111.0
172279,2.000,2.000,1.489,2.611,0.145,48.038,0.0,0.0
172374,1.091,1.095,0.871,-16.855,15.649,-17.046,0.0,0.0
172467,0.321,0.459,0.234,-124.611,44.740,-28.145,0.0,0.0
172556,0.384,-0.016,0.474,-70.359,53.427,9.908,0.0,118.0
172645,0.178,0.513,0.415,-60.168,26.473,-3.992,0.0,117.0
172734,0.635,0.789,0.805,37.824,19.031,29.695,0.0,116.0
172822,0.082,1.111,0.779,-23.573,105.527,-22.252,0.0,118.0
172912,-0.253,0.496,0.683,-47.176,136.008,-53.206,0.0,122.0
173005,-0.338,0.090,0.241,-139.000,128.954,-3.344,0.0,127.0
173094,-0.311,0.010,0.182,-51.786,184.046,18.366,0.0,128.0
173184,-1.268,0.269,0.062,-3.038,199.489,-66.702,0.0,112.0
173272,-2.000,0.194,-0.257,-32.855,169.679,-83.481,0.0,111.0
173351,-2.000,-0.213,0.142,14.412,84.168,31.145,35.0,111.0
173441,-1.351,-0.009,0.062,157.511,36.359,41.595,0.0,106.0
173529,-1.124,0.280,-0.178,201.565,-8.282,4.626,0.0,100.0
173617,-0.961,0.388,-0.175,86.924,-32.130,-17.046,0.0,99.0
173709,-0.782,0.143,-0.107,-6.198,-49.389,6.786,0.0,114.0
173798,-0.638,-0.018,0.045,102.099,-47.832,37.954,0.0,111.0
173888,-0.581,0.295,-0.127,144.305,-34.137,54.160,0.0,136.0
173982,-0.457,0.224,0.060,58.313,-23.191,38.351,0.0,0.0
174075,-0.592,0.230,0.077,81.176,-7.290,20.107,0.0,0.0
174161,-1.073,0.054,0.209,156.588,-20.695,3.580,0.0,62.0
174247,-1.280,0.541,-0.259,230.092,-22.962,-11.893,0.0,60.0
174333,-0.760,0.474,-0.141,-16.351,-0.427,-17.351,0.0,60.0
174419,-1.264,0.324,-0.189,-55.855,-15.550,3.985,0.0,63.0
174510,-0.970,0.175,-0.010,87.435,-44.115,51.802,0.0,64.0
174596,-0.861,0.497,-0.103,95.443,-29.099,56.740,0.0,65.0
174682,-0.735,0.391,-0.010,10.344,-19.344,28.115,0.0,67.0
174769,-0.922,0.291,0.001,40.542,-29.168,-25.137,0.0,68.0
174855,-1.166,0.231,-0.099,118.855,-57.374,-52.267,0.0,69.0
174949,-1.280,0.358,-0.272,141.115,-45.763,-49.061,0.0,0.0
175040,-0.819,0.403,-0.088,22.985,-14.924,-46.008,0.0,138.0
175130,-0.861,0.155,0.028,-17.435,-27.565,-10.130,0.0,140.0
175225,-0.685,0.177,0.028,145.504,-23.183,24.611,0.0,143.0
175313,-0.777,0.516,-0.046,107.267,5.122,7.550,96.0,0.0
175408,-0.842,0.460,0.087,-35.595,31.046,-32.954,0.0,0.0
175502,-0.944,0.293,0.155,-57.855,32.519,-43.511,194.0,0.0
175596,-1.410,0.293,-0.016,15.389,5.252,-12.863,187.0,0.0
175689,-1.206,0.182,-0.159,-22.351,-22.687,98.687,180.0,0.0
175781,-0.894,0.287,-0.137,-2.458,-12.206,103.534,172.0,0.0
175875,-0.657,0.256,-0.125,-43.664,-8.397,66.489,166.0,0.0
175967,-0.781,0.204,-0.128,21.832,-21.557,-7.679,158.0,0.0
176062,-1.045,0.282,-0.143,80.031,-27.832,-58.389,154.0,0.0
176153,-0.914,0.380,-0.026,88.191,21.550,-112.076,151.0,0.0
176242,-1.172,0.250,-0.084,-73.191,21.420,-44.298,97.0,0.0
176330,-0.839,0.102,0.118,86.260,11.084,2.427,94.0,0.0
176418,-0.844,0.501,-0.033,41.260,12.725,-6.015,91.0,0.0
176506,-0.947,0.316,0.060,-28.534,-1.534,11.084,86.0,0.0
176593,-0.832,0.268,0.104,32.725,-10.260,30.084,79.0,0.0
176680,-1.208,0.532,-0.111,23.733,-9.840,32.260,70.0,0.0
176775,-1.243,0.477,-0.239,-23.634,-13.840,64.702,0.0,0.0
176873,-1.011,0.415,-0.172,-82.183,14.023,111.038,0.0,0.0
176957,-0.664,0.426,-0.160,-61.969,16.702,80.794,163.0,56.0
177038,-0.498,0.406,-0.054,-48.840,17.008,35.473,102.0,57.0
177118,-0.760,0.499,-0.028,14.137,10.534,0.450,97.0,51.0
177198,-0.956,0.745,-0.079,6.947,-5.557,-13.718,93.0,43.0
177276,-1.111,0.803,-0.013,31.260,-13.000,-29.557,89.0,43.0
177355,-0.700,0.699,0.059,-1.962,11.038,-7.183,86.0,45.0
177441,-0.861,0.550,0.009,-74.863,4.267,17.641,81.0,50.0
177529,-0.765,0.307,0.121,14.443,-49.420,32.191,0.0,52.0
177614,-0.522,0.577,0.045,97.198,-41.336,38.458,0.0,52.0
177699,-0.557,0.719,0.098,16.748,-8.656,1.061,0.0,51.0
177783,-0.649,0.624,0.164,9.443,10.786,6.595,0.0,51.0
177868,-0.857,0.762,0.047,16.870,8.137,-6.443,0.0,50.0
177953,-0.979,0.688,-0.093,-14.840,-15.351,-39.344,0.0,52.0
178038,-0.935,0.568,-0.054,23.290,-29.679,-22.221,0.0,55.0
178123,-0.756,0.506,-0.060,31.389,-36.924,-15.817,0.0,50.0
178208,-0.769,0.449,-0.048,37.443,-37.305,-27.160,0.0,52.0
178291,-0.866,0.485,-0.047,57.901,-40.321,-36.389,120.0,51.0
178372,-0.984,0.528,-0.034,54.359,-48.008,-42.298,108.0,62.0
178450,-1.157,0.563,-0.040,72.901,-49.603,-64.366,107.0,31.0
178529,-0.637,0.303,0.084,89.511,-24.618,-36.947,108.0,32.0
178608,-0.838,0.463,-0.022,51.229,5.275,-28.137,106.0,32.0
178686,-0.712,0.185,0.075,42.534,-14.740,-12.992,103.0,34.0
178765,-0.592,0.222,0.022,124.924,-3.267,-12.595,103.0,37.0
178845,-0.836,0.502,0.110,108.916,37.802,-45.603,103.0,58.0
178927,-0.405,0.576,0.206,-7.450,29.695,-25.130,100.0,45.0
179006,1.202,0.160,-0.037,32.153,16.802,52.061,97.0,51.0
179085,-2.000,0.275,-1.796,-9.305,26.740,-44.405,90.0,51.0
179164,-2.000,-0.107,-0.922,1.519,46.748,21.405,85.0,57.0
179243,-1.404,0.234,-0.520,55.779,20.962,-16.611,84.0,57.0
179321,-1.499,0.382,-0.622,-2.748,-4.405,-51.260,83.0,59.0
179400,-1.254,0.138,-0.435,1.756,-18.565,-44.977,83.0,57.0
179479,-0.960,0.090,-0.300,92.260,-34.015,-16.275,84.0,57.0
179558,-0.885,0.042,-0.310,111.244,-44.496,31.550,60.0,71.0
179645,-0.929,0.105,-0.272,49.710,-54.855,57.542,57.0,185.0
179726,-0.717,0.049,-0.124,30.527,-42.595,60.664,52.0,120.0
179807,-0.907,0.085,-0.110,50.305,-21.618,37.786,49.0,127.0
179892,-0.909,0.108,-0.059,41.641,-10.176,30.489,47.0,197.0
179977,-0.773,0.154,0.016,44.611,-3.336,23.985,44.0,198.0
180061,-0.588,0.241,0.007,40.817,1.962,6.191,42.0,0.0
180146,-0.972,0.247,-0.115,35.985,-7.321,-3.099,39.0,0.0
180230,-1.219,0.231,-0.238,24.855,-15.534,14.008,37.0,0.0
180315,-1.191,0.126,-0.278,52.542,-22.046,34.000,36.0,0.0
180402,-0.869,0.087,-0.273,78.267,-27.206,45.458,36.0,0.0
180487,-0.719,0.071,-0.273,97.198,-36.137,39.824,39.0,0.0
180571,-1.017,0.161,-0.345,125.725,-66.664,20.397,43.0,0.0
180657,-1.135,0.224,-0.316,152.718,-91.107,15.122,58.0,0.0
180738,-0.776,0.346,-0.215,157.397,-95.855,0.397,97.0,65.0
180817,-0.791,0.442,-0.156,144.015,-74.534,-46.557,104.0,55.0
180896,-0.752,0.368,-0.082,108.115,-39.008,-50.992,96.0,47.0
180975,-0.789,0.297,-0.031,115.901,-18.641,-35.969,97.0,41.0
181057,-0.942,0.385,-0.043,126.733,-7.977,-39.802,94.0,35.0
181135,-0.855,0.386,0.012,79.061,12.840,-33.481,99.0,31.0
181214,-0.896,0.381,0.067,64.802,31.412,1.725,101.0,30.0
181293,-1.235,0.559,-0.071,4.130,14.374,-0.519,109.0,29.0
181371,-1.094,0.191,-0.063,-22.847,-37.939,54.008,100.0,32.0
181450,-1.028,0.179,-0.098,124.901,-20.809,98.405,104.0,35.0
181535,-0.829,0.527,-0.224,67.198,-6.718,111.069,0.0,43.0
181619,-0.806,0.499,-0.144,-34.702,10.733,61.656,99.0,129.0
181701,-0.675,0.528,0.052,-23.939,6.069,31.458,95.0,105.0
181781,-0.756,0.646,0.011,-19.282,-7.412,6.504,91.0,105.0
181870,-1.009,0.534,-0.007,-23.115,-21.069,-14.626,0.0,106.0
181956,-1.310,0.402,-0.065,12.779,-38.420,-32.916,0.0,58.0
182042,-0.819,0.341,-0.002,35.427,-29.015,-33.611,0.0,68.0
182135,-0.847,0.442,-0.020,-31.985,-8.015,-39.565,0.0,187.0
182222,-0.798,0.236,0.062,26.260,-21.053,-50.298,0.0,74.0
182308,-0.750,0.443,0.030,59.695,-9.603,-34.046,0.0,73.0
182396,-0.805,0.475,0.178,3.015,-9.015,-14.076,0.0,85.0
182488,-0.655,0.761,0.286,-19.366,5.893,9.336,0.0,93.0
182576,-0.780,0.689,0.045,-94.137,6.603,7.847,0.0,103.0
182665,-1.278,0.644,-0.392,-40.397,51.924,6.435,0.0,120.0
182759,-1.132,0.379,-0.470,-145.618,88.565,57.794,0.0,0.0
182850,-0.823,0.117,-0.255,-84.374,90.107,57.366,0.0,151.0
182941,-0.908,0.285,-0.213,-31.405,43.038,18.328,0.0,152.0
183033,-1.208,0.433,-0.320,-1.855,10.618,-17.962,0.0,159.0
183128,-1.658,0.569,-0.466,37.916,-17.046,-21.618,0.0,0.0
183211,-0.276,0.406,0.133,-122.519,-87.198,24.832,43.0,177.0
183299,-0.082,0.332,0.228,-44.351,-85.557,-53.038,36.0,0.0
183379,-0.913,0.492,0.205,2.496,9.977,60.374,34.0,135.0
183471,-1.386,0.606,0.257,25.641,63.695,54.290,0.0,143.0
183546,-1.241,0.331,0.037,-60.214,22.550,-51.916,35.0,52.0
183623,-0.570,0.292,0.200,18.229,26.336,-86.374,37.0,54.0
183700,-0.322,0.319,0.192,51.023,42.878,-89.672,43.0,57.0
183786,-0.658,0.723,-0.084,-22.656,55.802,-52.740,0.0,51.0
183872,-1.906,0.561,-0.579,-112.519,34.985,-23.710,0.0,50.0
183961,-1.831,0.110,-0.526,-111.565,13.374,61.466,0.0,62.0
184048,-0.875,0.066,-0.143,32.298,-16.550,73.229,0.0,69.0
184135,-0.557,0.494,-0.231,-29.924,11.275,20.038,0.0,76.0
184223,-0.408,0.141,-0.058,-93.366,16.191,47.420,0.0,83.0
184302,-1.076,0.417,0.005,-33.557,-10.382,78.466,52.0,91.0
184392,-1.539,0.672,-0.090,46.466,-14.786,48.328,0.0,113.0
184482,-0.920,0.488,-0.039,2.779,-15.298,20.389,0.0,135.0
184572,-0.575,0.396,0.013,23.137,-15.863,-10.000,0.0,134.0
184664,-0.548,0.510,0.063,23.603,-21.565,-2.824,0.0,140.0
184758,-0.700,0.707,0.084,33.168,-6.756,0.137,0.0,143.0
184847,-0.777,0.794,0.034,15.466,14.053,6.893,0.0,115.0
184936,-0.872,0.618,0.020,-58.359,-5.733,5.366,0.0,118.0
185026,-0.860,0.633,0.048,0.221,-26.672,24.626,0.0,124.0
185117,-0.633,0.536,0.104,7.168,-45.557,32.534,0.0,141.0
185207,-0.535,0.583,0.074,21.863,-27.015,11.389,195.0,134.0
185293,-0.867,0.645,-0.002,-23.550,-13.771,-32.496,0.0,52.0
185379,-1.054,0.469,-0.028,45.366,-8.679,-49.389,0.0,54.0
185465,-1.104,0.463,-0.188,117.725,-19.870,-85.206,0.0,58.0
185555,-0.815,0.367,-0.141,138.313,-18.504,-74.756,0.0,65.0
185643,-0.923,0.486,-0.182,86.595,-35.336,-68.771,0.0,64.0
185729,-0.687,0.419,-0.129,124.824,-20.275,-44.336,0.0,66.0
185824,-0.830,0.563,-0.055,38.275,2.511,-52.771,0.0,0.0
185918,-0.946,0.469,0.082,33.252,6.695,-24.122,0.0,0.0
186006,-0.979,0.548,0.000,-33.076,13.008,-11.695,0.0,86.0
186094,-1.311,0.472,-0.143,-85.977,-5.977,-1.672,0.0,97.0
186184,-1.172,0.137,-0.177,-95.679,-12.908,116.107,0.0,124.0
186278,-0.835,0.247,-0.182,-39.832,-19.832,131.847,0.0,142.0
186374,-0.677,0.262,-0.194,-32.794,-22.954,84.160,0.0,0.0
186464,-0.821,0.326,-0.216,-10.450,-6.015,4.824,0.0,135.0
186559,-1.209,0.379,-0.179,-16.137,4.229,-78.580,0.0,0.0
186653,-0.737,0.313,0.066,-14.916,48.550,-111.450,0.0,0.0
186743,-1.133,0.241,0.035,-80.924,35.038,-78.527,0.0,125.0
186833,-0.818,0.185,0.167,33.084,24.748,-12.489,0.0,131.0
186925,-0.906,0.462,0.065,12.511,11.794,-6.916,200.0,137.0
187016,-0.802,0.462,0.091,-50.924,14.771,-3.260,190.0,147.0
187110,-0.967,0.517,-0.069,-103.344,18.130,-23.336,178.0,159.0
187202,-1.350,0.324,-0.537,-195.153,-31.992,-16.840,0.0,162.0
187295,-0.866,0.083,-0.409,-108.695,-34.908,60.115,193.0,169.0
187388,-0.548,0.341,-0.590,-117.382,6.565,51.962,0.0,182.0
187483,-1.025,0.104,-0.534,-120.435,34.840,21.298,0.0,189.0
187575,-1.092,0.080,-0.278,-34.824,37.244,26.725,0.0,160.0
187669,-0.979,0.241,-0.051,26.130,33.771,-3.107,0.0,0.0
187764,-0.872,0.365,0.017,-56.000,27.046,-42.718,0.0,0.0
187862,-1.198,0.139,0.099,-59.328,16.366,-25.534,0.0,0.0
187957,-0.889,0.287,0.056,-6.893,9.122,-7.969,0.0,0.0
188051,-0.831,0.278,0.030,-39.046,-2.176,-18.145,0.0,0.0
188144,-0.790,0.235,0.054,-9.046,0.107,-8.107,0.0,179.0
188239,-0.716,0.389,0.002,-6.313,22.893,-28.031,0.0,0.0
188333,-1.243,0.391,-0.257,-53.489,4.420,-53.053,0.0,190.0
188434,-1.536,0.045,-0.417,-115.580,-26.107,122.992,0.0,201.0
188527,-0.882,-0.457,-0.397,120.183,-11.344,123.824,195.0,0.0
188620,-0.891,0.114,-0.156,127.137,33.344,-133.450,192.0,0.0
188717,-1.606,0.584,-0.152,-13.710,-27.542,-225.718,194.0,0.0
188802,-0.836,0.146,0.097,41.916,-123.939,-23.687,59.0,0.0
188895,-0.567,0.007,-0.111,139.374,-96.176,25.176,185.0,0.0
188987,-0.588,0.116,-0.051,-122.015,96.130,5.573,177.0,0.0
189072,-1.070,-0.339,0.106,-181.992,60.015,19.817,46.0,0.0
189163,-1.113,-0.254,0.168,8.725,18.557,73.779,171.0,0.0
189254,-1.080,0.069,0.045,47.771,2.802,69.176,155.0,0.0
189344,-0.789,0.266,0.026,10.611,8.550,32.458,148.0,0.0
189434,-0.491,0.369,-0.032,-17.260,39.229,6.252,140.0,0.0
189528,-1.498,0.619,-0.365,-29.893,1.771,-60.969,129.0,0.0
189617,-1.506,0.171,-0.360,-126.573,-10.542,43.031,118.0,0.0
189710,-1.146,0.173,-0.282,-91.992,-2.916,147.695,0.0,0.0
189803,-0.717,0.256,-0.270,-69.267,-7.489,119.023,0.0,0.0
189887,-0.685,0.305,-0.273,-70.710,0.962,30.916,180.0,51.0
189981,-0.716,0.290,-0.086,-38.321,24.557,-29.137,0.0,0.0
190066,-1.046,0.414,-0.012,-76.099,53.366,-79.076,0.0,51.0
190157,-1.014,0.244,0.236,-31.794,36.328,-118.550,0.0,155.0
190251,-0.872,0.446,0.137,30.038,34.015,-126.771,0.0,152.0
190342,-0.857,0.569,-0.068,-158.168,50.672,-79.122,0.0,152.0
190433,-0.944,0.229,-0.184,-235.244,33.771,-58.084,0.0,156.0
190525,-1.012,0.114,-0.184,-111.115,-18.748,18.031,0.0,164.0
190617,-1.230,0.645,-0.607,-158.763,-67.244,57.374,0.0,175.0
190704,-0.900,0.712,-0.332,-57.176,-57.664,166.763,0.0,87.0
190792,-0.896,0.892,-0.291,-154.397,-42.061,154.137,0.0,100.0
190878,-0.774,0.633,0.033,-172.229,-29.733,131.099,0.0,51.0
190966,-0.894,0.425,0.369,-177.870,-43.344,53.336,0.0,59.0
191052,-0.804,0.406,0.474,-170.305,-26.443,39.489,0.0,68.0
191139,-0.830,-0.101,0.658,-120.313,-50.244,33.191,0.0,78.0
191226,-0.482,0.157,0.683,-67.847,-44.977,29.458,0.0,86.0
191315,-0.406,0.120,0.783,-48.252,-24.015,34.267,0.0,104.0
191406,-0.346,-0.045,0.903,-36.176,-8.176,28.435,0.0,146.0
191500,-0.260,0.013,0.904,-21.740,1.718,15.649,0.0,0.0
191593,-0.280,-0.028,0.969,-19.985,6.359,4.947,0.0,0.0
191687,-0.196,0.073,0.991,-21.832,-2.168,11.145,0.0,0.0
191781,-0.156,0.066,1.006,28.076,-1.603,19.733,0.0,150.0
191875,-0.419,0.376,0.772,43.405,24.794,17.763,0.0,0.0
191969,-0.485,0.083,0.827,8.740,60.107,20.962,0.0,0.0
192062,-0.509,0.201,0.931,-57.229,40.420,0.771,0.0,0.0
192156,-0.546,0.140,1.179,-69.153,-12.267,8.870,0.0,0.0
192249,-0.625,-0.056,1.127,-85.237,-73.794,-2.595,0.0,0.0
192344,-0.414,0.037,0.758,-16.626,-74.771,-3.267,0.0,0.0
192437,-0.358,-0.078,0.728,-38.763,-45.679,0.954,0.0,0.0
192523,-0.289,-0.301,0.845,-7.321,-18.550,-12.183,51.0,0.0
192611,-0.156,-0.288,0.882,-4.313,-11.611,-7.885,49.0,0.0
192696,-0.121,-0.313,0.920,-0.466,-14.908,-4.130,45.0,0.0
192781,-0.063,-0.310,0.924,-5.962,-17.756,6.466,44.0,0.0
192866,-0.057,-0.251,0.917,-0.496,-18.466,21.282,45.0,0.0
192951,-0.049,-0.151,1.014,32.176,-5.687,20.534,45.0,0.0
193037,-0.117,-0.120,0.959,39.656,7.473,16.527,51.0,0.0
193128,-0.130,-0.050,0.785,108.069,50.901,-4.527,0.0,163.0
193222,-0.245,0.071,0.463,196.458,101.176,-45.672,0.0,0.0
193311,-0.630,0.092,0.293,250.130,137.748,-109.802,0.0,118.0
193403,-1.389,0.612,-0.143,250.130,28.672,-139.786,0.0,103.0
193498,-1.429,0.521,-0.285,249.130,-52.069,-148.702,0.0,0.0
193592,-1.424,0.633,-0.358,106.107,-41.221,-122.435,0.0,0.0
193683,-0.950,0.445,-0.141,-9.237,-19.695,-144.794,166.0,0.0
193775,-0.962,0.184,0.007,29.153,-5.863,-83.901,153.0,0.0
193865,-0.829,0.223,-0.014,128.176,-3.084,25.511,137.0,0.0
193955,-0.776,0.486,-0.031,57.214,20.985,49.412,133.0,0.0
194045,-0.778,0.387,0.132,-57.809,38.420,21.374,127.0,0.0
194138,-0.948,0.309,0.136,-73.679,38.824,31.939,117.0,0.0
194227,-0.972,0.296,0.098,-35.565,31.336,27.702,106.0,0.0
194315,-1.267,0.403,-0.183,-39.794,3.977,14.603,94.0,0.0
194402,-1.344,0.154,-0.252,-115.092,-19.847,87.557,81.0,0.0
194494,-0.803,0.162,-0.134,-50.962,1.748,125.206,177.0,0.0
194586,-0.711,0.315,-0.188,-42.466,-4.450,73.847,171.0,0.0
194678,-0.832,0.265,-0.166,-19.863,-13.992,-15.779,163.0,0.0
194770,-1.074,0.288,-0.161,36.481,-6.924,-82.191,158.0,0.0
194862,-0.995,0.370,-0.031,59.344,17.374,-128.855,155.0,0.0
194957,-0.968,0.317,0.057,-70.916,32.466,-65.931,150.0,0.0
195048,-1.102,-0.013,0.175,16.031,-9.939,-0.748,145.0,0.0
195138,-0.769,0.261,0.062,113.229,-9.328,53.626,143.0,0.0
195227,-0.722,0.369,0.010,57.550,-7.298,30.443,100.0,0.0
195315,-0.774,0.322,0.082,33.626,14.473,-11.550,95.0,0.0
195402,-1.261,0.366,-0.058,35.817,15.275,-34.634,87.0,0.0
195489,-1.110,0.282,-0.137,29.969,-8.832,-13.779,79.0,0.0
195576,-1.085,0.416,-0.175,-29.160,16.214,61.733,69.0,0.0
195674,-0.832,0.223,-0.113,-105.740,-16.344,55.435,0.0,0.0
195768,-0.694,0.448,-0.169,36.611,-15.824,78.374,0.0,0.0
195854,-0.774,0.543,-0.166,-48.198,-19.527,46.130,0.0,51.0
195938,-1.090,0.381,-0.078,3.840,-20.053,36.679,166.0,53.0
196024,-1.086,0.401,-0.051,68.718,-20.061,-4.061,0.0,61.0
196111,-0.805,0.411,-0.042,59.000,-6.374,-59.824,0.0,65.0
196197,-1.013,0.260,-0.110,-24.481,-7.206,-59.954,0.0,68.0
196284,-0.973,0.121,-0.008,79.977,-17.267,-45.588,0.0,73.0
196371,-0.717,0.459,-0.167,149.374,-19.313,-50.763,0.0,73.0
196462,-0.790,0.482,-0.165,0.305,3.870,-87.947,0.0,75.0
196556,-0.848,0.372,-0.031,-42.786,28.092,-81.733,0.0,0.0
196651,-1.119,0.337,0.012,-3.260,25.885,-47.366,0.0,0.0
196745,-1.316,0.552,-0.088,-14.710,1.947,-0.298,0.0,0.0
196839,-1.318,0.200,-0.228,-91.466,-44.832,92.832,0.0,0.0
196924,-1.034,0.241,-0.259,-67.382,-28.130,160.687,0.0,49.0
197008,-0.805,0.300,-0.255,-89.176,-21.931,140.740,158.0,57.0
197095,-0.803,0.264,-0.213,-87.359,-21.695,78.252,0.0,68.0
197182,-0.862,0.260,-0.141,-18.519,-10.489,8.023,0.0,74.0
197273,-0.853,0.435,-0.071,10.916,43.397,-42.160,0.0,88.0
197361,-0.821,0.484,0.043,-97.046,73.267,-106.015,198.0,89.0
197443,-1.048,0.239,0.207,-128.382,67.855,-107.588,89.0,93.0
197527,-0.962,0.256,0.327,-65.076,52.458,-67.748,124.0,96.0
197612,-0.949,0.327,0.194,-87.802,25.275,-35.473,125.0,102.0
197695,-0.897,0.319,0.164,-79.389,15.565,-9.176,78.0,111.0
197780,-0.931,0.419,0.027,-104.473,16.725,-1.069,79.0,155.0
197865,-1.116,0.415,-0.198,-171.137,21.427,-2.740,74.0,159.0
197947,-1.063,0.074,-0.381,-184.985,0.809,21.611,64.0,64.0
198029,-1.012,0.177,-0.582,-94.634,-22.053,49.771,114.0,57.0
198118,-0.806,0.265,-0.478,-60.718,25.023,43.198,0.0,106.0
198204,-0.815,0.297,-0.430,-71.870,44.534,8.672,0.0,60.0
198292,-0.823,0.353,-0.256,-53.198,66.519,-28.962,0.0,80.0
198377,-1.027,0.535,-0.352,-146.038,63.267,-72.420,135.0,112.0
198463,-1.097,0.229,-0.283,-237.374,53.954,-27.542,125.0,119.0
198554,-1.025,0.109,-0.181,-181.092,20.794,30.916,0.0,126.0
198644,-0.986,0.208,-0.229,-92.084,-15.298,27.565,0.0,133.0
198731,-0.970,0.212,-0.285,-56.443,-23.779,19.015,169.0,139.0
198821,-0.969,0.195,-0.219,-77.473,-7.405,15.313,165.0,143.0
198909,-0.926,0.033,0.028,-50.618,-9.023,-11.443,142.0,146.0
198999,-0.908,0.135,0.105,38.550,14.725,-29.183,161.0,144.0
199087,-0.987,0.241,0.196,40.695,16.756,-55.229,140.0,142.0
199174,-0.876,0.386,0.212,51.031,8.275,-44.122,141.0,139.0
199262,-0.953,0.377,0.170,-20.809,0.947,-52.611,134.0,140.0
199349,-0.934,0.244,0.163,-49.115,0.550,-24.359,135.0,143.0
199440,-0.911,0.120,0.158,-15.176,-8.977,44.183,128.0,149.0
199524,-1.010,0.256,-0.024,70.496,-22.397,43.779,155.0,58.0
199609,-0.895,0.381,-0.056,54.603,5.374,61.198,170.0,60.0
199696,-1.052,0.416,-0.166,-37.878,2.733,32.649,0.0,63.0
199789,-0.816,0.260,-0.061,-18.504,16.527,34.359,0.0,73.0
199872,-0.808,0.390,-0.042,-17.740,15.962,30.534,144.0,76.0
199958,-0.897,0.445,-0.018,-33.855,13.595,1.947,0.0,78.0
200045,-1.022,0.428,0.018,-15.008,-5.336,-2.481,0.0,82.0
200137,-1.218,0.720,-0.135,25.878,6.489,-6.267,0.0,125.0
200224,-0.784,0.489,0.021,-62.450,27.908,6.763,0.0,95.0
200307,-0.775,0.477,0.036,-38.534,23.053,10.977,118.0,100.0
200396,-0.868,0.291,0.099,-22.527,0.809,30.679,0.0,108.0
200484,-0.711,0.381,0.075,31.725,7.267,38.313,0.0,115.0
200569,-0.618,0.397,0.042,10.038,18.649,5.931,0.0,57.0
200656,-0.545,0.379,0.015,10.954,27.878,2.702,0.0,88.0
200745,-1.039,0.934,-0.209,19.397,20.214,-39.763,0.0,124.0
200832,-1.645,0.591,-0.490,-139.473,0.649,1.580,0.0,57.0
200920,-0.944,0.279,-0.142,8.115,-20.260,40.000,0.0,57.0
201005,-0.651,0.494,-0.189,22.878,-9.130,-0.160,0.0,54.0
201091,-0.680,0.289,-0.105,-23.275,-18.794,-46.687,0.0,52.0
201176,-0.879,0.250,-0.114,25.053,-27.947,-50.672,0.0,59.0
201261,-1.339,0.304,-0.189,36.748,-45.817,-55.168,0.0,51.0
201346,-0.821,0.312,-0.055,64.382,-22.710,-63.802,0.0,53.0
201432,-0.968,0.339,-0.068,-6.305,-13.382,-48.924,0.0,54.0
201517,-0.744,0.201,0.043,6.099,-0.290,-19.779,0.0,53.0
201603,-0.788,0.277,0.032,8.374,15.435,-22.626,0.0,58.0
201691,-0.889,0.263,0.125,-29.145,21.298,-32.626,0.0,57.0
201776,-0.957,0.273,0.202,-7.924,23.153,-21.748,0.0,59.0
201862,-0.985,0.291,0.127,-0.359,0.534,-9.084,0.0,63.0
201948,-1.461,0.346,-0.110,25.664,0.901,17.840,0.0,68.0
202035,-1.136,0.134,-0.202,-102.992,-6.779,129.313,0.0,75.0
202122,-0.954,0.034,-0.162,-68.969,-0.130,108.901,0.0,83.0
202209,-0.645,0.186,-0.062,-5.748,8.412,95.672,0.0,92.0
202299,-0.715,0.331,-0.058,-34.962,1.534,17.298,0.0,126.0
202387,-1.016,0.342,-0.050,18.084,3.420,-52.893,0.0,104.0
202478,-1.109,0.325,-0.137,67.076,4.710,-75.122,0.0,106.0
202567,-1.099,0.421,-0.083,96.069,4.000,-136.527,0.0,111.0
202655,-0.545,0.175,0.188,23.168,35.176,-119.252,0.0,115.0
202744,-1.367,-0.042,-0.195,-87.244,16.893,-55.115,0.0,117.0
202834,-0.820,-0.560,-0.039,88.588,-12.305,-18.244,0.0,121.0
202928,-1.050,-0.007,-0.218,71.893,8.084,7.122,0.0,193.0
203021,-0.788,0.170,-0.027,-21.031,17.679,28.542,0.0,0.0
203115,-0.625,0.202,0.048,-19.489,12.351,46.382,0.0,198.0
203209,-0.960,0.219,-0.089,6.802,-19.969,51.786,0.0,154.0
203295,-1.848,0.310,-0.446,-5.817,-12.863,93.832,0.0,76.0
203389,-1.323,0.242,-0.253,-77.824,-18.466,130.504,0.0,0.0
203480,-0.641,0.111,-0.050,-30.802,-30.328,87.534,0.0,144.0
203569,-0.657,0.179,-0.091,8.092,-30.771,50.595,0.0,116.0
203659,-0.881,0.167,-0.190,25.130,-39.603,9.992,0.0,120.0
203752,-1.008,0.306,-0.085,87.389,-30.603,-87.519,0.0,0.0
203846,-1.120,0.415,-0.087,22.779,31.328,-148.198,0.0,0.0
203940,-0.916,0.010,0.141,20.359,-11.687,-118.832,0.0,0.0
204037,-0.885,0.289,-0.075,177.427,9.718,-73.733,0.0,0.0
204131,-0.951,0.454,-0.018,19.878,4.702,-45.771,0.0,0.0
204225,-0.963,0.257,0.067,-3.817,16.267,4.649,0.0,0.0
204318,-1.290,0.372,-0.057,16.992,10.901,41.473,0.0,0.0
204412,-1.312,0.164,-0.093,-66.588,-10.824,159.870,0.0,0.0
204507,-1.066,0.234,-0.093,-56.359,-10.023,189.939,0.0,0.0
204600,-0.603,0.303,-0.070,-74.878,-5.748,117.901,0.0,0.0
204694,-0.827,0.220,-0.090,-43.008,-23.275,6.947,0.0,0.0
204785,-1.015,0.311,-0.118,18.779,-11.985,-65.489,0.0,143.0
204881,-1.161,0.344,-0.088,63.237,-2.511,-137.611,0.0,0.0
204975,-1.011,0.297,-0.003,2.893,19.489,-110.611,179.0,0.0
205068,-0.993,0.128,0.026,22.794,7.122,-44.511,179.0,0.0
205160,-0.799,0.324,-0.002,89.305,11.534,-21.481,177.0,0.0
205253,-0.814,0.346,0.062,42.267,15.267,-24.947,175.0,0.0
205345,-0.999,0.373,0.077,-7.031,29.405,-5.496,170.0,0.0
205436,-0.985,0.318,0.113,-44.435,9.374,7.351,162.0,0.0
205528,-1.104,0.355,0.061,8.176,-0.702,19.061,152.0,0.0
205622,-1.041,0.298,-0.148,-41.443,-32.344,51.000,139.0,0.0
205712,-1.153,0.282,-0.317,-12.985,-14.435,98.160,125.0,0.0
205801,-0.771,0.339,-0.256,-71.374,8.168,96.947,113.0,0.0
205892,-0.855,0.265,-0.229,-81.725,7.832,53.076,151.0,0.0
205986,-0.951,0.267,-0.159,-23.740,5.664,9.557,0.0,0.0
206073,-1.030,0.350,-0.074,6.206,11.298,-35.595,88.0,0.0
206160,-1.036,0.355,0.033,6.634,8.634,-94.496,83.0,200.0
206248,-0.850,0.258,0.126,48.374,3.702,-55.237,79.0,0.0
206334,-1.063,0.326,0.030,47.420,-18.603,3.832,77.0,0.0
206425,-0.836,0.441,0.006,95.031,-20.634,40.122,74.0,0.0
206512,-0.757,0.521,-0.032,-32.779,9.260,8.267,70.0,0.0
206598,-0.823,0.433,0.054,-39.420,25.908,-6.260,65.0,0.0
206684,-0.900,0.425,0.073,-49.939,26.252,-5.496,59.0,0.0
206770,-0.816,0.434,-0.020,-64.122,25.198,-5.947,54.0,0.0
206856,-0.827,0.385,-0.112,-87.786,41.771,-23.725,51.0,0.0
206945,-0.890,0.314,-0.160,-105.496,55.260,-27.885,109.0,0.0
207027,-0.973,0.249,-0.313,-105.573,45.244,2.588,104.0,88.0
207110,-1.034,0.157,-0.393,-51.244,22.344,20.160,100.0,90.0
207197,-0.950,0.254,-0.380,2.718,44.824,16.695,97.0,129.0
207279,-0.909,0.308,-0.348,-71.137,43.122,-2.183,94.0,95.0
207360,-0.925,0.275,-0.272,-59.908,31.382,-34.221,92.0,71.0
207440,-0.933,0.332,-0.268,-39.817,21.603,-46.794,91.0,68.0
207520,-0.953,0.338,-0.256,-68.229,5.611,-40.130,90.0,68.0
207601,-0.883,0.366,-0.348,-98.183,6.809,-34.099,88.0,69.0
207681,-0.864,0.335,-0.348,-115.802,6.908,-37.466,87.0,67.0
207761,-0.936,0.276,-0.377,-124.916,-3.061,-43.237,87.0,59.0
207851,-0.991,0.237,-0.350,-112.534,-9.901,-20.481,0.0,57.0
207936,-1.133,0.242,-0.334,-88.931,-8.542,9.084,0.0,43.0
208022,-0.723,0.361,-0.147,-86.504,31.115,35.809,0.0,50.0
208108,-1.028,0.388,-0.185,-188.160,45.031,1.130,0.0,52.0
208194,-1.097,-0.058,0.146,-192.588,-0.275,-4.473,0.0,58.0
208280,-0.946,0.057,0.003,-19.374,11.771,23.176,0.0,64.0
208367,-0.849,0.292,-0.058,-50.702,9.969,1.840,0.0,69.0
208454,-0.821,0.207,0.023,-63.511,20.160,-26.290,0.0,74.0
208541,-0.856,0.279,0.009,-57.229,26.527,-32.809,0.0,78.0
208632,-0.890,0.250,0.044,-46.656,23.473,-23.237,0.0,84.0
208720,-0.923,0.262,0.017,-24.397,14.115,-5.366,0.0,90.0
208809,-1.259,0.302,-0.117,4.672,4.687,4.176,0.0,97.0
208899,-0.952,0.263,-0.109,-28.542,-0.366,54.580,0.0,105.0
208988,-0.998,0.325,-0.188,-36.427,-5.756,40.511,0.0,114.0
209078,-0.886,0.263,-0.111,-34.481,-10.328,40.252,0.0,122.0
209168,-0.799,0.392,-0.159,4.137,-2.084,23.992,0.0,130.0
209259,-0.886,0.382,-0.137,-5.992,3.389,0.542,0.0,136.0
209350,-0.805,0.376,-0.057,15.344,15.053,-17.038,0.0,141.0
209444,-1.106,0.418,-0.093,-16.908,13.847,-43.366,0.0,146.0
209537,-1.062,0.246,0.054,-7.718,1.748,-22.359,0.0,151.0
209629,-0.948,0.298,0.063,-16.061,7.679,-12.191,0.0,156.0
209721,-0.908,0.248,0.132,1.092,12.595,-44.198,0.0,161.0
209813,-0.999,0.396,0.046,-30.756,21.939,-66.519,0.0,166.0
209906,-0.414,0.269,0.191,-12.824,58.420,-76.618,0.0,174.0
210000,0.025,0.167,0.295,-88.130,-24.122,-53.260,0.0,187.0
210095,-2.000,0.612,-0.446,-33.542,-25.023,3.687,0.0,0.0
210188,-1.642,0.123,-0.339,-149.496,-34.969,185.183,118.0,0.0
210280,-1.161,0.240,-0.162,-55.458,-13.695,155.664,0.0,160.0
210375,-0.884,0.360,-0.120,-98.366,-7.328,48.069,0.0,0.0
210469,-0.883,0.183,0.080,-28.023,-41.183,-1.809,0.0,0.0
210565,-0.716,0.402,0.232,11.595,-35.786,-21.450,0.0,0.0
210659,-1.025,0.520,0.391,-57.122,-36.863,-0.748,0.0,0.0
210753,-0.889,0.493,0.490,-53.748,-65.260,17.565,200.0,0.0
210844,-0.739,0.329,0.467,-120.863,-96.275,16.450,198.0,134.0
210934,-0.432,0.165,0.585,-56.313,-109.084,16.832,196.0,127.0
211028,-0.324,0.233,0.757,-50.168,-82.824,38.947,195.0,127.0
211126,-0.537,0.426,0.880,-68.977,-32.664,43.618,193.0,160.0
211219,-0.505,0.284,0.917,-29.489,-8.458,34.824,192.0,0.0
211310,-0.263,0.272,0.728,-25.557,-12.145,23.206,0.0,157.0
211401,-0.194,0.219,0.828,-25.260,-13.229,14.740,0.0,156.0
211490,-0.246,0.146,0.974,-21.191,-14.565,7.137,156.0,154.0
211580,-0.290,0.093,1.064,5.412,-9.031,-2.649,156.0,0.0
211670,-0.324,0.246,0.894,-1.527,14.626,-9.053,157.0,153.0
211763,-0.293,0.082,0.931,-7.939,-1.282,-0.382,159.0,0.0
211848,-0.301,0.112,0.919,14.237,-2.458,-6.206,43.0,0.0
211932,-0.200,0.067,0.902,-4.504,-0.183,10.969,42.0,0.0
212024,-0.203,0.043,0.938,2.198,0.511,11.412,164.0,0.0
212108,-0.158,0.087,0.979,-3.634,6.725,23.969,37.0,0.0
212199,-0.166,0.208,1.003,-3.618,3.046,53.656,169.0,0.0
212283,-0.430,0.286,0.988,-16.656,33.221,47.351,37.0,0.0
212366,-0.403,0.313,0.932,-34.557,17.023,24.481,37.0,181.0
212450,-0.409,0.079,0.883,-22.771,-3.695,7.962,38.0,179.0
212543,-0.261,0.044,0.958,-38.618,-2.466,-23.084,177.0,175.0
212634,-0.200,0.207,0.967,-40.588,2.191,-42.885,179.0,172.0
212726,-0.240,0.135,0.948,-2.351,-13.160,-8.962,181.0,196.0
212819,-0.214,-0.124,1.017,-37.802,-5.115,27.992,182.0,197.0
212912,-0.233,-0.217,1.030,-10.489,-9.718,4.076,184.0,0.0
212999,-0.422,-0.187,1.041,-0.137,7.053,-1.863,187.0,95.0
213085,-0.167,-0.066,0.974,-28.947,-17.756,38.305,188.0,76.0
213161,-0.197,-0.237,1.027,5.557,0.305,50.588,37.0,70.0
213238,-0.233,-0.051,0.913,-38.099,-15.176,74.237,37.0,68.0
213318,-0.161,-0.223,0.958,-24.137,-7.908,98.748,36.0,58.0
213394,-0.213,-0.135,0.958,-42.908,-16.511,118.962,37.0,58.0
213480,-0.200,-0.045,0.968,-77.053,-31.496,124.053,0.0,57.0
213573,-0.317,-0.248,1.026,-78.511,-54.427,122.023,0.0,0.0
213667,-0.288,-0.104,0.984,-39.733,-63.130,112.427,0.0,0.0
213752,-0.307,-0.157,1.044,-17.397,-42.573,79.557,50.0,0.0
213837,-0.173,-0.177,1.001,14.794,-44.443,58.290,38.0,0.0
213931,0.060,0.078,0.912,4.992,-28.366,52.412,0.0,0.0
214027,-0.023,0.026,1.009,-1.893,-22.573,45.756,0.0,0.0
214118,-0.102,-0.130,1.047,-7.824,-11.084,42.206,0.0,150.0
214208,-0.118,-0.105,0.953,-6.565,-6.931,34.282,0.0,131.0
214298,-0.008,-0.159,0.988,13.031,-2.237,28.855,0.0,132.0
214387,-0.054,-0.187,1.042,1.153,-7.290,28.748,0.0,133.0
214477,-0.115,-0.181,1.067,-3.878,-9.771,14.397,0.0,135.0
214568,-0.062,-0.161,1.012,-9.374,-3.198,13.313,0.0,138.0
214659,-0.033,-0.228,0.959,-29.733,-3.137,25.817,0.0,141.0
214749,-0.034,-0.184,0.929,-8.237,2.450,18.237,0.0,144.0
214852,-0.064,-0.219,0.910,-5.290,-1.130,18.695,0.0,147.0
214945,-0.050,-0.286,0.928,5.985,9.794,28.878,0.0,150.0
215038,-0.070,-0.295,0.761,8.206,30.275,30.023,0.0,152.0
215132,-0.193,-0.128,0.494,57.977,107.344,45.504,0.0,154.0
215226,-0.476,-0.182,0.426,98.145,200.771,19.229,0.0,155.0
215320,-1.097,-0.458,0.429,38.412,250.130,-46.031,0.0,156.0
215412,-1.399,-0.432,0.315,162.786,199.130,-52.519,0.0,138.0
215504,-1.221,0.032,0.264,163.779,94.794,-27.824,0.0,128.0
215592,-1.011,0.198,0.294,97.305,53.130,-9.901,0.0,52.0
215684,-0.917,0.132,0.354,36.794,24.397,-17.847,0.0,52.0
215772,-0.948,0.182,0.219,28.542,15.847,14.061,0.0,57.0
215864,-1.122,0.195,0.172,-41.794,7.519,54.779,0.0,133.0
215957,-1.104,0.156,-0.077,-73.763,-33.443,55.328,0.0,143.0
216051,-1.220,0.086,-0.147,-8.473,-55.427,106.969,0.0,157.0
216145,-0.842,0.221,-0.107,-25.855,-47.130,97.099,0.0,166.0
216242,-0.684,0.236,-0.004,1.725,-11.725,44.000,0.0,187.0
216337,-0.807,0.485,0.018,0.176,16.389,-2.069,0.0,191.0
216436,-1.062,0.361,0.046,-40.198,22.038,-49.824,0.0,195.0
216532,-1.108,0.232,0.123,11.458,36.931,-82.000,0.0,191.0
216629,-0.904,0.204,0.067,-12.603,20.160,-59.977,0.0,0.0
216725,-1.058,0.023,0.070,-3.695,-0.679,-12.763,0.0,0.0
216821,-0.958,0.089,0.050,15.191,-2.145,10.336,0.0,0.0
216918,-0.833,0.074,0.095,2.046,-0.756,6.695,0.0,0.0
217014,-0.887,0.144,0.092,10.504,14.870,-6.122,0.0,0.0
217110,-0.938,0.196,0.142,-19.786,23.168,-5.718,0.0,0.0
217206,-0.974,0.293,0.083,-42.328,8.153,-0.137,0.0,0.0
217306,-1.153,0.217,0.068,-42.466,7.183,-9.573,0.0,0.0
217400,-1.053,0.265,-0.013,-114.359,-24.641,18.962,0.0,155.0
217493,-1.331,0.366,0.082,-133.427,-97.824,48.748,0.0,154.0
217581,-1.356,0.140,0.358,-121.740,-200.969,106.489,0.0,50.0
217673,-0.702,0.415,0.365,-96.267,-209.412,123.435,0.0,115.0
217768,-0.357,-0.034,0.632,-141.649,-148.840,62.763,0.0,166.0
217863,-0.227,0.046,0.763,-59.969,-92.221,27.115,0.0,170.0
217958,-0.062,-0.052,0.898,-29.092,-41.901,4.038,0.0,173.0
218053,-0.085,-0.101,1.009,-12.076,-20.405,-9.557,0.0,175.0
218151,-0.081,-0.094,0.968,-13.038,-1.435,-10.870,0.0,176.0
218238,-0.132,-0.121,0.949,-14.718,1.702,-12.267,51.0,179.0
218326,-0.128,-0.118,0.973,0.885,10.710,-12.527,50.0,179.0
218421,-0.123,-0.107,0.955,-5.336,9.618,-3.893,0.0,179.0
218508,-0.073,-0.156,0.948,2.198,8.878,-0.634,51.0,179.0
218595,-0.095,-0.165,0.996,5.931,7.504,4.931,49.0,178.0
218682,-0.065,-0.174,1.007,-4.076,-4.885,5.718,52.0,178.0
218768,-0.031,-0.170,1.031,1.015,-12.137,5.962,51.0,177.0
218867,-0.010,-0.141,1.058,8.427,-18.321,8.435,0.0,175.0
218972,-0.079,-0.059,1.007,14.267,-11.069,12.328,0.0,173.0
219066,-0.185,-0.036,0.969,19.573,1.145,5.244,0.0,171.0
219160,-0.135,0.026,1.012,2.107,9.542,-10.359,0.0,169.0
219254,-0.146,0.003,1.027,6.672,2.542,-22.305,0.0,166.0
219347,-0.107,0.038,0.989,-2.069,4.389,-31.221,0.0,163.0
219442,-0.124,0.034,1.010,-1.954,4.290,-41.939,0.0,160.0
219535,-0.072,0.029,0.987,10.282,4.908,-49.740,0.0,156.0
