Timestamp(ms),AccelX(g),AccelY(g),AccelZ(g),GyroX(deg/s),GyroY(deg/s),GyroZ(deg/s),DistanceLeft(cm),DistanceRight(cm)
225840,-0.118,-0.011,1.000,21.786,14.092,-43.954,173.0,0.0
225931,-0.117,-0.035,1.020,11.466,15.817,-42.557,175.0,0.0
226023,-0.127,-0.032,1.001,12.389,18.550,-42.550,176.0,0.0
226114,-0.153,-0.062,1.014,9.924,20.115,-47.954,177.0,0.0
226206,-0.148,-0.069,1.018,12.763,17.092,-49.664,178.0,0.0
226297,-0.200,-0.271,0.767,72.519,70.504,-61.092,178.0,0.0
226390,-0.478,-0.068,0.361,250.130,145.985,-105.954,182.0,0.0
226485,-1.146,-0.009,0.029,208.702,174.573,-194.878,188.0,0.0
226576,-1.710,0.002,-0.315,250.130,130.992,-178.206,0.0,168.0
226667,-1.346,0.662,-0.353,206.519,22.718,-117.252,0.0,158.0
226758,-0.996,0.436,0.019,-28.672,52.847,-65.702,0.0,154.0
226848,-0.920,0.274,0.229,106.107,37.137,-17.527,0.0,156.0
226939,-0.920,0.539,0.176,144.344,13.756,11.137,0.0,159.0
227033,-1.070,0.545,0.144,-56.336,11.840,39.863,0.0,183.0
227124,-1.300,0.322,0.084,-57.420,6.313,97.435,0.0,176.0
227220,-1.264,0.188,-0.014,-96.855,-20.145,153.336,0.0,191.0
227312,-1.249,0.245,-0.098,20.557,-32.885,210.634,0.0,172.0
227400,-0.690,0.536,-0.176,-35.015,-6.519,163.382,174.0,137.0
227491,-0.643,0.201,-0.106,-42.221,-0.916,72.198,161.0,0.0
227579,-0.799,0.333,-0.147,16.092,-14.084,-50.221,143.0,147.0
227672,-0.959,0.335,-0.129,60.382,-25.748,-172.122,175.0,0.0
227765,-1.291,0.386,-0.091,119.351,-23.137,-250.137,0.0,194.0
227858,-1.505,0.501,-0.052,21.893,22.244,-237.038,0.0,0.0
227952,-0.930,0.035,0.202,15.924,17.435,-55.504,0.0,0.0
228048,-0.786,0.356,0.114,72.023,-2.992,12.252,0.0,0.0
228142,-0.825,0.411,0.220,-5.824,8.252,31.313,0.0,0.0
228235,-1.073,0.345,0.181,-98.466,-5.214,43.931,0.0,0.0
228329,-1.460,0.296,0.083,-71.244,-19.359,60.336,0.0,0.0
228422,-1.228,0.153,-0.137,-90.137,-80.756,125.855,0.0,0.0
228514,-1.109,0.257,-0.247,-55.107,-40.725,147.664,0.0,176.0
228608,-0.720,0.309,-0.176,-109.794,-0.450,101.504,0.0,184.0
228701,-0.691,0.320,-0.036,-94.099,41.267,24.298,0.0,0.0
228794,-0.933,0.372,0.032,-101.450,73.855,-11.290,0.0,0.0
228885,-0.869,0.323,0.261,-118.092,126.809,11.046,0.0,89.0
228972,-0.935,0.375,0.122,-147.939,106.634,14.359,0.0,90.0
229057,-0.541,0.257,0.086,-134.107,84.053,50.137,0.0,60.0
229143,-0.193,0.281,-0.150,-34.611,69.954,81.962,0.0,57.0
229229,-0.240,1.385,-0.884,-27.023,98.901,141.550,0.0,59.0
229322,-0.816,1.501,-1.034,-96.611,218.977,250.130,198.0,0.0
229407,-0.887,0.843,-0.650,-3.672,142.595,213.229,175.0,67.0
229491,-1.172,0.676,-0.365,-111.802,62.595,172.031,175.0,71.0
229587,-0.491,1.558,-0.267,81.840,71.450,247.053,178.0,0.0
229681,2.000,1.033,0.731,-72.237,28.298,167.779,0.0,0.0
229775,2.000,-0.178,-0.179,-87.832,-10.969,83.641,0.0,0.0
229868,0.334,-0.013,-0.162,-33.573,64.252,-2.420,0.0,0.0
229962,-0.183,0.149,-0.022,-57.015,60.397,-20.046,0.0,0.0
230055,-0.100,0.141,0.132,-58.290,23.931,18.885,0.0,0.0
230150,2.000,0.170,0.835,59.237,-12.237,-54.344,0.0,0.0
230243,-0.587,1.253,0.129,121.176,-1.542,-92.481,0.0,0.0
230337,0.659,0.859,0.351,-77.412,18.809,-15.427,0.0,0.0
230433,0.663,0.338,0.356,-60.450,27.450,-21.565,0.0,0.0
230528,0.589,0.451,0.360,21.969,45.435,-95.565,0.0,0.0
230621,0.259,0.655,0.365,-27.763,97.886,-195.046,0.0,0.0
230710,-0.627,1.062,0.602,-168.992,85.382,-227.382,0.0,114.0
230798,-0.708,0.458,1.272,42.573,3.580,-31.672,0.0,104.0
230887,-0.297,0.855,0.534,101.550,-44.893,107.947,0.0,113.0
230976,-0.020,0.823,0.405,9.870,-21.115,55.206,0.0,116.0
231065,-0.009,0.678,0.547,-41.298,16.863,-11.069,0.0,116.0
231154,-0.197,0.626,0.734,-60.733,20.053,-48.458,0.0,114.0
231246,-0.269,0.741,0.749,38.542,0.565,-8.145,0.0,113.0
231335,-0.184,0.844,0.590,17.641,-7.908,6.664,0.0,113.0
231425,-0.153,0.800,0.612,-28.374,5.458,5.267,0.0,114.0
231513,-0.201,0.677,0.719,-26.046,6.344,1.840,0.0,114.0
231602,-0.196,0.616,0.758,11.756,-0.344,5.191,0.0,115.0
231691,-0.217,0.703,0.818,41.443,-16.374,4.656,0.0,114.0
231780,-0.257,1.044,0.609,-25.870,-35.298,23.198,0.0,115.0
231869,-0.102,0.510,0.605,59.756,-48.832,80.557,0.0,117.0
231951,-0.051,0.742,0.696,-58.664,-42.290,60.908,63.0,67.0
232037,0.405,0.621,0.738,87.015,-70.954,81.374,0.0,62.0
232131,0.458,0.849,0.370,40.420,-63.244,54.336,0.0,0.0
232215,0.539,0.677,0.356,42.786,-22.947,26.420,32.0,0.0
232291,0.452,0.694,0.301,10.076,-16.214,15.389,30.0,57.0
232375,0.445,0.776,0.313,11.969,15.382,-42.664,29.0,0.0
232452,0.388,0.924,0.340,2.908,32.389,-86.153,30.0,61.0
232527,0.224,0.877,0.368,-7.679,36.595,-93.511,31.0,57.0
232612,0.114,0.906,0.341,8.115,36.992,-100.679,37.0,0.0
232700,-0.099,1.156,0.278,16.176,61.244,-145.328,37.0,0.0
232784,-0.319,1.129,0.417,-61.962,68.710,-250.137,40.0,0.0
232865,-0.480,0.673,0.745,-133.015,96.145,-144.893,51.0,109.0
232954,-1.446,0.866,0.552,20.618,78.641,-77.191,0.0,112.0
233043,-1.462,0.396,0.097,90.176,50.962,-3.802,0.0,117.0
233121,-1.413,0.166,-0.085,99.031,20.916,-48.672,58.0,57.0
233207,-1.013,0.199,0.005,33.840,22.450,-61.015,0.0,52.0
233284,-0.484,-0.242,0.202,31.260,-33.611,-68.870,50.0,55.0
233370,-0.458,-0.075,0.242,138.115,-2.344,-24.328,0.0,56.0
233459,-0.553,0.344,0.318,121.038,-12.458,-16.458,0.0,60.0
233545,-0.463,0.519,0.310,84.053,15.244,-16.710,0.0,59.0
233632,-0.950,0.683,0.128,-29.626,16.298,-7.405,0.0,64.0
233720,-1.600,0.384,-0.286,-63.496,-48.321,-2.038,0.0,99.0
233808,-0.732,0.224,-0.052,-8.008,-48.855,108.290,0.0,95.0
233900,-0.634,0.475,-0.209,-36.832,-41.092,68.786,0.0,139.0
233992,-0.875,0.347,-0.091,-52.290,-2.252,-4.580,0.0,164.0
234084,-1.002,0.341,-0.023,-48.504,27.053,8.405,0.0,173.0
234177,-1.118,0.312,0.079,-58.672,34.931,22.771,0.0,188.0
234269,-0.924,0.078,0.395,-2.718,23.252,-32.382,0.0,194.0
234362,-0.927,0.381,0.242,-27.634,30.450,-31.786,0.0,186.0
234449,-0.770,0.303,0.182,-68.198,28.221,-52.489,0.0,81.0
234536,-0.787,0.374,0.109,-107.901,41.481,-47.550,0.0,72.0
234622,-0.788,0.300,0.120,-164.183,39.031,-46.817,0.0,56.0
234708,-1.037,0.262,0.073,-162.145,23.901,-33.389,0.0,56.0
234795,-1.488,0.157,-0.202,-99.771,-47.168,6.794,0.0,62.0
234884,-1.297,-0.045,-0.379,-11.504,-101.832,127.969,0.0,87.0
234975,-0.599,0.293,-0.269,71.557,-6.779,139.374,0.0,95.0
235065,-0.685,0.559,-0.328,-93.313,15.573,17.595,0.0,121.0
235158,-0.958,0.210,-0.133,-131.076,37.809,-28.405,0.0,162.0
235250,-1.052,0.259,-0.002,-61.870,34.290,-2.817,0.0,168.0
235343,-1.071,0.260,0.068,-11.588,22.221,-13.893,0.0,172.0
235437,-0.905,0.225,0.136,-49.618,20.466,-25.397,0.0,176.0
235532,-1.007,0.121,0.281,-34.244,11.176,-15.832,0.0,197.0
235626,-0.830,0.194,0.286,-56.656,8.756,10.473,0.0,0.0
235721,-0.169,0.111,0.336,-8.305,-1.260,7.779,0.0,0.0
235819,0.167,0.523,0.152,-8.786,-29.534,46.878,0.0,0.0
235912,0.013,0.278,0.140,-114.588,-17.878,82.046,0.0,172.0
236000,-1.348,0.503,0.379,18.489,-15.710,39.908,0.0,86.0
236082,-1.935,0.667,0.342,-206.878,-70.137,-22.389,118.0,71.0
236165,-2.000,-0.143,0.359,-38.412,-16.924,-76.840,113.0,73.0
236248,-2.000,-0.770,1.477,-73.198,-70.718,48.282,116.0,73.0
236341,-0.274,1.205,0.028,34.595,28.023,0.290,0.0,72.0
236419,-0.842,0.445,0.270,5.634,39.290,-24.000,58.0,72.0
236499,-0.699,0.070,0.471,-31.534,67.992,-43.237,47.0,73.0
236576,-1.004,0.404,0.307,-0.389,53.267,-49.382,48.0,74.0
236654,-1.086,-0.321,0.604,118.702,15.389,-39.588,44.0,75.0
236732,-1.079,0.304,0.272,223.298,-42.435,-1.397,48.0,79.0
236826,-0.560,0.674,0.508,-40.008,-59.847,55.450,0.0,0.0
236913,-0.370,0.355,0.337,-28.588,-25.763,89.458,0.0,87.0
237006,-0.651,0.504,0.319,-96.496,26.618,59.763,0.0,0.0
237100,-1.095,0.101,0.432,-45.748,11.679,-20.115,0.0,0.0
237182,-1.212,0.230,-0.044,14.618,-5.519,-17.740,110.0,100.0
237274,-1.543,-0.831,0.462,-35.817,26.260,-32.992,0.0,100.0
237357,-0.656,0.326,0.333,5.893,2.626,10.153,111.0,100.0
237438,-0.881,0.122,0.486,-2.336,1.511,2.176,111.0,100.0
237521,-0.844,0.267,0.463,-1.267,2.389,-0.176,111.0,100.0
237604,-0.889,0.285,0.506,5.305,6.916,5.458,111.0,100.0
237684,-0.783,0.283,0.384,-2.992,7.672,-6.618,46.0,101.0
237766,-0.878,0.229,0.438,-7.176,18.809,-1.466,111.0,100.0
237849,-0.891,0.191,0.345,-19.092,18.160,-1.336,111.0,100.0
237932,-0.988,0.148,0.667,-3.878,16.496,6.099,110.0,100.0
238029,-0.952,0.074,0.468,2.718,-5.542,32.092,0.0,0.0
238108,-0.587,0.158,0.629,-50.893,-55.817,-15.954,51.0,97.0
238191,-0.639,0.487,0.218,-21.115,-24.023,-22.191,118.0,97.0
238271,-0.657,0.232,-0.147,0.809,77.183,-22.046,58.0,94.0
238351,-1.324,-0.895,1.032,-41.298,-33.634,2.489,58.0,95.0
238434,-0.813,0.696,0.433,45.359,-23.573,25.840,119.0,94.0
238513,-0.920,0.187,0.582,1.802,1.328,17.550,55.0,94.0
238593,-0.801,0.183,0.420,-18.786,-5.328,13.511,57.0,94.0
238679,-0.819,0.301,0.482,15.618,-24.092,18.389,119.0,93.0
238757,-1.032,0.244,0.467,-15.290,-21.137,8.313,55.0,93.0
238837,-1.140,0.170,0.086,-47.626,15.229,25.725,53.0,93.0
238923,-0.959,0.081,0.260,-1.809,49.954,9.198,118.0,148.0
239001,-0.758,0.176,0.407,68.511,54.374,-20.863,44.0,88.0
239086,-0.988,0.703,0.238,134.817,64.023,-5.954,44.0,195.0
239173,-1.132,0.202,0.105,79.534,117.092,-29.458,0.0,81.0
239260,-1.079,0.094,0.075,227.656,48.893,-58.206,0.0,74.0
239351,-1.079,0.369,-0.352,232.634,16.695,-18.878,0.0,170.0
239447,-0.970,0.416,-0.281,57.763,-29.557,-52.389,0.0,160.0
239538,-0.757,0.339,-0.282,3.763,26.611,-140.336,0.0,152.0
239632,-0.937,0.326,-0.304,-95.008,5.496,-94.824,0.0,0.0
239725,-0.827,0.112,-0.039,-17.878,-12.916,17.702,0.0,0.0
239811,-1.546,-0.060,-0.480,6.679,-66.954,127.252,59.0,0.0
239903,-0.767,-0.061,-0.118,38.366,-83.458,171.511,0.0,163.0
239997,-0.449,0.175,0.214,-2.336,-2.382,81.176,0.0,0.0
240091,-1.652,0.468,-0.082,-95.878,13.130,6.802,0.0,0.0
240185,-1.395,-0.092,0.026,-72.145,-28.046,29.542,0.0,0.0
240282,-0.998,0.012,-0.045,62.992,-26.802,24.542,0.0,0.0
240375,-0.783,0.065,0.007,36.137,-24.702,-3.649,0.0,0.0
240468,-0.721,0.138,0.038,15.893,-4.794,-5.206,0.0,193.0
240563,-0.743,0.193,0.092,-1.954,6.931,-3.908,0.0,191.0
240656,-0.891,0.166,0.151,-5.977,-6.382,-10.496,0.0,191.0
240749,-0.959,0.239,0.135,42.298,3.763,11.389,0.0,181.0
240842,-1.067,0.493,-0.042,16.458,22.183,-27.931,0.0,0.0
240929,-0.991,0.396,-0.074,-19.519,12.183,-50.313,0.0,73.0
241026,-0.845,0.250,-0.069,61.595,2.160,-16.649,0.0,194.0
241120,-0.719,0.499,-0.137,40.687,6.328,-19.840,0.0,192.0
241213,-0.922,0.409,-0.132,-36.603,2.450,-40.557,0.0,0.0
241307,-0.985,0.322,-0.101,37.771,1.069,-20.618,0.0,0.0
241401,-1.007,0.419,-0.132,9.008,0.076,13.298,0.0,0.0
241496,-1.099,0.236,-0.042,-26.878,-16.550,59.061,0.0,0.0
241589,-1.116,0.231,-0.024,23.420,-40.382,73.489,0.0,0.0
241683,-0.786,0.206,0.033,34.618,-19.595,18.282,0.0,0.0
241777,-0.909,0.219,-0.014,-40.137,-0.878,-40.321,0.0,0.0
241874,-0.910,0.132,0.078,8.275,-1.634,-30.183,0.0,0.0
241969,-0.916,0.303,0.057,25.374,6.496,-33.947,0.0,0.0
242062,-0.897,0.299,0.093,-26.443,19.725,-32.916,0.0,0.0
242156,-0.927,0.223,0.150,-30.878,18.832,-15.573,0.0,0.0
242250,-0.901,0.236,0.141,-13.061,11.198,2.634,0.0,0.0
242344,-0.912,0.296,0.095,-24.557,12.191,3.389,0.0,0.0
242433,-1.195,0.319,0.041,-16.458,8.137,-3.901,0.0,95.0
242527,-0.998,0.239,-0.066,-42.099,-20.832,33.397,0.0,0.0
242616,-0.959,0.204,-0.087,-44.229,-25.435,88.061,0.0,114.0
242710,-0.880,0.309,-0.130,-23.962,-30.985,46.099,0.0,142.0
242801,-0.725,0.263,-0.101,-36.908,-16.595,25.687,0.0,151.0
242895,-0.381,0.175,-0.049,-42.878,-11.863,42.466,0.0,0.0
242988,-0.083,0.135,0.112,-74.405,-20.206,102.237,0.0,160.0
243076,-0.319,0.246,0.215,-89.099,-30.160,78.053,0.0,83.0
243163,-0.435,0.701,0.576,-18.061,0.656,5.504,0.0,80.0
243250,-0.691,0.868,0.051,-149.260,6.344,-17.198,0.0,80.0
243337,-2.000,-0.344,0.054,-147.908,87.855,-141.206,0.0,71.0
243426,-1.143,0.240,2.000,-50.061,-102.427,54.832,0.0,112.0
243518,-0.587,0.668,0.219,-44.053,20.023,11.565,0.0,112.0
243599,-0.833,0.583,0.693,61.191,8.718,33.107,46.0,111.0
243679,-0.737,0.857,0.638,1.496,32.939,0.802,38.0,113.0
243758,-0.800,0.458,0.423,29.481,32.145,-2.550,30.0,92.0
243846,-0.824,0.533,0.448,10.702,51.084,-2.733,0.0,93.0
243924,-0.935,0.305,0.330,23.305,36.779,-14.725,30.0,105.0
244003,-0.833,0.505,0.158,17.740,42.794,-16.580,31.0,99.0
244082,-0.910,0.463,0.110,34.565,21.641,-9.115,32.0,99.0
244164,-0.960,0.360,0.135,6.031,26.718,-19.443,34.0,80.0
244242,-0.854,0.476,-0.042,6.038,22.649,-14.748,36.0,79.0
244330,-0.907,0.420,-0.024,2.504,21.855,-13.649,0.0,79.0
244417,-0.883,0.510,-0.082,-12.664,18.885,-14.092,0.0,80.0
244505,-0.883,0.462,-0.157,10.473,4.260,-5.137,0.0,80.0
244592,-0.954,0.373,-0.025,2.344,3.565,-9.145,0.0,79.0
244679,-0.904,0.348,-0.049,9.435,2.015,-5.893,0.0,80.0
244767,-0.937,0.338,-0.020,1.168,3.359,-8.664,0.0,80.0
244854,-0.939,0.360,-0.067,9.511,3.809,-7.687,0.0,80.0
244945,-0.947,0.336,-0.018,11.053,6.664,-11.916,0.0,80.0
245032,-0.936,0.381,-0.077,15.099,7.580,-16.763,0.0,81.0
245110,-0.978,0.305,-0.081,49.298,8.412,-14.397,30.0,82.0
245189,-1.097,0.193,-0.097,54.947,-14.885,-7.641,29.0,83.0
245267,-1.160,0.145,-0.223,-2.771,-35.038,7.527,28.0,85.0
245349,-1.264,0.036,-0.308,86.328,-35.427,-0.344,106.0,75.0
245431,-1.266,-0.251,-0.330,165.137,-44.550,-67.672,105.0,81.0
245518,-1.074,0.172,-0.176,124.031,-50.290,-99.855,174.0,79.0
245600,-0.695,0.015,0.176,24.763,-63.015,-82.443,109.0,75.0
245689,-0.410,-0.083,0.386,101.939,-69.366,-17.366,164.0,71.0
245777,-0.791,0.157,0.255,150.947,-29.023,34.710,168.0,122.0
245870,-1.146,0.398,0.158,37.122,-7.053,61.687,186.0,0.0
245964,-0.851,0.172,0.313,-22.221,16.374,77.817,190.0,0.0
246051,-0.571,0.334,0.320,-13.679,45.901,34.817,194.0,70.0
246137,-1.172,0.401,0.243,-10.038,64.847,4.580,182.0,71.0
246223,-1.000,0.388,0.052,-48.618,62.794,5.542,172.0,75.0
246309,-1.037,0.378,-0.046,-70.687,47.595,-54.328,167.0,79.0
246400,-1.276,0.298,-0.197,-103.122,30.664,-26.076,169.0,85.0
246488,-1.149,0.162,-0.299,-108.893,8.931,58.221,0.0,95.0
246578,-0.960,0.368,-0.355,-104.748,14.702,42.282,0.0,114.0
246666,-0.878,0.298,-0.394,-146.618,28.191,-13.374,0.0,78.0
246754,-0.890,0.206,-0.407,-144.260,18.244,-27.450,0.0,89.0
246847,-0.826,0.200,-0.312,-110.611,7.374,-18.237,0.0,169.0
246940,-0.778,0.182,-0.127,-103.656,3.038,41.924,0.0,182.0
247035,-0.972,0.387,-0.086,-87.130,61.244,32.374,0.0,0.0
247130,-1.013,0.296,-0.208,-240.527,69.954,41.779,0.0,191.0
247227,-0.778,0.102,-0.043,-179.954,46.206,39.649,0.0,0.0
247322,-0.712,0.296,-0.114,-91.382,43.252,11.733,0.0,0.0
247415,-0.722,0.407,-0.222,-139.534,73.481,-29.092,0.0,173.0
247515,-1.331,0.354,-0.407,-189.496,65.069,-76.855,0.0,176.0
247607,-1.111,0.136,-0.409,-198.840,2.733,-43.275,0.0,178.0
247699,-0.991,0.017,-0.184,-51.687,-26.382,40.779,0.0,183.0
247792,-0.907,0.299,-0.267,64.817,-10.252,67.603,0.0,188.0
247886,-0.844,0.357,-0.221,-10.695,9.626,41.588,0.0,0.0
247983,-0.953,0.294,-0.118,-7.046,26.008,13.206,0.0,0.0
248076,-0.945,0.388,-0.032,-18.168,43.053,1.481,0.0,0.0
248169,-1.238,0.280,-0.020,-153.450,18.015,-26.145,0.0,0.0
248263,-0.961,-0.275,0.493,2.046,-37.244,-8.748,0.0,0.0
248356,-0.825,0.316,0.211,142.519,-44.481,10.794,0.0,193.0
248450,-0.698,0.323,0.129,52.847,-25.687,-7.427,0.0,191.0
248543,-0.840,0.370,0.086,21.321,23.779,-14.153,0.0,0.0
248637,-1.135,0.637,0.411,-141.977,34.603,-20.725,0.0,0.0
248729,-1.163,0.757,-0.248,-4.595,64.275,-32.664,0.0,180.0
248825,-0.861,0.183,-0.510,-250.137,45.901,-70.702,0.0,0.0
248915,-0.660,0.017,0.046,27.137,32.183,27.702,0.0,132.0
249010,-0.908,0.848,-0.355,-53.412,5.794,-12.611,0.0,0.0
249099,-0.882,0.028,0.020,-1.008,1.855,12.336,0.0,128.0
249192,-0.971,0.392,-0.165,111.374,16.649,46.939,0.0,0.0
249286,-0.826,0.490,-0.130,-96.977,7.458,1.702,0.0,0.0
249375,-0.690,0.530,-0.001,-222.534,66.863,-5.779,0.0,128.0
249465,-0.619,-0.062,0.227,-250.137,8.046,24.076,0.0,128.0
249555,-0.709,0.449,-0.045,-100.809,-98.374,56.313,0.0,132.0
249634,-0.742,0.272,0.028,-21.489,-182.725,72.221,53.0,46.0
249719,-0.782,0.864,0.306,16.496,-179.985,120.786,0.0,44.0
249814,-0.837,1.002,0.768,-81.893,-178.137,211.863,0.0,0.0
249908,-0.088,1.402,1.202,19.214,-37.557,78.855,0.0,0.0
250001,-0.297,1.282,0.793,-108.473,175.809,106.000,0.0,0.0
250085,-0.262,-0.721,0.752,-60.084,-172.260,45.076,30.0,0.0
250170,1.599,0.123,0.889,33.702,-96.145,135.015,34.0,0.0
250254,0.543,0.212,1.079,-79.008,-157.901,-121.298,40.0,0.0
250349,0.274,0.079,0.125,141.359,-92.122,134.641,160.0,0.0
250439,2.000,0.126,0.260,90.534,-33.534,38.557,140.0,0.0
250529,0.734,0.487,0.164,-120.305,161.496,8.420,138.0,0.0
250619,-0.133,-0.070,0.589,-121.168,-20.565,-43.450,136.0,0.0
250710,1.284,-0.014,1.132,64.473,-89.962,-53.725,137.0,0.0
250801,0.444,0.297,0.455,95.336,-44.550,-22.443,139.0,0.0
250891,0.848,0.422,0.380,60.557,-37.954,-14.229,142.0,0.0
250981,0.775,0.516,0.505,14.206,-41.603,-17.916,143.0,0.0
251072,1.035,0.945,0.511,-18.733,-29.321,12.229,145.0,0.0
251166,0.658,0.550,0.673,-250.137,-10.160,18.435,144.0,0.0
251246,0.426,-0.284,0.798,-158.344,-41.282,-28.366,84.0,76.0
251333,0.407,0.343,0.272,-105.565,-14.366,-88.084,0.0,68.0
251419,0.559,0.193,0.180,-207.466,25.061,-159.947,0.0,57.0
251503,0.475,0.268,0.655,-66.321,2.359,-194.275,0.0,40.0
251588,1.061,0.976,0.357,137.321,-35.504,-132.084,0.0,32.0
251682,0.436,1.006,0.204,21.176,58.885,-141.168,0.0,0.0
251774,0.303,0.672,0.584,151.588,-4.985,-53.756,184.0,0.0
251868,0.417,0.993,0.415,23.107,-0.252,-40.389,174.0,0.0
251963,0.354,0.969,0.081,56.107,7.145,-24.779,175.0,0.0
252055,0.267,0.757,0.166,58.328,16.229,-30.679,175.0,0.0
252148,0.241,1.135,0.021,42.878,17.794,-21.160,176.0,0.0
252240,0.151,1.155,-0.033,79.824,19.443,-17.588,177.0,0.0
252334,0.213,1.194,-0.342,72.916,18.947,2.840,178.0,0.0
252426,0.389,1.117,-0.358,30.802,11.794,22.634,177.0,0.0
252519,0.436,0.949,-0.323,-24.000,16.977,-11.557,175.0,0.0
252611,0.501,0.961,0.140,27.107,27.748,12.992,175.0,0.0
252707,0.342,0.997,0.060,9.214,15.824,24.305,173.0,0.0
252800,0.083,1.024,-0.347,-0.084,7.099,17.519,173.0,0.0
252892,0.120,0.839,-0.252,-3.412,-15.916,-0.229,172.0,0.0
252984,0.318,0.962,-0.330,-24.443,-16.855,1.511,173.0,0.0
253077,0.184,0.928,-0.332,-18.328,-19.176,-8.779,174.0,0.0
253169,0.187,1.013,-0.383,-11.908,-12.969,-2.450,175.0,0.0
253262,0.225,0.930,-0.254,-19.359,-6.962,-1.420,175.0,0.0
253356,0.274,0.938,-0.341,2.160,0.672,2.427,174.0,0.0
253448,0.355,0.884,-0.070,19.618,1.679,-4.046,174.0,0.0
253543,0.323,1.012,-0.132,21.282,1.672,1.496,174.0,0.0
253636,0.334,1.031,-0.284,7.328,-0.763,11.618,174.0,0.0
253728,0.390,0.994,-0.285,11.351,-0.611,17.206,174.0,0.0
253821,0.370,1.109,-0.381,-18.374,-6.053,11.023,173.0,0.0
253914,0.358,1.024,-0.383,-27.496,-16.641,64.389,171.0,0.0
254006,0.499,0.823,-0.197,-91.595,-6.015,84.954,168.0,0.0
254095,0.452,0.830,-0.193,-128.389,11.595,89.763,0.0,103.0
254181,0.644,0.647,0.123,-115.275,14.244,96.832,0.0,67.0
254267,0.854,0.607,0.260,-123.260,53.221,83.290,0.0,51.0
254355,0.823,0.322,0.407,-118.244,73.305,44.611,0.0,36.0
254440,0.650,0.194,0.569,-106.130,67.695,12.573,0.0,39.0
254525,0.696,0.155,0.738,-19.420,60.008,27.214,0.0,49.0
254611,0.612,0.189,0.752,-53.489,72.656,16.260,0.0,51.0
254697,0.416,0.059,0.798,-55.573,72.840,26.489,0.0,52.0
254775,0.448,0.155,0.869,-92.504,74.229,30.069,60.0,56.0
254853,0.172,-0.308,1.069,-155.679,40.511,27.649,58.0,58.0
254930,0.201,-0.447,1.011,-23.061,-0.221,54.939,52.0,61.0
255008,0.239,-0.570,0.990,-28.046,-14.664,40.786,51.0,63.0
255090,0.253,-0.450,0.931,30.802,-19.107,10.931,50.0,64.0
255168,0.319,-0.396,0.939,43.641,-5.863,-7.267,50.0,63.0
255246,0.410,-0.276,0.894,23.305,-7.954,-3.313,50.0,63.0
255324,0.400,-0.283,0.879,11.954,5.847,-0.588,48.0,62.0
255401,0.367,-0.250,0.914,15.115,6.634,-0.031,51.0,62.0
255479,0.274,-0.232,0.948,10.412,9.863,-1.977,56.0,62.0
255558,0.283,-0.239,0.953,15.321,15.489,-0.672,52.0,62.0
255636,0.259,-0.129,0.977,15.603,12.969,1.634,58.0,61.0
255713,0.264,-0.174,1.004,-0.824,7.626,6.748,23.0,61.0
255792,0.274,-0.212,0.988,-2.153,0.992,3.992,20.0,61.0
255867,0.256,-0.164,0.963,13.313,3.176,2.351,19.0,61.0
255944,0.258,-0.180,0.986,10.328,3.756,-5.206,18.0,61.0
256020,0.245,-0.146,0.961,5.496,5.252,-3.870,16.0,61.0
256098,0.279,-0.141,0.966,22.687,10.344,-3.290,46.0,60.0
256174,0.216,-0.118,1.016,21.870,19.557,-10.366,20.0,60.0
256251,0.195,-0.029,0.959,21.275,12.557,-3.466,57.0,60.0
256329,0.276,-0.018,0.899,16.015,31.000,-5.298,48.0,60.0
256407,0.338,-0.083,0.978,2.626,49.466,-31.137,46.0,60.0
256488,-0.131,0.066,1.112,4.519,83.397,-35.374,46.0,59.0
256566,-0.253,0.202,1.351,-72.893,51.359,-55.115,45.0,60.0
256644,-0.240,0.051,1.185,125.565,-17.893,-15.557,43.0,59.0
256721,0.216,0.569,0.678,118.962,-23.427,11.595,40.0,66.0
256799,0.324,0.252,0.727,72.382,41.053,21.557,39.0,69.0
256877,-0.039,0.370,0.958,92.099,81.176,11.649,44.0,70.0
256956,0.011,0.521,1.044,94.122,126.634,37.969,45.0,78.0
257034,-0.230,0.525,0.859,-54.412,176.389,42.405,31.0,82.0
257116,-0.593,0.175,0.749,-39.328,148.725,23.656,29.0,93.0
257201,-0.714,0.407,0.674,68.443,80.969,-3.786,0.0,20.0
257285,-1.135,0.740,0.419,94.191,56.061,-7.817,0.0,27.0
257360,-1.105,0.727,0.220,16.031,68.740,-7.221,37.0,30.0
257445,-1.059,0.560,0.175,-11.542,55.618,-19.893,0.0,33.0
257531,-0.976,0.228,0.201,53.031,50.496,-40.847,0.0,38.0
257622,-0.966,0.439,-0.040,58.855,22.328,-72.427,0.0,127.0
257710,-0.806,0.173,0.003,-0.802,1.366,-68.534,0.0,79.0
257800,-0.800,0.133,-0.038,43.885,-19.420,-36.901,0.0,123.0
257893,-0.749,0.177,-0.015,72.947,-23.786,-45.435,0.0,121.0
257983,-0.758,0.165,0.062,92.962,-10.481,-45.489,0.0,119.0
258073,-0.785,0.221,0.089,135.733,4.779,-40.664,0.0,123.0
258168,-0.801,0.380,0.060,89.221,18.924,-36.878,0.0,0.0
258263,-0.912,0.312,0.082,22.145,23.130,-33.191,0.0,0.0
258357,-1.053,0.318,0.071,12.084,27.679,-0.931,0.0,0.0
258448,-1.248,0.355,0.094,-0.962,22.687,22.038,0.0,131.0
258539,-1.032,0.220,0.106,-47.878,-20.084,75.802,0.0,135.0
258636,-1.152,0.187,0.059,-29.908,-41.489,110.504,0.0,143.0
258731,-1.000,0.336,-0.089,-9.985,-48.405,78.794,0.0,150.0
258822,-0.835,0.253,-0.016,-4.473,-25.466,72.908,0.0,158.0
258915,-0.612,0.448,0.115,-53.397,15.298,34.053,0.0,0.0
259006,-0.766,0.313,0.191,-105.656,24.870,-45.206,0.0,168.0
259092,-0.963,0.225,0.163,-18.099,24.649,-55.405,0.0,66.0
259184,-1.228,0.350,0.053,77.221,25.046,-61.954,0.0,169.0
259270,-0.990,0.482,0.057,60.458,34.557,-36.595,0.0,63.0
259355,-1.331,0.369,0.352,-27.107,-33.389,36.015,0.0,61.0
259441,-0.758,0.561,-0.006,98.427,-26.763,57.481,0.0,64.0
259524,-0.570,0.543,-0.054,-107.962,10.618,5.405,0.0,59.0
259610,-0.626,0.423,0.036,-109.107,59.336,-16.397,0.0,57.0
259695,-0.916,0.699,-0.033,-171.710,122.466,-73.679,0.0,54.0
259781,-1.090,0.059,-0.225,-250.137,100.458,-158.389,0.0,56.0
259858,-0.965,0.033,-0.189,-250.137,-19.336,-75.771,48.0,61.0
259939,-1.148,-0.131,0.191,-41.618,-126.519,-32.198,49.0,128.0
260020,-1.244,0.053,-0.345,250.130,-199.878,73.893,58.0,112.0
260106,-0.523,0.768,-0.421,111.931,-119.618,182.679,0.0,57.0
260195,-0.613,0.167,-0.039,-166.756,-38.298,185.962,0.0,60.0
260285,-0.600,0.201,0.201,-96.275,-13.107,178.870,0.0,140.0
260366,-0.618,0.441,0.418,-72.176,-52.435,168.992,47.0,138.0
260448,-0.727,0.977,0.786,-43.985,-89.756,174.496,41.0,136.0
260532,-0.104,0.948,1.887,-17.511,-41.603,59.359,40.0,0.0
260617,0.608,0.415,1.956,75.863,24.366,-40.809,39.0,0.0
260710,0.302,0.168,1.041,72.702,-11.992,-33.145,0.0,0.0
260804,0.111,0.559,0.481,-114.382,61.786,51.542,0.0,0.0
260883,0.147,-0.391,0.547,-165.557,-29.573,-85.542,51.0,46.0
260960,-0.058,0.109,0.656,92.237,4.489,-91.534,59.0,41.0
261037,-0.127,0.479,0.932,121.863,48.618,-91.298,53.0,37.0
261121,-0.607,1.275,1.481,-38.878,87.145,-35.550,0.0,36.0
261197,-0.220,0.239,1.462,-41.244,-21.817,8.214,57.0,36.0
261273,-0.560,0.400,1.427,-134.137,-42.542,-4.344,57.0,36.0
261350,-0.823,-0.210,1.282,-211.496,-82.886,-77.382,67.0,36.0
261437,-0.691,-0.442,1.018,-157.786,-73.351,-112.427,152.0,121.0
261528,-0.289,-0.106,0.560,-90.748,-33.290,-121.496,0.0,137.0
261622,0.021,-0.118,0.321,7.878,-42.481,-111.565,0.0,152.0
261713,0.397,0.055,0.333,45.023,-34.557,-38.382,0.0,155.0
261798,1.129,-0.066,0.630,31.992,-25.550,-51.863,0.0,51.0
261883,1.014,0.163,0.774,73.886,59.786,-76.550,0.0,43.0
261968,-0.002,0.361,0.718,12.504,112.649,-46.534,0.0,37.0
262053,-0.008,0.034,1.209,-59.779,84.901,10.489,0.0,45.0
262138,-0.115,-0.345,1.229,-95.954,34.183,33.183,0.0,45.0
262223,-0.194,-0.301,0.899,19.168,-6.893,74.351,0.0,48.0
262304,0.051,-0.110,0.675,-20.817,26.000,104.656,64.0,57.0
262381,0.057,-0.354,0.673,-22.527,72.695,51.115,58.0,47.0
262467,-0.378,-0.589,1.021,-90.542,85.679,8.885,0.0,57.0
262548,-0.674,-1.032,1.303,-83.397,44.275,-8.595,47.0,121.0
262625,-0.363,-0.609,0.931,53.176,-47.099,-13.328,47.0,60.0
262703,-0.165,-0.352,0.733,49.489,-42.061,-15.817,52.0,57.0
262784,-0.326,-0.445,0.868,15.557,-40.466,-26.023,51.0,117.0
262868,-0.162,-0.537,1.122,16.603,-93.275,-58.611,0.0,49.0
262953,0.021,-0.326,0.919,91.733,-119.679,-56.878,0.0,46.0
263043,0.255,0.044,0.738,47.618,-95.939,-1.160,0.0,45.0
263128,0.428,-0.200,0.918,-51.916,-64.634,-11.351,0.0,47.0
263213,0.512,-0.444,0.959,-42.786,-83.107,-17.450,0.0,51.0
263299,0.544,-0.308,0.663,29.412,-75.702,12.221,0.0,56.0
263385,0.705,-0.304,0.610,-33.733,-35.137,16.122,0.0,57.0
263471,0.717,-0.345,0.634,-0.611,-15.748,8.336,0.0,55.0
263556,0.717,-0.395,0.677,3.122,-4.015,1.427,0.0,53.0
263642,0.652,-0.137,0.639,-2.908,-0.763,-3.000,0.0,52.0
263727,0.696,-0.308,0.688,15.084,-4.084,2.328,0.0,53.0
263816,0.700,-0.372,0.680,-0.206,4.527,2.351,0.0,53.0
263902,0.672,-0.326,0.705,-1.214,7.504,-2.000,0.0,54.0
263987,0.673,-0.294,0.703,6.244,4.763,-3.458,0.0,54.0
264073,0.723,-0.316,0.633,18.878,18.504,-5.427,0.0,57.0
264159,0.725,-0.479,0.621,87.504,66.321,-13.634,0.0,50.0
264244,0.593,-0.349,0.706,113.710,127.221,-30.267,0.0,46.0
264333,0.265,0.377,0.562,125.992,182.382,-63.679,0.0,108.0
264422,-0.148,0.758,1.012,-27.947,128.748,-97.046,0.0,113.0
264511,-0.438,0.169,1.298,-83.321,80.168,-41.305,0.0,112.0
264603,-0.352,0.062,1.049,-17.977,-21.519,11.397,0.0,112.0
264692,-0.106,0.018,0.880,-11.183,-8.298,19.000,0.0,113.0
264781,-0.194,-0.081,1.031,-22.267,7.061,-0.519,0.0,113.0
264871,-0.197,-0.007,1.003,5.573,-3.710,3.336,0.0,113.0
264961,-0.184,0.017,0.987,-4.718,0.901,4.366,0.0,114.0
265050,-0.179,-0.041,0.991,0.687,-1.901,2.763,0.0,114.0
265139,-0.184,-0.039,1.000,0.962,0.718,0.214,0.0,114.0
265228,-0.184,-0.026,0.997,-4.038,-1.542,-0.603,0.0,114.0
265320,-0.185,-0.005,0.993,-2.031,0.252,0.405,0.0,114.0
265410,-0.179,0.001,0.985,1.313,-0.313,1.916,0.0,114.0
265499,-0.187,-0.021,0.998,-2.802,-0.015,2.275,0.0,114.0
265588,-0.192,-0.028,0.991,-3.573,-0.794,0.229,0.0,114.0
265677,-0.173,-0.005,0.987,1.519,-0.168,0.344,0.0,114.0
265766,-0.189,0.005,0.989,-0.802,0.000,1.733,0.0,114.0
265857,-0.185,-0.029,1.000,-4.267,-0.008,1.214,0.0,115.0
265946,-0.182,-0.027,0.991,-1.069,-0.305,0.710,0.0,115.0
266035,-0.181,-0.022,0.997,0.718,0.069,0.450,0.0,115.0
266127,-0.191,-0.024,0.990,-2.382,-0.389,1.458,0.0,115.0
266217,-0.186,-0.030,0.996,-1.550,-0.588,2.656,0.0,110.0
266306,-0.190,-0.028,0.996,-1.107,-0.076,1.565,0.0,115.0
266395,-0.186,-0.038,0.992,1.443,-0.832,0.626,0.0,115.0
266485,-0.189,-0.027,0.993,-0.878,-0.221,0.374,0.0,115.0
266574,-0.168,-0.019,0.985,-2.107,0.496,0.687,0.0,115.0
266663,-0.201,-0.020,0.993,-1.084,0.504,0.878,0.0,111.0
266753,-0.187,-0.045,1.004,4.336,-4.191,0.947,0.0,115.0
266843,-0.170,-0.033,1.000,4.824,-2.870,-3.672,0.0,111.0
266935,-0.156,-0.017,0.996,10.321,3.916,-4.237,0.0,114.0
267025,-0.194,0.016,0.996,13.076,4.313,-8.679,0.0,113.0
267114,-0.170,0.059,0.985,8.740,-1.725,-3.603,0.0,113.0
267203,-0.180,0.042,0.981,-9.130,-0.359,2.603,0.0,114.0
267285,-0.189,-0.023,1.000,-8.511,-0.649,6.153,58.0,113.0
267366,-0.191,-0.008,0.991,4.924,-5.053,2.191,57.0,113.0
267448,-0.192,0.034,0.972,-2.756,0.618,2.191,58.0,114.0
267537,-0.186,-0.032,1.024,0.565,0.107,1.550,0.0,114.0
267626,-0.178,0.037,0.986,5.756,-1.985,-0.817,0.0,113.0
267719,-0.188,0.019,1.008,-4.733,0.893,0.931,0.0,113.0
267808,-0.173,-0.001,1.004,0.137,-1.038,1.176,0.0,113.0
267889,-0.185,0.029,0.995,0.611,-0.977,0.412,58.0,113.0
267979,-0.174,0.034,0.986,1.420,-4.519,0.817,0.0,113.0
268068,-0.164,0.019,0.986,-2.389,0.656,-0.015,0.0,113.0
268158,-0.185,0.009,1.008,-0.061,-1.977,0.023,0.0,113.0
268248,-0.156,0.035,0.987,0.099,0.389,0.771,0.0,114.0
268337,-0.182,0.005,1.006,-1.786,-0.183,0.924,0.0,113.0
268427,-0.169,0.018,0.990,-0.107,-0.466,0.115,0.0,113.0
268519,-0.169,0.033,0.994,-0.321,-0.305,0.740,0.0,113.0
268609,-0.165,0.012,0.989,0.267,-0.595,0.710,0.0,114.0
268698,-0.175,0.019,0.999,-0.481,-0.687,0.603,0.0,113.0
268788,-0.166,0.015,0.992,0.351,-0.466,0.374,0.0,113.0
268877,-0.179,0.017,1.002,-0.275,-0.634,0.534,0.0,113.0
268967,-0.162,0.013,1.004,-0.038,-0.130,0.489,0.0,113.0
269057,-0.176,0.020,1.005,-0.198,-0.771,0.733,0.0,113.0
269147,-0.174,0.012,1.006,-0.840,0.168,0.328,0.0,114.0
269236,-0.166,0.018,1.002,-0.382,-0.450,0.710,0.0,113.0
269329,-0.178,0.015,1.000,0.206,-0.344,0.573,0.0,113.0
269419,-0.174,0.028,0.994,-0.244,-0.168,0.557,0.0,113.0
269508,-0.166,0.023,1.001,-0.427,-0.122,0.504,0.0,113.0
269598,-0.170,0.021,0.997,-0.382,-0.389,0.863,0.0,113.0
269693,-0.172,0.014,1.002,-0.244,-0.015,0.885,0.0,113.0
269782,-0.163,0.016,0.995,-0.305,-0.229,0.573,0.0,113.0
269871,-0.173,0.015,0.996,-0.374,-0.534,0.786,0.0,113.0
269959,-0.171,0.022,0.993,-0.710,-0.023,0.679,0.0,113.0
270048,-0.171,0.023,0.995,-0.244,0.137,0.885,0.0,113.0
270139,-0.167,0.012,1.000,-0.038,-0.023,0.908,0.0,113.0
270227,-0.173,0.025,0.991,0.443,-0.626,0.794,0.0,113.0
270316,-0.177,0.019,0.996,-1.122,0.115,0.748,0.0,113.0
270404,-0.169,0.023,1.002,0.168,-0.145,0.702,0.0,113.0
270493,-0.167,0.018,0.995,-0.374,-0.534,0.748,0.0,113.0
270581,-0.173,0.022,0.997,-0.344,-0.038,0.771,0.0,113.0
270670,-0.171,0.022,0.995,0.099,-0.336,0.855,0.0,113.0
270758,-0.170,0.014,1.004,-0.031,-0.084,0.687,0.0,113.0
270848,-0.166,0.021,0.993,-0.450,-0.122,0.496,0.0,114.0
270939,-0.169,0.017,1.004,-0.550,-0.382,0.962,0.0,114.0
271028,-0.165,0.024,1.001,0.321,-0.191,0.870,0.0,113.0
271116,-0.168,0.015,1.000,-0.786,-0.145,0.565,0.0,113.0
271205,-0.162,0.017,0.994,-0.038,-0.473,0.389,0.0,113.0
271293,-0.174,0.020,1.000,-1.252,-0.382,0.748,0.0,113.0
271382,-0.170,0.014,0.997,0.130,0.206,0.351,0.0,113.0
271470,-0.170,0.022,1.000,-0.221,-0.794,0.626,0.0,114.0
271559,-0.170,0.017,0.996,-0.603,-0.328,1.000,0.0,114.0
271647,-0.168,0.012,1.001,-0.618,-0.084,0.817,0.0,114.0
271739,-0.170,0.015,0.997,-0.771,-0.626,0.863,0.0,114.0
271828,-0.168,0.015,1.001,-0.649,-0.191,0.702,0.0,114.0
271917,-0.165,0.034,0.989,-0.458,-0.145,0.695,0.0,114.0
272006,-0.170,0.009,1.000,0.298,-0.336,0.618,0.0,114.0
272095,-0.167,0.020,0.992,0.092,-0.328,0.603,0.0,114.0
272183,-0.165,0.016,1.008,-0.679,-0.015,0.405,0.0,114.0
272272,-0.171,0.021,0.999,-0.321,0.046,0.351,0.0,114.0
272361,-0.165,0.011,1.002,-1.000,-0.855,0.786,0.0,114.0
272450,-0.170,0.018,0.994,-0.260,-0.176,0.985,0.0,114.0
272541,-0.172,0.018,0.998,-1.427,0.092,0.557,0.0,114.0
272630,-0.166,0.014,0.998,0.458,-0.893,0.237,0.0,114.0
272719,-0.173,0.030,0.996,-1.198,0.061,0.756,0.0,114.0
272807,-0.170,0.007,0.994,0.069,-0.427,0.344,0.0,114.0
272897,-0.174,0.023,1.007,-0.496,-0.771,0.679,0.0,114.0
272986,-0.167,0.016,1.007,-0.878,0.214,0.153,0.0,113.0
273075,-0.169,0.030,0.998,0.015,-0.397,0.405,0.0,114.0
273164,-0.158,0.010,0.994,-1.237,-0.092,0.626,0.0,114.0
273252,-0.172,0.019,1.003,-0.336,-0.046,0.817,0.0,114.0
273341,-0.186,-0.005,1.046,-2.672,-5.191,1.641,0.0,114.0
273430,-0.270,0.043,1.185,18.122,-47.649,18.863,0.0,50.0
273518,-0.132,0.190,1.041,6.588,-93.664,23.863,0.0,113.0
273603,0.064,0.168,0.962,-61.496,-103.412,16.122,0.0,44.0
273688,0.285,-0.115,0.869,-106.908,-98.260,-5.084,0.0,44.0
273774,0.421,-0.302,0.850,-56.511,-79.382,1.099,0.0,54.0
273860,0.490,-0.199,0.762,-12.779,-56.412,9.924,0.0,50.0
273945,0.597,-0.286,0.784,-22.176,-39.244,14.069,0.0,51.0
274031,0.583,-0.362,0.768,-27.954,-37.305,17.023,0.0,57.0
274112,0.629,-0.393,0.678,-7.000,-27.656,19.412,64.0,59.0
274198,0.667,-0.452,0.659,-4.008,-16.595,11.802,0.0,59.0
274284,0.659,-0.411,0.666,1.252,-8.496,1.939,0.0,57.0
274370,0.632,-0.379,0.668,2.115,-2.214,-2.412,0.0,60.0
274456,0.630,-0.363,0.671,3.328,2.137,1.603,0.0,57.0
274542,0.634,-0.373,0.692,-2.527,-0.298,4.916,0.0,57.0
274628,0.621,-0.400,0.692,-1.275,0.985,3.115,0.0,57.0
274713,0.623,-0.433,0.699,3.496,0.267,-0.557,0.0,57.0
274799,0.629,-0.385,0.702,0.855,-3.336,-1.267,0.0,59.0
274897,0.648,-0.378,0.687,1.878,-1.695,1.168,0.0,59.0
274985,0.637,-0.407,0.698,-1.107,-1.420,1.328,0.0,59.0
275075,0.632,-0.388,0.678,1.237,-2.061,0.107,0.0,61.0
275163,0.637,-0.390,0.694,-2.504,-1.130,0.603,0.0,60.0
275251,0.644,-0.383,0.681,0.023,-0.840,1.496,0.0,60.0
275339,0.636,-0.394,0.667,0.366,3.176,1.382,0.0,58.0
275428,0.636,-0.386,0.702,1.870,2.313,-0.504,0.0,57.0
275516,0.632,-0.359,0.684,0.412,-2.107,-0.008,0.0,57.0
275604,0.637,-0.363,0.660,0.908,1.450,1.099,0.0,57.0
275692,0.639,-0.387,0.701,2.573,0.847,0.489,0.0,58.0
275784,0.635,-0.402,0.697,-3.603,-2.229,-0.313,0.0,59.0
275872,0.644,-0.365,0.685,-7.824,-5.244,-1.550,0.0,58.0
275961,0.637,-0.364,0.667,-4.756,-8.092,-5.321,0.0,60.0
276049,0.670,-0.403,0.666,-13.008,-6.176,-5.710,0.0,58.0
276137,0.669,-0.379,0.621,-17.565,-0.344,-1.496,0.0,57.0
276227,0.677,-0.428,0.674,-17.687,1.069,-2.588,0.0,57.0
276306,0.671,-0.417,0.659,-14.023,-0.359,-2.244,64.0,58.0
276387,0.687,-0.403,0.646,-7.046,-6.046,-4.321,64.0,60.0
276476,0.675,-0.388,0.572,-0.023,-2.382,-0.115,0.0,60.0
276569,0.662,-0.358,0.580,-11.107,-1.191,-1.244,0.0,59.0
276657,0.677,-0.386,0.622,3.092,0.443,0.427,0.0,59.0
276738,0.690,-0.461,0.625,8.969,0.252,2.382,64.0,59.0
276826,0.686,-0.473,0.646,-5.443,1.595,0.504,0.0,58.0
276915,0.686,-0.465,0.652,-2.099,2.977,-0.221,0.0,62.0
277003,0.673,-0.417,0.659,-4.198,1.771,-1.160,0.0,59.0
277092,0.676,-0.423,0.660,-5.924,0.412,-0.397,0.0,57.0
277180,0.657,-0.341,0.585,-1.450,0.557,-0.214,0.0,57.0
277268,0.664,-0.358,0.613,-0.672,1.107,0.176,0.0,57.0
277360,0.653,-0.369,0.609,0.580,0.130,0.511,0.0,59.0
277449,0.669,-0.366,0.613,1.290,0.038,1.718,0.0,59.0
277537,0.658,-0.397,0.613,8.046,1.809,2.130,0.0,60.0
277626,0.667,-0.434,0.656,4.237,3.099,1.786,0.0,60.0
277714,0.668,-0.406,0.672,-1.198,1.756,0.305,0.0,60.0
277804,0.660,-0.413,0.670,-3.023,-0.031,-1.160,0.0,61.0
277893,0.657,-0.354,0.616,-0.779,0.626,1.282,0.0,59.0
277981,0.651,-0.362,0.632,2.084,1.725,3.641,0.0,59.0
278070,0.657,-0.408,0.660,5.282,3.229,3.550,0.0,57.0
278161,0.647,-0.430,0.675,4.458,1.053,2.771,0.0,58.0
278250,0.644,-0.432,0.668,2.534,0.580,1.527,0.0,59.0
278338,0.648,-0.425,0.671,4.420,2.992,0.779,0.0,57.0
278427,0.643,-0.441,0.694,-0.275,3.870,-0.229,0.0,58.0
278508,0.621,-0.382,0.673,-1.893,2.000,-1.504,63.0,60.0
278589,0.637,-0.394,0.701,4.626,0.389,1.206,65.0,61.0
278678,0.638,-0.433,0.696,0.038,-0.313,1.710,0.0,60.0
