Timestamp(ms),AccelX(g),AccelY(g),AccelZ(g),GyroX(deg/s),GyroY(deg/s),GyroZ(deg/s),DistanceLeft(cm),DistanceRight(cm)
22773,-0.201,-0.782,0.57,1.427,1.565,-2.672,170,70
22829,-0.208,-0.795,0.582,-0.076,-0.634,-0.603,169,70
22883,-0.212,-0.794,0.594,4.099,-3.924,-0.634,169,70
22938,-0.188,-0.775,0.616,6.107,-1.183,0.26,170,70
22992,-0.228,-0.771,0.8,13.16,-1.634,10.802,171,64
23047,-0.295,-0.741,0.907,33.649,-6.672,24.878,167,60
23101,-0.418,-0.721,0.92,59.42,-19,45.015,165,63
23151,-0.489,-0.773,0.835,77.107,-35.42,76.695,30,72
23205,-0.545,-0.683,0.798,82.985,-20.191,101.16,167,64
23260,-0.465,-0.504,0.718,75.137,-21.389,110.687,178,65
23316,-0.506,-0.47,0.741,60.061,-17.305,115.176,0,58
23362,-0.461,-0.417,0.805,54.191,-40.153,101.351,16,66
23407,-0.415,-0.406,0.782,54.458,-42.496,87.641,18,64
23453,-0.334,-0.277,0.773,46.664,-35.389,71.359,16,63
23507,-0.296,-0.219,0.827,35.229,-22.206,57.802,178,63
23563,-0.263,-0.189,0.859,26.206,-8.557,39.275,178,62
23613,-0.34,-0.157,0.941,19.931,14.939,29.015,38,62
23660,-0.399,-0.149,1.003,25.794,11.023,21.656,37,61
23706,-0.342,-0.173,1.005,38.885,10.939,17.786,37,62
23753,-0.408,-0.02,0.953,41.611,25.916,24.618,37,60
23809,-0.584,0.135,0.958,35.359,30.435,37.824,0,61
23856,-0.524,0.093,0.996,40.687,-17.008,32.641,36,60
23902,-0.45,0.202,0.878,38.351,-7.26,37.145,31,59
23950,-0.509,0.169,1.013,32.344,-9.42,37.985,58,60
23996,-0.407,0.196,0.813,25.611,-23.542,31.527,30,59
24045,-0.446,0.218,0.912,24.321,-8.084,36.244,30,59
24097,-0.51,0.263,1.042,29.832,-19.466,46.481,30,60
24142,-0.41,0.32,0.956,32.901,-34.405,54.382,25,60
24187,-0.327,0.365,0.937,33.076,-26.58,61.771,30,61
24232,-0.318,0.386,0.944,31.756,-13.679,70.893,27,61
24278,-0.285,0.427,0.915,30.71,-19.794,72.008,23,62
24323,-0.194,0.417,0.865,30.992,-21.061,69.191,20,63
24368,-0.126,0.481,0.871,29.366,-6.122,69.908,20,64
24413,-0.138,0.472,0.927,26.458,-17.74,62.908,16,65
24461,-0.048,0.506,0.839,24.099,-11.053,55.252,25,66
24506,-0.046,0.497,0.877,23.565,-4.13,50.763,17,67
24551,-0.031,0.498,0.83,24.092,-15.038,42.771,16,68
24596,0.023,0.526,0.807,24.756,-15.198,33.496,17,68
24641,0.018,0.587,0.845,22.344,-5.519,30.137,15,68
24686,0.01,0.592,0.844,20.786,-22.939,26.29,17,69
24731,0.114,0.632,0.807,18.908,-24.878,21.13,17,70
24776,0.108,0.642,0.802,15.382,-12.679,18.954,15,70
24821,0.071,0.647,0.829,15.649,-24.557,14.16,12,70
24864,0.187,0.674,0.745,16.595,-26.397,10.985,12,72
24909,0.185,0.674,0.794,14.458,-8.069,9.504,12,73
24954,0.146,0.69,0.8,16.527,-19.305,3.985,13,73
24999,0.243,0.747,0.716,13.107,-7.756,3.229,12,72
25044,0.124,0.698,0.834,10.573,-8.756,5.13,12,72
25090,0.22,0.757,0.767,14.412,-29.359,2.931,11,72
25135,0.213,0.742,0.762,14.015,-20.786,3.473,11,73
25223,0.262,0.752,0.674,14.595,-20.061,1.511,11,73
25268,0.198,0.743,0.709,14.664,-11.702,1.511,11,72
25316,0.285,0.755,0.651,16.42,-20.649,0.672,11,73
25361,0.298,0.774,0.671,15.145,-7.969,2.092,12,72
25406,0.269,0.784,0.68,12.542,-8.832,4.71,11,73
25451,0.291,0.788,0.654,12.252,-8.023,3.809,17,72
25496,0.271,0.798,0.692,12.901,-10.092,3.183,12,73
25541,0.312,0.793,0.636,13.466,-13.252,4.947,12,73
25586,0.326,0.794,0.627,12.038,-11.145,5.267,12,73
25631,0.312,0.805,0.641,10.901,-11.695,5.374,12,73
25676,0.299,0.778,0.645,12.16,-14,6.42,11,73
25724,0.358,0.796,0.587,13.214,-13.282,5.603,13,73
25771,0.345,0.799,0.579,12.702,-10.855,4.069,13,73
25816,0.34,0.818,0.597,13.206,-10.824,4.557,13,73
25861,0.362,0.812,0.562,13.351,-9.053,4.786,13,73
25906,0.385,0.812,0.57,11.137,-7.939,4.74,14,73
25952,0.369,0.813,0.557,11.344,-5.328,4.366,14,73
25997,0.372,0.813,0.548,12.328,-10.565,3.534,14,73
26042,0.41,0.82,0.519,11.397,-8.069,2.588,16,73
26088,0.384,0.827,0.553,10.954,-6.481,2.733,17,74
26136,0.38,0.818,0.525,10.466,-9.275,4.527,17,74
26192,0.42,0.828,0.476,9.107,-2.954,2.87,0,74
26237,0.399,0.844,0.526,8.931,-0.244,2.412,16,74
26284,0.419,0.837,0.466,7.603,-0.153,2.305,16,74
26329,0.413,0.844,0.504,5.008,3.916,2.336,16,74
26375,0.409,0.834,0.483,5.679,1.511,4.489,16,74
26420,0.431,0.833,0.474,5.656,4.336,0.626,16,73
26465,0.39,0.853,0.496,6.252,3.42,2.481,16,74
26511,0.417,0.833,0.47,6.962,2.061,3.466,16,74
26557,0.432,0.83,0.457,3.008,6.214,2.389,37,73
26607,0.405,0.844,0.461,-1.534,12.382,4.122,37,73
26653,0.405,0.826,0.473,-2.412,11.099,3.137,36,73
26710,0.42,0.831,0.472,-4.366,13.916,1.611,0,73
26756,0.404,0.82,0.494,-5.481,14.87,1.008,16,73
26801,0.393,0.813,0.483,-6.985,17.962,-0.672,16,73
26846,0.396,0.798,0.514,-9.733,18.824,-3.863,14,73
26892,0.393,0.822,0.534,-12.901,26.718,-5.557,14,73
26937,0.355,0.802,0.567,-15.962,21.244,-5.679,14,73
26983,0.373,0.805,0.563,-18.779,22.038,-7.802,12,73
27031,0.334,0.806,0.651,-22.298,19.618,-7.099,14,73
27077,0.363,0.793,0.564,-22.733,16.985,-11.893,16,73
27122,0.311,0.743,0.657,-24.519,18.237,-16.969,16,73
27168,0.32,0.769,0.673,-26.321,15.527,-19.527,16,73
27213,0.314,0.767,0.644,-34.534,32.725,-18.206,14,73
27259,0.222,0.729,0.734,-33.763,29.786,-19.573,16,72
27305,0.233,0.712,0.664,-35.733,30.244,-21.221,17,72
27351,0.226,0.681,0.693,-39.916,39.641,-28.779,16,71
27397,0.137,0.642,0.787,-37.313,23.359,-36.305,17,71
27445,0.138,0.637,0.75,-35.153,16.527,-41.878,17,71
27491,0.077,0.616,0.784,-35.351,20.206,-44.885,17,70
27580,0.096,0.583,0.746,-38.618,24.702,-56.595,17,68
27625,-0.002,0.541,0.825,-40.573,34.13,-61.824,16,68
27671,-0.079,0.47,0.877,-36.542,22.305,-67.947,16,67
27716,-0.126,0.545,0.878,-38.244,30.962,-71.809,18,66
27762,-0.221,0.467,0.938,-36.137,29.023,-73.679,21,66
27806,-0.271,0.471,1.015,-33.45,20.13,-66.595,22,36
27865,-0.267,0.417,0.948,-31.664,10.191,-67.015,0,64
27911,-0.294,0.344,0.959,-29.916,25.649,-67.206,16,64
27966,-0.361,0.327,0.938,-23.786,27.214,-67.832,0,64
28022,-0.441,0.293,0.961,-20.183,27.198,-67.328,0,65
28079,-0.484,0.268,0.977,-17.557,13.16,-66.672,0,64
28124,-0.457,0.233,0.944,-15.481,9.672,-66.527,16,63
28180,-0.474,0.228,0.949,-12.145,13.282,-66.939,0,65
28225,-0.561,0.162,0.968,-4.443,8.473,-64.023,17,64
28270,-0.558,0.148,0.972,1.779,-2.084,-62.992,10,65
28318,-0.478,0.16,0.903,6.71,-0.939,-61.603,10,66
28364,-0.5,0.132,0.925,6.71,15.435,-57.664,19,66
28409,-0.54,0.109,0.926,11.008,9.412,-57.298,16,67
28466,-0.553,0.108,0.898,13.29,7.412,-54.084,0,68
28522,-0.589,0.086,0.957,15.992,10.435,-46.954,0,68
28567,-0.542,0.07,0.919,20.382,-6.649,-43.565,16,59
28613,-0.523,0.071,0.928,20.779,-8.878,-40.679,16,74
28669,-0.509,0.062,0.922,19.092,-5.786,-37.557,0,76
28726,-0.525,0.053,0.916,17.084,-5.489,-33.534,0,64
28775,-0.495,0.06,0.879,16,-7.458,-30.267,17,73
28821,-0.502,0.056,0.897,15.16,-5.893,-27.992,18,77
28877,-0.493,0.052,0.893,15.198,-10.748,-27.473,0,73
28934,-0.48,0.086,0.912,11.733,0.107,-23.817,186,72
28990,-0.498,0.084,0.933,11.466,-1.87,-20.16,187,77
29036,-0.476,0.087,0.929,10.977,0.718,-14.107,16,83
29082,-0.475,0.087,0.922,10.695,3.008,-11.267,16,78
29128,-0.501,0.071,0.934,9.771,2.672,-9.229,16,72
29174,-0.473,0.075,0.919,12.405,-2.099,-8.565,16,72
29223,-0.478,0.075,0.912,12.771,2.282,-6.298,16,75
29270,-0.464,0.088,0.921,12.206,-0.427,-5.977,16,72
29325,-0.471,0.093,0.912,9.191,1.069,-3.672,175,73
29371,-0.471,0.114,0.918,5.718,-1.672,-3.046,16,80
29417,-0.467,0.104,0.909,3.397,-1.679,-0.74,16,75
29463,-0.463,0.114,0.9,1.229,-3.733,-0.122,16,74
29509,-0.476,0.096,0.896,-0.397,1.458,0.58,16,75
29556,-0.49,0.097,0.924,-0.176,0.313,-0.695,36,78
29612,-0.48,0.07,0.925,0.328,0.168,0.107,177,79
29671,-0.454,0.092,0.92,2.481,0.489,1.237,176,77
29726,-0.476,0.098,0.924,-0.214,4.16,3.053,189,73
29783,-0.499,0.084,0.943,-1.672,-1.214,2.26,188,72
29839,-0.472,0.076,0.915,-0.008,-5.382,2.366,189,73
29894,-0.458,0.094,0.906,1.115,0.58,2.145,189,73
29950,-0.472,0.104,0.921,1.718,0.763,4,178,74
29998,-0.486,0.132,0.94,-2.534,-0.42,6.008,37,74
30045,-0.473,0.086,0.933,-2.099,-6.954,7.13,37,75
30135,-0.443,0.113,0.919,0.366,6.229,4.725,36,76
30183,-0.465,0.164,0.966,-2.977,6.122,5.74,36,83
30234,-0.483,0.127,0.935,-6.939,3.855,9.87,38,88
30297,-0.453,0.142,0.935,-5.405,1.863,9.962,0,75
30353,-0.478,0.097,0.912,-3.092,-1.015,11.16,0,74
30399,-0.462,0.085,0.906,0.824,-0.153,9.672,38,74
30444,-0.486,0.065,0.935,4.679,0.023,8.786,16,74
30499,-0.427,0.079,0.925,5.641,-5.504,6.26,183,74
30554,-0.401,0.107,0.918,2.252,3.779,5.473,183,75
30609,-0.455,0.087,0.917,2.565,0.313,1.16,183,75
30664,-0.438,0.102,0.894,2.756,5.099,-0.832,183,74
30722,-0.441,0.125,0.932,3.45,0.695,-3.496,184,75
30777,-0.424,0.125,0.903,4.115,7.534,-4.305,185,73
30832,-0.476,0.134,0.939,6.084,9.359,-5.412,186,74
30888,-0.473,0.158,0.941,5.779,5.58,-5.542,0,72
30944,-0.482,0.155,0.93,2.389,4.916,-4.519,0,73
30991,-0.482,0.156,0.913,1.748,2.206,-2.939,36,73
31037,-0.479,0.138,0.904,3.313,0.023,-3.71,36,74
31083,-0.496,0.156,0.918,3.641,3.679,-2.305,37,73
31138,-0.511,0.167,0.92,3.359,1.198,-1.382,185,73
31196,-0.493,0.156,0.913,1.321,-0.443,-0.084,184,73
31251,-0.496,0.159,0.914,1.031,2.328,0.824,185,73
31306,-0.491,0.15,0.893,0.901,-0.771,1.763,186,74
31362,-0.471,0.163,0.911,0.588,-3.519,0.634,188,74
31418,-0.46,0.148,0.914,-0.023,-3.069,0.336,187,76
31464,-0.462,0.161,0.903,-1.489,0.641,0.137,17,82
31510,-0.471,0.163,0.91,0.122,-1.893,-0.504,17,90
31556,-0.456,0.163,0.899,0.496,0.809,0.214,17,90
31602,-0.49,0.151,0.92,0.718,2.237,0.427,17,90
31662,-0.479,0.166,0.909,-0.679,2.092,-0.565,0,89
31719,-0.488,0.156,0.935,-2.763,-1.962,0.74,0,89
31776,-0.442,0.167,0.878,-3.756,-0.71,-0.076,0,89
31833,-0.479,0.159,0.906,-5.198,4.16,-0.695,0,89
31890,-0.495,0.147,0.921,-2.427,-5.733,-0.71,0,89
31946,-0.455,0.149,0.902,-2.634,5.634,0.992,0,82
31992,-0.502,0.147,0.944,1.916,-1.542,1.229,17,82
32049,-0.446,0.171,0.916,1.817,1.069,4.275,0,79
32105,-0.467,0.186,0.934,0.618,1.305,6.282,0,74
32160,-0.484,0.177,0.949,-0.519,-2.595,8.939,0,74
32220,-0.469,0.187,0.931,-1.565,-4.74,10.725,0,73
32265,-0.47,0.218,0.938,-1.092,-3.84,12.985,16,73
32311,-0.479,0.231,0.955,-1.382,-6.519,19.733,16,74
32356,-0.498,0.267,0.948,-2.534,-7.328,28.847,16,73
32402,-0.513,0.251,0.97,-1.679,-15.168,37.405,17,74
32458,-0.436,0.264,0.937,1.611,-17.58,42.847,0,80
32503,-0.436,0.292,0.952,4.298,-6.092,50.679,17,71
32549,-0.455,0.294,0.968,6.687,-9.832,57.176,16,70
32595,-0.407,0.316,0.963,8.382,-12.092,63.687,30,70
32654,-0.382,0.315,0.971,10.969,-17.115,66.725,0,68
32700,-0.32,0.326,0.971,13.557,-14.756,65.924,30,67
32789,-0.264,0.356,0.952,15.924,-11.618,66.321,25,66
32834,-0.219,0.381,0.943,17.695,-8.496,64.351,16,67
32879,-0.212,0.397,0.937,20.977,-5.649,61.206,17,65
32925,-0.213,0.419,0.952,24.267,-6.046,58.779,23,67
32970,-0.169,0.469,0.945,28.13,-6.832,60.267,23,65
33015,-0.137,0.49,0.925,30.466,-8.382,60.603,17,65
33062,-0.077,0.519,0.913,32.053,-4.985,59.153,44,65
33111,-0.075,0.557,0.926,31.588,-5.695,57.42,17,66
33156,-0.027,0.563,0.895,29.176,-8.153,55.176,17,66
33201,0.016,0.58,0.848,26.809,-0.74,52.878,17,66
33247,0.009,0.573,0.859,25.954,0.794,50.901,17,67
33292,0.044,0.572,0.803,28.16,-5.603,42.305,16,67
33337,0.089,0.579,0.754,26.802,3.573,36.779,18,67
33392,0.066,0.581,0.802,27.321,5.359,31.221,0,68
33438,0.121,0.641,0.769,23.023,8.817,26.321,16,69
33483,0.119,0.651,0.812,17.137,6.076,21.16,16,69
33531,0.141,0.685,0.799,11.992,2.794,18.137,16,69
33577,0.156,0.684,0.803,8.748,-1.099,15.924,16,70
33623,0.158,0.684,0.799,8.031,-5.573,14.412,17,70
33668,0.167,0.686,0.807,9.847,-6.687,12.656,14,70
33714,0.184,0.696,0.77,10.42,-13.779,11.618,16,70
33759,0.226,0.698,0.757,9.58,-12.702,9.824,15,71
33804,0.217,0.716,0.772,10.084,-8.679,7.779,14,71
33850,0.192,0.729,0.774,11.221,-12.008,7.595,17,71
33896,0.228,0.721,0.733,12.489,-13.137,6.198,17,72
33944,0.229,0.733,0.732,14.626,-11.824,5.527,17,71
33990,0.23,0.729,0.732,19.046,-19.191,6.565,16,71
34035,0.293,0.748,0.649,20.542,-18.779,3.061,16,72
34081,0.283,0.766,0.683,17.26,-12.389,3.244,16,71
34126,0.29,0.781,0.676,16.939,-15.534,2.832,16,71
34172,0.287,0.774,0.651,16.534,-16.206,2.924,16,72
34217,0.305,0.783,0.64,16.237,-12.305,3.573,16,72
34264,0.329,0.797,0.615,13.969,-10.076,2.573,15,72
34310,0.331,0.807,0.633,12.305,-10.099,3.435,15,72
34358,0.333,0.802,0.608,10.481,-10.42,3.198,15,72
34404,0.332,0.794,0.611,9.176,-6.588,2.656,14,72
34449,0.329,0.829,0.592,9.366,-4.725,4.389,15,72
34495,0.342,0.814,0.578,11.015,-7.015,3.031,15,72
34540,0.338,0.814,0.576,12.397,-6.779,1.824,15,72
34586,0.355,0.809,0.533,12.58,-7.221,0.885,16,73
34631,0.365,0.819,0.554,9.733,-7.595,0.534,14,73
34677,0.344,0.814,0.554,8.443,-4.496,2.634,17,73
34723,0.363,0.825,0.528,6.931,-3.748,3.557,17,73
34768,0.392,0.837,0.516,8.496,-4.305,0.832,17,73
34818,0.35,0.839,0.563,7.71,-3.542,1.168,17,73
34864,0.371,0.839,0.526,8.809,-5.847,1.542,17,73
34910,0.387,0.838,0.504,7.992,-6.511,0.573,18,73
34955,0.378,0.838,0.521,7.626,-5.618,1.206,17,73
35001,0.381,0.83,0.488,5.206,-3.198,1.901,17,73
35047,0.365,0.839,0.495,5.305,-1.229,0.573,17,73
35136,0.416,0.849,0.481,0.641,1.16,1.069,18,73
35181,0.382,0.844,0.5,0,0.382,0.397,17,74
35227,0.381,0.834,0.493,0.458,-0.794,1.313,17,73
35276,0.428,0.829,0.473,1.458,-3.206,-0.679,16,73
35321,0.408,0.842,0.5,0.924,2.634,-1.748,16,73
35367,0.389,0.846,0.507,1.618,-2.244,-1,16,73
35423,0.408,0.84,0.478,-0.328,1.008,-0.588,17,74
35468,0.395,0.848,0.494,-1.634,1.092,-1.71,17,74
35513,0.389,0.849,0.489,-0.992,0.679,-1.588,17,73
35558,0.386,0.837,0.488,-1.382,-1.557,-1.221,17,74
35603,0.404,0.832,0.459,-5.618,1.71,-1.168,16,73
35648,0.382,0.821,0.497,-7.252,5.412,-1.992,14,73
35693,0.396,0.836,0.446,-9.298,7.359,-2.885,14,73
35736,0.399,0.821,0.503,-11.855,12.084,-4.038,14,73
35781,0.39,0.837,0.534,-7.702,7.084,-7.122,14,74
35826,0.36,0.825,0.516,-7.924,9.916,-6.191,15,74
35871,0.384,0.814,0.553,-8.557,8.473,-7.42,14,73
35916,0.393,0.84,0.519,-8.573,8.969,-10.534,15,73
35962,0.349,0.832,0.558,-11.916,11.786,-9.695,15,73
36007,0.344,0.823,0.57,-12.412,11.252,-9.603,15,73
36052,0.339,0.812,0.585,-13.641,8.947,-11.313,15,72
36098,0.319,0.835,0.558,-16.74,14.679,-12.504,14,72
36146,0.29,0.807,0.602,-17.435,15.557,-11.458,17,72
36191,0.286,0.78,0.633,-18.107,12.031,-13.107,16,72
36236,0.307,0.781,0.632,-19.656,11.802,-15.382,16,71
36282,0.288,0.788,0.643,-25.29,25.031,-16.076,16,71
36327,0.278,0.758,0.664,-26.595,11.092,-26.397,15,71
36372,0.276,0.723,0.639,-29.061,14.611,-33.641,14,71
36417,0.204,0.711,0.701,-31.962,18.656,-38.107,17,70
36462,0.16,0.691,0.703,-34.229,19.023,-44.351,17,69
36510,0.086,0.647,0.758,-36.58,17.786,-47.832,17,69
36555,0.054,0.635,0.783,-36.084,5.733,-54.824,18,68
36600,0.061,0.669,0.792,-35.29,5.076,-58.145,18,68
36645,0.039,0.645,0.796,-34.221,2.611,-62.504,18,67
36691,-0.01,0.592,0.845,-32.58,7.099,-65.634,21,66
36737,-0.062,0.617,0.838,-31.901,9.023,-65.305,22,65
36782,-0.131,0.535,0.866,-29.847,9.176,-64.565,17,64
36827,-0.166,0.58,0.906,-27.962,8,-63.244,21,64
36872,-0.192,0.569,0.905,-28.588,3.656,-60.756,21,64
36920,-0.232,0.512,0.876,-27.771,3.595,-58.954,24,64
36966,-0.255,0.499,0.902,-29.954,5.176,-57.382,23,65
37011,-0.299,0.452,0.935,-28.84,-5,-57.954,23,64
37056,-0.279,0.424,0.906,-29.321,-7.084,-57.947,18,64
37101,-0.304,0.385,0.922,-26.763,-2.069,-58.412,17,65
37146,-0.302,0.362,0.875,-25.13,7.092,-59.725,16,67
37191,-0.352,0.347,0.933,-24.214,10.344,-59.13,17,66
37236,-0.353,0.361,0.962,-21.023,6.038,-58.87,16,68
37282,-0.377,0.303,0.939,-16.313,12.855,-59.069,28,69
37331,-0.429,0.234,0.985,-7.794,14.618,-61.389,28,71
37379,-0.428,0.285,0.996,-1.015,14.069,-59.954,29,81
37468,-0.461,0.243,0.979,5.313,7.595,-51.695,30,74
37515,-0.473,0.233,0.945,8.969,3.664,-46.458,30,78
37562,-0.476,0.219,0.957,9.733,2.74,-41.832,30,82
37608,-0.449,0.226,0.892,10.664,4.992,-39.038,17,82
37654,-0.473,0.207,0.91,9.359,7.282,-34.718,33,79
37700,-0.469,0.238,0.888,5.641,9.527,-31.198,16,80
37747,-0.515,0.199,0.934,1.481,8.763,-27.229,32,81
37797,-0.495,0.192,0.917,-2.137,2.908,-25.275,31,82
37842,-0.497,0.159,0.924,-6.618,4.565,-23.565,16,78
37890,-0.485,0.145,0.912,-9.649,0.55,-21.237,32,80
37937,-0.484,0.115,0.917,-12.176,0.198,-17.557,33,78
37984,-0.465,0.119,0.888,-12.695,5.023,-16.573,32,80
38030,-0.516,0.104,0.905,-13.733,8.58,-15.443,16,79
38076,-0.51,0.106,0.921,-10.954,1.855,-13.496,31,78
38123,-0.494,0.076,0.909,-9.351,1.809,-10.603,31,78
38170,-0.5,0.09,0.911,-6.046,1.939,-8.885,32,79
38219,-0.505,0.076,0.926,-3.176,1.16,-6.481,32,78
38266,-0.521,0.064,0.933,-0.87,-2.817,-4.542,32,78
38312,-0.512,0.055,0.926,1.412,-5.122,-4.603,32,78
38359,-0.501,0.051,0.935,2.374,-3.962,-3.901,16,78
38405,-0.484,0.048,0.921,1.947,-3.656,-2.244,16,78
38451,-0.477,0.046,0.924,0.634,-0.069,-0.351,16,78
38497,-0.478,0.04,0.909,-0.275,2.511,0.198,16,78
38542,-0.496,0.045,0.899,-0.206,0.679,-0.481,16,78
38588,-0.496,0.062,0.919,0.359,-1.183,1.389,16,79
38637,-0.473,0.061,0.917,1.359,-1.725,2.954,16,79
38683,-0.48,0.059,0.936,0.725,-0.244,4.481,16,78
38729,-0.477,0.064,0.92,0.405,-0.191,3.527,18,79
38775,-0.483,0.056,0.929,-0.305,2.954,3.649,16,78
38820,-0.485,0.042,0.919,-0.382,-0.061,3.496,16,79
38867,-0.48,0.048,0.911,0.748,2.053,2.87,31,78
38915,-0.494,0.043,0.921,1.45,1.542,2.046,31,78
38962,-0.463,0.067,0.912,-0.214,1.695,1.412,31,79
39007,-0.497,0.071,0.918,-2.595,3.351,3.924,16,80
39053,-0.514,0.038,0.936,-3.405,-3.824,6.786,16,79
39102,-0.462,0.026,0.919,-1.092,-1.931,6.031,16,78
39148,-0.473,0.035,0.94,0.664,1.725,6.16,16,78
39194,-0.46,0.06,0.921,0.427,1.504,5.863,16,80
39240,-0.478,0.041,0.917,-1.374,3.679,4.275,16,80
39286,-0.496,0.036,0.924,-0.611,2.038,1.901,16,78
39332,-0.476,0.038,0.91,0.382,-1.733,-0.84,16,77
39378,-0.466,0.051,0.906,-1.55,2.153,-2.107,16,77
39425,-0.505,0.046,0.941,-1.015,2.191,-0.282,16,78
39470,-0.487,0.047,0.912,0.679,-0.985,0,16,77
39519,-0.472,0.052,0.922,2.252,0.237,-0.55,16,80
39565,-0.476,0.063,0.923,2.397,1.847,-0.458,16,80
39611,-0.49,0.062,0.926,2.634,-1.908,-0.573,16,79
39659,-0.466,0.083,0.918,2.939,-3.893,-0.122,36,79
39706,-0.452,0.073,0.899,2.748,-0.191,-0.649,37,78
39752,-0.497,0.065,0.932,2.45,3.427,-1.725,16,78
39851,-0.477,0.076,0.911,1.878,1.183,-1.55,181,77
39906,-0.479,0.081,0.919,1.863,-1.008,-0.687,181,78
39962,-0.467,0.091,0.909,0.817,-0.412,-0.382,181,78
40020,-0.481,0.085,0.927,-2.008,1.878,-0.206,182,78
40077,-0.476,0.078,0.927,0.29,-3.183,0.855,181,79
40132,-0.46,0.091,0.928,1.962,-0.893,0.824,182,79
40188,-0.463,0.105,0.934,2.489,0,1.542,182,80
40244,-0.479,0.104,0.928,0.954,-0.466,3.443,182,78
40300,-0.49,0.102,0.932,0.069,-2.466,4.29,182,77
40355,-0.458,0.087,0.909,1.168,-0.557,4.702,182,77
40411,-0.466,0.118,0.931,1.863,2.443,5.252,181,77
40467,-0.47,0.119,0.926,0.595,-2.489,5.176,182,78
40517,-0.447,0.123,0.916,-1.954,-0.817,5.244,36,80
40573,-0.476,0.11,0.932,-3.115,-1.718,6.931,183,82
40630,-0.471,0.146,0.937,-2.664,-4.45,10.511,185,79
40677,-0.476,0.148,0.951,0.603,-5.779,17.931,36,83
40725,-0.471,0.179,0.959,3.023,-3.809,22.847,33,82
40771,-0.479,0.213,0.981,4.344,-9.046,31.237,17,79
40817,-0.471,0.223,0.954,5.008,-9.687,40.855,11,79
40863,-0.474,0.229,0.956,9.008,-9.863,48.053,16,83
40910,-0.458,0.257,0.965,14.534,-12.084,55.275,30,76
40961,-0.404,0.258,0.933,18.473,-10.557,59.389,30,86
41008,-0.41,0.291,0.968,18.939,-5.168,63.901,17,84
41055,-0.398,0.321,0.969,19.542,-8.458,67.878,29,73
41101,-0.357,0.344,0.953,18.733,-12.046,70.992,17,72
41147,-0.315,0.338,0.933,18.13,-8.534,70.267,29,71
41193,-0.304,0.369,0.949,18.053,-6.015,68.931,16,70
41239,-0.276,0.413,0.957,19.443,-9.588,67.756,17,70
41285,-0.212,0.425,0.914,21.16,-6.565,67.382,16,68
41330,-0.204,0.455,0.91,21.71,2.466,65.313,14,67
41379,-0.222,0.482,0.952,21.931,2.656,66.198,26,66
41425,-0.172,0.479,0.922,26.344,-9.168,65.176,16,67
41472,-0.095,0.502,0.889,28.191,-2.496,64.023,16,67
41523,-0.103,0.526,0.914,28.069,1.58,62.519,17,67
41568,-0.059,0.567,0.88,28.053,-1.802,59.733,17,68
41613,-0.013,0.582,0.853,26.634,2.237,56.618,16,69
41658,-0.019,0.59,0.858,24.298,7.435,53.954,17,68
41703,0.01,0.614,0.869,26.656,-4.031,49.733,16,69
41748,0.069,0.622,0.802,28.718,-7.198,45.351,16,69
41795,0.118,0.624,0.822,28.786,-6.099,39.908,17,69
41840,0.136,0.649,0.773,26.153,0.328,34.252,16,71
41885,0.145,0.657,0.764,21.878,-1.55,27.916,17,71
41930,0.146,0.68,0.78,18.321,-1.542,25.397,15,71
41975,0.163,0.69,0.753,16.466,-3.527,23.351,14,72
42020,0.183,0.688,0.767,15.351,-10.321,20.382,15,71
42066,0.215,0.704,0.736,14.206,-4.45,18.496,15,71
42112,0.207,0.711,0.728,11.748,-1.649,17.817,17,72
42157,0.226,0.718,0.717,9.42,-9.29,14.321,16,72
42205,0.283,0.73,0.713,6.901,-8.298,6.947,16,72
42260,0.244,0.725,0.718,5.412,-5.725,5.763,0,72
42359,0.27,0.758,0.735,11.878,-13.748,4.947,0,73
42404,0.311,0.736,0.682,10.008,-10.992,3.42,17,73
42450,0.281,0.738,0.685,7.061,-7.267,0.954,36,73
42507,0.283,0.779,0.7,9.191,-11.679,-0.031,0,73
42552,0.302,0.781,0.635,10.466,-11.092,0.466,17,73
42598,0.292,0.786,0.669,11.519,-8.87,2.878,17,73
42643,0.304,0.77,0.65,12.427,-16.954,3.374,17,73
42688,0.337,0.778,0.62,12.458,-12.115,2.282,17,74
42745,0.332,0.78,0.608,10.74,-11.885,2.969,177,74
42791,0.337,0.786,0.591,8.71,-10.519,3.504,16,74
42836,0.348,0.799,0.593,9.542,-7.473,2.16,21,74
42883,0.363,0.799,0.572,9.069,-5.855,1.542,19,74
42928,0.374,0.807,0.579,8.038,-5.443,2.832,16,74
42973,0.379,0.809,0.583,7.649,-2.931,2.45,16,74
43019,0.37,0.805,0.565,6.916,-4.947,3.191,16,75
43064,0.38,0.801,0.572,6.817,-7.29,2.855,16,74
43109,0.382,0.794,0.56,8.115,-5.595,2.489,16,75
43157,0.38,0.796,0.544,8.679,-3.595,2.16,16,75
43203,0.397,0.804,0.547,7.977,-2.16,-0.359,16,75
43248,0.383,0.809,0.542,4.435,-1.305,0.557,16,75
43294,0.4,0.825,0.553,3.29,-1.985,-0.16,16,75
43339,0.401,0.824,0.521,1.069,1.611,-0.023,16,75
43384,0.395,0.817,0.549,1.771,-1.069,-0.687,16,75
43430,0.404,0.827,0.527,3.374,-1.008,-1.344,16,75
43475,0.393,0.816,0.54,2.458,-1.176,-1.718,16,75
43522,0.398,0.831,0.533,2.107,-0.466,-1.924,14,75
43570,0.401,0.818,0.53,0.168,2.252,-1.099,14,75
43615,0.391,0.814,0.546,0.053,-1.153,-0.832,14,75
43660,0.377,0.803,0.533,-1.71,2.13,-0.695,14,75
43706,0.381,0.802,0.533,-3.763,2.053,-1.863,16,75
43751,0.383,0.814,0.532,-4.412,3.29,-3.305,16,75
43797,0.388,0.802,0.521,-4.786,3.359,-5.718,16,74
43851,0.371,0.817,0.572,-6.015,8.084,-6.183,178,74
43907,0.387,0.823,0.552,-5.519,4.931,-8.443,179,74
43962,0.356,0.807,0.579,-8.786,9.084,-6.389,180,74
44018,0.37,0.809,0.59,-8.405,0.229,-9.206,0,74
44077,0.364,0.789,0.563,-13.076,4.527,-9.359,0,74
44132,0.339,0.774,0.601,-13.481,2.672,-13.092,179,74
44178,0.361,0.793,0.573,-16.649,12.847,-15.733,16,73
44234,0.312,0.785,0.607,-19.473,15.84,-18.107,0,73
44279,0.293,0.795,0.654,-20.137,19.313,-21.893,16,72
44325,0.276,0.738,0.647,-22.916,21.916,-23.397,17,72
44370,0.299,0.752,0.642,-29.26,25.344,-29.908,16,72
44417,0.206,0.711,0.656,-36.611,32.191,-33.053,16,71
44462,0.157,0.7,0.691,-37.008,19.588,-41.046,19,71
44511,0.131,0.713,0.706,-40.389,19.519,-44.237,17,70
44556,0.087,0.645,0.774,-42.58,12.504,-45.847,16,69
44601,0.077,0.648,0.812,-41.069,9.237,-49.107,16,69
44647,0.063,0.644,0.785,-39.443,12.695,-51.908,18,68
44692,-0.023,0.609,0.859,-43.374,23.282,-51.802,16,68
44781,-0.086,0.532,0.893,-39.473,10.443,-60.588,17,70
44826,-0.09,0.546,0.881,-38.275,17.794,-62.115,16,67
44871,-0.166,0.515,0.935,-36.122,20.244,-62.45,16,66
44920,-0.202,0.483,0.945,-31.992,9.595,-62.832,21,68
44966,-0.228,0.453,0.934,-29.824,10.588,-63,23,66
45011,-0.272,0.412,0.958,-26.321,8.611,-63.313,17,66
45057,-0.31,0.39,0.997,-23.153,3.328,-63.053,16,66
45103,-0.296,0.377,0.957,-16.832,2.389,-61.496,25,66
45148,-0.307,0.359,0.967,-11.336,2.947,-60.389,16,67
45195,-0.342,0.332,0.973,-7.496,9.053,-56.817,29,67
45240,-0.389,0.31,0.981,-1.901,4.282,-54.374,27,67
45287,-0.416,0.308,1.004,0.756,-1,-50.931,28,69
45336,-0.4,0.309,0.956,3.771,-12.504,-48.763,29,68
45382,-0.356,0.288,0.961,1.076,-6.809,-42.382,31,71
45429,-0.341,0.276,0.942,0.107,-4.321,-41.748,32,86
45476,-0.342,0.276,0.93,-3.359,14.221,-37.756,29,74
45523,-0.437,0.222,0.974,-1.099,13,-35.824,29,82
45571,-0.421,0.246,0.946,3.847,6.229,-33.863,30,81
45618,-0.43,0.25,0.97,6.817,-1.489,-30.458,30,79
45664,-0.408,0.233,0.934,10.298,-2.206,-26.794,30,74
45711,-0.411,0.225,0.938,12.26,0.71,-26.282,31,80
45760,-0.415,0.244,0.964,9.817,5.802,-22.084,16,80
45808,-0.434,0.232,0.942,8.977,1.015,-19.924,38,86
45856,-0.424,0.215,0.917,8.214,4.435,-16.29,36,90
45903,-0.446,0.223,0.937,6.756,9.008,-15.244,38,81
45950,-0.45,0.222,0.937,5.092,4.29,-12.069,37,81
45998,-0.436,0.227,0.915,3.916,4.473,-9.313,34,81
46046,-0.465,0.212,0.929,3.145,3.412,-6.603,33,88
46093,-0.428,0.229,0.912,2.305,0.969,-6.534,37,82
46140,-0.449,0.21,0.918,0.977,5.046,-5.115,37,73
46190,-0.46,0.217,0.919,0.771,2.496,-4.282,34,73
46245,-0.44,0.225,0.926,-0.107,0.656,-3.679,179,72
46301,-0.445,0.215,0.921,-1.038,1.534,-4.344,179,72
46348,-0.444,0.193,0.922,-1.74,-1.267,-6.145,37,72
46395,-0.448,0.204,0.931,-1.687,2.679,-5.191,37,72
46442,-0.433,0.179,0.923,1.076,0.908,-5.26,33,79
46488,-0.444,0.186,0.925,1.489,7.71,-4.435,35,73
46536,-0.474,0.201,0.924,2.267,5.26,-5.634,34,79
46583,-0.463,0.201,0.911,1.947,2.809,-5.336,33,79
46630,-0.46,0.209,0.893,1.191,5.13,-4.672,35,79
46681,-0.452,0.205,0.87,0.275,15.504,-3.885,33,79
46728,-0.478,0.19,0.901,1.359,16.809,-4.435,37,78
46775,-0.524,0.217,0.91,0.832,11.977,-2.519,33,78
46822,-0.503,0.226,0.922,1.191,3.672,-1.244,38,77
46869,-0.503,0.205,0.885,1.122,-0.076,-1.031,32,78
46916,-0.495,0.205,0.888,2.405,3.832,-1.435,34,78
46964,-0.506,0.181,0.899,4.969,0.954,-2.809,34,78
47011,-0.5,0.198,0.892,4.603,3.679,-2.664,37,78
47058,-0.515,0.205,0.917,2.809,-0.038,-3.053,42,78
47109,-0.494,0.199,0.862,1.099,-0.198,-0.519,37,73
47199,-0.487,0.212,0.853,-0.389,2.382,0.718,38,71
47246,-0.504,0.203,0.885,-2.802,4.038,0.855,35,71
47293,-0.503,0.217,0.887,-4.153,0.74,1.962,35,71
47340,-0.511,0.204,0.906,-5.832,-0.031,3.229,34,71
47387,-0.478,0.192,0.883,-6.374,3.305,1.618,36,71
47434,-0.517,0.178,0.906,-5.725,7.076,1.443,35,70
47480,-0.516,0.177,0.911,-3.084,2.198,0.939,35,71
47527,-0.481,0.186,0.89,-3.756,3.191,1.344,36,71
47578,-0.508,0.188,0.904,-4.229,3,1.092,35,72
47625,-0.504,0.19,0.878,-4.359,2.954,2.214,37,71
47678,-0.517,0.186,0.89,-6.901,0.992,3.878,37,74
47724,-0.498,0.187,0.887,-4.901,-3,4.603,37,74
47770,-0.475,0.193,0.876,-2.534,2.641,4.504,37,73
47817,-0.514,0.185,0.906,-1.275,3.191,3.168,37,71
47863,-0.525,0.186,0.9,-0.58,1.137,1.145,36,72
47909,-0.516,0.173,0.901,0.115,0.641,0.824,36,72
47955,-0.492,0.175,0.893,1.084,-1.977,0.275,36,72
48005,-0.514,0.176,0.89,0.374,1.763,0.038,36,71
48051,-0.527,0.195,0.897,-1.023,-1.405,-0.527,36,71
48097,-0.515,0.204,0.884,-3.13,-1.298,1.221,36,72
48144,-0.502,0.193,0.872,-2.74,-3.221,1.489,37,74
48198,-0.49,0.195,0.865,-1.527,1.733,2.092,180,74
48244,-0.506,0.182,0.901,-0.74,0.275,3.634,35,73
48290,-0.496,0.197,0.891,-0.847,1.466,3.878,35,72
48337,-0.505,0.161,0.901,-0.771,1.954,1.595,34,73
48384,-0.492,0.173,0.887,-0.893,2.756,0.504,34,73
48430,-0.5,0.19,0.898,-1.198,2.855,0.969,34,75
48479,-0.501,0.197,0.891,-1.214,0.282,0.076,34,75
48525,-0.506,0.196,0.885,-2.023,2.366,0.374,35,75
48572,-0.504,0.196,0.898,-1.351,-0.214,1.16,37,76
48627,-0.484,0.201,0.867,-0.275,-0.015,2.344,191,76
48683,-0.516,0.201,0.885,-0.611,6.145,4.382,189,78
48739,-0.511,0.201,0.898,0.725,-0.504,4.634,179,91
48794,-0.505,0.195,0.892,-1.168,5.824,4.198,190,71
48841,-0.504,0.185,0.893,-1.412,2.328,3.031,41,71
48887,-0.498,0.19,0.887,-0.504,1.244,3.229,40,71
48946,-0.501,0.201,0.884,-0.382,3.443,2.733,0,71
49002,-0.522,0.188,0.877,-0.366,2.328,2.008,0,70
49057,-0.5,0.211,0.879,-0.855,2.084,1.771,0,71
49104,-0.514,0.208,0.869,-1.992,1.534,1.74,43,71
49150,-0.514,0.201,0.876,-2.817,0.405,3.298,41,71
49198,-0.513,0.203,0.878,-1.885,-0.321,3.603,41,71
49245,-0.496,0.198,0.875,-2.405,2.756,3.321,41,70
49300,-0.512,0.191,0.897,-2.634,5.397,1.031,0,70
49355,-0.527,0.182,0.911,-1.55,-1.542,1.298,0,70
49415,-0.502,0.19,0.883,-1.519,1.725,0.145,0,71
49471,-0.529,0.189,0.907,-0.29,1.366,0.29,0,71
49517,-0.516,0.211,0.892,-0.206,-2.603,1.069,38,70
49563,-0.52,0.194,0.895,0.122,-2.504,1.748,37,70
49610,-0.503,0.202,0.882,0.191,-2.282,3.008,37,71
49699,-0.508,0.218,0.897,-1.26,-4.496,5.084,33,71
49746,-0.496,0.195,0.876,-0.076,-6.611,4.229,33,76
49793,-0.492,0.217,0.896,1.107,-1.733,4.336,33,71
49839,-0.481,0.22,0.892,1.603,-3.183,3.481,35,72
49886,-0.49,0.227,0.907,0.237,-2.244,4.511,31,77
49935,-0.483,0.216,0.891,1.206,-5.427,3.168,37,78
49982,-0.476,0.196,0.868,1.336,-4.656,3.359,33,73
50028,-0.458,0.224,0.875,2.267,-2.733,3,31,73
50074,-0.466,0.247,0.897,2.313,1.023,2.511,34,74
50121,-0.472,0.246,0.905,0.397,1.45,3.557,37,77
50178,-0.478,0.25,0.908,-1.046,-1.855,5.015,0,79
50225,-0.473,0.257,0.92,-2.573,-4.885,7.924,33,79
50272,-0.423,0.237,0.893,-1.374,-6.847,6.214,36,81
50319,-0.447,0.248,0.903,-2.443,3.275,5.511,38,80
50378,-0.465,0.225,0.928,-0.672,-0.466,3.893,0,77
50435,-0.455,0.242,0.916,0.107,0.817,5.664,0,79
50490,-0.457,0.24,0.928,-0.893,-4.519,6.908,186,77
50546,-0.439,0.27,0.92,-2.832,-4.824,10.198,0,73
50593,-0.44,0.266,0.91,-2.924,-7.069,12.687,33,72
50650,-0.433,0.264,0.922,-1.771,-5.618,13.832,0,74
50706,-0.41,0.264,0.924,1.74,-7.176,13.473,0,74
50762,-0.396,0.289,0.92,4.733,-1.405,13.863,0,75
50817,-0.427,0.33,0.972,4.748,-3.519,17.427,177,71
50876,-0.418,0.368,0.993,3.702,-12,28.626,0,70
50922,-0.41,0.378,0.997,5.565,-16.145,41.695,31,71
50968,-0.393,0.384,0.995,11.153,-16.786,51.809,30,68
51014,-0.381,0.413,0.988,17.046,-13.954,62.252,30,69
51060,-0.368,0.424,0.993,21.458,-16.45,72.229,29,66
51106,-0.32,0.441,0.949,24.802,-19.244,78.916,26,65
51151,-0.252,0.454,0.933,27.198,-18.466,82.206,17,67
51197,-0.22,0.467,0.91,26.519,-16.237,81.542,26,66
51244,-0.143,0.469,0.92,26.901,-16.504,78.634,25,65
51322,-0.046,0.515,0.876,27.939,-10.191,69.458,0,66
51371,-0.02,0.532,0.866,27.794,1,62.55,22,66
51418,0.003,0.546,0.847,30.115,8.153,56.603,17,67
51466,-0.021,0.58,0.87,35.916,4.466,52.748,16,67
51514,0.02,0.615,0.845,36.427,-5.45,52.786,16,67
51561,0.076,0.634,0.803,35.748,-9.939,49.649,17,68
51618,0.098,0.64,0.81,32.153,-13.038,48.374,178,69
51677,0.221,0.647,0.737,27.664,-11.885,41.641,0,69
51725,0.197,0.667,0.764,21.748,-2.008,34,16,70
51777,0.235,0.657,0.732,18.878,-11.595,27.351,38,70
51825,0.265,0.659,0.725,16.412,-10.847,19.481,16,71
51873,0.282,0.673,0.705,14.939,-5.153,12.313,17,71
51921,0.261,0.689,0.734,13.244,-9.305,9.489,16,71
51970,0.273,0.739,0.727,12.344,-13.115,6.145,16,71
52018,0.322,0.731,0.676,9.504,-14.053,3.153,17,72
52066,0.288,0.734,0.704,9.244,-7.954,2.374,16,71
52114,0.316,0.744,0.679,9.305,-13.252,2.046,17,72
52162,0.345,0.752,0.655,8.099,-7.794,2.229,14,72