Timestamp(ms),AccelX(g),AccelY(g),AccelZ(g),GyroX(deg/s),GyroY(deg/s),GyroZ(deg/s),DistanceLeft(cm),DistanceRight(cm)
32191,-0.233,-0.708,0.057,33.695,-102.901,-119.427,0.0,81.0
32244,0.036,-0.548,-0.006,3.282,-54.916,8.733,0.0,83.0
32299,-0.092,-1.112,-0.065,13.885,14.481,68.244,0.0,84.0
32352,-0.226,-1.125,0.067,27.519,20.489,84.580,0.0,90.0
32405,-0.243,-1.000,0.116,16.832,-7.534,85.145,0.0,80.0
32459,-0.182,-0.984,0.109,15.985,-32.916,96.916,0.0,92.0
32517,-0.150,-0.975,0.063,18.282,-36.328,96.901,0.0,138.0
32577,-0.175,-0.953,0.072,8.847,-35.260,73.244,0.0,161.0
32636,-0.162,-0.922,0.075,4.641,-38.954,40.275,0.0,167.0
32687,-0.123,-0.948,0.074,1.962,-29.328,10.000,0.0,28.0
32741,-0.108,-1.048,0.077,-5.351,-11.290,-14.153,0.0,30.0
32791,-0.164,-1.218,0.184,-19.206,0.748,-41.260,0.0,33.0
32856,-0.203,-1.263,0.270,-25.885,-8.870,-58.237,0.0,0.0
32902,-0.193,-1.085,0.220,-13.847,-35.603,-77.267,0.0,0.0
32943,-0.012,-0.477,0.188,14.710,-30.115,-42.137,0.0,90.0
32995,0.065,-0.689,0.086,19.336,2.481,0.542,0.0,66.0
33048,-0.093,-1.099,0.077,19.855,56.466,-2.130,0.0,24.0
33101,-0.112,-1.203,0.015,25.397,78.588,-24.626,0.0,23.0
33155,-0.026,-0.779,-0.019,21.267,130.832,-14.908,0.0,70.0
33213,-0.240,-0.698,0.159,-15.275,146.153,3.198,0.0,99.0
33270,-0.462,-0.893,0.316,-22.626,55.573,-9.191,0.0,146.0
33321,-0.453,-0.903,0.336,-21.763,-62.405,-47.817,0.0,35.0
33377,-0.265,-0.922,0.228,-29.290,-101.305,-57.550,0.0,43.0
33428,-0.209,-1.169,0.222,-23.420,-100.725,-45.229,0.0,39.0
33483,-0.098,-1.159,0.220,-8.313,-81.939,-20.435,0.0,57.0
33538,0.001,-1.221,0.212,2.878,-26.786,11.412,0.0,28.0
33592,-0.084,-1.272,0.240,26.405,16.603,27.947,0.0,27.0
33644,-0.092,-0.762,0.173,46.779,22.954,45.252,0.0,56.0
33699,-0.198,-0.929,0.166,29.267,18.969,57.382,0.0,58.0
33753,-0.294,-1.099,0.062,35.969,-21.382,46.313,0.0,75.0
33805,-0.183,-0.809,0.002,30.802,-63.290,37.832,0.0,45.0
33860,-0.111,-0.914,-0.057,13.611,-53.122,37.489,0.0,60.0
33910,-0.055,-1.125,-0.072,16.847,-29.611,29.489,0.0,7.0
33965,0.313,-1.022,-0.438,24.267,105.763,11.336,0.0,27.0
34020,-0.338,-0.501,-0.326,-33.351,250.130,48.786,0.0,65.0
34077,-1.443,-0.965,0.586,-114.931,107.389,63.664,0.0,76.0
34130,-0.212,-1.206,-0.129,-19.466,0.634,47.504,0.0,69.0
34185,-1.127,-1.202,0.566,23.962,-24.855,-9.206,0.0,32.0
34236,-1.298,-1.115,0.411,-11.824,-250.137,-102.198,0.0,23.0
34290,-0.002,-1.346,-0.690,11.206,-250.137,-118.176,0.0,28.0
34340,1.076,-0.264,-0.374,51.885,65.397,-55.901,0.0,27.0
34396,-0.343,-0.660,0.403,7.229,210.260,44.695,0.0,38.0
34449,-1.375,-1.373,0.779,6.282,-105.374,60.328,0.0,25.0
34503,0.169,-1.097,-0.248,9.603,-250.137,6.695,0.0,23.0
34545,1.049,-0.246,-0.847,33.725,250.130,-25.595,46.0,27.0
34596,-0.725,-0.454,0.000,-40.130,250.130,-0.687,0.0,29.0
34651,-2.000,-1.057,1.221,-42.168,5.313,-17.420,0.0,30.0
34701,-0.868,-0.819,0.136,-24.931,-250.137,-41.733,0.0,21.0
34755,0.823,-1.061,-0.700,2.901,-197.198,-75.977,0.0,18.0
34806,0.668,-0.781,-0.599,-14.221,250.130,-25.519,0.0,25.0
34900,-2.000,-1.077,1.491,-24.634,-104.565,18.611,0.0,41.0
34954,-0.789,-1.192,-0.223,-52.405,-250.137,-16.099,0.0,25.0
35008,0.893,-1.250,-0.846,-40.321,-201.802,-76.977,0.0,24.0
35059,0.238,-0.566,-0.128,-4.893,220.870,-12.870,0.0,22.0
35113,-1.005,-0.865,0.833,-6.809,32.069,71.840,0.0,27.0
35165,0.073,-1.473,-0.377,33.267,-106.908,18.687,0.0,29.0
35219,0.474,-0.687,-0.560,49.046,225.947,-14.305,0.0,31.0
35270,-2.000,-0.775,1.489,-24.344,-11.000,26.992,0.0,34.0
35324,-0.898,-1.087,-0.349,0.412,-250.137,57.313,0.0,27.0
35376,1.552,-1.225,-1.298,70.115,-171.679,-10.031,0.0,27.0
35430,0.444,-0.512,-0.952,47.305,250.130,13.802,0.0,29.0
35485,-1.375,-0.582,0.684,-40.878,250.130,40.099,0.0,46.0
35537,-0.727,-1.194,0.256,-6.466,-126.985,-30.496,0.0,46.0
35594,0.696,-1.052,-0.769,33.511,86.137,-73.878,0.0,51.0
35646,-1.786,-1.235,1.503,-77.496,43.794,-108.366,0.0,53.0
35701,-0.869,-1.350,-0.048,-31.954,-250.137,-98.664,0.0,34.0
35752,1.383,-0.308,-0.881,85.336,-56.458,-95.206,0.0,33.0
35804,-0.901,-0.644,1.086,14.038,-8.450,31.954,0.0,34.0
35858,-0.247,-1.514,-0.005,51.359,-250.137,76.183,0.0,33.0
35913,1.610,-0.968,-1.520,118.038,250.130,-33.000,0.0,39.0
35965,-1.213,0.046,-0.064,7.496,250.130,47.771,0.0,45.0
36022,-2.000,-1.091,1.274,-60.260,-81.588,49.870,0.0,56.0
36073,-0.293,-1.378,-0.227,11.557,-250.137,-22.015,0.0,43.0
36129,1.090,-0.502,-0.837,30.031,85.366,-124.252,0.0,45.0
36182,-0.729,-0.403,0.199,-104.756,250.130,-51.756,0.0,53.0
36238,-1.489,-1.236,1.051,-91.076,-112.977,-14.695,0.0,54.0
36291,0.087,-1.291,-0.380,66.160,-196.183,-45.916,0.0,56.0
36346,-0.691,-0.342,0.885,-79.221,-48.015,-26.634,0.0,40.0
36403,-0.924,-1.495,0.142,-57.198,-250.137,63.145,0.0,59.0
36456,1.537,-2.000,-1.000,42.092,-147.351,-60.145,0.0,72.0
36510,0.261,-0.685,-0.492,25.733,250.130,-70.076,0.0,74.0
36563,-1.329,-0.582,1.119,-39.863,224.504,21.084,0.0,71.0
36618,-1.278,-1.388,0.315,35.786,-250.137,50.351,0.0,78.0
36672,0.179,-1.407,-0.884,44.565,-250.137,44.328,0.0,88.0
36726,0.879,-0.646,-0.603,66.580,83.618,24.038,0.0,88.0
36785,-0.702,-0.604,0.520,-46.099,132.328,119.061,0.0,88.0
36839,-0.401,-1.591,0.011,14.313,-110.718,127.855,0.0,86.0
36894,0.546,-0.789,-0.360,114.061,114.794,1.916,0.0,96.0
36950,-0.503,-0.163,-0.018,-7.817,250.130,5.840,0.0,99.0
37005,-1.857,-1.073,1.270,-177.924,-230.076,8.458,0.0,100.0
37058,-0.574,-2.000,-0.629,24.061,-250.137,12.679,0.0,64.0
37111,1.353,-0.667,-0.457,55.099,-37.527,-149.099,0.0,65.0
37165,0.438,-0.553,-0.512,-83.718,250.130,-52.427,0.0,68.0
37220,-1.720,-0.914,0.940,-86.916,250.130,22.573,0.0,95.0
37277,-1.057,-0.738,0.516,29.534,-250.137,58.916,0.0,74.0
37330,0.305,-1.643,-0.770,28.924,-250.137,-2.954,0.0,73.0
37386,0.554,-0.832,-0.678,36.573,173.824,-91.962,0.0,92.0
37440,-1.779,-0.689,1.652,-131.748,52.214,4.275,0.0,79.0
37498,-0.985,-1.363,0.014,-35.786,-250.137,180.695,0.0,150.0
37560,1.279,-0.738,-1.001,91.282,-151.122,-43.092,0.0,0.0
37649,-1.180,-0.719,1.188,-182.336,250.130,-46.214,43.0,87.0
37703,-1.151,-1.696,0.589,-97.748,-85.412,-23.092,0.0,93.0
37758,0.202,-1.339,-0.566,175.137,-105.397,-34.603,0.0,92.0
37815,-0.688,-0.033,0.760,-100.160,34.527,-54.840,148.0,95.0
37870,-0.853,-1.245,0.390,-142.160,-235.008,59.817,0.0,102.0
37926,0.549,-1.969,-0.705,125.893,-132.206,4.405,0.0,110.0
37979,0.263,-0.697,-0.233,44.412,250.130,-94.695,126.0,113.0
38030,-1.333,-0.202,0.504,-82.962,250.130,-27.313,119.0,115.0
38082,-1.717,-1.098,0.449,-51.084,-250.137,125.328,112.0,128.0
38142,-0.306,-1.811,-0.949,39.885,-250.137,80.282,179.0,0.0
38190,0.507,-0.918,-0.822,16.878,33.939,-91.695,0.0,0.0
38258,-1.027,-0.826,0.830,-63.328,-103.756,59.076,0.0,0.0
38305,1.191,-2.000,-0.977,83.191,-217.389,67.351,0.0,0.0
38348,0.538,-0.611,-0.809,99.466,250.130,-60.748,0.0,126.0
38410,-1.503,0.239,0.802,-116.985,250.130,8.687,0.0,0.0
38457,-1.506,-1.599,0.126,-100.870,-250.137,59.855,0.0,0.0
38500,1.273,-1.914,-1.319,135.099,-250.137,-103.321,0.0,120.0
38561,0.943,-0.452,-0.563,101.809,195.550,-128.832,0.0,0.0
38608,-0.915,-0.543,0.510,-157.267,250.130,19.496,0.0,0.0
38654,-1.467,-2.000,0.359,-163.092,-20.359,54.427,0.0,165.0
38716,-0.104,-1.254,0.130,59.489,-213.061,32.038,0.0,148.0
38774,0.625,0.099,-0.111,80.618,-11.534,-69.145,0.0,145.0
38833,-0.727,-0.652,0.764,-84.725,106.076,-6.573,0.0,159.0
38891,-0.715,-1.838,0.327,-13.855,-250.137,91.206,0.0,131.0
38948,1.022,-0.954,-0.712,85.718,-65.023,-62.618,0.0,139.0
39012,-0.815,-0.311,0.943,-47.053,99.916,-4.519,0.0,142.0
39062,-0.856,-1.186,0.436,-36.359,-250.137,73.015,47.0,163.0
39112,1.277,-1.362,-1.055,19.855,-153.412,-69.282,38.0,0.0
39162,-0.533,-0.306,0.649,-37.870,179.809,-42.427,0.0,0.0
39200,-0.995,-0.961,0.825,-61.992,-165.916,85.176,0.0,69.0
39243,0.198,-1.751,-0.719,4.832,-209.954,46.542,43.0,49.0
39294,0.836,-0.459,-1.004,50.771,236.382,-61.962,0.0,53.0
39357,-1.523,-0.174,1.276,-105.992,225.198,39.397,0.0,174.0
39410,-0.855,-1.572,0.188,-49.244,-250.137,80.580,0.0,70.0
39467,1.198,-1.008,-1.095,43.244,32.168,-92.786,0.0,70.0
39520,-0.885,-1.332,0.860,-65.695,202.015,-35.786,0.0,74.0
39573,-0.397,-1.275,0.052,18.137,-176.282,57.656,0.0,82.0
39630,-0.286,-0.390,0.274,33.168,-68.061,54.756,0.0,92.0
39681,-1.634,-1.254,0.008,-77.412,-250.137,130.603,0.0,33.0
39732,1.774,-2.000,-2.000,41.809,-250.137,-45.244,0.0,36.0
39786,0.831,-0.609,-1.010,58.603,250.130,-94.412,0.0,37.0
39837,-1.870,-0.603,1.726,-102.878,49.046,117.527,0.0,34.0
39888,-0.196,-1.920,-1.009,11.649,-250.137,68.366,0.0,37.0
39947,1.163,-0.611,-1.056,48.481,181.191,-126.794,0.0,159.0
39998,-1.262,-0.678,1.301,-73.160,106.031,61.939,0.0,40.0
40052,0.183,-2.000,-0.624,17.130,-141.237,8.221,0.0,47.0
40103,-0.205,-0.967,0.391,12.099,163.374,-52.496,0.0,43.0
40155,-1.092,-0.782,1.140,-69.214,-250.137,74.489,0.0,43.0
40207,2.000,-1.250,-1.054,37.550,-103.733,-59.580,0.0,47.0
40258,0.197,-0.264,-0.678,74.702,250.130,-41.229,0.0,48.0
40353,-0.505,-1.938,-0.237,7.550,-250.137,42.328,0.0,59.0
40406,0.998,-0.261,-1.004,77.603,175.053,-89.084,0.0,56.0
40458,-1.693,-0.349,1.516,-75.466,8.656,82.954,0.0,56.0
40510,-0.688,-1.376,-0.124,-43.672,-250.137,61.198,0.0,48.0
40565,1.283,-0.661,-1.135,68.504,250.130,-154.137,0.0,62.0
40619,-1.518,-0.172,0.664,-94.656,250.130,18.710,0.0,72.0
40671,-1.675,-1.352,1.214,-76.214,-197.878,55.733,0.0,56.0
40726,0.704,-1.586,-0.948,114.710,-106.511,-94.351,0.0,53.0
40779,-0.727,-0.292,0.971,-72.748,82.626,-17.611,0.0,58.0
40835,-0.720,-1.819,0.351,-89.542,-211.145,86.733,0.0,51.0
40887,0.202,-1.177,-0.820,132.886,183.847,-81.870,0.0,62.0
40943,-1.264,0.354,1.106,-84.542,72.305,43.656,0.0,65.0
40997,-0.658,-1.665,-0.221,-69.763,-250.137,57.282,0.0,88.0
41054,-0.312,-0.552,-0.150,59.878,12.458,-78.252,0.0,73.0
41107,-0.268,-0.793,0.595,-76.878,-197.962,101.756,0.0,67.0
41160,0.541,-1.338,-1.098,70.313,155.802,-154.656,0.0,68.0
41213,-0.752,0.045,1.299,-60.534,90.107,144.870,0.0,70.0
41270,-0.198,-1.640,-0.217,5.130,-106.237,-96.443,0.0,70.0
41323,-0.143,0.096,0.535,1.374,35.198,-3.420,0.0,80.0
41377,-0.564,-1.767,0.105,-28.802,-77.366,51.534,0.0,92.0
41432,0.353,-1.246,-0.560,87.794,153.763,-95.374,0.0,87.0
41489,-0.937,-1.255,0.617,-75.107,94.817,53.008,0.0,86.0
41544,0.055,-1.586,-0.104,2.023,-46.679,-36.588,0.0,99.0
41598,-0.197,0.437,0.644,66.069,95.267,-4.351,0.0,99.0
41654,-0.549,-1.283,0.505,-38.863,-147.870,88.618,0.0,109.0
41708,0.527,-1.498,-0.931,110.084,105.931,-37.954,0.0,90.0
41763,-0.674,-0.302,0.642,-54.298,195.748,93.313,0.0,95.0
41818,-0.493,-1.340,0.244,-18.191,-71.145,-49.198,0.0,96.0
41873,-0.354,0.001,0.553,32.511,-26.008,-9.878,0.0,103.0
41928,-0.688,-1.058,0.771,-92.435,-221.053,63.824,0.0,107.0
41987,0.917,-1.477,-1.006,93.771,91.763,-131.168,0.0,105.0
42042,-1.229,0.255,0.846,-70.924,250.130,34.626,0.0,109.0
42097,-1.523,-1.595,0.749,-90.145,-209.886,15.031,0.0,109.0
42153,0.667,-1.191,-0.943,135.870,-53.786,-119.702,0.0,114.0
42209,-0.908,-0.715,0.929,-103.427,102.198,7.573,0.0,112.0
42264,-0.560,-2.000,0.067,-35.168,-163.863,-14.153,0.0,106.0
42320,0.707,-0.513,-0.640,146.450,95.809,-36.847,0.0,111.0
42377,-1.090,-0.070,0.863,-78.542,197.450,16.305,0.0,126.0
42433,-0.947,-1.690,0.116,-57.015,-250.137,1.649,0.0,74.0
42487,0.389,-1.201,-0.949,107.122,-68.557,-117.076,0.0,79.0
42542,-0.222,0.083,0.389,-65.099,94.008,36.031,0.0,95.0
42596,-0.502,-1.485,0.343,-93.275,-27.122,106.855,0.0,79.0
42650,0.240,-1.127,-0.522,98.710,114.038,-42.550,0.0,84.0
42704,-1.327,-0.195,1.016,-56.183,91.939,-7.511,0.0,85.0
42759,-1.093,-1.188,0.302,-93.901,-250.137,22.183,0.0,86.0
42813,1.280,-1.688,-0.989,66.466,-115.244,-99.267,0.0,93.0
42868,-0.016,-0.905,-0.223,51.267,250.130,-88.412,0.0,94.0
42926,-1.132,-1.237,0.548,-103.603,116.015,93.649,0.0,100.0
42981,-0.427,-1.190,0.341,16.527,-195.038,3.901,0.0,95.0
43036,0.406,-0.389,-0.322,123.359,-17.206,-100.740,0.0,98.0
43134,-0.660,-1.417,0.317,-74.679,-90.901,136.947,0.0,112.0
43191,0.614,-1.377,-0.772,56.191,16.855,-58.786,0.0,106.0
43246,-0.346,-0.078,-0.167,38.977,250.130,-64.580,0.0,114.0
43302,-1.474,-0.506,1.289,-125.115,-153.893,88.092,0.0,118.0
43356,0.126,-2.000,-0.852,-15.748,-250.137,-44.389,0.0,51.0
43415,0.193,-0.425,0.352,7.649,43.237,-119.901,0.0,134.0
43472,-0.201,-0.604,0.719,-57.153,-22.389,74.817,0.0,131.0
43526,0.246,-1.605,-0.413,47.168,80.473,-1.450,0.0,59.0
43582,-0.739,-0.633,0.523,33.107,221.267,-25.595,0.0,57.0
43634,-1.033,-1.217,0.839,-65.656,-166.397,70.870,0.0,52.0
43686,0.375,-2.000,-1.017,64.160,-89.412,-63.779,0.0,47.0
43743,-0.256,0.516,0.424,22.176,193.886,-38.290,0.0,52.0
43795,-1.080,-1.020,0.597,-103.069,-183.824,110.221,0.0,59.0
43848,0.277,-1.644,-0.724,42.779,-141.794,-68.771,0.0,53.0
43905,-0.319,-0.176,0.318,-18.046,82.641,-19.122,0.0,61.0
43960,-0.519,-1.464,0.201,-68.244,-104.153,63.053,0.0,50.0
44013,0.383,-1.020,-0.570,90.603,63.924,-59.550,0.0,66.0
44065,-0.788,-0.210,0.746,-64.420,102.069,31.420,0.0,33.0
44116,-0.425,-1.472,0.222,-35.527,-181.122,28.702,0.0,33.0
44176,0.485,-0.999,-0.727,124.603,62.031,-78.382,0.0,107.0
44227,-1.034,-0.671,0.866,-85.000,26.992,59.618,199.0,42.0
44289,0.000,-1.900,-0.403,-12.565,-151.130,24.779,0.0,0.0
44331,0.176,-0.650,-0.427,90.504,250.130,-52.725,111.0,0.0
44383,-1.573,-0.969,1.129,-104.382,68.115,33.237,109.0,80.0
44433,-0.463,-1.072,-0.063,-44.038,-250.137,-38.359,105.0,98.0
44483,0.638,-0.257,-0.526,99.870,-1.802,-55.405,101.0,123.0
44534,-0.828,-0.512,0.628,-57.290,35.443,45.695,97.0,129.0
44581,-0.327,-1.793,-0.275,1.542,-90.740,20.061,92.0,64.0
44628,0.123,-0.883,-0.318,84.893,90.160,0.550,87.0,67.0
44681,-1.259,-0.456,0.906,-89.550,-49.153,61.313,174.0,73.0
44738,-0.019,-1.486,-0.379,-28.336,-250.137,18.626,198.0,139.0
44800,0.563,-0.733,-0.494,73.679,142.641,-60.702,195.0,140.0
44852,-1.051,-0.717,0.662,-83.611,35.076,65.886,90.0,152.0
44909,-0.452,-1.330,0.046,-34.985,-250.137,-2.336,190.0,147.0
44960,0.394,-0.727,-0.358,32.817,-4.305,-78.870,81.0,151.0
45019,-0.717,-0.555,0.450,-74.550,35.290,62.153,184.0,169.0
45077,-0.362,-1.319,0.342,-66.031,-154.565,109.924,179.0,166.0
45135,0.337,-1.091,-0.573,101.145,124.237,-69.573,177.0,165.0
45190,-1.435,-0.891,0.685,-77.977,171.977,-26.870,176.0,112.0
45252,-0.993,-1.017,0.233,-73.145,-250.137,4.985,169.0,189.0
45312,0.711,-0.804,-1.009,83.382,-65.664,-98.229,160.0,0.0
45370,-0.613,-0.430,0.089,-62.229,206.733,27.557,157.0,0.0
45428,-1.154,-1.624,0.267,-66.053,-206.924,20.557,152.0,0.0
45480,-0.115,-0.830,-0.458,19.290,-158.519,-85.046,145.0,85.0
45532,-0.238,-0.391,0.020,-100.771,-196.794,67.595,140.0,92.0
45582,0.265,-1.814,-0.647,-74.931,-161.069,83.275,161.0,49.0
45632,0.293,-0.893,-0.449,83.458,122.779,-67.153,157.0,49.0
45681,-0.919,-0.451,0.606,-63.847,56.221,38.847,128.0,53.0
45732,-0.844,-1.376,0.225,-79.053,-238.702,38.374,151.0,17.0
45784,0.658,-1.525,-0.846,90.710,-99.504,-64.641,0.0,19.0
45877,-1.152,-0.891,0.588,-110.328,-28.008,66.023,141.0,67.0
45927,-0.315,-1.670,-0.054,-38.053,-213.687,-1.053,0.0,15.0
45985,0.482,-0.760,-0.496,121.221,74.954,-104.893,166.0,79.0
46032,-0.518,-0.040,0.106,-2.160,235.397,6.061,103.0,79.0
46087,-1.347,-0.724,0.619,-103.969,-105.405,123.168,99.0,0.0
46134,-0.257,-1.378,-0.176,-43.328,-250.137,25.672,0.0,0.0
46191,0.464,-1.396,-0.880,79.000,-51.107,-118.763,0.0,101.0
46240,-0.188,-0.243,0.043,19.511,206.191,-2.137,174.0,26.0
46290,-0.773,-0.603,0.767,-125.321,18.481,134.099,0.0,26.0
46345,-0.219,-1.722,-0.068,23.053,-113.931,-16.863,0.0,31.0
46395,-0.133,-0.442,-0.053,55.740,9.985,-59.000,0.0,35.0
46450,-0.970,-0.673,0.566,-126.672,-122.649,53.443,0.0,43.0
46504,0.048,-1.709,-0.385,-7.855,-193.023,3.786,0.0,107.0
46560,0.290,-0.606,-0.336,69.229,55.656,-24.977,0.0,100.0
46614,-0.784,-0.637,0.490,-96.771,39.565,74.840,0.0,97.0
46672,0.002,-1.695,-0.268,-4.305,-55.504,28.931,0.0,112.0
46727,-0.075,-0.415,-0.111,72.702,157.290,-14.702,0.0,104.0
46782,-1.745,-0.886,0.760,-118.527,-144.618,4.672,0.0,105.0
46835,-0.034,-1.939,-0.699,-28.076,-250.137,-44.107,0.0,86.0
46889,0.495,-0.858,-0.723,88.878,129.244,-78.550,0.0,86.0
46941,-1.039,-0.027,0.636,-79.458,195.145,20.924,119.0,129.0
46988,-1.201,-1.291,0.083,-74.908,-227.504,-8.969,73.0,80.0
47036,0.258,-1.499,-0.899,56.733,-193.115,-11.618,108.0,85.0
47087,-0.373,-0.346,0.143,-32.275,-21.748,-10.336,103.0,94.0
47136,-0.727,-1.005,0.107,-118.534,-210.061,14.298,99.0,96.0
47191,0.653,-1.465,-0.821,30.145,-115.664,4.015,0.0,93.0
47239,-0.066,-0.379,-0.009,44.496,145.855,-9.473,90.0,96.0
47293,-1.351,-0.929,0.876,-106.695,-106.908,30.084,0.0,100.0
47346,0.264,-1.699,-0.672,14.137,-236.061,9.115,0.0,68.0
47403,0.466,-0.574,-0.320,75.603,101.344,-11.779,0.0,69.0
47456,-0.860,-0.872,0.576,-85.924,47.649,36.534,0.0,73.0
47509,-0.213,-1.618,-0.087,-4.489,-150.527,-5.405,0.0,74.0
47565,0.563,-0.738,-0.731,133.679,195.962,-36.550,0.0,78.0
47612,-0.986,-0.679,0.522,-60.908,250.130,-24.244,60.0,120.0
47661,-1.371,-1.014,0.781,-78.504,-165.542,-27.954,57.0,125.0
47715,0.473,-1.166,-0.728,75.198,-195.870,-11.878,0.0,84.0
47769,0.073,-0.345,-0.152,29.542,111.237,-31.115,0.0,87.0
47822,-0.910,-1.082,0.375,-91.664,-9.359,22.710,0.0,85.0
47877,-0.055,-1.473,-0.284,-5.740,-146.748,68.618,0.0,88.0
47931,0.108,-0.862,-0.241,22.313,72.573,20.954,0.0,93.0
47988,-0.750,-0.551,0.556,-87.634,48.863,-2.160,0.0,99.0
48047,-0.637,-1.136,0.256,-49.359,-204.321,17.855,0.0,146.0
48102,0.384,-0.930,-0.260,79.420,-24.969,-18.366,0.0,108.0
48159,-0.835,-0.679,0.475,-48.679,65.519,5.153,0.0,153.0
48211,-0.690,-1.078,0.020,-67.985,-227.191,36.092,0.0,59.0
48274,0.379,-1.205,-0.776,40.511,-58.076,-11.450,0.0,164.0
48332,-0.802,-0.624,0.513,-80.031,102.550,-2.061,0.0,166.0
48392,-0.635,-1.489,0.108,-59.305,-114.603,15.443,0.0,171.0
48450,0.043,-0.755,-0.269,62.809,22.046,15.206,0.0,174.0
48514,-0.686,-0.889,0.411,-62.672,-73.206,20.840,0.0,0.0
48617,0.045,-0.769,-0.470,108.886,176.779,-1.473,0.0,189.0
48669,-1.519,-0.577,0.873,-97.076,-134.855,-10.802,0.0,57.0
48723,0.160,-1.531,-0.708,0.466,-247.542,-9.084,0.0,27.0
48775,0.454,-0.539,-0.676,120.992,153.031,-17.351,0.0,28.0
48829,-1.193,-0.480,0.931,-68.305,147.809,-16.053,0.0,30.0
48880,-0.743,-1.114,0.033,-35.313,-193.031,-6.359,0.0,32.0
48935,0.474,-1.088,-0.671,102.580,-8.786,7.069,0.0,38.0
48991,-0.738,-0.477,0.374,-48.321,175.344,-35.061,0.0,49.0
49045,-1.199,-1.476,0.352,-71.092,-91.443,-51.023,0.0,23.0
49095,0.298,-1.434,-0.636,108.550,-31.450,6.427,0.0,28.0
49149,-0.642,-0.276,0.310,-22.695,160.405,-43.687,0.0,27.0
49201,-1.271,-0.797,0.520,-126.687,-202.473,3.992,0.0,28.0
49256,0.541,-1.552,-0.623,64.832,-202.015,65.595,0.0,38.0
49307,0.353,-0.720,-0.610,153.618,172.015,21.679,0.0,43.0
49362,-1.012,-0.668,0.677,-35.427,192.237,-37.969,0.0,45.0
49415,-0.875,-0.973,0.288,-50.794,-182.443,-32.687,0.0,46.0
49470,0.544,-0.979,-0.454,93.282,-94.382,29.160,0.0,41.0
49525,-0.039,-0.355,-0.086,-5.511,180.794,-19.702,0.0,43.0
49576,-1.332,-1.134,0.657,-131.878,23.489,4.603,0.0,46.0
49633,0.092,-1.527,-0.166,60.992,-104.389,13.107,0.0,53.0
49685,0.037,-0.331,-0.104,110.260,160.962,-28.366,0.0,46.0
49740,-1.148,-0.589,0.856,-109.076,77.344,-40.519,0.0,49.0
49793,-0.402,-1.497,-0.165,-23.084,-178.015,-20.076,0.0,56.0
49852,0.159,-1.106,-0.596,106.313,35.351,-9.817,0.0,98.0
49904,-1.153,-1.083,0.625,-105.321,27.000,-29.954,0.0,59.0
49958,-0.166,-1.001,0.004,-19.405,-162.855,-4.748,0.0,19.0
50013,0.417,-0.717,-0.532,124.977,27.718,17.092,0.0,23.0
50063,-1.079,-0.403,0.879,-69.267,14.466,22.206,0.0,27.0
50117,-0.792,-1.578,-0.020,-50.939,-250.137,-46.634,0.0,18.0
50168,0.654,-0.885,-0.967,147.496,-6.282,-25.008,0.0,31.0
50223,-0.555,-0.036,0.548,-70.038,130.908,44.924,0.0,28.0
50274,-0.756,-1.576,0.202,-67.405,-93.290,-4.076,0.0,20.0
50328,0.466,-1.057,-0.677,129.641,40.527,-18.947,0.0,25.0
50382,-0.826,-0.159,0.740,-57.053,132.351,-10.382,0.0,36.0
50438,-0.971,-1.310,0.271,-86.511,-139.611,-54.672,0.0,27.0
50489,0.520,-1.380,-0.693,107.786,-9.366,-25.069,0.0,38.0
50544,-0.556,-0.473,0.591,-19.794,166.069,-19.298,0.0,40.0
50597,-1.019,-1.709,0.362,-85.588,-60.710,-65.771,0.0,54.0
50653,0.541,-0.904,-0.361,111.145,8.763,7.649,0.0,39.0
50705,-0.517,0.280,0.588,15.092,198.626,28.336,0.0,50.0
50759,-1.268,-1.420,0.483,-76.443,-77.855,22.939,0.0,36.0
50811,0.265,-1.758,-0.535,66.244,-142.954,16.947,0.0,37.0
50867,0.060,-0.127,0.072,72.969,144.863,27.603,0.0,50.0
50923,-0.778,-0.726,0.636,-116.198,-18.344,49.183,0.0,54.0
50976,0.135,-1.485,-0.220,21.656,-101.092,-16.130,0.0,63.0
51030,0.089,-0.612,-0.302,100.962,93.168,-35.840,0.0,59.0
51085,-1.006,-0.600,0.854,-109.626,13.053,-27.015,0.0,37.0
51136,0.035,-1.426,-0.160,-33.481,-129.527,-18.763,0.0,39.0
51192,0.300,-0.793,-0.385,113.344,116.000,-5.702,0.0,47.0
51247,-1.056,-0.507,0.750,-72.763,160.550,-10.229,0.0,90.0
51346,0.268,-1.797,-0.606,60.847,-73.092,12.931,0.0,119.0
51405,-0.580,-0.465,0.323,12.267,196.847,-50.275,0.0,101.0
51460,-0.904,-0.523,0.598,-85.000,-59.237,17.908,0.0,84.0
51512,-0.087,-1.382,-0.444,42.641,-143.382,7.649,0.0,49.0
51569,-0.439,-0.307,0.250,-11.427,-66.947,-37.740,0.0,67.0
51621,-0.785,-1.131,-0.074,-128.153,-250.137,-37.336,0.0,55.0
51678,0.934,-1.447,-0.911,104.427,-80.015,12.847,0.0,45.0
51731,-0.296,-0.073,0.046,33.366,250.130,9.992,0.0,70.0
51784,-1.536,-1.190,0.552,-116.328,-14.916,3.366,0.0,67.0
51841,0.074,-1.354,-0.257,26.466,-196.947,9.328,0.0,57.0
51898,0.425,-0.754,-0.586,120.931,112.084,-5.374,0.0,72.0
51952,-1.000,-0.575,0.780,-82.748,175.313,1.458,0.0,82.0
52005,-0.764,-1.594,0.113,-50.076,-163.290,-15.573,0.0,61.0
52060,0.355,-1.387,-0.472,97.679,-24.847,-15.115,0.0,69.0
52113,-0.192,-0.415,0.259,-0.870,163.870,-30.359,0.0,69.0
52167,-0.708,-0.721,0.710,-58.176,8.832,3.359,0.0,80.0
52221,0.259,-1.201,-0.635,132.580,19.130,34.031,0.0,75.0
52275,-1.014,-0.487,0.904,-55.031,15.763,13.687,0.0,73.0
52332,-0.545,-1.250,-0.125,-72.565,-234.908,-33.473,0.0,73.0
52386,0.797,-1.004,-0.718,106.527,-18.275,7.710,0.0,74.0
52441,-0.555,-0.081,0.217,-46.038,225.710,0.481,0.0,81.0
52495,-1.265,-1.243,0.548,-105.893,-57.924,-28.221,0.0,80.0
52557,0.434,-1.121,-0.482,106.573,-13.771,-1.954,0.0,82.0
52612,-0.441,-0.302,0.043,-3.221,246.206,-31.336,0.0,90.0
52666,-1.958,-1.236,0.842,-116.641,-116.260,-22.969,0.0,94.0
52720,0.129,-1.357,-0.488,18.748,-250.137,19.511,0.0,84.0
52773,0.389,-0.759,-0.451,56.832,120.702,14.679,0.0,88.0
52831,-1.245,-0.866,0.757,-78.733,144.740,-1.466,0.0,94.0
52885,-0.861,-1.256,0.004,-48.023,-233.641,-39.145,0.0,94.0
52939,0.586,-0.758,-0.659,68.618,-88.382,-5.038,0.0,98.0
52994,-0.559,-0.399,0.228,-21.282,92.847,7.031,0.0,104.0
53049,-1.259,-1.308,0.189,-95.718,-224.534,-18.183,0.0,106.0
53103,0.486,-1.487,-0.889,62.397,-144.214,-14.000,0.0,101.0
53159,0.115,-0.249,-0.283,53.061,185.901,17.473,0.0,119.0
53214,-1.496,-1.131,0.784,-122.443,-59.473,20.756,0.0,106.0
53272,0.048,-1.423,-0.471,23.664,-223.466,-14.000,0.0,101.0
53326,0.077,-0.688,-0.359,58.626,1.359,-12.916,0.0,106.0
53382,-0.672,-0.706,0.626,-100.282,-74.794,53.450,0.0,105.0
53437,0.289,-1.781,-0.548,28.855,-48.321,10.634,0.0,107.0
53492,-0.145,-0.582,-0.225,92.366,206.954,-14.130,0.0,116.0
53549,-0.933,-1.053,0.463,-121.290,84.267,3.748,0.0,124.0
53604,-0.515,-1.616,0.073,-8.611,-132.153,-23.794,0.0,128.0
53660,0.189,-0.258,-0.305,135.840,65.267,-29.183,0.0,123.0
53716,-0.863,-0.311,0.734,-67.321,6.466,13.687,0.0,131.0
53776,-0.825,-1.485,-0.069,-36.260,-250.137,9.137,0.0,136.0
53833,0.372,-1.143,-0.765,116.901,-42.534,15.198,0.0,128.0
53891,-0.792,-0.335,0.665,-106.893,-8.038,51.076,0.0,147.0
53946,-0.194,-1.436,-0.203,-20.580,-157.702,23.069,0.0,112.0
54003,-0.185,-0.110,0.243,40.527,-21.351,32.557,0.0,156.0
54062,-0.892,-1.199,0.306,-154.954,-187.198,-14.405,0.0,152.0
54161,-0.339,0.232,0.100,25.427,250.130,19.832,0.0,129.0
54217,-1.576,-1.234,0.740,-123.420,-133.779,-4.641,0.0,137.0
54282,0.474,-1.516,-0.706,88.305,-139.084,-28.870,0.0,0.0
54338,-0.648,0.023,0.563,-73.969,158.008,29.863,0.0,131.0
54393,-0.989,-1.302,0.400,-88.519,-122.466,-1.779,0.0,118.0
54450,0.203,-1.305,-0.802,93.191,-19.000,-29.817,0.0,131.0
54507,-1.285,-0.729,0.788,-136.298,-15.687,-6.023,0.0,132.0
54567,-0.183,-1.080,-0.251,-49.725,-250.137,3.664,0.0,0.0
54622,0.430,-0.236,-0.672,65.076,94.924,-25.565,129.0,163.0
54682,-1.311,-1.626,0.146,-121.366,73.397,24.084,0.0,0.0
54737,-0.232,-1.227,-0.574,57.458,-125.695,33.550,129.0,180.0
54799,-0.505,-0.286,0.236,-119.939,-107.573,61.168,0.0,159.0
54858,-0.165,-1.364,-0.225,-34.008,-138.183,-0.870,0.0,184.0
54916,-0.168,-0.016,0.023,30.382,75.031,28.939,0.0,139.0
54973,-1.182,-1.489,0.262,-102.092,-193.603,-46.389,0.0,140.0
55030,0.587,-1.439,-0.938,107.176,-87.985,-10.229,0.0,146.0
55089,-0.530,-0.402,0.363,-20.336,169.084,45.214,0.0,165.0
55145,-0.813,-1.299,0.363,-36.718,-60.603,-9.130,0.0,121.0
55201,0.090,-1.399,-0.662,120.542,12.885,-23.122,0.0,129.0
55264,-0.783,-0.168,0.766,-101.733,-18.679,-41.160,0.0,169.0
55322,0.058,-1.172,-0.221,21.168,-145.565,-19.573,0.0,175.0
55374,-0.175,-0.185,0.241,52.137,63.015,13.206,71.0,168.0
55434,-0.935,-1.447,0.309,-91.130,-55.290,8.244,0.0,182.0
55492,0.483,-1.370,-0.984,100.786,69.992,25.489,0.0,167.0
55544,-0.878,0.277,0.915,-96.351,180.214,64.626,57.0,188.0
55602,-0.919,-1.235,0.197,-96.847,-161.206,-15.008,0.0,143.0
55660,0.298,-0.838,-0.547,95.374,-1.244,-5.122,0.0,165.0
55717,-1.118,-0.881,0.814,-118.061,-76.389,3.611,0.0,140.0
55775,0.001,-1.264,-0.518,36.908,-122.786,-11.298,0.0,84.0
55829,-0.385,-0.354,0.356,-42.015,9.130,9.198,0.0,92.0
55883,-0.410,-1.246,-0.065,-24.084,-3.511,2.878,0.0,84.0
55938,-0.421,-0.478,-0.040,64.809,135.748,26.954,0.0,89.0
55992,-1.722,-0.944,0.471,-112.733,-215.366,-13.550,0.0,97.0
56047,0.134,-1.430,-0.769,-32.802,-250.137,7.634,0.0,97.0
56101,0.479,-0.947,-0.692,45.809,198.878,0.565,0.0,101.0
56157,-1.756,-0.911,0.800,-85.886,81.260,-28.008,0.0,104.0
56216,-0.197,-0.990,-0.281,-12.336,-232.198,-9.725,0.0,113.0
56272,-0.246,-0.425,-0.009,-40.412,-46.473,6.122,0.0,118.0
56333,-0.958,-1.385,0.016,-121.794,-220.260,-36.046,0.0,0.0
56380,0.688,-1.118,-0.933,91.382,26.679,-9.015,0.0,0.0
56422,-1.051,0.036,0.552,-45.824,182.824,-1.634,0.0,120.0
56473,-2.000,-0.993,0.594,-141.221,-250.137,-25.260,0.0,37.0
56523,1.265,-2.000,-1.522,18.756,-250.137,-10.840,0.0,16.0
56574,0.536,-0.402,-0.469,122.206,237.977,-32.023,0.0,16.0
56625,-1.748,-0.858,1.262,-55.069,28.412,9.878,0.0,18.0
56678,-0.479,-1.396,-0.087,-12.427,-250.137,-33.908,0.0,24.0
56729,0.866,-0.922,-1.070,131.557,37.794,-78.588,0.0,16.0
56779,-0.777,-0.514,0.863,-60.183,104.221,20.786,0.0,18.0
56829,-0.555,-1.707,0.272,-63.061,-127.985,-5.260,0.0,20.0
56880,1.146,-1.111,-1.074,100.466,197.687,-76.137,0.0,20.0
56975,-1.474,-0.854,1.133,-87.687,-23.542,95.000,0.0,34.0
57026,-0.396,-1.982,-0.154,-7.137,-245.275,39.733,0.0,37.0
57077,0.438,-1.127,-0.988,192.802,35.832,-54.435,0.0,26.0
57132,-1.125,-0.115,1.223,-80.069,38.206,-19.313,0.0,28.0
57184,-0.951,-0.970,0.362,-103.412,-250.137,69.603,0.0,45.0
57230,1.304,-1.470,-0.946,90.244,-179.374,-84.145,46.0,95.0
57281,0.511,-0.202,-0.492,57.069,250.130,-103.672,0.0,40.0
57332,-1.559,-0.711,1.546,-194.229,29.649,52.252,0.0,37.0
57384,-0.734,-1.823,0.495,-70.794,-250.137,58.840,0.0,48.0
57428,0.953,-0.845,-0.673,130.115,-155.122,-145.924,43.0,61.0
57482,0.267,0.072,0.042,-16.969,169.076,-67.336,0.0,59.0
57535,-0.495,-0.898,1.134,-136.176,-30.489,66.634,0.0,57.0
57581,0.983,-2.000,-0.397,94.550,-15.992,14.053,17.0,71.0
57633,0.271,-0.560,-0.372,132.443,250.130,-81.206,0.0,59.0
57687,-1.696,-0.769,1.830,-182.397,231.878,-28.710,0.0,56.0
57739,-1.285,-1.586,0.458,-93.542,-250.137,6.374,0.0,54.0
57792,1.070,-1.168,-1.000,171.206,-250.137,-95.824,0.0,57.0
57846,0.624,-0.253,-0.489,34.298,225.534,-74.145,0.0,76.0
57900,-1.057,-0.786,0.295,-146.580,250.130,27.947,0.0,74.0
57953,-1.084,-1.571,0.522,-42.053,-209.389,124.374,0.0,53.0
58009,1.093,-1.734,-0.685,94.466,-168.786,-49.649,0.0,62.0
58062,0.597,-0.622,-1.033,93.122,250.130,-139.099,0.0,66.0
58116,-1.626,-0.201,1.144,-156.786,250.130,17.710,0.0,66.0
58170,-1.305,-1.490,0.898,-105.290,-250.137,134.863,0.0,75.0
58223,0.175,-1.636,-0.612,110.359,-250.137,-99.641,0.0,67.0
58276,0.227,-0.217,0.026,12.954,-54.832,-197.565,0.0,64.0
58330,-0.014,-0.660,0.697,-60.260,-94.916,-67.519,0.0,71.0
58384,0.557,-1.717,-0.923,73.458,88.969,59.679,0.0,75.0
58437,-0.754,-0.508,0.621,-7.351,244.901,41.160,0.0,71.0
58496,-0.875,-1.247,1.125,-121.130,-250.137,84.107,0.0,91.0
58550,1.172,-1.110,-0.795,12.832,-156.527,-168.595,0.0,76.0
58604,0.383,-0.029,-0.085,43.840,245.618,-139.275,0.0,83.0
58658,-0.826,-0.788,1.017,-107.603,-29.618,191.534,0.0,79.0
58713,0.048,-2.000,-0.554,51.863,-174.374,69.122,0.0,76.0
58766,0.785,-0.777,-0.756,172.328,217.084,-135.977,0.0,68.0
58820,-0.958,0.671,1.010,-106.229,250.130,52.695,0.0,82.0
58875,-1.128,-2.000,0.520,-79.298,-236.557,25.748,0.0,97.0
58930,0.810,-1.147,-0.962,194.000,-68.366,-114.573,0.0,70.0
58987,-0.322,0.432,0.510,-103.916,223.176,-25.504,0.0,74.0
59042,-1.006,-1.676,0.568,-177.305,-105.038,57.000,0.0,99.0
59096,0.420,-1.683,-0.183,133.366,-83.534,-29.893,0.0,57.0
59149,0.052,0.170,0.452,35.412,175.313,-65.588,0.0,57.0
59201,-0.565,-0.799,1.007,-197.412,39.527,15.695,0.0,56.0
59256,-0.099,-2.000,-0.176,-15.183,-125.435,10.313,0.0,29.0
59310,0.348,-1.055,-0.363,194.160,68.641,-71.473,0.0,59.0
59365,-0.208,0.404,-0.073,-8.924,250.130,-29.038,0.0,99.0
59422,-1.595,-1.441,0.752,-171.405,-146.427,59.076,0.0,80.0
59476,-0.422,-1.940,-0.519,53.099,-250.137,19.191,0.0,65.0
59531,0.704,-0.767,-0.674,119.672,-71.176,-98.115,0.0,86.0
59595,-0.028,-0.151,0.159,-82.160,205.947,-9.183,0.0,152.0
59691,0.408,-1.443,-0.648,140.038,162.580,64.221,0.0,70.0
59747,-0.359,-0.374,-0.100,110.504,250.130,5.450,0.0,70.0
59800,-2.000,-0.472,2.000,-161.672,-122.595,-60.588,0.0,78.0
59853,-1.186,-1.127,-0.794,-64.145,-250.137,-26.748,0.0,77.0
59914,1.467,-1.016,-1.614,157.183,-250.137,-101.931,0.0,196.0
59970,0.246,-0.507,-0.316,-47.015,250.130,-53.000,0.0,86.0
60024,-0.974,-1.664,0.486,-159.565,250.130,-9.534,0.0,85.0
60078,-0.444,-1.309,0.099,61.198,-13.527,-8.412,0.0,92.0
60132,-0.590,0.287,0.856,62.450,-104.160,23.374,0.0,97.0
60188,-0.898,-0.601,0.424,-101.137,-250.137,56.282,0.0,132.0
60239,1.274,-2.000,-1.450,51.947,-250.137,-35.504,0.0,37.0
60299,0.897,-0.878,-0.910,151.779,250.130,-116.351,0.0,122.0
60354,-1.117,0.077,1.211,-94.573,250.130,101.588,0.0,106.0
60408,-0.439,-1.504,0.199,-2.504,-193.855,61.672,0.0,41.0
60460,0.427,-1.037,-0.274,96.939,-51.748,-32.466,0.0,42.0
60511,-0.111,-0.229,0.181,-20.992,123.282,-14.748,0.0,42.0
60562,-1.124,-1.058,0.742,-132.031,-166.840,21.519,0.0,44.0
60607,0.572,-1.783,-0.737,10.656,-188.878,-32.282,43.0,82.0
60658,1.019,-0.622,-0.460,110.603,177.298,-57.076,44.0,0.0
60712,-0.822,-0.098,0.626,-87.924,250.130,-8.321,0.0,99.0
60765,-1.516,-1.507,0.912,-113.221,-78.901,2.290,0.0,52.0
60819,-0.061,-1.792,-0.094,54.176,-193.550,-37.061,0.0,39.0
60873,0.188,-0.721,0.023,21.275,12.191,-79.573,0.0,41.0
60932,-0.259,-0.341,0.442,-89.405,42.275,-0.550,0.0,92.0
60983,-0.030,-1.507,-0.191,22.733,-18.802,47.282,0.0,44.0
61038,-0.090,-0.956,-0.226,99.489,146.191,6.802,0.0,51.0
61089,-1.352,-0.719,1.064,-107.527,-107.580,25.206,0.0,39.0
61142,-0.348,-1.316,-0.498,-44.237,-250.137,-39.122,0.0,57.0
61197,1.239,-0.851,-1.040,125.374,23.069,-41.313,0.0,108.0
61249,-0.613,-0.016,0.472,-28.023,250.130,24.702,0.0,49.0
61302,-1.444,-1.583,0.712,-79.878,-184.031,32.679,0.0,33.0
61358,0.695,-1.584,-0.712,59.649,-165.405,-49.863,0.0,100.0
61408,0.172,-0.233,0.152,43.756,169.435,-27.176,0.0,33.0
61459,-1.560,-1.378,0.684,-106.893,-126.931,88.130,0.0,39.0
61514,0.108,-1.836,-0.344,5.260,-250.137,19.168,0.0,107.0
61570,0.687,-0.968,-0.513,83.840,146.847,-56.527,0.0,108.0
61625,-0.549,0.014,0.586,-62.405,250.130,1.374,0.0,110.0
61681,-0.770,-1.094,0.726,-54.847,-49.672,35.962,0.0,113.0
61737,0.155,-1.323,-0.429,109.802,-86.565,-12.588,0.0,128.0
61796,-0.467,-0.631,0.609,-43.695,-30.260,-24.863,0.0,124.0
61853,-0.480,-1.303,0.107,-62.870,-219.481,6.031,0.0,136.0
61914,0.858,-0.883,-0.491,118.023,15.580,4.534,199.0,0.0
61970,-0.417,-0.193,0.433,-52.206,219.176,51.061,198.0,138.0
62027,-1.124,-1.568,0.623,-86.756,-101.550,31.282,196.0,134.0
62084,0.279,-1.171,-0.434,82.649,-81.344,-48.191,192.0,138.0
62143,-0.480,-0.147,0.755,-67.901,-29.977,-13.618,190.0,182.0
62202,-0.213,-1.540,-0.095,-61.679,-179.496,-4.061,187.0,188.0
62271,0.269,-0.327,0.073,84.947,169.015,-14.344,185.0,159.0
62330,-0.856,-0.979,0.618,-110.244,-5.481,78.916,180.0,160.0
62392,0.094,-1.652,-0.190,21.908,-116.336,-8.794,181.0,183.0
62495,-1.003,-0.847,0.770,-86.634,-32.656,-17.511,171.0,171.0
62552,-0.171,-1.103,-0.282,-11.137,-250.137,2.710,191.0,96.0
62613,0.538,-0.722,-0.398,81.435,37.229,23.817,187.0,185.0
62667,-0.577,-0.804,0.574,-98.534,49.267,93.702,163.0,91.0
62726,-0.606,-1.503,0.104,-38.931,-162.481,-28.122,0.0,106.0
62783,0.313,-0.750,-0.388,92.198,-27.802,-32.275,178.0,130.0
62850,-0.855,-0.645,0.779,-119.748,-204.328,60.802,0.0,0.0
62904,0.463,-1.696,-0.721,13.656,-209.145,-49.107,0.0,56.0
62962,0.553,-0.673,-0.441,95.107,91.985,-26.527,0.0,114.0
63017,-0.805,-0.802,0.770,-109.351,7.023,68.908,0.0,57.0
63072,-0.032,-1.470,-0.128,-5.489,-158.580,-5.679,0.0,41.0
63125,0.684,-0.828,-0.520,112.420,112.725,-26.107,0.0,30.0
63183,-0.651,-0.587,0.538,-43.863,237.069,-8.015,0.0,114.0
63237,-0.979,-1.642,0.558,-59.015,-133.687,-13.344,0.0,36.0
63293,0.309,-0.901,-0.160,45.664,-127.450,-49.221,189.0,27.0
63352,-0.290,-0.127,0.476,19.069,0.092,13.511,0.0,139.0
63409,-0.675,-1.226,0.199,-29.405,-250.137,93.244,0.0,89.0
63466,0.612,-1.483,-0.502,33.305,-153.405,-11.916,0.0,87.0
63522,0.319,-0.767,-0.475,60.931,228.092,-43.855,0.0,86.0
63580,-0.882,-0.680,0.630,-62.511,79.748,100.359,0.0,92.0
63627,-0.032,-1.375,0.140,9.313,-99.519,30.244,42.0,81.0
63683,0.304,-0.856,-0.352,71.389,68.290,-49.885,0.0,88.0
63736,-0.779,-0.549,0.944,-93.076,39.313,8.939,0.0,30.0
63797,-0.350,-1.552,-0.005,-47.550,-188.412,21.092,0.0,85.0
63853,0.498,-0.972,-0.466,97.137,58.611,-59.458,0.0,90.0
63910,-0.717,-0.161,0.905,-73.542,159.534,25.092,0.0,91.0
63965,-0.726,-1.511,0.366,-48.969,-152.519,40.863,0.0,40.0
64021,0.385,-1.053,-0.429,106.122,-17.191,-39.061,0.0,89.0
64078,-0.978,-0.278,1.056,-71.595,-11.840,-17.725,0.0,90.0
64136,-0.714,-1.317,-0.023,-58.076,-250.137,-1.802,0.0,94.0
64183,0.925,-1.158,-0.770,39.351,-1.588,-80.244,16.0,115.0
64240,-0.446,-0.488,0.452,-79.115,229.939,-15.443,141.0,94.0
64294,-0.888,-1.243,0.496,-78.092,-76.832,38.053,137.0,101.0
64348,0.167,-1.473,-0.380,51.069,-57.534,-14.351,133.0,86.0
64400,-0.178,-0.573,0.186,-16.916,25.038,-1.748,130.0,84.0
64459,-0.024,-1.407,-0.119,-53.122,-79.595,40.504,0.0,121.0
64513,0.241,-0.801,-0.187,65.527,121.855,29.947,123.0,108.0
64569,-0.650,-0.719,0.696,-63.137,-5.374,70.733,0.0,78.0
64626,-0.001,-1.525,-0.292,6.038,-159.328,-78.977,0.0,91.0
64683,0.445,-0.696,-0.281,63.267,21.084,-59.359,0.0,82.0
64743,-0.781,-1.114,0.485,-71.588,-37.832,37.374,0.0,89.0
64801,0.255,-1.506,-0.451,24.267,-148.153,-16.405,0.0,123.0
64857,0.531,-0.978,-0.566,32.458,190.069,-81.870,109.0,149.0
64910,-0.759,-0.600,0.698,-82.748,175.374,10.931,106.0,108.0
64965,-0.038,-1.388,0.277,-7.313,-123.878,4.939,104.0,148.0
65016,0.807,-0.910,-0.547,91.985,100.641,-112.374,51.0,136.0
65065,-0.217,-0.224,0.101,-8.046,250.130,-15.550,59.0,94.0
65115,-1.010,-1.340,0.921,-68.802,-33.664,93.298,56.0,97.0
65169,0.360,-1.589,-0.335,57.038,-147.458,-40.168,50.0,144.0
65221,0.742,-0.502,-0.384,63.405,153.176,-84.603,51.0,143.0
