Timestamp(ms),AccelX(g),AccelY(g),AccelZ(g),GyroX(deg/s),GyroY(deg/s),GyroZ(deg/s),DistanceLeft(cm),DistanceRight(cm)
30149,-0.158,-1.021,-0.141,-1.824,-24.237,1.321,0.0,184.0
30210,-0.199,-0.961,-0.059,5.939,-24.321,17.664,0.0,190.0
30261,-0.151,-0.918,-0.072,4.611,-7.840,26.313,0.0,47.0
30318,-0.186,-0.947,-0.027,12.092,19.603,25.183,0.0,92.0
30369,-0.188,-0.873,-0.036,20.374,25.336,18.298,0.0,31.0
30424,-0.249,-0.924,-0.000,19.336,35.573,1.496,0.0,32.0
30475,-0.305,-1.033,0.006,15.313,15.481,-29.221,0.0,40.0
30528,-0.266,-1.082,-0.044,19.160,11.687,-50.763,0.0,38.0
30582,-0.293,-1.118,0.006,12.756,13.229,-55.855,0.0,40.0
30635,-0.383,-1.420,0.059,16.153,18.557,-54.733,0.0,48.0
30690,-0.156,-0.608,0.005,28.885,29.603,-20.550,0.0,51.0
30742,-0.084,-0.577,0.023,-4.229,64.115,65.176,0.0,52.0
30797,-0.301,-1.140,-0.013,-11.634,74.954,70.244,0.0,52.0
30850,-0.320,-1.061,0.031,13.000,48.122,24.359,0.0,56.0
30906,-0.263,-0.753,0.087,1.710,38.733,7.924,0.0,81.0
30958,-0.368,-0.771,0.167,-18.031,4.893,0.847,0.0,49.0
31012,-0.445,-0.917,0.160,-16.397,-59.763,-24.786,0.0,59.0
31068,-0.318,-0.950,0.057,-10.687,-86.374,-42.313,0.0,53.0
31121,-0.272,-0.947,0.054,-11.840,-65.634,-40.405,0.0,56.0
31176,-0.276,-1.063,0.066,-9.382,-37.275,-18.519,0.0,62.0
31229,-0.438,-1.031,0.234,1.321,-38.542,6.641,0.0,64.0
31285,-0.792,-1.036,0.443,2.901,-216.412,11.855,0.0,62.0
31336,0.172,-1.468,-0.383,-1.214,-178.313,-24.122,0.0,27.0
31390,0.544,-0.959,-0.538,25.214,154.786,-37.305,0.0,24.0
31440,-0.537,-0.415,0.333,-5.832,250.130,38.672,0.0,28.0
31495,-0.353,-1.438,-0.028,14.145,28.885,72.435,0.0,36.0
31549,0.375,-0.890,-0.669,83.962,250.130,33.603,0.0,37.0
31601,-1.667,-0.569,1.111,-7.863,57.153,24.473,0.0,43.0
31656,-0.581,-0.895,-0.141,-37.122,-250.137,0.824,0.0,47.0
31708,0.775,-0.921,-0.812,50.229,-94.137,-6.473,0.0,43.0
31763,-0.627,-0.821,0.493,4.221,-4.221,7.336,0.0,52.0
31814,0.288,-1.225,-0.250,11.664,-10.382,-2.336,0.0,35.0
31869,0.017,-0.838,-0.369,82.084,250.130,-15.000,0.0,42.0
31921,-1.828,-1.010,1.406,-15.000,-101.397,-52.183,0.0,45.0
31975,0.047,-1.539,-0.464,-24.733,-250.137,-38.290,0.0,39.0
32030,0.474,-0.842,-0.237,12.252,135.496,-45.885,0.0,35.0
32081,-1.503,-0.405,1.190,-14.557,-172.397,21.832,0.0,37.0
32136,0.576,-1.316,-0.469,5.382,-250.137,81.962,0.0,35.0
32187,0.489,-0.695,-0.416,57.916,250.130,5.763,0.0,30.0
32241,-1.078,-0.997,0.772,-7.702,144.115,13.908,0.0,32.0
32292,0.257,-1.154,-0.348,27.092,12.336,-3.855,0.0,34.0
32348,0.099,-0.319,-0.388,33.664,250.130,14.992,0.0,49.0
32403,-1.786,-0.893,1.271,-70.710,-126.244,-5.649,0.0,41.0
32457,0.249,-1.568,-0.716,-3.740,-212.336,-48.863,0.0,37.0
32509,0.251,-0.253,-0.011,-6.908,217.473,-22.947,0.0,49.0
32567,-1.297,-0.942,1.079,-72.740,11.641,31.687,0.0,75.0
32619,0.022,-1.521,-0.198,12.924,-104.366,10.008,0.0,58.0
32676,-0.470,-0.705,0.452,-27.481,98.809,-32.718,0.0,68.0
32728,-1.331,-1.161,0.416,-110.962,-250.137,3.092,0.0,43.0
32783,-0.020,-1.516,-0.785,7.328,-250.137,11.366,0.0,35.0
32877,0.057,-0.678,-0.330,5.641,250.130,-20.969,0.0,47.0
32932,-0.638,-1.015,0.375,-71.008,199.817,-22.176,0.0,49.0
32989,-0.020,-1.137,-0.350,34.542,140.160,10.382,0.0,55.0
33042,-1.748,-0.638,1.200,-19.977,22.885,24.069,0.0,64.0
33097,-1.005,-0.662,0.036,-110.313,-250.137,7.122,0.0,54.0
33149,1.861,-1.522,-1.747,87.496,-62.824,-62.313,0.0,36.0
33202,0.126,-0.424,-0.594,89.183,250.130,-26.107,0.0,57.0
33258,-2.000,-1.107,1.258,-58.397,144.168,18.305,0.0,67.0
33311,-0.255,-1.557,-0.404,-17.588,-250.137,28.015,0.0,53.0
33368,0.470,-0.928,-0.719,40.000,24.427,-6.481,0.0,59.0
33423,-0.990,-0.858,1.000,-95.260,-87.282,-27.061,0.0,62.0
33479,0.769,-1.214,-0.642,39.809,-72.634,-9.924,0.0,59.0
33532,-0.045,-0.242,0.196,60.298,250.130,19.031,0.0,62.0
33589,-1.517,-1.290,1.027,-35.198,-75.809,30.275,0.0,68.0
33642,0.839,-1.792,-0.966,66.626,-33.885,-21.664,0.0,66.0
33696,-0.271,-0.094,0.317,1.702,250.130,30.481,0.0,72.0
33750,-1.709,-0.991,0.781,-84.084,-250.137,40.008,0.0,70.0
33803,0.694,-1.650,-0.971,2.130,-241.015,-24.481,0.0,76.0
33860,0.009,-0.476,0.208,14.092,198.672,-49.450,0.0,76.0
33914,-1.236,-0.900,0.854,-53.634,-92.840,-33.763,0.0,84.0
33969,0.455,-1.333,-0.620,37.130,-57.359,-18.870,0.0,89.0
34024,-0.771,-0.639,0.581,-30.969,130.237,34.809,0.0,91.0
34079,-0.831,-1.076,0.293,-85.786,-229.008,76.031,0.0,94.0
34135,0.627,-1.548,-0.792,6.618,-26.115,17.779,0.0,98.0
34190,-0.730,-0.692,0.312,-2.756,197.328,-36.771,0.0,109.0
34245,-0.795,-0.794,0.472,-50.534,-197.115,-21.458,0.0,93.0
34300,0.470,-1.267,-0.799,48.229,-43.901,-53.321,0.0,97.0
34358,-1.203,-0.639,0.932,-59.366,-138.702,-9.359,0.0,85.0
34411,0.130,-1.470,-0.756,-21.748,-250.137,27.733,0.0,60.0
34469,0.581,-0.693,-0.597,45.809,60.313,4.504,0.0,96.0
34522,-0.930,-0.752,0.795,-60.527,-120.031,50.931,181.0,71.0
34576,0.634,-1.437,-0.747,24.595,-78.893,-15.137,0.0,77.0
34629,-0.333,-0.489,0.419,12.168,207.046,-11.893,0.0,73.0
34681,-1.162,-1.171,0.496,-45.321,-208.359,24.786,167.0,76.0
34734,0.854,-1.684,-0.824,22.122,-82.794,18.244,162.0,81.0
34787,-0.039,-0.858,-0.138,30.595,250.130,37.298,172.0,87.0
34842,-1.089,-1.244,0.704,-33.214,16.710,-2.061,151.0,92.0
34893,0.512,-0.651,-0.391,73.695,36.901,0.313,146.0,91.0
34946,-1.045,-0.302,0.815,-13.298,92.939,30.573,142.0,95.0
34997,-1.278,-1.321,0.110,-73.832,-250.137,16.695,136.0,100.0
35049,1.092,-1.922,-1.430,55.260,-194.260,-32.344,130.0,107.0
35100,0.155,-0.133,-0.089,10.908,250.130,7.679,126.0,109.0
35152,-1.050,-0.757,0.798,-101.527,50.649,53.870,123.0,113.0
35204,0.338,-1.546,-0.535,36.275,8.542,19.481,119.0,117.0
35259,-0.724,-0.413,0.499,25.634,213.359,-3.458,115.0,123.0
35310,-1.441,-0.770,0.578,-99.000,-237.183,-32.260,110.0,109.0
35361,0.446,-1.528,-0.916,-3.718,-212.611,4.344,104.0,124.0
35412,0.082,-0.510,-0.275,59.771,150.748,14.924,100.0,121.0
35463,-1.481,-0.691,1.160,-82.336,-70.237,-29.809,95.0,127.0
35514,-0.074,-1.584,-0.633,-26.542,-199.756,-16.328,88.0,136.0
35608,-1.752,-0.589,1.207,-96.779,-227.817,-49.031,78.0,142.0
35662,0.233,-1.287,-0.921,-43.809,-250.137,9.817,72.0,0.0
35719,0.320,-0.509,-0.296,40.748,88.695,14.603,71.0,196.0
35772,-1.108,-1.042,0.832,-91.771,-152.015,12.389,67.0,179.0
35829,0.865,-1.673,-1.184,41.908,-52.282,-41.145,131.0,0.0
35880,-0.473,0.042,0.456,-11.160,250.130,71.305,57.0,165.0
35939,-1.383,-1.447,0.465,-75.382,-157.840,31.763,0.0,166.0
35994,0.263,-0.894,-0.591,88.389,-77.794,-53.840,115.0,177.0
36045,-1.260,-0.643,0.791,-67.618,-250.137,-8.603,103.0,127.0
36097,0.767,-1.949,-1.356,18.275,-218.221,-30.763,99.0,122.0
36148,0.070,-0.323,0.167,33.160,209.015,10.710,94.0,126.0
36202,-1.365,-1.625,0.483,-77.565,-121.435,48.244,87.0,130.0
36253,0.639,-1.685,-0.715,46.779,-72.214,-0.710,96.0,137.0
36312,-0.464,0.376,0.785,-40.863,103.443,41.695,0.0,141.0
36363,-0.367,-1.469,-0.226,-36.191,-236.389,30.366,80.0,146.0
36414,0.621,-0.846,-0.720,91.206,81.420,-24.725,74.0,151.0
36459,-0.841,-0.827,0.818,-66.969,24.855,15.275,59.0,53.0
36503,0.242,-1.449,-0.489,4.847,4.473,11.977,58.0,50.0
36548,-0.401,-0.284,0.414,15.687,144.855,35.084,59.0,52.0
36603,-1.688,-0.820,0.667,-104.794,-250.137,-10.183,0.0,48.0
36661,1.038,-1.729,-1.430,32.160,-199.458,-48.305,0.0,61.0
36714,-0.646,-0.256,0.682,-91.176,119.550,31.107,0.0,58.0
36767,-0.333,-1.549,-0.347,-22.656,-144.519,-2.588,0.0,64.0
36822,-0.078,-0.128,0.273,3.748,67.496,30.496,0.0,71.0
36876,-0.828,-1.227,0.282,-76.672,-171.954,11.000,0.0,81.0
36936,0.750,-1.264,-0.999,55.977,138.244,11.344,0.0,83.0
36989,-1.466,-1.238,0.959,-61.840,48.924,-9.092,0.0,88.0
37044,0.353,-1.406,-0.826,37.649,-71.130,-53.389,0.0,95.0
37101,-1.292,-0.593,1.044,-41.489,-236.015,-7.519,0.0,102.0
37157,1.064,-1.521,-1.083,7.458,-155.061,-20.397,0.0,124.0
37213,-0.259,-0.448,0.352,-6.687,159.473,66.687,0.0,117.0
37263,-0.187,-1.174,0.055,-1.634,-128.405,44.580,0.0,31.0
37318,0.067,-0.627,-0.059,29.595,17.763,11.260,0.0,33.0
37368,-0.842,-1.096,0.524,-33.015,-231.450,18.260,0.0,39.0
37419,1.035,-1.458,-1.183,86.794,21.374,-82.969,0.0,19.0
37474,-0.802,-0.375,0.448,4.794,250.130,-7.038,0.0,46.0
37526,-0.612,-1.354,0.150,-19.267,-125.611,-21.626,0.0,56.0
37579,0.148,-0.827,-0.157,51.718,97.099,-10.176,0.0,35.0
37636,-1.109,-0.712,0.855,-51.191,-108.763,49.252,0.0,63.0
37686,1.004,-1.222,-0.616,46.824,-21.931,10.374,0.0,33.0
37743,-0.659,-0.331,0.704,-11.427,172.336,43.038,0.0,73.0
37794,-0.449,-1.349,0.049,-35.130,-250.137,33.466,0.0,38.0
37858,1.208,-0.600,-1.281,105.924,177.718,-28.687,0.0,197.0
37909,-1.969,-1.153,1.034,-72.939,57.779,50.534,0.0,45.0
37963,0.101,-1.445,-0.462,23.366,-136.160,-3.649,0.0,37.0
38019,-0.672,0.005,0.737,-61.908,65.817,14.473,0.0,50.0
38074,-0.229,-1.346,-0.195,-37.695,-140.542,4.359,0.0,45.0
38126,0.294,-0.534,-0.543,94.244,241.351,-11.099,0.0,65.0
38182,-1.581,-1.112,0.904,-79.740,106.115,23.931,0.0,57.0
38231,0.110,-1.924,-0.647,59.580,23.863,16.527,126.0,66.0
38321,-0.389,-0.888,0.001,-47.695,-162.679,-4.122,118.0,56.0
38369,0.484,-1.117,-0.947,80.511,87.534,-7.115,111.0,62.0
38415,-1.571,-0.636,0.961,-55.718,28.153,13.160,105.0,59.0
38463,-0.369,-1.306,-0.311,-40.954,-250.137,-6.504,116.0,65.0
38519,0.685,-0.483,-0.648,32.779,-4.450,-10.847,0.0,73.0
38573,-1.114,-0.961,0.759,-78.977,-12.733,-9.641,0.0,70.0
38629,0.523,-1.428,-0.743,81.931,11.618,-16.725,0.0,73.0
38676,-1.409,-0.371,0.913,-42.481,158.038,5.550,86.0,78.0
38723,-0.811,-1.161,0.332,-31.664,-250.137,-8.664,84.0,81.0
38776,0.956,-1.254,-1.143,85.855,-3.145,-59.244,0.0,87.0
38824,-1.063,-1.018,0.312,-37.489,240.435,28.260,79.0,89.0
38871,-0.780,-1.536,0.279,-11.511,-62.412,16.206,75.0,90.0
38919,0.169,-0.904,-0.303,60.130,20.489,-19.603,86.0,96.0
38970,-0.898,-0.157,0.813,-62.282,-15.260,0.779,81.0,95.0
39024,0.004,-1.473,-0.354,16.870,-190.252,-50.069,0.0,96.0
39079,0.680,-0.337,-0.823,114.160,250.130,3.840,0.0,109.0
39128,-1.861,-1.252,1.006,-91.198,135.511,74.618,82.0,112.0
39176,-0.073,-1.352,-0.204,58.496,-106.969,11.122,78.0,100.0
39226,-0.244,-0.065,0.312,-9.649,25.282,-11.282,101.0,122.0
39281,-0.786,-1.091,0.470,-69.924,-165.069,-5.374,0.0,106.0
39337,0.835,-0.911,-1.317,88.519,187.740,-9.061,0.0,110.0
39388,-2.000,-0.866,1.254,-73.466,165.511,47.901,61.0,115.0
39444,-0.851,-1.251,-0.068,-11.573,-250.137,-33.389,0.0,116.0
39499,0.822,-0.652,-0.690,22.618,25.313,5.344,0.0,118.0
39554,-0.838,-1.046,-0.146,-1.611,250.130,35.969,79.0,0.0
39592,-1.367,-1.049,0.389,-21.695,-30.664,-6.198,63.0,0.0
39643,-0.828,-1.045,-0.206,-93.160,-178.992,-27.550,73.0,147.0
39699,0.072,-0.709,0.125,-113.519,-164.595,-28.069,0.0,131.0
39756,0.515,-1.021,-0.954,159.443,164.000,-18.733,0.0,135.0
39815,-1.932,-0.566,1.411,-34.511,-28.115,-55.298,0.0,154.0
39870,-0.037,-1.417,-0.842,-33.313,-250.137,-8.931,0.0,144.0
39928,0.041,-0.338,-0.104,38.496,49.168,-26.382,0.0,153.0
39983,-0.556,-1.021,0.070,-70.748,-174.137,-13.282,0.0,89.0
40037,0.552,-0.987,-1.029,89.282,73.802,-7.115,0.0,98.0
40095,-1.575,-0.673,1.224,-92.886,22.603,58.305,0.0,154.0
40150,0.596,-1.715,-0.868,64.000,-173.008,-62.069,0.0,91.0
40208,0.162,-0.236,-0.415,96.031,240.542,-19.954,0.0,161.0
40267,-1.735,-1.615,0.758,-89.389,-11.542,24.244,197.0,167.0
40329,0.335,-1.632,-0.921,98.160,-11.221,-35.183,192.0,170.0
40388,-0.700,0.022,0.656,-43.847,200.122,-1.573,188.0,191.0
40448,-0.380,-1.170,-0.040,-19.450,-75.985,14.023,183.0,187.0
40503,-0.294,-0.525,0.098,67.557,62.695,14.908,178.0,123.0
40557,-0.737,-1.083,0.704,-100.832,-179.168,19.656,174.0,115.0
40616,0.693,-1.275,-0.844,70.954,-12.565,-17.634,170.0,200.0
40672,-0.689,-0.071,0.688,-61.481,170.634,56.763,166.0,124.0
40730,-0.520,-1.721,-0.239,-11.763,-61.489,-39.779,162.0,0.0
40787,-0.283,-0.289,0.117,34.473,42.298,-2.885,157.0,133.0
40846,-0.698,-1.012,0.327,-92.191,-79.450,-3.145,154.0,0.0
40899,0.163,-1.112,-0.521,90.855,59.603,-8.389,149.0,121.0
40957,-1.122,-0.511,0.589,-48.267,176.344,7.275,144.0,0.0
41058,0.231,-1.568,-0.768,73.611,-42.053,-30.855,135.0,0.0
41114,-1.009,-0.444,0.438,-75.023,88.405,17.550,129.0,0.0
41170,-0.519,-0.954,0.212,-100.336,-250.137,3.817,123.0,0.0
41220,0.576,-1.026,-0.967,103.038,-18.481,-58.176,118.0,66.0
41275,-0.340,-0.534,-0.021,-19.130,164.626,48.779,114.0,189.0
41325,-0.830,-1.418,-0.014,-27.931,-73.969,-64.977,109.0,47.0
41372,-0.108,-0.790,-0.253,62.107,-119.931,-28.122,106.0,51.0
41419,0.003,-0.626,0.004,-27.107,-35.557,20.084,103.0,55.0
41473,-0.327,-1.379,-0.239,6.656,10.962,-42.458,0.0,67.0
41519,-0.573,-0.441,0.152,-2.466,-11.000,34.023,94.0,59.0
41570,-0.491,-1.034,0.454,-82.244,-176.962,14.038,189.0,33.0
41618,0.622,-1.516,-0.972,111.947,11.489,-70.824,89.0,88.0
41663,-0.261,-0.401,-0.174,28.084,250.130,35.870,83.0,36.0
41711,-1.841,-1.711,0.733,-91.298,-71.198,11.382,81.0,41.0
41755,0.152,-1.505,-0.475,25.672,-213.000,-58.305,75.0,44.0
41800,0.548,0.017,-0.209,60.702,9.160,-15.267,73.0,51.0
41850,-0.650,-0.407,0.316,-64.458,53.573,65.962,69.0,136.0
41900,0.020,-1.679,-0.346,-31.198,-77.084,30.489,138.0,55.0
41949,0.270,-1.077,-0.500,69.305,99.328,-13.282,140.0,59.0
41998,-0.958,-0.552,0.707,-44.595,51.756,23.939,133.0,65.0
42048,-0.270,-1.130,-0.075,-49.229,-184.779,-7.863,146.0,67.0
42095,0.197,-0.796,-0.364,54.267,-13.511,-31.092,82.0,74.0
42145,-1.226,-0.692,0.749,-77.076,-165.779,15.947,78.0,75.0
42192,0.243,-1.567,-0.773,-42.336,-179.901,-3.313,72.0,79.0
42238,0.372,-0.834,-0.527,28.763,108.519,3.092,71.0,83.0
42286,-0.762,-0.742,0.618,-31.985,106.710,12.588,71.0,87.0
42333,-0.457,-1.197,-0.103,-3.908,-74.893,-19.786,63.0,89.0
42380,-0.529,-0.529,0.183,-48.366,-137.725,20.489,57.0,94.0
42434,-0.399,-1.048,-0.026,-106.687,-231.382,14.382,142.0,150.0
42493,0.582,-1.242,-0.721,19.992,-52.618,-24.756,0.0,168.0
42545,-0.926,-0.807,0.463,-47.740,97.931,8.023,42.0,113.0
42596,-0.650,-1.591,-0.041,-57.916,-195.000,-26.893,129.0,117.0
42648,0.432,-0.808,-0.548,46.214,-50.359,-28.733,58.0,170.0
42699,-0.384,-0.596,0.262,-42.206,40.542,7.519,53.0,175.0
42757,-0.399,-1.319,-0.199,-21.267,-130.198,-29.527,157.0,183.0
42815,0.023,-0.751,-0.318,-30.962,-86.107,21.954,150.0,0.0
42867,-0.089,-1.058,-0.153,-121.099,-108.901,33.206,145.0,86.0
42918,0.463,-1.440,-0.625,58.153,-10.626,-19.137,140.0,91.0
42976,-0.552,-0.468,0.137,20.305,125.786,-21.313,137.0,132.0
43029,-0.993,-1.064,0.151,-84.847,-205.237,-17.756,132.0,137.0
43078,0.347,-1.484,-0.798,27.794,-216.427,-28.115,128.0,49.0
43126,0.281,-0.747,-0.702,91.176,124.779,-32.824,125.0,53.0
43174,-1.099,-0.760,0.462,-60.794,61.504,39.718,120.0,58.0
43224,-0.708,-1.240,0.383,-81.458,-217.122,38.313,115.0,65.0
43272,0.459,-1.827,-1.209,96.176,-70.870,-47.458,111.0,69.0
43320,-0.089,-0.365,0.006,68.298,163.863,-23.183,105.0,72.0
43369,-0.734,-0.238,0.763,-91.931,7.435,80.840,100.0,76.0
43420,-0.089,-1.732,-0.598,22.214,-140.511,-3.130,96.0,81.0
43468,0.166,-0.961,-0.545,119.359,25.519,-17.290,91.0,88.0
43517,-0.365,-0.704,0.092,-92.206,15.519,128.382,88.0,91.0
43610,-0.154,-0.925,-0.138,37.328,-34.588,-26.206,81.0,105.0
43660,-0.108,-0.443,0.345,-10.573,-29.687,80.962,105.0,111.0
43720,-0.430,-1.574,-0.166,-10.198,5.977,-89.908,105.0,167.0
43763,-0.493,-0.530,0.197,33.237,-24.244,-11.450,71.0,39.0
43814,-0.474,-0.717,0.552,-72.611,-130.481,86.504,0.0,42.0
43866,0.140,-1.376,-0.798,31.252,9.328,-88.122,152.0,46.0
43915,-0.602,-0.233,0.309,2.130,98.992,34.198,151.0,49.0
43963,-0.955,-1.100,0.621,-100.634,-156.618,35.351,147.0,54.0
44015,0.154,-1.468,-0.905,41.153,-67.725,-78.061,0.0,62.0
44071,-0.278,-0.228,0.156,-7.252,119.756,44.634,0.0,63.0
44119,-1.024,-1.753,-0.193,-49.893,7.435,-34.618,58.0,106.0
44166,-0.480,-0.760,-0.098,17.893,-99.595,4.099,99.0,73.0
44211,-0.063,-0.478,0.185,-69.649,-116.046,36.695,59.0,78.0
44257,-0.082,-1.303,-0.537,-14.733,-24.855,-46.168,74.0,82.0
44307,-0.392,-0.833,-0.081,3.908,-5.275,50.885,86.0,89.0
44354,-0.504,-1.056,0.092,-51.634,-61.733,33.573,51.0,126.0
44402,-0.423,-1.174,-0.184,-22.824,-148.214,-19.924,57.0,131.0
44448,0.046,-0.699,-0.307,-14.046,-141.550,18.351,58.0,96.0
44495,0.055,-1.023,-0.209,-43.565,-84.511,-22.878,60.0,99.0
44542,-0.083,-1.175,-0.617,21.061,33.473,-46.260,72.0,103.0
44592,-0.288,-0.498,0.226,-45.649,19.618,77.947,85.0,120.0
44640,-0.338,-1.391,-0.206,-18.450,-34.603,-55.519,82.0,111.0
44691,-0.332,-0.842,-0.132,62.435,2.160,-36.076,79.0,113.0
44740,-0.663,-0.911,-0.030,-48.679,-7.695,67.076,76.0,128.0
44789,-0.414,-1.341,0.458,-39.908,-94.221,-23.748,72.0,124.0
44837,-0.095,-1.703,-0.662,128.458,-18.863,-141.038,68.0,120.0
44886,-0.165,0.209,0.309,28.748,74.870,22.053,64.0,126.0
44935,-0.316,-0.501,0.867,-105.863,-36.664,117.397,60.0,145.0
44983,-0.167,-1.659,-0.473,48.626,-15.359,-82.618,57.0,135.0
45031,-0.122,-0.730,0.039,53.359,35.053,24.473,55.0,128.0
45082,-0.318,-0.970,0.656,-114.595,-5.115,99.176,51.0,139.0
45130,-0.342,-1.431,-0.076,-4.855,0.168,-101.977,51.0,139.0
45179,-0.280,-0.597,0.025,54.221,-5.244,-23.885,48.0,155.0
45229,-0.350,-0.497,0.327,-99.954,-24.336,148.672,47.0,153.0
45283,-0.285,-1.729,-0.544,-6.374,2.374,-69.794,163.0,135.0
45338,-0.405,-0.502,0.190,45.985,46.298,-11.473,161.0,151.0
45393,-0.469,-0.946,0.482,-87.534,-57.244,94.076,156.0,139.0
45448,-0.443,-1.138,-0.538,20.145,-8.740,-85.542,155.0,142.0
45502,-0.180,-0.377,0.204,-32.786,-25.466,71.527,150.0,143.0
45557,-0.455,-1.372,-0.496,2.405,47.191,-58.511,98.0,145.0
45606,-0.514,-0.322,0.260,-31.893,21.229,50.893,60.0,149.0
45658,-0.367,-1.210,-0.195,-25.275,-47.695,-17.130,89.0,152.0
45711,-0.530,-1.019,-0.441,30.366,21.496,-78.656,109.0,154.0
45763,-0.490,-1.067,0.156,-57.611,-27.160,39.885,104.0,158.0
45816,-0.356,-1.137,-0.418,-1.748,-31.534,-60.061,98.0,163.0
45867,-0.246,-0.336,0.196,-33.557,-44.313,32.702,59.0,167.0
45920,-0.258,-1.363,-0.408,-31.130,-48.221,-13.176,91.0,172.0
45975,-0.336,-1.004,-0.258,-10.206,-19.000,5.786,84.0,178.0
46028,-0.168,-0.931,0.074,-55.092,-21.641,85.260,78.0,183.0
46081,-0.254,-1.259,-0.306,18.985,-9.282,-52.290,74.0,186.0
46169,-0.511,-0.935,0.376,-73.969,-140.015,85.412,68.0,44.0
46220,-0.162,-1.384,-0.547,23.137,-123.466,-100.573,0.0,47.0
46276,-0.415,-0.821,-0.185,53.595,3.481,-63.000,0.0,47.0
46327,-0.364,-0.834,0.674,-27.489,-75.015,98.824,0.0,48.0
46384,-0.131,-1.507,-0.781,133.710,129.000,-72.901,0.0,49.0
46435,-0.992,-0.923,0.658,-8.931,48.214,-0.763,0.0,45.0
46490,-0.395,-1.495,-0.287,-19.611,-125.405,3.122,0.0,50.0
46546,0.384,-0.060,-0.460,87.527,54.153,22.443,0.0,70.0
46599,-0.605,-0.471,0.721,-71.725,35.595,20.580,0.0,48.0
46655,-0.049,-1.759,-0.591,40.412,-22.679,-3.756,0.0,57.0
46713,-0.290,-0.573,-0.016,77.466,142.115,9.832,168.0,0.0
46767,-0.790,-0.710,0.635,-86.733,-64.290,-0.802,0.0,69.0
46820,0.078,-1.493,-0.547,67.168,-55.466,-24.763,0.0,71.0
46875,-0.437,-0.013,0.225,14.794,119.664,21.733,0.0,95.0
46924,-0.799,-1.226,-0.062,-74.489,-50.840,-14.458,75.0,74.0
46974,-0.285,-0.945,-0.305,21.244,-44.450,44.481,153.0,72.0
47028,-0.120,-0.654,0.228,-28.504,7.519,32.962,0.0,63.0
47084,-0.580,-1.107,-0.044,-3.733,34.588,-99.672,0.0,68.0
47130,-0.706,-0.856,-0.099,-42.336,-27.412,31.290,63.0,65.0
47176,-0.498,-1.169,0.252,-105.450,-59.611,92.198,63.0,84.0
47228,-0.440,-1.593,-0.255,-16.038,-45.046,-134.412,0.0,61.0
47286,-0.279,-0.525,-0.117,47.702,-52.145,-100.321,0.0,65.0
47339,-0.328,-0.562,-0.090,-66.053,-30.137,118.382,0.0,67.0
47395,-0.268,-1.633,-0.484,-17.870,-49.855,-43.115,0.0,69.0
47447,-0.392,-0.838,-0.182,54.939,-31.977,-90.336,0.0,30.0
47501,-0.239,-0.517,-0.131,-41.061,-42.802,112.481,0.0,35.0
47553,0.016,-1.408,-0.427,-24.855,-45.832,-11.084,0.0,44.0
47608,-0.325,-0.759,-0.432,86.336,58.427,-103.664,0.0,39.0
47661,-0.403,-0.419,-0.166,-54.550,50.473,142.947,0.0,44.0
47716,-0.492,-1.323,-0.284,-2.962,3.076,-41.115,0.0,43.0
47768,-0.407,-0.984,-0.160,79.427,-7.084,-40.733,0.0,43.0
47822,-0.086,-0.856,0.210,-36.122,21.496,102.542,0.0,35.0
47879,-0.708,-1.580,-0.124,14.779,59.076,-98.450,0.0,51.0
47931,-0.447,-0.552,0.366,-10.641,-76.916,56.427,0.0,50.0
47987,0.047,-0.837,-0.315,9.244,-73.053,-9.244,0.0,52.0
48039,-0.030,-0.837,-0.224,38.229,46.557,-23.107,0.0,51.0
48095,-0.151,-0.970,-0.042,-6.137,101.511,108.519,0.0,54.0
48147,-0.494,-1.087,0.162,22.802,56.107,-48.260,0.0,47.0
48203,-0.466,-0.545,0.199,-7.878,-7.191,43.382,0.0,51.0
48256,-0.213,-0.818,0.413,-54.137,-98.397,77.351,0.0,51.0
48312,-0.242,-0.981,-0.097,24.985,-48.206,-227.618,0.0,54.0
48368,-0.248,-0.496,-0.356,26.206,34.183,55.000,0.0,57.0
48421,-0.452,-1.105,0.739,-86.748,24.779,156.878,0.0,78.0
48476,-0.403,-1.081,0.044,46.252,11.740,-220.786,0.0,78.0
48529,-0.632,-0.674,-0.182,34.802,-21.611,34.992,198.0,62.0
48582,-0.563,-0.906,0.335,-114.359,1.733,233.794,0.0,68.0
48637,-0.446,-1.460,0.105,9.863,-6.008,-159.496,0.0,96.0
48690,-0.962,-1.471,-0.139,74.542,-80.168,-141.344,0.0,57.0
48746,-0.046,-0.095,-0.058,-16.878,-82.580,163.534,0.0,38.0
48801,-0.044,-1.438,-0.525,-49.924,-10.618,22.763,0.0,40.0
48897,-0.380,-0.544,-0.013,44.084,-1.214,-3.145,0.0,43.0
48952,-0.094,-0.601,0.221,-67.015,-70.168,138.969,0.0,47.0
49004,-0.419,-1.353,-0.071,13.099,14.053,-126.145,0.0,53.0
49060,-0.475,-0.953,-0.078,44.160,22.191,-78.275,0.0,54.0
49114,-0.205,-0.541,0.304,-69.000,-14.855,169.099,0.0,58.0
49170,-0.510,-1.485,-0.091,21.878,14.466,-124.389,0.0,57.0
49223,-0.486,-0.859,-0.055,83.038,38.672,-83.206,0.0,55.0
49280,-0.395,-0.738,0.200,-84.847,47.198,217.290,0.0,67.0
49333,-0.656,-1.539,-0.092,28.046,38.206,-139.916,0.0,64.0
49386,-0.620,-1.119,0.087,111.466,-48.634,-86.305,0.0,60.0
49442,-0.146,-0.381,0.151,-78.809,-26.305,250.130,0.0,53.0
49496,-0.132,-1.038,0.143,28.435,-7.282,-151.832,0.0,55.0
49552,-0.270,-0.980,-0.229,99.527,29.099,-103.656,0.0,62.0
49605,-0.104,-0.619,0.119,-72.214,73.122,250.130,0.0,62.0
49659,-0.477,-1.362,0.168,-1.076,62.786,-106.397,0.0,65.0
49713,-0.921,-0.979,0.031,56.252,-37.832,-145.168,0.0,62.0
49769,0.012,-0.155,0.482,-21.977,-157.840,235.344,0.0,61.0
49822,0.007,-1.600,-0.475,-28.481,-43.817,-116.947,0.0,61.0
49875,-0.456,-1.724,-0.501,34.244,250.130,-197.802,0.0,64.0
49929,-0.432,-0.053,0.600,-90.244,161.962,249.244,0.0,64.0
49983,-1.071,-1.781,0.542,8.664,74.565,-133.702,0.0,69.0
50037,-0.771,-0.811,0.297,40.008,-102.977,-77.420,0.0,85.0
50092,0.192,-0.252,0.631,-87.527,-205.061,218.550,0.0,70.0
50145,-0.245,-1.593,-0.122,-3.664,35.099,-248.618,0.0,72.0
50203,-0.710,-0.827,0.333,51.458,69.565,-10.412,0.0,77.0
50257,0.180,-0.166,1.405,-93.603,-206.420,232.893,0.0,83.0
50312,-0.333,-1.208,-0.375,51.763,-21.321,-228.542,0.0,88.0
50367,-0.494,-0.841,0.713,27.435,-25.466,-32.893,0.0,92.0
50422,-0.147,-0.906,0.407,-122.595,-229.282,250.130,0.0,96.0
50484,-0.177,-0.936,-0.320,13.771,-43.489,-250.137,0.0,103.0
50538,-0.762,-1.214,0.148,86.985,-8.328,-107.756,0.0,99.0
50592,-0.202,-0.395,0.413,-44.885,-206.542,250.130,0.0,88.0
50647,-0.281,-1.634,0.367,-43.748,-111.084,-173.870,0.0,90.0
50703,-0.348,-1.809,0.014,90.405,15.947,-191.153,0.0,79.0
50754,-0.014,-0.145,0.479,30.496,-140.061,250.130,0.0,57.0
50811,-0.418,-1.704,-0.275,-100.405,46.962,-62.466,0.0,86.0
50864,-0.556,-2.000,0.135,48.130,24.344,-169.237,192.0,61.0
50916,0.148,-0.503,0.430,39.176,-193.458,181.038,0.0,64.0
50973,-0.113,-1.131,-0.242,-49.672,56.282,-78.947,0.0,72.0
51024,0.083,-1.014,0.310,20.160,114.527,-19.359,174.0,73.0
51080,0.745,-0.508,0.488,20.977,-68.031,221.008,0.0,115.0
51136,-0.756,-1.250,-0.276,-7.603,211.679,-121.496,169.0,111.0
51188,0.050,-0.021,1.067,-16.878,-130.725,124.931,165.0,85.0
51241,-0.906,-2.000,-0.722,21.153,-45.534,-31.733,0.0,83.0
51293,-0.526,-1.198,0.296,-9.802,101.802,-130.374,155.0,90.0
51345,0.113,-0.334,0.117,-36.756,-136.748,144.374,151.0,92.0
51396,-1.117,-1.395,0.245,-32.542,-90.504,-81.748,147.0,92.0
51447,0.191,-0.398,0.643,-5.962,-218.145,23.382,143.0,96.0
51502,0.344,-1.515,-0.904,29.802,-50.260,-45.550,0.0,100.0
51553,-0.588,-1.059,0.119,-40.344,250.130,-39.802,132.0,102.0
51650,-0.556,-0.728,-0.053,4.260,-1.229,-163.282,125.0,111.0
51700,-0.019,-0.397,0.598,-21.084,-153.992,42.214,120.0,116.0
51752,-0.714,-1.840,-0.398,-21.023,-59.588,-37.153,116.0,122.0
51804,-0.209,-1.240,0.192,-28.626,-4.649,5.733,110.0,128.0
51855,0.122,-0.776,0.128,-20.366,-122.664,116.878,106.0,138.0
51906,-0.259,-0.579,0.141,-7.496,28.351,-133.588,100.0,143.0
51957,-0.303,-0.936,0.229,-16.802,-115.176,60.748,95.0,147.0
52015,-0.411,-1.625,-0.334,-16.847,-221.160,31.382,166.0,173.0
52076,-0.429,-1.171,-0.416,-13.817,-10.595,-145.634,151.0,0.0
52133,0.118,-0.268,0.282,-1.809,-115.237,244.763,153.0,0.0
52177,-0.048,-1.452,-0.177,-5.466,47.641,-151.649,148.0,0.0
52234,-0.410,-1.234,-0.077,-9.489,124.046,-103.313,136.0,0.0
52291,-0.213,-0.658,0.439,-21.695,-113.313,191.076,0.0,132.0
52347,-0.265,-1.230,-0.233,5.985,-38.069,-109.603,131.0,0.0
52390,0.023,-0.522,0.184,0.336,-16.725,83.031,126.0,0.0
52442,-0.145,-1.218,0.045,-28.496,-74.351,179.595,119.0,131.0
52499,-0.240,-1.221,-0.016,-1.481,49.099,-86.763,112.0,175.0
52551,-0.125,-0.397,0.493,-1.511,2.412,-6.725,106.0,151.0
52605,-0.126,-0.699,0.180,-0.954,-97.275,39.344,102.0,185.0
52658,-0.338,-1.306,-0.475,33.489,7.107,-58.092,97.0,154.0
52708,0.041,-0.741,0.148,-21.183,-29.198,124.519,92.0,132.0
52766,-0.309,-1.368,-0.452,-24.702,-26.405,7.336,0.0,170.0
52817,-0.512,-1.027,-0.015,-18.244,29.718,-107.718,85.0,138.0
52868,-0.052,-0.435,0.173,-24.588,-77.183,85.412,82.0,140.0
52919,-0.257,-1.358,-0.329,-35.221,-143.908,71.824,81.0,154.0
52972,-0.509,-0.965,-0.172,-35.137,16.328,-155.198,78.0,145.0
53023,-0.212,-0.374,0.268,-27.252,-109.863,69.565,72.0,152.0
53083,-0.173,-0.937,0.219,-40.878,-202.206,194.389,0.0,179.0
53141,-0.073,-1.017,-0.285,-24.366,-23.344,-79.947,0.0,169.0
53200,0.078,-0.520,0.092,-7.298,17.435,36.160,0.0,167.0
53259,-0.666,-1.282,-0.224,-14.092,48.260,8.687,0.0,165.0
53318,-0.126,-0.552,0.262,-31.786,23.550,66.473,0.0,175.0
53376,-0.599,-1.325,-0.206,17.359,37.931,-49.191,0.0,150.0
53438,-0.761,-1.642,-0.359,-1.122,-2.031,-62.809,0.0,176.0
53491,0.038,-0.344,0.292,-39.679,-120.130,85.863,0.0,74.0
53544,-0.261,-1.260,-0.331,-25.237,-22.496,-102.534,0.0,76.0
53599,-0.430,-0.985,0.078,-34.015,-111.198,-16.847,0.0,82.0
53653,-0.117,-1.170,-0.162,-43.130,-219.046,59.237,0.0,87.0
53708,0.072,-0.962,-0.330,1.511,-65.015,-85.443,0.0,92.0
53763,-0.156,-0.640,0.102,-10.985,-13.802,8.573,0.0,96.0
53818,-0.209,-1.219,-0.070,-23.313,-90.046,58.336,0.0,101.0
53873,-0.332,-1.135,-0.521,14.099,58.878,-63.321,0.0,105.0
53932,0.153,-0.733,-0.034,-0.267,2.679,123.252,0.0,111.0
53989,-0.408,-1.140,-0.230,37.817,97.427,-59.908,0.0,133.0
54045,-0.245,-0.751,0.072,-5.221,61.229,87.595,0.0,120.0
54102,-0.636,-1.584,-0.014,31.626,14.748,-84.947,0.0,123.0
54158,-0.785,-1.127,-0.150,13.504,-37.931,-97.389,0.0,127.0
54215,0.272,-0.132,0.391,-33.611,-139.557,132.015,0.0,136.0
54273,0.050,-1.120,-0.306,56.496,16.916,-95.664,0.0,139.0
54330,0.085,-0.549,0.042,-2.718,92.618,93.015,0.0,139.0
54433,-0.325,-0.779,0.119,22.405,26.328,-24.366,0.0,153.0
54492,-0.114,-0.913,0.320,-15.748,-30.985,60.008,0.0,148.0
54550,-0.143,-0.928,-0.087,42.695,37.885,-88.687,0.0,155.0
54609,-0.435,-0.677,0.078,-47.206,62.511,71.244,0.0,169.0
54667,-0.697,-1.183,0.247,-4.221,-44.832,-85.847,0.0,151.0
54721,-0.627,-0.734,-0.237,2.290,-105.038,-46.672,0.0,71.0
54774,-0.146,-0.870,-0.296,-42.321,-0.702,163.588,0.0,75.0
54829,-0.096,-0.954,-0.043,17.427,87.847,-53.099,0.0,77.0
54880,-0.689,-1.238,-0.224,25.229,134.748,-42.489,157.0,80.0
54939,-0.678,-1.104,0.493,-67.137,-27.473,89.061,151.0,170.0
54991,-0.231,-1.040,-0.086,64.435,-83.214,-156.084,146.0,90.0
55042,-0.378,-0.573,-0.131,-6.527,-77.969,-21.466,146.0,77.0
55092,0.098,-1.034,0.211,-67.191,-94.275,162.672,141.0,61.0
55145,0.001,-1.291,-0.260,35.565,9.229,-118.237,0.0,64.0
55201,-0.353,-0.561,0.090,-31.267,16.786,37.534,0.0,61.0
55255,-0.274,-1.486,-0.154,-5.023,-57.969,19.053,0.0,64.0
55308,-0.125,-0.720,-0.260,47.626,14.832,-82.672,0.0,72.0
55360,-0.241,-0.818,0.034,-40.939,41.740,75.473,122.0,63.0
55410,-0.384,-1.237,-0.057,35.267,19.817,-67.099,117.0,100.0
55458,-0.616,-0.797,-0.118,10.580,-15.389,-41.847,115.0,68.0
55506,-0.534,-0.753,-0.447,-80.015,-24.977,144.397,110.0,63.0
55563,0.171,-1.207,0.504,-4.275,-89.901,-22.008,106.0,70.0
55611,0.180,-1.234,-0.272,137.015,17.893,-226.198,104.0,81.0
55659,-0.417,-0.472,-0.021,8.595,116.046,-21.863,100.0,83.0
55706,-0.493,-1.222,0.337,-121.229,60.046,221.015,94.0,86.0
55753,-0.104,-1.279,-0.193,49.160,2.160,-39.855,91.0,83.0
55802,-0.125,-0.300,0.286,69.267,-6.450,-58.443,88.0,81.0
55851,-0.310,-0.740,-0.158,-26.450,-18.290,74.664,88.0,88.0
55897,0.032,-1.221,0.304,-43.351,-44.847,112.046,82.0,86.0
55945,-0.106,-1.278,-0.129,67.786,28.160,-141.344,80.0,98.0
55992,-0.506,-0.549,0.303,15.656,26.191,-47.863,89.0,92.0
56039,-0.309,-0.807,0.233,-69.481,-50.008,117.649,86.0,95.0
56087,-0.205,-1.477,-0.154,22.588,-49.740,-86.176,84.0,96.0
56135,-0.213,-0.667,0.028,31.153,0.046,-93.809,84.0,99.0
56185,-0.354,-0.712,-0.039,-55.542,5.931,91.412,83.0,101.0
56232,-0.355,-1.186,0.274,-47.489,-22.260,53.870,79.0,102.0
56288,-0.352,-1.168,-0.001,34.046,-25.534,-90.702,0.0,108.0
56343,-0.291,-0.637,0.058,11.160,-14.878,9.779,0.0,110.0
56397,-0.456,-0.987,-0.057,-39.534,14.947,71.595,0.0,103.0
56454,-0.302,-1.256,0.138,-3.069,-12.580,0.695,0.0,124.0
56509,-0.379,-1.198,-0.023,46.389,-13.611,-60.069,0.0,110.0
56564,-0.294,-0.723,-0.072,-1.260,-36.069,11.214,0.0,118.0
56621,-0.049,-0.917,0.326,-52.260,-44.664,80.977,0.0,125.0
56680,-0.333,-1.234,-0.090,29.725,-68.573,-117.267,0.0,127.0
56736,0.128,-0.488,0.018,-37.053,-83.267,108.397,0.0,131.0
56793,0.074,-1.521,-0.404,20.450,25.656,-2.763,0.0,132.0
56850,-0.199,-0.606,-0.200,16.366,118.794,-26.679,0.0,139.0
56906,-0.576,-0.945,0.492,-71.191,6.580,107.595,0.0,138.0
56964,-0.258,-0.943,-0.229,46.496,-56.153,-112.000,0.0,149.0
57021,-0.214,-0.621,-0.059,-56.000,6.130,98.679,0.0,143.0
57121,-0.446,-1.055,0.133,39.939,-4.954,-43.366,0.0,150.0
57183,-0.406,-1.094,0.079,-7.389,-3.740,-3.176,0.0,162.0
57241,-0.238,-1.237,0.049,20.939,-30.565,-41.832,0.0,162.0
57296,-0.086,-0.704,0.058,36.359,-54.336,-41.786,0.0,108.0
57351,0.015,-0.600,-0.184,-1.893,2.832,74.687,0.0,101.0
57406,0.144,-1.401,-0.232,14.031,72.771,32.069,0.0,110.0
57465,-0.249,-0.734,0.023,47.634,141.122,-42.061,0.0,175.0
57525,-0.445,-0.621,0.388,-69.870,123.977,157.649,0.0,176.0
57584,-0.230,-1.392,-0.067,105.634,-62.611,-199.656,0.0,178.0
57644,-0.036,-0.036,-0.524,-36.099,124.443,119.321,0.0,179.0
57705,-0.722,-1.710,0.121,-31.565,73.886,-97.427,189.0,182.0
57765,-0.517,-0.399,0.262,-5.733,-62.351,58.046,0.0,186.0
57824,-0.223,-1.357,-0.406,-17.786,-0.863,-106.878,181.0,185.0
57882,-0.377,-0.543,0.129,13.878,46.008,82.641,177.0,188.0
57940,-0.483,-1.279,-0.304,17.855,47.542,-92.084,171.0,196.0
58000,-0.730,-0.862,0.144,-28.588,0.626,44.473,166.0,0.0
58044,-0.685,-1.754,-0.191,-23.344,-85.351,-21.221,160.0,0.0
58102,-0.241,-0.465,0.070,22.008,-132.977,-14.420,155.0,0.0
58163,0.056,-0.861,-0.242,-23.511,-72.809,69.252,148.0,195.0
58221,0.018,-1.366,-0.273,20.763,21.084,-29.420,0.0,158.0
58277,-0.564,-0.983,-0.077,1.015,20.267,32.443,136.0,0.0
58337,-0.202,-1.332,0.243,-60.214,-178.573,39.069,0.0,177.0
58390,0.162,-0.753,-0.412,60.802,-50.626,-139.733,0.0,63.0
58443,-0.040,-0.321,0.009,-38.557,79.725,100.061,0.0,83.0
58497,-0.744,-1.688,-0.065,-25.939,43.206,-40.107,198.0,67.0
58550,-0.495,-0.727,0.142,35.344,-88.023,-10.366,194.0,68.0
58602,-0.272,-0.888,-0.032,-30.809,-36.840,57.901,191.0,72.0
58659,-0.341,-1.419,-0.163,9.992,-0.374,-77.641,0.0,76.0
58712,-0.446,-0.922,-0.158,32.092,14.359,-27.344,182.0,76.0
58764,-0.412,-0.970,-0.074,-52.618,32.427,121.763,0.0,63.0
58817,-0.543,-1.629,0.095,-8.840,-7.389,-65.954,174.0,81.0
58869,-0.252,-0.506,0.141,60.954,-77.786,-107.588,169.0,87.0
58920,-0.196,-0.341,-0.127,-2.092,-41.962,63.298,165.0,73.0
58974,0.101,-1.094,0.197,-47.710,-37.756,126.443,192.0,77.0
59027,-0.041,-1.159,-0.315,77.641,87.168,-105.176,183.0,84.0
59082,-0.588,-0.772,-0.075,-14.305,98.771,43.672,154.0,94.0
59134,-0.579,-0.786,0.693,-107.061,-55.595,135.313,150.0,94.0
59190,-0.319,-1.385,-0.100,10.176,-151.565,-104.756,147.0,151.0
59237,-0.115,-0.656,-0.170,17.267,-94.351,-38.221,85.0,74.0
59288,-0.010,-0.737,-0.059,-62.321,-1.962,131.870,165.0,74.0
59339,-0.458,-1.599,-0.054,-14.656,48.221,-81.115,162.0,75.0
59386,-0.507,-0.788,0.141,30.435,2.176,-83.435,74.0,77.0
59432,-0.471,-0.708,-0.011,-27.359,-43.534,54.687,71.0,81.0
59487,-0.403,-0.997,0.122,-56.985,-76.260,32.130,0.0,90.0
59547,-0.531,-0.914,-0.114,-16.489,-134.092,-33.748,80.0,91.0
59603,-0.098,-0.815,-0.350,-38.672,-78.534,89.092,0.0,96.0
59662,-0.245,-1.457,-0.148,-30.374,28.214,-45.137,198.0,101.0
59712,-0.690,-1.148,-0.086,28.260,-11.336,-90.985,67.0,105.0
59769,-0.219,-0.163,0.033,-47.672,-88.450,123.611,188.0,114.0
59831,-0.269,-1.430,-0.290,-39.206,-119.878,-51.878,180.0,188.0
59934,-0.085,-0.790,-0.067,-64.214,-82.191,124.122,151.0,195.0
59995,-0.058,-1.312,-0.331,-3.107,-39.908,-159.954,139.0,0.0
60057,-0.300,-0.557,-0.107,-17.863,-58.298,39.420,134.0,0.0
60110,-0.157,-1.556,-0.026,-44.534,-99.786,35.389,129.0,105.0
60165,-0.258,-0.861,-0.243,34.794,-21.420,-120.794,125.0,106.0
60216,-0.127,-0.564,-0.188,-37.122,-41.802,140.435,121.0,66.0
60267,-0.160,-1.389,0.042,-41.443,-25.840,78.458,116.0,68.0
60317,-0.302,-1.233,-0.227,60.420,15.443,-134.031,112.0,71.0
60368,-0.300,-0.707,-0.107,13.626,-9.260,38.237,107.0,73.0
60419,-0.383,-1.224,0.355,-87.168,-45.282,125.206,103.0,77.0
60473,-0.112,-0.941,-0.180,56.992,-50.542,-135.130,98.0,81.0
60523,-0.038,-0.379,-0.170,68.229,-14.542,-24.802,94.0,89.0
60574,-0.260,-0.802,-0.313,-52.832,33.748,179.931,90.0,91.0
60624,-0.238,-1.839,-0.167,-19.702,-37.221,13.290,86.0,98.0
60676,-0.338,-0.802,-0.062,46.901,-15.107,-149.687,83.0,98.0
60726,-0.279,-0.269,-0.005,-43.649,-76.786,105.198,79.0,102.0
60777,-0.268,-1.393,0.125,-60.771,-165.221,68.511,75.0,109.0
60824,-0.150,-0.936,-0.493,22.550,-17.878,-189.137,73.0,43.0
60874,-0.055,-0.299,-0.040,-36.466,-27.725,123.382,71.0,43.0
60925,-0.371,-1.690,-0.101,-51.313,-77.481,78.267,67.0,120.0
60973,-0.346,-0.870,-0.517,27.168,38.420,-142.916,64.0,55.0
61024,-0.280,-0.175,-0.042,-63.687,-58.595,151.748,61.0,127.0
61075,-0.358,-1.436,0.019,-69.092,-103.496,26.160,64.0,117.0
61125,-0.407,-1.198,-0.752,24.931,-9.664,-149.794,96.0,70.0
61177,-0.104,0.194,0.223,-40.481,-14.130,158.107,93.0,122.0
61229,-0.538,-1.634,-0.430,-16.191,-48.855,-87.618,69.0,111.0
61277,-0.410,-1.044,-0.291,25.824,28.618,-108.893,64.0,74.0
61329,-0.578,-0.936,-0.005,-57.168,8.122,125.626,58.0,80.0
61378,-0.314,-0.948,-0.252,-6.237,-58.282,-64.069,69.0,85.0
61427,-0.283,-0.903,-0.313,7.160,-56.031,-37.244,66.0,92.0
61477,-0.345,-0.796,-0.146,-78.153,-121.412,122.382,57.0,107.0
61537,-0.056,-1.482,-0.429,-46.038,-163.031,-85.489,0.0,131.0
61589,-0.023,-0.842,-0.284,-1.038,-57.931,-31.809,89.0,106.0
61640,-0.001,-0.759,0.252,-49.473,-46.344,107.534,84.0,112.0
61699,-0.124,-1.259,-0.241,16.443,15.771,-102.244,191.0,116.0
61753,-0.708,-0.883,-0.261,-25.840,26.366,45.084,61.0,121.0
61805,-0.748,-1.075,-0.193,-93.130,-22.565,170.374,71.0,130.0
61864,0.358,-0.979,-0.502,46.901,-159.458,-76.351,0.0,132.0
61925,-0.407,-1.911,-0.631,149.267,2.244,-221.053,0.0,132.0
61976,-0.321,-0.474,-0.189,-75.649,110.695,159.336,64.0,136.0
62031,-0.513,-0.825,0.777,-87.672,-23.740,87.901,58.0,185.0
62085,-0.038,-1.061,-0.222,116.076,-97.771,-140.336,59.0,161.0
62140,-0.217,-1.155,-0.490,33.481,27.954,-25.947,57.0,0.0
62202,-0.003,-0.864,0.875,-144.580,9.412,202.382,163.0,153.0
62264,-0.315,-1.049,0.101,75.458,2.748,-197.237,0.0,159.0
62319,-0.098,-0.023,0.191,-21.229,2.046,64.901,108.0,157.0
62376,-0.569,-2.000,-0.651,-50.855,-67.122,81.397,135.0,145.0
62440,-0.337,-0.839,-0.193,23.870,106.687,-93.313,142.0,163.0
62497,-0.052,-0.554,0.259,-78.450,23.840,128.908,132.0,185.0
62555,-0.584,-0.897,-0.104,50.183,100.214,-61.328,128.0,168.0
