Timestamp(ms),AccelX(g),AccelY(g),AccelZ(g),GyroX(deg/s),GyroY(deg/s),GyroZ(deg/s),DistanceLeft(cm),DistanceRight(cm)
30554,-0.354,-1.246,0.093,-5.122,-15.191,-5.679,0.0,97.0
30608,-0.280,-1.195,-0.064,17.931,-49.252,7.908,0.0,101.0
30663,-0.196,-0.806,0.059,15.183,-47.290,59.458,0.0,101.0
30717,-0.294,-1.201,-0.048,-12.809,-68.405,78.718,0.0,110.0
30774,-0.147,-1.091,-0.116,7.595,-69.328,87.252,0.0,118.0
30832,-0.129,-0.984,-0.066,14.511,-33.664,91.519,0.0,167.0
30892,-0.148,-0.928,-0.050,17.267,-8.870,84.840,0.0,174.0
30953,-0.229,-0.941,0.023,2.069,-6.412,67.908,0.0,183.0
31013,-0.205,-0.875,0.020,5.321,-11.489,45.786,0.0,191.0
31068,-0.219,-0.880,0.034,-6.244,-22.649,15.435,0.0,99.0
31120,-0.261,-1.130,0.046,-14.939,-29.359,-27.366,0.0,50.0
31175,-0.333,-1.313,0.088,-22.588,-38.023,-81.191,0.0,59.0
31227,-0.390,-1.261,0.238,-35.145,-50.015,-117.420,0.0,56.0
31283,-0.359,-0.789,0.291,-22.550,-82.573,-107.504,0.0,39.0
31334,-0.096,-0.636,0.217,4.885,-98.137,-36.130,0.0,41.0
31388,0.116,-0.937,-0.004,12.802,-34.832,7.779,0.0,43.0
31442,0.440,-1.060,-0.459,23.870,229.237,23.282,0.0,44.0
31499,-0.252,-0.769,-0.476,26.458,250.130,67.702,0.0,63.0
31552,-1.439,-0.790,0.537,38.260,250.130,65.298,0.0,67.0
31604,-1.292,-0.754,0.632,-4.893,-196.786,-36.939,0.0,63.0
31660,-0.518,-0.771,-0.272,-40.756,-250.137,-86.542,0.0,55.0
31712,0.827,-0.984,-0.724,-19.435,-49.344,-96.763,0.0,57.0
31770,0.056,-0.858,-0.180,7.527,250.130,-1.046,0.0,89.0
31822,-1.768,-1.098,1.085,14.519,-34.794,-17.542,0.0,61.0
31878,-0.478,-0.995,-0.006,-45.405,-250.137,-27.115,0.0,60.0
31934,0.916,-1.468,-0.613,-18.634,-11.908,3.527,0.0,59.0
31986,-0.494,-0.756,0.155,44.565,212.359,75.702,0.0,56.0
32043,-1.623,-0.815,1.137,13.901,-126.672,50.893,0.0,65.0
32093,-0.890,-1.181,-0.369,-16.252,-250.137,-1.802,0.0,31.0
32148,1.162,-1.319,-1.222,26.519,-214.954,-31.206,0.0,34.0
32199,0.941,-0.384,-0.996,57.198,250.130,71.458,0.0,35.0
32256,-1.407,-0.272,0.069,-23.366,250.130,167.656,0.0,82.0
32308,-1.760,-0.882,0.793,-36.885,-250.137,18.756,0.0,48.0
32362,0.150,-1.071,-1.009,-26.153,-250.137,-34.076,0.0,35.0
32417,1.521,-0.633,-1.076,15.267,158.580,-61.023,0.0,45.0
32470,-0.732,-0.965,0.404,-53.947,250.130,19.214,0.0,52.0
32525,-1.847,-1.707,1.074,-22.786,-147.458,-53.649,0.0,43.0
32577,-0.108,-1.195,-0.022,-46.519,-250.137,-68.817,0.0,49.0
32631,1.641,-0.325,-0.802,7.603,136.328,-72.756,0.0,41.0
32684,0.000,-0.371,-0.489,24.130,250.130,69.542,0.0,52.0
32740,-2.000,-1.524,1.632,67.229,186.252,85.366,0.0,61.0
32792,-1.689,-0.801,-0.271,-34.542,-250.137,-25.702,0.0,46.0
32846,1.256,-1.257,-1.680,-36.168,-250.137,-74.115,0.0,36.0
32902,1.288,-0.495,-1.188,31.427,250.130,-8.771,0.0,44.0
32955,-1.525,-0.300,-0.180,-35.870,250.130,89.031,0.0,69.0
33011,-2.000,-0.570,1.072,-16.053,-250.137,-56.595,0.0,62.0
33063,0.231,-0.982,-0.668,-53.527,-250.137,-78.206,0.0,47.0
33119,0.951,-0.888,-0.834,-15.260,242.924,-33.824,0.0,51.0
33171,-2.000,-1.735,0.928,-21.427,175.359,36.290,0.0,59.0
33227,-1.378,-1.290,0.477,-21.382,-250.137,-17.252,0.0,45.0
33325,1.216,-0.489,-0.732,21.206,143.641,45.183,0.0,51.0
33382,-0.425,-0.935,-0.039,2.420,250.130,128.153,0.0,72.0
33434,-1.133,-0.909,0.825,43.084,-76.626,34.053,0.0,51.0
33490,0.579,-0.952,-0.562,16.588,-10.359,0.870,0.0,55.0
33543,0.005,-0.610,-0.271,12.756,250.130,71.191,0.0,58.0
33599,-2.000,-1.074,1.526,3.473,-150.344,20.420,0.0,63.0
33651,-0.199,-0.872,-0.650,-21.557,-250.137,-27.305,0.0,54.0
33708,1.352,-0.759,-1.157,15.176,110.183,-57.130,0.0,58.0
33762,-1.182,-1.064,0.612,-38.473,250.130,26.450,0.0,73.0
33818,-1.056,-1.147,0.243,-28.061,-250.137,-47.672,0.0,69.0
33870,0.874,-1.262,-0.544,-30.534,-83.244,-67.725,0.0,58.0
33928,0.631,-0.332,-0.753,15.466,250.130,31.061,0.0,75.0
33983,-2.000,-0.722,0.392,37.145,250.130,141.901,0.0,98.0
34036,-1.928,-0.898,0.412,-36.573,-250.137,-25.481,0.0,70.0
34088,-0.215,-1.163,-1.391,-62.649,-250.137,-57.664,0.0,53.0
34145,1.863,-0.437,-1.176,61.168,197.282,-33.649,0.0,55.0
34199,-0.589,-0.356,-0.431,-16.092,250.130,80.748,0.0,89.0
34258,-2.000,-1.030,1.779,-16.580,-97.000,-27.397,0.0,105.0
34312,-0.410,-0.842,-0.565,-28.221,-250.137,-40.542,0.0,79.0
34366,1.272,-0.752,-0.866,-13.206,122.809,-45.298,0.0,83.0
34420,-1.160,-1.043,0.201,-35.008,250.130,56.649,0.0,81.0
34475,-1.777,-1.090,0.651,-40.336,-250.137,-28.130,0.0,81.0
34530,0.453,-1.316,-1.160,-45.290,-250.137,-70.824,0.0,88.0
34584,0.663,-0.319,-0.301,18.580,191.534,18.206,0.0,93.0
34639,-2.000,-1.245,1.146,-37.290,-136.748,88.504,0.0,97.0
34694,-0.319,-1.364,-0.604,-32.809,-250.137,-26.389,0.0,87.0
34753,1.315,-0.565,-1.065,39.534,174.763,-60.573,0.0,104.0
34808,-0.883,-0.269,0.561,-22.931,250.130,86.489,0.0,110.0
34863,-1.338,-1.025,0.468,-19.282,-250.137,39.786,0.0,87.0
34916,1.228,-1.324,-1.223,37.099,-85.779,-56.435,0.0,64.0
34971,-0.186,-0.406,-0.090,1.939,250.130,6.351,0.0,96.0
35026,-2.000,-1.605,1.226,-42.053,-154.153,37.542,0.0,100.0
35079,0.167,-1.776,-0.771,-12.611,-250.137,-15.038,177.0,74.0
35132,0.707,-0.986,-0.148,-24.405,147.305,-19.336,171.0,77.0
35191,-1.380,-0.487,1.150,13.855,-61.137,28.847,0.0,125.0
35244,0.456,-1.129,-0.675,38.840,-167.137,21.305,163.0,80.0
35298,-0.037,-0.708,-0.152,19.924,224.191,-16.282,0.0,87.0
35350,-1.604,-1.042,0.918,-28.916,-245.611,48.565,149.0,88.0
35396,0.556,-1.364,-0.861,-3.702,-250.137,30.840,43.0,93.0
35447,0.553,-0.261,-0.353,9.954,197.931,50.679,139.0,97.0
35500,-2.000,-0.947,1.421,-96.023,-131.794,110.214,134.0,103.0
35560,-0.433,-1.376,-0.756,-43.168,-250.137,8.679,195.0,0.0
35598,0.979,-0.256,-0.531,24.733,176.122,-36.122,37.0,0.0
35649,-0.973,-0.336,1.224,-84.092,92.595,103.252,39.0,123.0
35710,-0.884,-1.339,0.189,-26.718,-250.137,-8.115,0.0,0.0
35758,0.860,-0.377,-0.407,33.740,127.160,-32.275,0.0,0.0
35803,-1.704,-1.177,1.472,-98.473,-64.275,99.130,0.0,164.0
35864,-1.244,-1.208,-0.125,-59.145,-250.137,-0.145,0.0,0.0
35911,1.933,-0.580,-1.542,61.542,43.023,-53.206,0.0,0.0
35958,-0.353,-0.517,-0.020,-17.542,250.130,43.206,0.0,0.0
36063,-0.665,-1.197,-0.527,-38.626,-250.137,-21.374,0.0,0.0
36113,1.139,-0.434,-0.724,19.817,26.565,-2.557,0.0,0.0
36156,-0.688,-0.535,0.625,-36.221,93.748,68.954,0.0,125.0
36214,-1.447,-1.256,0.679,-37.214,-250.137,37.053,0.0,141.0
36272,1.080,-1.511,-0.983,28.710,-138.634,-53.634,0.0,134.0
36328,0.113,-0.542,-0.389,26.824,250.130,-0.908,0.0,123.0
36385,-2.000,-1.752,1.012,-51.718,-89.061,45.969,0.0,126.0
36444,0.199,-1.668,-0.778,-16.817,-250.137,-12.504,0.0,145.0
36502,0.969,-0.615,-0.525,4.252,224.573,-16.511,0.0,149.0
36560,-1.766,-0.201,1.588,-32.427,32.053,86.969,0.0,144.0
36617,-0.409,-1.458,-0.573,4.504,-250.137,43.664,0.0,60.0
36669,1.393,-1.094,-1.274,62.687,109.221,-40.099,0.0,43.0
36725,-0.978,-0.610,0.770,-28.916,226.450,65.603,0.0,52.0
36777,-0.579,-1.057,0.214,-2.954,-222.664,39.366,0.0,55.0
36834,1.022,-0.665,-0.724,49.748,90.626,-5.977,0.0,54.0
36888,-1.109,-0.429,0.863,-70.611,193.435,53.847,0.0,65.0
36941,-0.846,-1.131,0.268,-43.840,-250.137,-12.153,0.0,66.0
36996,0.665,-0.737,-0.356,3.893,-46.260,-55.748,0.0,69.0
37050,-1.431,-0.861,1.021,-75.672,-198.160,41.588,0.0,78.0
37109,0.344,-1.504,-0.875,-35.099,-250.137,7.168,0.0,110.0
37165,0.929,-0.858,-0.692,1.611,250.130,15.412,0.0,89.0
37219,-2.000,-1.706,1.430,-52.130,144.435,12.000,0.0,89.0
37275,-0.587,-1.019,-0.232,0.489,-250.137,-21.107,0.0,106.0
37332,1.134,-0.600,-0.830,34.611,32.725,-12.634,0.0,127.0
37389,-1.115,-0.846,0.847,-49.130,21.733,82.458,0.0,123.0
37447,0.299,-1.331,-0.588,26.000,-138.947,-12.656,0.0,24.0
37497,0.726,-0.655,-0.499,31.664,189.939,-18.351,0.0,26.0
37557,-1.433,-0.441,0.995,-29.237,175.076,28.901,0.0,136.0
37613,-1.098,-0.997,-0.025,-44.740,-250.137,-2.092,0.0,139.0
37663,1.766,-0.954,-1.235,42.634,-99.038,-82.840,0.0,23.0
37713,0.056,-0.687,-0.292,4.893,250.130,-10.786,0.0,25.0
37764,-1.597,-1.561,0.917,-64.931,112.733,32.534,0.0,28.0
37814,0.032,-1.724,-0.296,26.939,-74.832,-10.725,0.0,27.0
37869,0.384,-0.760,-0.088,35.122,180.977,-29.603,0.0,47.0
37920,-1.096,-0.309,0.881,0.855,124.580,38.947,0.0,36.0
37975,-0.767,-0.917,0.514,-5.137,-250.137,56.504,0.0,30.0
38029,0.833,-1.399,-0.793,66.817,-61.221,-11.290,0.0,42.0
38079,-0.072,-0.527,0.058,20.267,221.298,15.473,0.0,38.0
38130,-1.033,-0.832,0.887,-49.221,-43.000,42.718,0.0,40.0
38185,0.400,-1.188,-0.391,35.000,-79.450,-5.298,0.0,50.0
38237,0.364,-0.515,-0.291,17.901,250.130,-19.702,0.0,43.0
38293,-2.000,-0.611,1.768,-82.908,53.137,-7.076,0.0,52.0
38344,-1.199,-0.993,-0.315,-80.886,-250.137,4.489,0.0,47.0
38387,1.841,-1.132,-1.242,24.229,-141.824,-82.794,47.0,55.0
38439,0.051,-0.568,0.350,-16.191,250.130,-11.267,0.0,61.0
38495,-1.484,-1.835,0.994,-78.901,22.947,17.763,0.0,52.0
38547,0.437,-1.426,-0.476,56.198,-21.305,-43.275,0.0,59.0
38599,-0.237,0.023,0.530,14.229,188.061,23.939,0.0,67.0
38656,-1.031,-1.305,0.631,-50.725,-134.099,67.550,0.0,65.0
38709,0.560,-1.497,-0.699,84.649,-36.824,-55.252,0.0,74.0
38806,-1.343,-0.777,1.131,-66.473,-36.618,43.145,0.0,84.0
38859,-0.125,-1.503,-0.683,12.115,-250.137,14.870,0.0,90.0
38914,0.815,-0.287,-0.540,85.366,157.794,-28.420,0.0,87.0
38970,-1.168,-0.753,1.195,-93.031,40.504,44.870,0.0,80.0
39024,-0.312,-1.718,-0.369,-21.122,-250.137,-20.824,0.0,76.0
39077,0.727,-0.744,-0.380,85.947,151.519,-67.870,0.0,78.0
39131,-0.966,-0.929,1.232,-99.939,109.519,11.863,0.0,81.0
39185,-0.122,-1.436,-0.158,-8.435,-145.603,-0.435,0.0,83.0
39240,0.557,-0.167,-0.096,137.718,170.565,-39.817,0.0,108.0
39296,-1.032,-0.726,1.110,-58.725,85.092,55.038,0.0,104.0
39349,-0.464,-1.632,-0.070,-18.710,-250.137,43.817,0.0,76.0
39403,0.883,-0.554,-0.747,125.870,108.252,-47.740,0.0,96.0
39461,-0.905,-0.272,0.823,-72.244,158.290,47.076,0.0,114.0
39513,-0.622,-1.703,-0.042,-50.756,-158.977,21.359,0.0,37.0
39572,0.394,-0.703,-0.581,117.191,107.679,-93.267,0.0,109.0
39627,-1.284,-0.591,1.118,-127.382,-11.122,17.221,0.0,106.0
39682,-0.471,-1.857,-0.408,-61.985,-250.137,9.038,0.0,87.0
39735,0.896,-0.561,-0.256,94.130,129.275,-80.015,0.0,89.0
39792,-0.848,-1.172,0.973,-122.435,206.061,-8.176,0.0,126.0
39848,-0.528,-1.379,0.255,-21.061,-105.817,-41.748,0.0,131.0
39906,0.118,-0.050,0.175,103.458,86.855,-1.557,0.0,93.0
39959,-1.166,-0.790,0.976,-86.115,-182.244,60.847,0.0,76.0
40013,-0.327,-1.732,-0.801,-32.458,-250.137,-5.565,0.0,83.0
40068,0.988,-0.496,-0.699,106.832,135.504,-72.977,0.0,85.0
40122,-0.697,-0.284,0.605,-53.252,218.466,34.573,0.0,89.0
40176,-0.907,-1.257,0.535,-43.046,-77.099,20.099,0.0,85.0
40230,0.347,-1.041,-0.577,123.756,41.374,-19.397,0.0,88.0
40285,-0.976,-0.454,0.916,-64.130,33.626,4.489,0.0,99.0
40336,-0.885,-1.218,0.242,-83.519,-250.137,20.153,0.0,38.0
40391,0.948,-1.504,-0.818,80.382,-39.977,-41.702,0.0,38.0
40442,-0.379,-0.610,0.307,-10.878,214.328,-14.672,0.0,41.0
40494,-1.085,-0.979,0.884,-122.450,-123.198,27.099,0.0,45.0
40555,0.802,-1.361,-0.484,38.137,-100.550,-7.282,0.0,0.0
40607,0.135,-0.440,-0.201,83.740,250.130,5.794,0.0,52.0
40659,-1.571,-1.119,1.414,-98.237,8.931,54.870,0.0,52.0
40711,-0.219,-1.807,-0.448,17.466,-250.137,39.573,0.0,43.0
40763,0.935,-0.255,-0.522,133.580,49.718,-74.443,0.0,42.0
40814,-0.427,-0.125,0.522,-53.656,206.947,20.115,0.0,43.0
40869,-0.717,-1.427,0.382,-75.000,-27.847,63.176,0.0,44.0
40921,0.257,-1.040,-0.815,139.130,152.641,-39.275,0.0,44.0
40976,-1.197,-0.161,0.840,-60.115,178.405,-25.008,0.0,42.0
41028,-1.227,-1.206,0.521,-103.931,-250.137,-7.672,0.0,37.0
41079,0.719,-1.711,-0.935,89.122,-116.313,-57.824,0.0,41.0
41136,-0.347,-0.446,0.649,-57.878,182.252,-38.298,0.0,53.0
41187,-1.329,-1.382,0.595,-105.145,-101.550,-3.908,0.0,45.0
41238,0.445,-1.148,-0.562,85.550,-75.687,-7.863,0.0,25.0
41303,-0.609,0.130,0.746,-38.634,55.267,23.817,0.0,0.0
41349,-1.139,-1.513,0.252,-84.053,-250.137,2.282,0.0,0.0
41404,0.868,-1.609,-1.124,85.198,-73.038,-90.901,0.0,95.0
41458,-0.476,0.033,0.882,-18.710,131.076,7.565,0.0,100.0
41558,0.690,-1.463,-0.953,80.611,43.977,-13.130,0.0,103.0
41613,-0.918,-0.451,1.097,-37.221,41.191,40.786,0.0,103.0
41668,-0.565,-1.228,0.154,-36.954,-247.878,29.847,0.0,108.0
41723,0.490,-1.015,-0.702,99.908,94.137,-42.695,0.0,110.0
41780,-0.800,-0.685,0.875,-68.733,41.160,54.565,0.0,115.0
41839,0.210,-2.000,-0.515,-18.947,-33.847,-0.176,0.0,119.0
41895,-0.465,0.123,0.711,44.603,187.718,-6.664,0.0,121.0
41955,-0.856,-0.618,0.723,-60.740,-216.840,55.947,0.0,169.0
42013,0.431,-1.350,-0.842,71.405,11.924,-55.305,0.0,164.0
42072,-0.751,-0.504,0.846,-43.573,-65.031,48.496,0.0,159.0
42131,0.503,-1.432,-0.706,3.725,-5.664,13.038,199.0,174.0
42190,-1.417,-0.443,1.282,-56.802,-39.389,33.374,196.0,166.0
42249,-0.239,-1.551,-0.674,-60.145,-250.137,15.733,191.0,175.0
42308,0.465,-0.112,-0.018,45.771,238.206,-37.160,186.0,180.0
42371,-1.237,-1.089,0.592,-81.756,20.779,84.924,183.0,190.0
42430,-0.112,-1.052,-0.147,24.176,-15.328,-6.084,179.0,191.0
42483,-0.759,-0.702,0.554,-67.412,-146.122,30.527,174.0,78.0
42534,0.189,-1.663,-0.684,-26.634,-128.405,13.397,170.0,68.0
42585,-0.338,-0.881,0.395,-38.122,81.695,-4.053,166.0,33.0
42636,-0.802,-1.000,0.292,-77.328,-111.160,-3.481,163.0,73.0
42687,-0.023,-0.797,-0.305,-17.885,-85.450,-20.725,0.0,30.0
42738,-0.979,-0.732,0.411,-90.466,-188.878,40.733,0.0,33.0
42792,-0.148,-1.574,-0.640,-53.809,-250.137,23.443,0.0,22.0
42844,0.656,-0.990,-0.714,38.595,53.168,-31.962,0.0,16.0
42894,-0.931,0.002,0.768,-84.687,128.656,73.664,0.0,16.0
42944,-1.079,-1.458,0.164,-79.786,-250.137,36.870,0.0,9.0
42997,0.711,-1.315,-0.818,22.076,-116.748,-60.282,0.0,7.0
43047,-0.525,-0.109,0.778,-49.649,86.664,0.565,0.0,9.0
43097,-0.939,-1.383,0.328,-66.252,-209.931,-0.618,0.0,8.0
43150,0.990,-1.677,-0.896,67.886,-37.924,-63.496,0.0,6.0
43200,-0.273,-0.335,-0.028,40.832,250.130,-25.076,0.0,7.0
43253,-2.000,-1.697,0.894,-59.031,-79.031,-6.092,0.0,6.0
43308,-0.193,-1.771,-0.458,18.756,-250.137,-41.733,0.0,75.0
43359,0.794,-0.196,-0.458,88.908,67.824,-47.679,0.0,28.0
43416,-0.236,-0.234,0.082,-6.092,217.634,33.924,0.0,79.0
43471,-0.912,-1.226,0.218,-4.382,72.702,58.191,0.0,105.0
43526,-0.930,-1.115,0.358,17.450,-211.626,15.145,0.0,74.0
43579,0.059,-1.211,-0.494,-9.565,-250.137,-18.481,0.0,70.0
43633,0.747,-0.655,-0.388,33.130,71.084,-40.786,0.0,78.0
43692,-0.910,-0.529,0.811,-49.855,108.374,69.679,0.0,80.0
43746,-0.484,-1.419,0.104,-19.573,-215.076,69.244,0.0,82.0
43800,0.476,-0.760,-0.459,60.359,49.420,-52.588,0.0,83.0
43856,-0.952,-0.659,0.902,-84.397,-31.328,35.718,0.0,111.0
43911,-0.132,-1.577,-0.254,-18.344,-193.702,20.672,0.0,76.0
43965,0.359,-0.513,-0.210,73.641,134.397,-35.840,0.0,77.0
44019,-0.785,-0.700,0.686,-77.603,77.229,37.229,0.0,78.0
44073,-0.478,-1.975,-0.065,-35.702,-108.527,-1.023,0.0,79.0
44128,0.146,-0.753,-0.358,78.618,127.115,-55.267,0.0,83.0
44185,-1.054,-0.223,0.696,-93.565,-18.489,31.885,0.0,81.0
44240,-0.596,-1.522,-0.161,-55.489,-250.137,2.985,0.0,84.0
44338,-0.558,-0.257,0.475,-64.122,46.328,-4.573,0.0,82.0
44393,-0.855,-1.196,0.215,-76.679,-235.443,26.878,0.0,86.0
44453,0.792,-1.028,-0.698,95.763,5.214,-8.687,0.0,102.0
44508,-0.616,-0.357,0.172,-24.985,222.672,-1.435,0.0,91.0
44562,-1.582,-1.183,0.749,-79.809,-250.137,-6.214,0.0,94.0
44614,0.622,-1.586,-0.915,52.718,-226.489,-22.985,0.0,65.0
44670,0.262,-0.768,-0.400,33.176,176.374,-5.962,0.0,67.0
44726,-1.256,-1.830,0.647,-101.756,-25.496,20.664,0.0,69.0
44783,0.243,-1.073,-0.251,35.817,-99.695,-14.023,0.0,73.0
44836,0.036,-0.025,0.074,42.382,91.786,24.511,0.0,77.0
44893,-1.098,-0.908,0.727,-76.954,-198.771,51.977,0.0,83.0
44944,0.373,-2.000,-0.960,22.954,-247.565,2.542,0.0,45.0
45002,0.913,-0.731,-0.687,96.893,219.137,-30.924,0.0,91.0
45056,-1.057,-0.124,0.670,-74.130,250.130,57.542,0.0,89.0
45110,-1.079,-1.225,0.579,-69.427,-165.611,47.519,0.0,94.0
45166,0.376,-1.136,-0.381,75.809,-117.779,-45.382,0.0,79.0
45219,-0.180,-0.425,0.131,-33.878,64.641,-50.534,0.0,82.0
45274,-0.554,-1.085,0.432,-92.725,-67.168,-24.122,0.0,88.0
45330,0.413,-1.087,-0.456,88.305,63.084,-15.405,0.0,127.0
45385,-0.945,-0.491,0.435,-47.985,206.031,5.237,0.0,116.0
45444,-1.447,-1.391,0.476,-94.939,-250.137,-3.603,0.0,158.0
45494,0.539,-1.573,-0.711,7.641,-173.840,-38.466,0.0,24.0
45547,0.023,-0.508,-0.255,8.870,125.313,6.092,0.0,25.0
45597,-1.498,-0.731,0.809,-96.794,-237.718,44.107,0.0,18.0
45654,0.172,-1.635,-1.077,-17.947,-250.137,-2.840,0.0,20.0
45704,0.870,-0.820,-0.634,42.550,140.038,-10.557,0.0,18.0
45760,-0.437,-0.674,0.080,-18.634,250.130,41.046,0.0,60.0
45810,-0.816,-1.221,0.436,-24.145,-20.069,31.031,0.0,31.0
45864,0.290,-0.984,-0.281,48.450,-18.115,4.809,0.0,35.0
45916,-0.258,-0.700,0.044,22.649,151.893,-4.229,0.0,34.0
45970,-1.708,-0.952,0.890,-59.221,-241.229,-37.748,0.0,21.0
46020,0.468,-1.637,-1.058,-0.008,-250.137,-50.076,0.0,23.0
46075,0.797,-1.109,-0.916,104.336,205.168,-44.267,0.0,46.0
46129,-0.909,-1.192,0.605,-42.435,250.130,1.847,0.0,26.0
46184,-0.373,-1.110,0.051,11.748,24.771,-34.756,0.0,46.0
46235,0.185,-0.224,-0.040,92.466,128.466,33.092,0.0,32.0
46290,-1.661,-0.394,1.347,-30.366,-60.244,36.206,0.0,48.0
46342,-0.682,-1.477,-0.543,-37.641,-250.137,-14.641,0.0,42.0
46397,1.612,-0.809,-1.302,119.626,97.473,-62.221,0.0,43.0
46448,-0.686,0.183,0.242,-20.832,250.130,78.244,0.0,43.0
46503,-1.785,-1.432,1.122,-65.733,-25.618,46.313,0.0,45.0
46558,0.339,-1.216,-0.626,67.809,-101.969,-35.519,0.0,37.0
46613,-0.302,-0.238,0.543,-50.588,50.282,-6.611,0.0,53.0
46666,-0.645,-1.233,0.350,-82.321,-135.351,1.328,0.0,62.0
46723,0.524,-1.139,-0.595,76.145,123.817,-26.611,0.0,62.0
46775,-1.343,-0.510,0.763,-75.267,250.130,46.282,0.0,64.0
46832,-1.508,-1.599,0.456,-76.756,-250.137,-30.038,0.0,80.0
46883,1.030,-0.676,-0.636,54.221,-124.687,-59.740,0.0,27.0
46938,-0.260,-0.366,0.185,-24.595,161.237,14.435,0.0,31.0
46989,-1.168,-1.335,0.479,-46.412,-123.763,29.015,0.0,37.0
47087,-0.166,-0.251,-0.141,58.130,250.130,-55.282,0.0,39.0
47141,-1.499,-0.621,0.912,-87.160,-15.206,47.962,0.0,39.0
47193,-0.416,-1.298,-0.152,-19.405,-250.137,4.489,0.0,30.0
47248,0.853,-0.524,-0.819,86.038,25.473,-84.443,0.0,37.0
47299,-0.982,-0.740,0.864,-65.519,101.046,-1.321,0.0,34.0
47353,-0.941,-1.538,0.346,-40.496,-228.634,12.321,0.0,30.0
47404,0.653,-1.663,-0.843,85.321,-36.023,-53.748,0.0,25.0
47459,-0.321,-0.629,0.341,-22.542,238.328,-29.053,0.0,41.0
47510,-1.073,-0.814,0.935,-73.809,-60.267,-2.809,0.0,34.0
47564,0.426,-1.140,-0.373,70.710,-152.603,-29.824,0.0,31.0
47620,0.075,-0.312,-0.020,61.160,88.511,-21.847,0.0,37.0
47671,-0.964,-1.402,0.569,-80.855,-128.153,82.908,0.0,42.0
47726,0.606,-1.387,-0.420,48.992,-124.794,-15.313,0.0,34.0
47768,0.378,-0.245,-0.199,60.466,173.053,-17.947,44.0,36.0
47819,-0.838,-0.569,0.843,-72.641,109.511,66.802,0.0,35.0
47874,-0.287,-1.507,0.071,-22.924,-119.206,14.924,0.0,31.0
47917,0.757,-0.772,-0.575,109.382,191.840,-69.924,46.0,40.0
47972,-0.894,0.037,0.436,-44.053,250.130,15.847,0.0,50.0
48028,-1.791,-1.401,0.969,-87.977,-175.137,20.351,0.0,50.0
48079,0.525,-1.487,-0.615,42.672,-177.626,-45.244,0.0,46.0
48136,0.345,-0.831,-0.295,24.023,248.321,-34.809,0.0,58.0
48190,-1.784,-1.368,0.634,-63.634,126.160,26.496,0.0,84.0
48242,-0.393,-1.029,-0.054,14.344,-250.137,8.443,0.0,50.0
48299,0.659,-0.749,-0.533,42.840,-21.855,-17.405,0.0,52.0
48351,-1.081,-0.657,0.659,-59.687,68.595,26.237,0.0,55.0
48406,-0.804,-1.207,-0.109,-46.763,-250.137,16.962,0.0,46.0
48461,1.134,-0.671,-0.706,35.496,12.366,-59.687,0.0,45.0
48519,-0.281,-0.625,-0.168,18.405,250.130,-1.069,0.0,67.0
48571,-1.824,-0.997,1.066,-41.893,-137.527,48.420,0.0,59.0
48627,0.058,-1.218,-0.465,-18.771,-250.137,2.489,0.0,49.0
48679,0.820,-1.010,-0.446,31.847,139.481,-80.015,0.0,50.0
48736,-0.472,-1.234,-0.132,19.565,250.130,-6.908,0.0,63.0
48789,-1.646,-1.517,0.958,-21.847,-10.710,65.153,0.0,64.0
48841,-0.052,-0.725,-0.067,-6.000,-250.137,-52.374,0.0,56.0
48898,0.539,-0.473,-0.249,43.466,-0.634,-104.565,0.0,62.0
48955,-0.416,-0.808,0.072,35.389,131.260,62.679,0.0,66.0
49008,-0.983,-1.234,0.406,-18.634,-63.092,142.389,0.0,64.0
49060,0.362,-1.135,-0.154,13.695,-119.832,-2.847,0.0,57.0
49118,0.525,-0.468,-0.420,61.084,236.893,-121.321,0.0,75.0
49173,-1.323,-0.584,0.746,-45.710,250.130,5.878,0.0,91.0
49227,-1.449,-1.137,0.668,-52.641,-242.473,95.267,0.0,85.0
49282,-0.029,-1.165,-0.230,-34.656,-250.137,25.527,0.0,82.0
49336,0.570,-0.821,-0.226,-1.427,65.824,-97.656,0.0,87.0
49394,-0.858,-0.808,0.362,-10.710,173.550,21.550,0.0,90.0
49448,-1.270,-1.042,0.604,-40.260,-66.947,109.504,0.0,95.0
49504,-0.290,-1.343,-0.038,-49.214,-166.153,-11.191,0.0,102.0
49560,0.140,-0.581,-0.219,12.435,51.206,-103.351,0.0,106.0
49616,-1.216,-0.903,0.445,-49.115,-32.038,43.954,0.0,115.0
49673,-0.662,-1.229,0.081,-64.603,-250.137,83.771,0.0,120.0
49728,0.626,-0.910,-0.682,-10.382,-61.947,-112.443,0.0,96.0
49826,-0.925,-0.895,0.462,-40.084,-39.435,137.931,0.0,105.0
49881,0.201,-1.457,-0.211,16.305,-145.840,18.366,0.0,81.0
49937,0.268,-0.898,-0.427,77.992,147.489,-107.443,0.0,84.0
49993,-1.254,-0.790,0.696,-43.588,40.885,55.359,0.0,117.0
50048,-0.574,-1.630,0.087,-20.015,-250.137,49.679,0.0,90.0
50103,0.579,-1.316,-0.435,30.710,15.603,-85.061,0.0,94.0
50158,-0.749,-0.291,0.576,-29.511,157.427,-2.137,0.0,97.0
50216,-0.696,-0.523,0.825,-28.863,-207.618,105.038,0.0,156.0
50273,0.519,-1.159,-0.727,40.450,-42.611,-92.939,0.0,108.0
50324,-0.769,-0.821,0.514,-22.099,120.351,42.229,130.0,113.0
50386,-0.682,-1.110,0.746,-49.603,-178.160,148.305,0.0,154.0
50444,0.702,-0.946,-0.347,23.733,-1.275,-111.947,0.0,129.0
50496,-0.709,-0.414,0.278,-13.160,224.359,-32.145,113.0,132.0
50550,-1.922,-0.889,0.988,-86.817,-250.137,165.252,113.0,168.0
50612,0.326,-1.645,-1.384,-40.809,-250.137,8.878,0.0,0.0
50657,0.740,-0.599,-0.727,35.481,250.130,-156.626,155.0,0.0
50713,-1.412,-0.082,0.408,-85.000,250.130,59.206,153.0,169.0
50769,-1.716,-1.136,0.603,-97.496,-250.137,108.740,147.0,170.0
50830,0.803,-1.379,-0.975,-7.176,-177.466,-47.252,127.0,0.0
50873,-0.397,-1.037,-0.084,-33.916,210.534,-73.435,121.0,0.0
50930,-1.515,-0.703,0.909,-87.588,-69.924,21.458,126.0,0.0
50984,0.120,-1.944,-1.172,-16.038,-250.137,7.458,105.0,180.0
51038,0.655,-0.724,-0.458,4.397,117.252,-102.809,94.0,169.0
51093,-1.093,-0.734,0.673,-34.504,5.443,57.183,86.0,0.0
51134,-0.315,-1.375,-0.018,-33.099,-250.137,149.656,81.0,0.0
51192,1.019,-1.142,-0.857,-19.053,-180.244,-9.252,0.0,158.0
51252,0.259,-0.739,-0.053,14.168,103.412,-18.237,0.0,162.0
51314,-0.908,-1.129,0.494,3.084,-56.824,65.542,0.0,167.0
51375,0.068,-1.423,-0.267,-28.183,-214.458,6.290,0.0,177.0
51440,0.400,-1.242,-0.602,65.985,250.130,-37.229,0.0,180.0
51491,-1.265,-0.587,0.867,-49.038,116.031,32.206,59.0,185.0
51545,-0.508,-0.608,0.533,-53.527,-250.137,39.832,0.0,86.0
51599,0.480,-1.000,-0.545,36.962,-58.641,-74.115,0.0,86.0
51652,-0.484,-0.857,0.412,-23.748,52.481,22.710,0.0,84.0
51706,-0.771,-0.948,0.436,-80.351,-250.137,144.443,0.0,89.0
51764,0.645,-1.430,-0.710,-3.267,-127.863,1.603,0.0,95.0
51818,0.461,-0.622,-0.504,49.733,229.924,-59.198,0.0,99.0
51872,-1.713,-0.571,1.257,-107.939,110.420,49.817,0.0,105.0
51928,-0.904,-1.287,0.061,-91.038,-250.137,84.046,0.0,114.0
51984,0.983,-0.900,-0.725,21.206,-74.336,-107.557,0.0,117.0
52040,-0.538,-0.701,0.440,-13.145,163.550,-6.763,0.0,128.0
52097,-0.608,-1.159,0.524,-36.458,-135.359,92.183,0.0,134.0
52153,0.269,-1.372,-0.609,40.198,69.534,-46.595,0.0,132.0
52204,-1.048,-0.700,0.733,-62.214,15.969,30.802,0.0,49.0
52259,-0.033,-1.345,-0.222,-12.672,-197.962,20.603,0.0,52.0
52315,0.219,-0.894,-0.583,70.298,86.550,-77.740,0.0,59.0
52368,-0.757,-0.685,0.616,-76.954,-14.305,75.710,0.0,62.0
52422,0.220,-1.639,-0.630,32.916,-63.718,-29.008,0.0,40.0
52474,-0.439,-0.112,0.536,7.458,72.870,-14.763,0.0,56.0
52530,-0.675,-0.900,0.602,-99.527,-194.237,77.420,0.0,49.0
52625,0.022,-0.112,0.139,70.863,168.756,-39.389,0.0,52.0
52680,-0.879,-0.933,0.632,-91.038,-5.420,69.252,0.0,57.0
52732,0.107,-1.870,-0.493,36.565,-102.969,3.771,0.0,60.0
52788,0.092,-0.767,-0.261,78.176,162.908,-36.183,0.0,56.0
52844,-1.339,-1.238,1.204,-113.191,12.069,-42.130,0.0,66.0
52896,0.531,-1.119,-0.532,23.191,-139.847,-10.061,0.0,56.0
52953,0.240,-0.039,0.092,98.290,170.420,-17.504,0.0,60.0
53005,-1.048,-1.122,0.771,-72.886,-6.252,58.985,0.0,69.0
53061,0.011,-1.838,-0.281,13.183,-175.962,47.588,0.0,64.0
53114,0.239,-0.417,-0.112,103.252,129.015,-2.031,0.0,75.0
53168,-0.438,-0.399,0.769,-76.046,97.786,54.763,0.0,72.0
53224,-0.072,-1.635,-0.465,31.580,27.061,13.405,0.0,78.0
53278,-1.038,-0.041,0.973,-5.130,56.084,-43.061,0.0,97.0
53332,-0.942,-0.625,0.415,-153.733,-250.137,-9.321,0.0,77.0
53386,0.761,-1.659,-0.990,100.450,-59.489,-16.092,0.0,82.0
53440,-0.513,0.028,0.311,-6.130,250.130,-19.771,0.0,83.0
53488,-1.627,-1.557,0.697,-144.924,-14.336,-6.481,99.0,86.0
53542,0.072,-2.000,-0.554,59.107,-139.069,15.321,0.0,92.0
53597,0.046,-0.042,-0.040,123.191,150.794,-19.198,0.0,103.0
53645,-0.951,-0.621,0.857,-133.244,17.855,3.763,84.0,98.0
53703,-0.538,-1.682,-0.104,-52.573,-200.229,-0.832,0.0,107.0
53758,0.377,-0.861,-0.599,183.527,22.023,-6.588,0.0,100.0
53813,-0.430,-0.254,0.378,-57.924,116.954,-8.023,0.0,103.0
53868,-0.897,-1.319,0.244,-93.321,-47.206,12.489,0.0,107.0
53924,0.244,-1.054,-0.709,173.031,17.473,59.382,0.0,110.0
53980,-0.772,-0.375,0.627,-69.580,6.824,-24.786,0.0,114.0
54036,-0.695,-1.411,-0.088,-88.779,-158.740,-18.191,0.0,116.0
54091,0.229,-1.229,-0.771,159.863,43.817,7.229,0.0,121.0
54149,-0.845,-0.899,0.848,-121.214,32.702,-57.817,0.0,126.0
54202,-0.024,-1.362,-0.252,-33.611,-73.481,-58.580,0.0,123.0
54259,0.098,-0.253,-0.113,168.443,147.458,44.588,0.0,143.0
54317,-0.979,-0.858,0.946,-77.931,-4.580,15.366,0.0,145.0
54375,0.118,-1.758,-0.526,41.634,-120.672,-3.504,0.0,146.0
54429,-0.002,-0.051,0.185,87.672,132.802,52.580,0.0,98.0
54488,-0.712,-0.595,0.692,-111.901,-27.534,49.053,0.0,156.0
54542,0.082,-1.540,-0.402,30.321,-103.527,18.145,0.0,92.0
54597,0.146,-0.247,-0.203,101.237,152.718,0.046,0.0,99.0
54660,-1.749,-0.758,1.137,-172.664,-127.328,-52.802,0.0,181.0
54714,0.512,-2.000,-1.131,8.634,-250.137,18.565,0.0,88.0
54769,0.177,-0.642,-0.433,120.847,235.878,0.893,0.0,91.0
54824,-1.070,-1.052,0.846,-108.168,235.053,-41.366,184.0,121.0
54878,-0.398,-1.024,-0.036,20.756,-66.863,-15.031,177.0,99.0
54934,-0.595,-0.531,0.259,67.008,-37.427,40.939,0.0,112.0
54989,-0.641,-0.829,-0.173,-152.740,-250.137,-3.198,0.0,117.0
55042,0.337,-1.666,-0.823,-13.321,-167.588,-28.435,0.0,51.0
55101,0.201,-0.404,-0.349,136.679,166.763,-18.962,0.0,104.0
55153,-1.377,-0.539,1.271,-142.687,-61.634,-24.496,0.0,63.0
55208,-0.075,-1.505,-0.466,-23.191,-250.137,-17.504,0.0,37.0
55261,0.637,-0.903,-0.811,194.008,70.450,23.779,0.0,48.0
55317,-0.708,-0.020,0.067,-46.359,250.130,-21.397,0.0,53.0
55411,0.264,-1.972,-0.686,90.466,-194.786,28.008,0.0,42.0
55467,0.198,-0.698,-0.379,134.466,160.397,-6.351,0.0,40.0
55519,-0.833,-0.249,0.656,-78.611,250.130,-36.611,195.0,47.0
55571,-1.433,-1.171,0.575,-63.840,-165.962,11.802,193.0,61.0
55625,0.194,-1.507,-0.738,114.779,-223.794,75.000,0.0,31.0
55683,-0.112,0.047,0.061,-32.603,0.695,-7.015,0.0,62.0
55734,-0.933,-1.066,0.216,-177.420,-160.244,-9.046,0.0,38.0
55786,0.431,-1.584,-0.644,75.412,-111.962,31.649,0.0,47.0
55841,-0.144,-0.126,0.140,78.886,155.641,19.115,0.0,114.0
55894,-1.098,-0.727,0.847,-169.817,-73.710,-27.573,0.0,48.0
55950,0.090,-1.697,-0.414,-10.412,-179.153,9.687,0.0,121.0
56007,0.105,-0.595,-0.457,158.916,105.351,44.298,0.0,123.0
56061,-0.913,-0.439,0.781,-114.626,86.962,-15.718,0.0,83.0
56118,-0.758,-1.815,-0.033,-64.145,-161.702,-21.511,0.0,68.0
56173,0.106,-1.319,-0.546,139.740,-36.977,1.840,0.0,91.0
56226,-0.400,0.180,0.265,-82.901,87.779,-11.443,0.0,79.0
56285,-1.209,-1.408,0.327,-158.389,-144.924,-14.595,200.0,148.0
56342,0.217,-1.441,-0.757,97.450,-143.817,-15.473,192.0,151.0
56400,-0.123,-0.153,-0.066,34.634,121.153,-27.947,189.0,160.0
56459,-1.651,-1.040,0.646,-161.519,-147.053,-32.817,185.0,162.0
56518,0.326,-1.569,-0.861,56.443,-250.137,52.542,178.0,190.0
56581,0.302,-0.478,-0.401,77.809,173.542,12.885,173.0,192.0
56638,-1.354,-0.820,0.843,-127.344,18.916,5.656,170.0,176.0
56691,-0.239,-1.571,-0.421,16.458,-250.137,21.908,164.0,94.0
56750,0.338,-0.979,-0.516,105.679,52.328,-10.076,158.0,0.0
56803,-0.762,-0.940,0.359,-94.802,131.901,-4.366,154.0,97.0
56855,-0.894,-1.281,0.279,-70.618,-121.817,-47.870,148.0,101.0
56907,0.445,-0.782,-0.444,122.183,-56.931,51.000,142.0,102.0
56960,-0.272,0.046,0.158,-38.916,116.061,19.282,138.0,108.0
57015,-1.377,-1.661,0.375,-131.099,-135.664,-21.740,132.0,104.0
57064,0.411,-1.628,-0.802,101.397,-147.870,24.481,127.0,59.0
57112,-0.020,0.091,0.232,46.504,122.947,21.420,123.0,62.0
57161,-1.082,-0.790,0.677,-156.038,-75.611,37.794,120.0,65.0
57207,-0.028,-1.596,-0.452,-16.244,-182.061,14.229,115.0,27.0
57264,0.456,-0.733,-0.606,152.763,58.031,24.435,112.0,0.0
57306,-1.004,-0.480,0.883,-111.290,61.435,-3.252,108.0,0.0
57355,-1.134,-1.230,0.312,-100.282,-146.832,-48.443,105.0,87.0
57408,0.445,-1.265,-0.855,140.069,-31.573,18.084,124.0,86.0
57457,-0.613,0.012,0.223,-51.450,177.084,-0.893,97.0,92.0
57506,-1.419,-1.212,0.494,-136.618,-79.550,-27.489,95.0,98.0
57558,-0.061,-1.672,-0.581,30.504,-165.771,47.130,0.0,37.0
57605,-0.315,-0.620,0.063,8.122,74.985,-18.664,109.0,37.0
57651,-0.986,-0.480,0.458,-130.756,-57.489,-42.817,105.0,36.0
57703,-0.261,-1.143,-0.339,-45.550,-177.038,-9.733,0.0,40.0
57758,-0.079,-1.117,-0.579,87.351,17.092,10.076,0.0,46.0
57808,-1.030,-0.649,0.320,-140.939,-91.176,9.962,151.0,51.0
57865,-0.473,-1.379,-0.470,-100.069,-250.137,-50.038,0.0,59.0
57918,0.382,-0.720,-0.621,96.992,-14.878,-53.740,0.0,65.0
57972,-0.588,-0.531,0.018,-86.130,65.618,37.313,0.0,68.0
58029,-0.861,-1.073,0.304,-111.573,-87.908,1.397,0.0,116.0
58127,-0.450,-0.404,0.028,54.710,88.435,-10.595,0.0,95.0
58182,-1.274,-1.245,0.331,-127.565,-226.099,-22.198,0.0,92.0
58237,0.701,-2.000,-1.089,55.771,-146.695,15.290,0.0,101.0
58294,0.163,-0.238,-0.274,97.412,250.130,-4.626,0.0,107.0
58349,-2.000,-0.596,1.290,-115.733,-166.313,16.802,89.0,146.0
58405,0.009,-1.621,-1.178,-26.053,-250.137,-2.832,0.0,114.0
58468,0.694,-0.799,-0.756,92.397,149.275,-8.336,0.0,118.0
58526,-1.084,-0.653,0.682,-107.840,210.206,67.214,0.0,166.0
58585,-0.335,-1.225,-0.039,-19.496,-135.176,41.916,0.0,170.0
58643,0.012,-0.347,0.000,52.237,43.221,0.481,0.0,175.0
58699,-0.925,-0.982,0.512,-120.328,-96.313,-24.893,0.0,132.0
58756,0.289,-1.489,-0.566,60.611,-97.092,-17.969,0.0,137.0
58813,-0.184,-0.220,-0.042,48.115,196.305,-28.809,0.0,139.0
58872,-1.703,-1.160,0.690,-121.267,-150.672,-9.573,0.0,140.0
58931,0.607,-1.628,-0.972,47.092,-127.443,0.489,0.0,161.0
58989,-0.326,-0.864,-0.075,-12.397,250.130,-18.519,0.0,165.0
59046,-1.427,-0.962,0.543,-66.145,-31.176,-14.534,0.0,151.0
59105,0.185,-1.081,-0.586,21.618,-172.084,21.573,0.0,155.0
59162,-0.211,-0.600,-0.082,-40.099,18.489,1.244,0.0,154.0
59219,-0.543,-1.237,0.011,-74.702,-99.863,-19.969,0.0,144.0
59278,0.048,-0.973,-0.525,66.916,-7.466,-9.237,0.0,171.0
59339,-1.082,-0.577,0.475,-154.550,-232.863,-5.763,0.0,175.0
59399,0.670,-1.773,-1.116,-29.046,-220.863,-17.260,0.0,181.0
59458,0.176,-0.440,-0.609,137.878,250.130,-21.145,0.0,181.0
59517,-2.000,-1.122,1.034,-85.519,-64.634,-30.282,0.0,185.0
59570,0.142,-1.679,-0.798,-0.214,-250.137,3.519,0.0,44.0
59625,0.779,-0.980,-0.928,135.420,127.527,-36.924,0.0,50.0
59676,-0.990,-0.987,0.504,-44.168,250.130,9.252,0.0,49.0
59731,-0.796,-0.913,0.271,-5.718,-94.397,-27.000,0.0,50.0
59783,0.384,-0.744,-0.595,107.221,-4.588,32.359,0.0,41.0
59837,-0.529,-0.664,0.157,-64.282,92.313,56.542,0.0,45.0
59891,-0.539,-1.390,0.245,-66.702,-61.084,39.359,0.0,32.0
59944,0.273,-1.085,-0.640,149.053,59.573,34.221,0.0,58.0
60000,-0.650,0.024,0.150,-6.519,195.611,-14.779,0.0,57.0
60051,-1.600,-1.268,0.459,-105.290,-207.084,-52.328,0.0,40.0
60106,0.489,-1.536,-0.753,119.939,-176.405,0.733,0.0,39.0
60157,-0.230,0.182,-0.172,-13.702,216.435,-22.382,0.0,43.0
60214,-1.587,-1.438,0.551,-113.237,-7.351,-12.260,0.0,58.0
60265,0.034,-1.468,-0.528,119.336,-113.557,25.397,0.0,51.0
60320,-0.397,0.021,-0.029,-32.649,140.519,-4.412,0.0,59.0
60377,-1.434,-1.685,0.367,-125.679,-62.595,-31.656,0.0,58.0
60430,0.285,-1.437,-0.610,108.336,-95.748,8.985,0.0,64.0
60486,-0.030,0.086,-0.267,44.481,239.344,4.122,0.0,74.0
60539,-1.876,-1.491,0.486,-133.015,-112.557,-39.611,0.0,67.0
60597,0.282,-1.398,-0.720,13.924,-250.137,-1.580,0.0,78.0
60648,0.454,-0.515,-0.439,57.725,113.565,-10.115,0.0,39.0
60702,-1.310,-0.672,0.863,-140.443,27.084,-6.450,0.0,40.0
60766,0.184,-1.369,-0.416,-46.855,-250.137,8.542,0.0,46.0
60820,0.762,-0.789,-0.697,149.229,180.244,-33.122,0.0,45.0
60874,-1.132,-0.144,-0.043,-6.023,250.130,-19.145,0.0,52.0
60972,0.327,-1.741,-0.846,-9.855,-250.137,-15.969,0.0,46.0
61026,0.687,-1.166,-0.771,122.611,236.366,-59.015,0.0,50.0
61082,-1.071,-0.247,-0.046,34.931,250.130,26.931,0.0,70.0
61137,-1.690,-0.834,0.942,-102.176,-208.229,102.046,0.0,76.0
61193,0.464,-1.614,-0.927,21.450,-239.947,-88.221,0.0,61.0
61249,0.388,-0.970,-0.639,121.855,108.031,-86.740,0.0,71.0
61307,-0.864,-0.232,0.386,-96.626,186.603,91.344,0.0,71.0
61363,-0.788,-1.294,0.354,-74.756,-81.855,61.435,0.0,71.0
61419,0.192,-0.996,-0.302,110.427,6.832,-50.771,0.0,70.0
61475,-0.478,-0.368,-0.193,17.947,220.954,-44.702,0.0,88.0
61532,-1.816,-1.055,0.564,-112.924,-121.053,7.855,0.0,81.0
61587,0.056,-1.338,-0.449,0.122,-234.595,3.015,0.0,75.0
61643,0.294,-0.894,-0.568,75.275,140.878,-49.649,0.0,78.0
61702,-1.507,-0.968,0.574,-75.191,181.015,27.015,0.0,119.0
61762,-0.728,-0.858,0.053,-59.031,-250.137,12.534,0.0,88.0
61818,0.503,-0.708,-0.675,40.626,-63.504,-68.748,0.0,83.0
61875,-0.471,-0.817,-0.233,8.763,164.168,-11.336,0.0,83.0
61931,-1.418,-0.919,0.307,-127.344,-245.313,31.977,0.0,83.0
61986,0.470,-1.188,-0.725,-44.160,-250.137,-17.008,0.0,74.0
62043,0.583,-0.751,-0.472,69.664,125.038,-71.931,0.0,76.0
62099,-0.943,-0.694,0.294,-6.748,211.244,13.847,0.0,79.0
62155,-1.183,-0.944,0.284,-79.153,-208.405,43.183,0.0,86.0
62213,0.567,-1.177,-0.492,4.427,-176.405,-46.038,0.0,92.0
62273,0.211,-1.174,-0.605,99.298,218.809,-104.878,0.0,94.0
62331,-1.348,-0.642,0.479,-28.885,197.718,79.901,0.0,117.0
62389,-0.981,-1.288,0.335,-101.221,-219.443,67.275,0.0,103.0
62447,0.717,-0.758,-0.578,30.786,-127.191,-75.695,0.0,103.0
62504,0.207,-0.581,-0.339,86.351,186.053,-40.565,0.0,107.0
62564,-1.229,-0.947,0.296,-40.427,124.809,105.443,0.0,121.0
62622,-0.733,-1.051,0.462,-107.305,-227.107,78.412,0.0,125.0
62682,0.462,-1.038,-0.478,47.527,-69.336,-90.031,0.0,120.0
62743,-0.773,-0.414,0.537,-9.282,92.275,-12.176,0.0,123.0
62801,-1.217,-1.032,0.210,-96.275,-250.137,50.832,0.0,119.0
62860,0.846,-1.197,-0.892,13.611,-121.779,-50.031,0.0,110.0
62919,-0.085,-0.446,-0.406,52.092,250.130,-45.122,0.0,132.0
62980,-2.000,-1.007,0.836,-96.695,-0.565,59.725,0.0,142.0
63039,-0.496,-1.394,-0.299,-77.137,-250.137,43.244,0.0,144.0
63099,0.360,-1.423,-0.754,37.450,78.252,-51.664,0.0,148.0
63161,-0.877,-0.056,0.444,-34.809,209.427,8.534,200.0,163.0
63221,-1.145,-1.108,0.012,-117.359,-250.137,-10.328,0.0,156.0
63283,0.519,-1.174,-0.989,36.191,-146.313,-154.008,164.0,134.0
63344,-0.033,-0.572,-0.306,42.130,143.550,-2.084,0.0,160.0
63403,-1.518,-1.176,0.273,-127.962,-140.023,135.000,151.0,167.0
63463,0.569,-1.363,-0.610,-17.977,-229.687,-77.863,0.0,149.0
63520,0.143,-1.068,-0.605,110.176,98.298,-171.763,137.0,150.0
63577,-0.764,-0.059,0.134,-62.420,166.771,150.779,130.0,155.0
63634,-0.997,-1.639,0.627,-107.817,-148.282,104.046,123.0,171.0
63691,0.215,-1.655,-0.809,72.687,-78.321,-127.908,117.0,169.0
63752,-0.338,-0.244,0.212,10.382,165.557,-32.550,113.0,173.0
63810,-1.456,-0.643,0.515,-146.267,-211.511,150.275,114.0,192.0
