Timestamp(ms),AccelX(g),AccelY(g),AccelZ(g),GyroX(deg/s),GyroY(deg/s),GyroZ(deg/s),DistanceLeft(cm),DistanceRight(cm)
47144,0.045,-1.030,0.156,-19.824,26.511,-8.969,0.0,179.0
47205,-0.040,-0.893,0.216,-22.916,4.977,-19.336,0.0,0.0
47252,-0.067,-0.891,0.124,-27.771,1.824,-24.863,0.0,0.0
47296,-0.113,-0.989,0.116,-34.802,6.511,-35.015,0.0,168.0
47348,-0.099,-0.971,0.108,-30.641,19.290,-40.427,57.0,0.0
47386,-0.203,-0.931,0.201,-33.542,22.130,-41.450,57.0,0.0
47447,-0.264,-0.943,0.263,-33.275,7.450,-38.206,0.0,0.0
47497,-0.289,-1.036,0.254,-22.786,-20.511,-34.809,0.0,0.0
47543,-0.243,-1.106,0.208,-16.275,-32.855,-32.092,0.0,0.0
47589,-0.181,-1.334,0.167,-4.832,-20.198,-20.626,0.0,0.0
47636,-0.156,-1.418,0.142,17.634,11.145,-2.084,0.0,0.0
47682,-0.010,-0.927,0.094,43.130,48.672,38.664,0.0,0.0
47728,-0.191,-0.809,0.198,38.450,76.366,82.458,0.0,0.0
47774,-0.458,-1.043,0.313,25.656,-14.611,86.603,0.0,0.0
47821,-0.235,-1.097,0.059,39.878,-91.763,78.405,0.0,0.0
47881,-0.045,-1.034,-0.040,42.336,-70.405,66.000,0.0,0.0
47931,-0.099,-0.950,0.016,44.153,-10.198,57.733,0.0,0.0
47977,-0.154,-0.896,0.055,42.733,3.718,59.458,0.0,0.0
48023,-0.187,-0.842,0.092,33.153,3.809,72.931,0.0,0.0
48066,-0.206,-0.831,0.111,21.931,-0.069,77.229,0.0,144.0
48123,-0.194,-0.889,0.091,11.588,-2.489,65.588,0.0,141.0
48179,-0.209,-1.052,0.122,4.947,3.664,25.168,0.0,123.0
48235,-0.204,-1.252,0.133,-7.702,12.198,-32.832,0.0,125.0
48291,-0.159,-1.000,0.214,-26.573,43.664,-77.870,0.0,131.0
48350,-0.145,-0.930,0.264,-27.580,32.916,-69.664,0.0,155.0
48409,-0.115,-1.072,0.252,-10.557,10.511,-48.153,0.0,133.0
48470,0.003,-1.020,0.140,-9.802,60.489,-37.534,0.0,0.0
48516,-0.211,-0.957,0.213,-8.282,77.061,-34.786,0.0,0.0
48563,-0.281,-0.849,0.255,-6.733,59.931,-45.908,0.0,0.0
48609,-0.333,-0.783,0.257,-15.832,24.321,-64.649,0.0,0.0
48655,-0.224,-0.786,0.177,-12.542,5.053,-70.573,0.0,0.0
48702,-0.287,-0.852,0.253,-19.237,3.954,-71.061,0.0,0.0
48748,-0.238,-1.052,0.219,-11.420,5.916,-67.511,0.0,0.0
48795,-0.105,-1.183,0.159,-2.412,36.885,-51.962,0.0,0.0
48862,-0.246,-1.277,0.299,-4.595,70.237,-25.824,0.0,0.0
48908,-0.303,-1.374,0.326,13.840,24.802,18.786,0.0,0.0
48955,-0.094,-0.912,0.175,28.855,11.756,71.290,0.0,0.0
49001,-0.267,-0.849,0.260,24.160,-1.069,116.870,0.0,0.0
49048,-0.340,-1.114,0.172,22.725,-69.870,126.840,0.0,0.0
49094,-0.143,-1.100,-0.040,32.557,-93.160,116.198,0.0,0.0
49139,-0.126,-0.998,-0.042,26.435,-65.718,88.931,0.0,168.0
49198,-0.051,-1.035,-0.099,31.183,-35.626,67.473,0.0,169.0
49256,-0.092,-0.822,0.039,34.237,18.229,59.550,0.0,164.0
49318,-0.201,-0.819,0.117,13.435,26.008,51.008,0.0,183.0
49376,-0.272,-0.810,0.197,-4.985,-11.092,29.191,0.0,144.0
49434,-0.214,-0.972,0.181,-16.183,-36.893,-9.908,0.0,154.0
49492,-0.211,-1.253,0.236,-29.000,-37.466,-46.328,0.0,173.0
49553,-0.179,-1.142,0.302,-35.023,-3.985,-75.908,0.0,195.0
49614,-0.207,-0.953,0.370,-35.763,-4.542,-81.115,0.0,0.0
49674,-0.118,-0.939,0.243,-5.702,2.489,-44.954,0.0,187.0
49777,-0.191,-0.956,0.190,-5.985,62.672,-35.817,0.0,200.0
49838,-0.259,-0.879,0.218,-11.710,33.198,-33.344,0.0,0.0
49888,-0.335,-0.792,0.275,-22.305,-18.046,-42.290,0.0,0.0
49934,-0.258,-0.785,0.227,-22.053,-52.962,-45.695,0.0,0.0
49981,-0.234,-0.845,0.256,-22.931,-70.015,-37.847,0.0,0.0
50028,-0.109,-0.983,0.154,-10.595,-55.565,-26.992,0.0,0.0
50074,-0.155,-1.055,0.206,-5.473,-27.473,-14.534,0.0,0.0
50121,-0.200,-1.102,0.233,-3.618,-35.344,3.206,0.0,0.0
50168,-0.201,-1.157,0.257,-2.176,-39.244,28.779,0.0,0.0
50214,-0.233,-1.328,0.217,7.626,-55.489,36.519,0.0,0.0
50265,-0.143,-1.129,0.114,30.557,-59.740,50.916,0.0,0.0
50312,-0.146,-1.061,0.026,35.847,-64.763,77.221,0.0,0.0
50358,-0.157,-1.220,-0.065,33.130,-76.962,93.229,0.0,0.0
50405,-0.102,-1.067,-0.107,25.153,-79.260,103.107,0.0,0.0
50452,-0.101,-0.959,-0.072,12.794,-67.328,106.359,0.0,0.0
50499,-0.168,-0.978,-0.013,4.687,-68.382,96.672,0.0,0.0
50545,-0.113,-0.927,-0.059,9.664,-61.466,74.046,0.0,0.0
50592,-0.103,-0.809,-0.020,2.954,-48.183,53.267,0.0,0.0
50639,-0.117,-0.779,0.028,-8.198,-36.069,35.840,0.0,0.0
50706,-0.132,-0.895,0.075,-12.786,-32.160,14.550,0.0,0.0
50753,-0.126,-1.123,0.105,-18.122,-21.443,-21.237,0.0,0.0
50800,-0.166,-1.337,0.173,-31.985,-8.977,-57.565,0.0,0.0
50847,-0.160,-1.285,0.282,-49.733,-9.511,-74.214,0.0,0.0
50894,-0.135,-1.009,0.381,-46.427,-18.603,-60.099,0.0,0.0
50940,-0.040,-0.890,0.310,-25.313,-28.634,-20.962,0.0,0.0
50988,0.007,-0.978,0.217,-5.405,-2.435,3.084,0.0,0.0
51035,-0.008,-1.070,0.129,4.244,42.504,-1.374,0.0,0.0
51082,-0.094,-0.891,0.138,12.328,70.634,-7.481,0.0,0.0
51131,-0.167,-0.742,0.148,7.939,71.901,-8.618,0.0,0.0
51178,-0.251,-0.757,0.183,0.336,52.550,-17.153,0.0,0.0
51225,-0.310,-0.841,0.191,-9.855,10.473,-37.206,0.0,0.0
51272,-0.299,-0.891,0.209,-18.588,-25.802,-57.649,0.0,0.0
51319,-0.267,-0.983,0.207,-23.878,-57.145,-66.046,0.0,0.0
51365,-0.095,-1.024,0.140,-18.740,-50.412,-48.046,0.0,0.0
51412,-0.082,-1.040,0.171,-17.779,-20.611,-9.847,0.0,0.0
51460,-0.181,-1.135,0.285,-18.069,-5.557,29.298,0.0,0.0
51507,-0.235,-1.361,0.272,-10.435,-29.786,46.779,0.0,0.0
51574,-0.181,-1.197,0.173,13.679,-37.779,50.534,0.0,0.0
51621,-0.234,-0.923,0.100,17.496,-58.099,66.672,0.0,0.0
51668,-0.215,-1.072,-0.025,17.893,-91.733,67.886,0.0,0.0
51716,-0.101,-1.062,-0.154,21.023,-103.901,66.695,0.0,0.0
51763,-0.026,-1.023,-0.157,18.664,-76.855,63.107,0.0,0.0
51810,0.015,-0.999,-0.148,24.687,-26.901,61.443,0.0,0.0
51857,-0.083,-0.946,-0.035,21.779,10.908,53.252,0.0,0.0
51904,-0.159,-0.887,0.043,5.893,6.672,40.137,0.0,0.0
51950,-0.171,-0.934,0.083,0.557,0.855,22.183,0.0,0.0
52000,-0.156,-0.858,0.104,-5.298,-14.649,7.260,0.0,0.0
52047,-0.085,-0.979,0.042,-0.031,-11.344,-0.947,0.0,0.0
52094,-0.094,-1.244,0.071,-5.099,10.382,-20.237,0.0,0.0
52142,-0.118,-1.360,0.145,-11.771,38.672,-46.634,0.0,0.0
52246,-0.162,-0.698,0.430,-22.702,25.023,-50.969,0.0,0.0
52293,0.002,-0.946,0.199,0.817,0.061,-11.969,0.0,0.0
52340,0.108,-1.026,0.022,9.740,62.786,-12.099,0.0,0.0
52387,-0.113,-0.898,0.136,3.298,107.626,-13.794,0.0,0.0
52434,-0.243,-0.800,0.218,3.046,82.595,-12.397,0.0,0.0
52485,-0.257,-0.801,0.218,-4.771,42.725,-23.611,0.0,0.0
52532,-0.198,-0.913,0.159,-8.733,20.534,-36.267,0.0,0.0
52579,-0.119,-0.901,0.133,-13.282,31.824,-39.840,0.0,0.0
52626,-0.191,-0.936,0.226,-18.252,44.473,-35.000,0.0,0.0
52673,-0.236,-0.980,0.281,-16.771,34.618,-26.313,0.0,0.0
52720,-0.256,-1.094,0.297,-16.527,14.794,-18.511,0.0,0.0
52767,-0.127,-1.187,0.201,-10.786,18.405,-5.817,0.0,0.0
52814,-0.208,-1.259,0.243,-6.473,36.359,1.679,0.0,0.0
52861,-0.298,-1.351,0.262,5.313,17.687,-0.252,0.0,0.0
52929,-0.137,-0.760,0.198,21.206,8.366,20.443,0.0,0.0
52977,-0.303,-1.091,0.195,15.542,-23.588,43.885,0.0,0.0
53024,-0.208,-1.132,0.067,28.351,-63.252,39.031,0.0,0.0
53071,-0.027,-0.930,-0.028,30.000,-43.237,41.809,0.0,0.0
53118,-0.065,-0.929,-0.006,26.405,-3.763,50.603,0.0,0.0
53166,-0.100,-0.879,0.038,26.374,3.046,57.504,0.0,0.0
53213,-0.073,-0.912,0.018,25.099,20.763,60.580,0.0,0.0
53260,-0.098,-0.887,0.049,17.878,30.115,58.031,0.0,0.0
53307,-0.119,-0.893,0.075,14.504,36.412,48.420,0.0,0.0
53358,-0.119,-1.056,0.110,9.489,36.107,23.489,0.0,0.0
53405,-0.167,-1.192,0.171,10.458,41.817,-14.160,0.0,0.0
53458,-0.189,-1.407,0.216,6.977,49.344,-63.893,0.0,0.0
53505,-0.146,-0.947,0.274,4.260,53.832,-86.214,0.0,0.0
53551,-0.060,-0.787,0.238,5.374,61.305,-41.550,0.0,0.0
53597,-0.105,-1.013,0.117,15.244,60.939,-14.435,0.0,0.0
53643,-0.047,-0.916,0.027,15.893,95.405,-9.473,0.0,0.0
53689,-0.196,-0.801,0.106,6.885,111.115,-9.412,0.0,0.0
53735,-0.285,-0.801,0.190,1.130,81.809,-19.305,0.0,0.0
53784,-0.253,-0.847,0.144,-0.939,52.053,-37.954,0.0,0.0
53830,-0.211,-0.875,0.113,-8.603,46.718,-54.183,0.0,0.0
53876,-0.211,-0.950,0.128,-15.878,52.557,-58.908,0.0,0.0
53923,-0.271,-1.008,0.198,-18.115,56.809,-56.771,0.0,0.0
53969,-0.264,-1.052,0.199,-17.634,51.908,-49.756,0.0,0.0
54016,-0.182,-1.114,0.142,-16.435,55.351,-38.344,0.0,0.0
54063,-0.219,-1.157,0.187,-14.275,84.710,-20.130,0.0,0.0
54109,-0.338,-1.361,0.273,-3.977,63.817,-12.313,0.0,0.0
54155,-0.147,-1.068,0.134,24.427,63.137,10.092,0.0,0.0
54204,-0.163,-0.947,0.149,26.733,69.786,45.824,0.0,0.0
54250,-0.210,-1.157,0.182,25.099,53.115,63.443,0.0,0.0
54297,-0.143,-0.944,0.144,22.969,27.977,80.023,0.0,0.0
54343,-0.047,-0.860,0.088,22.107,37.481,88.221,0.0,0.0
54389,-0.136,-0.887,0.130,26.458,47.908,87.901,0.0,0.0
54435,-0.153,-0.873,0.113,30.756,45.969,72.580,0.0,0.0
54482,-0.166,-0.845,0.091,28.183,47.344,43.427,0.0,0.0
54529,-0.196,-0.871,0.112,19.954,41.435,10.069,0.0,0.0
54575,-0.172,-0.918,0.089,20.870,38.817,-19.718,0.0,0.0
54681,-0.284,-1.556,0.099,15.076,42.954,-100.031,0.0,0.0
54727,-0.200,-1.015,0.248,-0.885,29.099,-134.076,0.0,0.0
54774,0.018,-0.819,0.156,13.153,28.962,-58.122,0.0,0.0
54820,0.101,-1.022,-0.018,22.351,74.443,4.809,0.0,0.0
54866,-0.015,-0.972,-0.031,15.267,138.496,29.611,0.0,0.0
54914,-0.259,-0.937,0.108,11.679,141.427,28.595,0.0,0.0
54960,-0.374,-0.861,0.192,13.198,80.069,2.023,0.0,0.0
55006,-0.234,-0.742,0.131,2.832,34.702,-30.992,0.0,0.0
55053,-0.206,-0.742,0.094,-10.718,28.580,-54.382,0.0,0.0
55102,-0.193,-0.820,0.110,-11.679,33.809,-66.084,0.0,0.0
55148,-0.199,-0.975,0.150,-16.099,35.618,-69.611,0.0,0.0
55195,-0.249,-1.111,0.216,-19.527,45.382,-67.008,0.0,0.0
55241,-0.333,-1.400,0.318,-21.702,12.061,-61.718,0.0,0.0
55288,-0.179,-1.377,0.301,-4.817,4.687,-42.168,0.0,0.0
55334,-0.064,-1.258,0.175,22.748,28.733,-15.580,0.0,0.0
55382,-0.120,-0.961,0.242,43.115,51.099,40.977,0.0,0.0
55428,-0.182,-0.975,0.250,38.176,19.870,88.756,0.0,0.0
55475,-0.066,-0.948,0.131,41.565,-4.084,127.244,0.0,0.0
55541,-0.086,-0.925,0.114,41.366,7.298,132.420,0.0,0.0
55587,-0.143,-0.948,0.066,37.046,3.229,112.267,0.0,0.0
55634,-0.077,-0.879,0.000,34.695,10.733,88.550,0.0,0.0
55681,-0.157,-0.864,0.057,18.458,18.664,57.122,0.0,0.0
55728,-0.139,-0.891,0.064,12.656,12.496,20.527,0.0,0.0
55774,-0.141,-0.948,0.124,6.580,17.107,-13.649,0.0,0.0
55821,-0.205,-1.154,0.169,-6.733,16.275,-57.656,0.0,0.0
55867,-0.197,-1.269,0.161,-7.328,25.901,-101.427,0.0,0.0
55914,-0.163,-1.357,0.186,-14.084,35.473,-128.183,0.0,0.0
55963,-0.097,-0.905,0.225,-9.275,61.634,-127.168,0.0,0.0
56010,-0.126,-0.884,0.287,-6.695,59.840,-68.725,0.0,0.0
56057,-0.163,-0.997,0.247,-5.718,37.000,-22.420,0.0,0.0
56103,-0.089,-0.907,0.137,-2.924,42.893,3.565,0.0,0.0
56151,-0.193,-0.807,0.183,-8.382,45.244,8.252,0.0,0.0
56197,-0.271,-0.826,0.216,-11.824,20.802,-4.427,0.0,0.0
56244,-0.225,-0.827,0.186,-12.206,-1.473,-24.130,0.0,0.0
56290,-0.141,-0.763,0.172,-17.542,0.435,-34.267,0.0,0.0
56337,-0.148,-0.872,0.194,-16.084,18.473,-32.511,0.0,0.0
56404,-0.264,-1.051,0.300,-17.267,6.153,-33.176,0.0,0.0
56451,-0.188,-1.375,0.271,-9.359,-12.641,-21.008,0.0,0.0
56498,-0.221,-1.489,0.286,-2.542,-16.504,-6.870,0.0,0.0
56545,-0.077,-1.112,0.201,21.382,-9.221,18.206,0.0,0.0
56591,-0.093,-0.755,0.195,32.153,6.771,71.015,0.0,0.0
56638,-0.258,-1.045,0.205,27.000,-24.374,97.756,0.0,0.0
56685,-0.131,-1.055,0.058,34.053,-57.771,111.809,0.0,0.0
56731,-0.052,-1.001,-0.020,31.550,-42.664,105.092,0.0,0.0
56778,-0.090,-0.973,-0.007,28.321,-21.260,87.374,0.0,0.0
56828,-0.068,-0.850,-0.014,24.588,-4.435,67.076,0.0,0.0
56876,-0.082,-0.814,0.018,14.115,10.076,52.427,0.0,0.0
56922,-0.118,-0.794,0.073,6.626,16.382,31.718,0.0,0.0
56969,-0.141,-0.885,0.125,-1.374,10.656,6.924,0.0,0.0
57016,-0.209,-1.227,0.163,-12.137,2.962,-32.336,0.0,0.0
57119,-0.154,-1.245,0.226,-25.695,15.565,-134.038,0.0,0.0
57166,-0.088,-0.865,0.325,-20.412,14.588,-79.458,0.0,0.0
57213,-0.044,-1.073,0.194,5.931,8.550,-21.313,0.0,0.0
57260,0.055,-1.009,0.074,4.763,50.618,7.412,0.0,0.0
57307,-0.125,-0.923,0.127,3.763,92.359,14.267,0.0,0.0
57357,-0.286,-0.791,0.214,4.618,69.076,0.832,0.0,0.0
57404,-0.284,-0.725,0.218,-1.588,24.496,-20.748,0.0,0.0
57450,-0.211,-0.736,0.155,-8.107,-0.565,-40.328,0.0,0.0
57497,-0.177,-0.804,0.146,-14.763,0.519,-50.435,0.0,0.0
57544,-0.229,-0.980,0.194,-16.756,3.718,-55.252,0.0,0.0
57591,-0.262,-1.183,0.227,-13.878,2.076,-42.771,0.0,0.0
57638,-0.182,-1.162,0.249,-13.015,6.237,-4.435,0.0,0.0
57684,-0.254,-1.320,0.271,-12.908,19.489,24.313,0.0,0.0
57732,-0.257,-1.272,0.241,10.405,7.756,33.756,0.0,0.0
57799,-0.192,-0.794,0.248,22.168,8.679,63.382,0.0,0.0
57846,-0.246,-1.172,0.109,19.137,-53.901,63.359,0.0,0.0
57893,-0.104,-0.977,0.018,29.565,-62.893,62.008,0.0,0.0
57940,-0.010,-0.912,-0.053,24.725,-36.176,60.115,0.0,0.0
57988,-0.096,-0.943,0.005,23.229,-18.573,56.733,0.0,0.0
58035,-0.062,-0.870,-0.012,18.725,-19.321,47.527,0.0,0.0
58082,-0.036,-0.773,-0.017,11.427,0.435,39.305,0.0,0.0
58128,-0.111,-0.803,0.056,1.092,4.015,18.962,0.0,0.0
58175,-0.156,-1.060,0.093,-2.237,-1.924,-10.450,0.0,0.0
58225,-0.191,-1.301,0.135,-11.076,-13.947,-54.756,0.0,0.0
58272,-0.082,-1.304,0.147,-18.344,9.397,-82.817,0.0,0.0
58319,-0.171,-1.143,0.316,-34.038,15.786,-92.817,0.0,0.0
58366,-0.089,-0.738,0.356,-19.115,1.534,-49.710,0.0,0.0
58414,-0.009,-0.952,0.234,-5.557,-7.603,1.595,0.0,0.0
58461,0.071,-1.074,0.096,-2.733,33.939,19.519,0.0,0.0
58508,-0.085,-0.976,0.178,-6.290,53.031,19.168,0.0,0.0
58555,-0.133,-0.794,0.208,-2.656,49.366,11.656,0.0,0.0
58602,-0.220,-0.710,0.243,-11.214,21.748,-2.397,0.0,0.0
58670,-0.202,-0.812,0.208,-14.389,-14.649,-21.374,0.0,0.0
58717,-0.123,-0.867,0.157,-15.809,0.557,-38.000,0.0,0.0
58764,-0.215,-1.044,0.233,-19.382,2.290,-48.336,0.0,0.0
58811,-0.202,-1.255,0.239,-14.076,-10.473,-48.893,0.0,0.0
58858,-0.133,-1.293,0.217,-13.840,-12.328,-29.702,0.0,0.0
58906,-0.145,-1.331,0.240,-11.519,-0.214,-4.573,0.0,0.0
58953,-0.144,-1.041,0.228,9.107,-0.267,23.802,0.0,0.0
59000,-0.207,-0.788,0.249,17.389,-14.718,58.053,0.0,0.0
59047,-0.309,-1.138,0.170,17.183,-66.557,60.649,0.0,0.0
59098,-0.049,-1.040,-0.076,32.779,-85.733,61.496,0.0,0.0
59145,0.046,-0.916,-0.140,26.092,-37.534,66.290,0.0,0.0
59192,-0.085,-0.925,-0.041,20.588,-4.122,70.282,0.0,0.0
59239,-0.105,-0.882,-0.020,21.229,-6.389,63.473,0.0,0.0
59286,-0.076,-0.826,0.002,12.748,-0.710,54.130,0.0,0.0
59333,-0.052,-0.820,0.000,6.443,13.221,38.053,0.0,0.0
59381,-0.122,-0.940,0.096,3.611,22.611,12.534,0.0,0.0
59428,-0.196,-1.272,0.125,-3.595,19.321,-28.000,0.0,0.0
59475,-0.094,-1.445,0.098,-7.733,25.305,-73.511,0.0,0.0
59583,-0.273,-0.872,0.422,-28.122,-17.786,-85.779,0.0,0.0
59630,0.063,-0.984,0.130,1.786,-62.443,-16.855,0.0,0.0
59700,0.198,-1.043,-0.032,0.305,28.496,15.626,0.0,0.0
59747,-0.111,-0.872,0.135,6.191,93.038,18.053,0.0,0.0
59793,-0.201,-0.755,0.205,6.710,72.435,4.046,0.0,0.0
59839,-0.239,-0.749,0.226,-1.313,35.809,-13.595,0.0,0.0
59885,-0.139,-0.785,0.132,-3.580,21.733,-30.412,0.0,0.0
59931,-0.205,-0.807,0.198,-10.870,18.221,-37.427,0.0,0.0
59977,-0.202,-0.992,0.201,-12.985,4.893,-40.763,0.0,0.0
60026,-0.207,-1.240,0.210,-12.038,-1.466,-40.473,0.0,0.0
60072,-0.121,-1.332,0.187,-13.328,-2.603,-25.847,0.0,0.0
60120,-0.139,-1.400,0.215,-8.802,20.153,-4.420,0.0,0.0
60166,-0.162,-1.124,0.232,10.992,13.191,19.405,0.0,0.0
60212,-0.281,-0.861,0.311,15.031,-23.786,45.153,0.0,0.0
60258,-0.270,-1.077,0.172,13.725,-87.282,50.290,0.0,0.0
60304,-0.033,-0.964,-0.022,25.496,-95.580,62.702,0.0,0.0
60351,0.050,-0.921,-0.073,22.786,-44.427,67.756,0.0,0.0
60397,-0.095,-0.954,0.020,24.511,-10.641,65.656,0.0,0.0
60446,-0.094,-0.887,0.002,28.924,-5.321,54.092,0.0,0.0
60492,-0.052,-0.795,-0.005,22.992,11.008,43.168,0.0,0.0
60538,-0.094,-0.794,0.064,14.573,22.366,33.198,0.0,0.0
60585,-0.131,-0.978,0.111,8.092,13.595,18.450,0.0,0.0
60632,-0.150,-1.288,0.128,-1.756,-0.649,-7.473,0.0,0.0
60678,0.007,-1.440,0.022,-6.870,7.756,-40.527,0.0,0.0
60724,-0.070,-1.071,0.233,-26.099,42.756,-60.817,0.0,0.0
60771,-0.156,-0.866,0.387,-30.107,5.450,-38.641,0.0,0.0
60817,0.047,-1.100,0.169,-0.015,-22.870,-9.878,0.0,0.0
60866,0.205,-0.986,0.002,2.718,55.580,-0.214,0.0,0.0
60912,-0.059,-0.896,0.117,-2.069,116.420,-2.649,0.0,0.0
60958,-0.358,-0.820,0.298,1.870,77.718,-17.443,0.0,0.0
61005,-0.336,-0.765,0.269,-6.267,5.176,-38.809,0.0,0.0
61051,-0.172,-0.741,0.159,-13.710,-23.985,-48.137,0.0,0.0
61099,-0.141,-0.773,0.153,-17.588,-12.313,-47.321,0.0,0.0
61145,-0.169,-0.948,0.158,-16.534,-3.863,-46.702,0.0,0.0
61191,-0.207,-1.172,0.230,-13.893,2.214,-49.153,0.0,0.0
61238,-0.138,-1.352,0.204,-12.939,5.267,-38.931,0.0,0.0
61304,-0.187,-1.412,0.261,-10.595,15.221,-10.763,0.0,0.0
61351,-0.114,-0.922,0.182,18.328,3.069,33.229,0.0,0.0
61398,-0.234,-0.837,0.257,17.840,-10.641,65.092,0.0,0.0
61444,-0.227,-1.155,0.137,23.137,-59.107,73.115,0.0,0.0
61491,-0.044,-0.960,-0.004,30.786,-60.099,83.519,0.0,0.0
61537,0.020,-0.945,-0.063,24.115,-26.298,86.427,0.0,0.0
61584,-0.071,-0.958,0.001,28.252,9.099,81.603,0.0,0.0
61630,-0.142,-0.875,0.027,24.626,6.244,66.588,0.0,0.0
61676,-0.156,-0.843,0.042,10.015,-9.863,47.427,0.0,0.0
61726,-0.116,-0.862,0.041,2.527,-9.137,22.695,0.0,0.0
61772,-0.111,-0.896,0.069,-1.267,-5.695,1.603,0.0,0.0
61819,-0.133,-1.203,0.088,-5.450,3.168,-23.534,0.0,0.0
61865,-0.146,-1.374,0.126,-17.099,14.115,-59.450,0.0,0.0
61913,-0.149,-1.261,0.220,-30.802,27.443,-82.496,0.0,0.0
62016,0.083,-0.989,0.104,-5.290,-14.954,-34.573,0.0,0.0
62062,0.137,-1.035,-0.005,-3.748,87.198,-8.107,0.0,0.0
62109,-0.198,-0.980,0.196,-7.595,111.092,-1.214,0.0,0.0
62155,-0.338,-0.849,0.298,-2.336,48.840,-7.435,0.0,0.0
62223,-0.209,-0.750,0.187,-9.122,-6.954,-20.885,0.0,0.0
62269,-0.123,-0.798,0.106,-12.450,3.313,-35.435,0.0,0.0
62316,-0.127,-0.813,0.114,-11.267,18.206,-35.534,0.0,0.0
62363,-0.192,-0.886,0.198,-14.443,24.832,-30.931,0.0,0.0
62409,-0.194,-1.094,0.206,-13.267,12.099,-27.221,0.0,0.0
62456,-0.169,-1.268,0.185,-8.298,16.267,-19.031,0.0,0.0
62503,-0.201,-1.354,0.252,-9.679,20.038,-6.244,0.0,0.0
62550,-0.111,-1.224,0.204,11.725,35.939,8.412,0.0,0.0
62597,-0.223,-1.038,0.265,27.046,35.130,37.611,0.0,0.0
62646,-0.205,-1.069,0.179,33.588,0.122,59.527,0.0,0.0
62693,-0.168,-1.039,0.138,29.099,-35.458,70.733,0.0,0.0
62740,-0.028,-0.917,0.018,26.130,-41.580,78.244,0.0,0.0
62786,0.006,-0.892,-0.005,24.908,-20.496,77.168,0.0,0.0
62833,-0.019,-0.906,-0.028,27.397,3.092,71.878,0.0,0.0
62880,-0.103,-0.856,0.032,21.611,10.405,62.412,0.0,0.0
62926,-0.068,-0.861,-0.003,17.252,11.176,41.847,0.0,0.0
62973,-0.088,-0.852,0.044,11.634,25.038,16.420,0.0,0.0
63021,-0.152,-0.989,0.112,-0.641,24.908,-13.855,0.0,0.0
63087,-0.222,-1.355,0.162,-6.626,14.771,-57.931,0.0,0.0
63134,-0.189,-1.230,0.256,-20.000,5.664,-102.450,0.0,0.0
63181,-0.121,-0.878,0.329,-20.435,1.023,-86.168,0.0,0.0
63228,0.050,-0.988,0.100,0.649,-0.336,-36.809,0.0,0.0
63275,0.124,-0.993,-0.006,8.855,70.473,-7.313,0.0,0.0
63322,-0.108,-0.995,0.084,-4.702,125.511,0.382,0.0,0.0
63369,-0.334,-0.885,0.260,-1.031,88.313,-2.198,0.0,0.0
63415,-0.322,-0.770,0.264,-9.969,16.878,-15.641,0.0,0.0
63462,-0.167,-0.773,0.156,-20.794,-17.527,-28.809,0.0,0.0
63512,-0.069,-0.765,0.096,-18.740,1.649,-30.405,0.0,0.0
63559,-0.198,-0.842,0.197,-21.137,17.427,-28.214,0.0,0.0
63606,-0.200,-1.049,0.197,-18.802,11.382,-30.221,0.0,0.0
63653,-0.235,-1.255,0.265,-17.443,-4.969,-29.802,0.0,0.0
63700,-0.096,-1.323,0.201,-9.611,1.809,-19.878,0.0,0.0
63747,-0.135,-1.390,0.245,-3.519,28.206,-11.550,0.0,0.0
63794,-0.121,-1.075,0.230,25.160,41.305,14.420,0.0,0.0
63841,-0.122,-0.807,0.232,33.405,35.756,58.542,0.0,0.0
63888,-0.202,-1.110,0.207,31.252,-0.580,84.763,0.0,0.0
63955,0.044,-1.059,0.016,38.992,-10.748,100.511,0.0,0.0
64003,-0.032,-0.889,0.080,26.794,26.878,101.649,0.0,0.0
64050,-0.094,-0.944,0.060,29.496,20.153,98.229,0.0,0.0
64096,-0.131,-0.861,0.085,21.916,15.183,71.817,0.0,0.0
64139,-0.146,-0.789,0.063,11.252,11.969,32.336,0.0,126.0
64194,-0.159,-0.787,0.078,3.985,12.519,-4.015,0.0,103.0
64252,-0.141,-0.956,0.070,-2.481,14.473,-49.840,0.0,154.0
64313,-0.265,-1.314,0.154,-10.580,16.435,-106.420,0.0,0.0
64361,-0.194,-1.262,0.267,-21.534,8.634,-132.924,0.0,0.0
64429,-0.083,-1.070,0.272,-21.664,-8.489,-97.779,0.0,0.0
64532,0.032,-1.028,0.027,-1.809,88.641,33.496,0.0,0.0
64579,-0.056,-1.054,0.005,17.511,131.817,28.015,0.0,0.0
64626,-0.199,-0.808,0.125,11.313,133.405,9.176,0.0,0.0
64673,-0.303,-0.779,0.221,-2.557,86.992,-9.802,0.0,0.0
64720,-0.287,-0.832,0.204,-7.145,26.214,-30.374,0.0,0.0
64768,-0.130,-0.816,0.118,-12.626,12.313,-39.947,0.0,0.0
64815,-0.126,-0.894,0.118,-19.679,36.176,-38.962,0.0,0.0
64862,-0.221,-1.034,0.193,-23.229,34.740,-43.153,0.0,0.0
64929,-0.254,-1.250,0.213,-17.344,25.939,-51.038,0.0,0.0
64977,-0.186,-1.335,0.261,-11.519,6.466,-35.878,0.0,0.0
65025,-0.094,-1.168,0.201,6.756,23.015,-3.000,0.0,0.0
65072,-0.038,-0.830,0.144,24.679,53.008,46.191,0.0,0.0
65119,-0.259,-0.988,0.236,25.000,40.351,66.458,0.0,0.0
65166,-0.123,-1.209,0.089,36.038,-15.718,69.725,0.0,0.0
65213,0.088,-0.999,-0.012,37.023,7.740,73.679,0.0,0.0
65260,-0.009,-0.918,0.042,27.656,45.519,81.710,0.0,0.0
65307,-0.108,-0.896,0.104,31.420,39.878,82.260,0.0,0.0
65357,-0.131,-0.858,0.089,26.206,29.344,65.420,0.0,0.0
65403,-0.131,-0.877,0.076,18.038,20.595,41.725,0.0,172.0
65460,-0.091,-0.910,0.038,16.847,28.031,10.107,0.0,135.0
65521,-0.156,-0.944,0.065,7.038,30.718,-29.237,0.0,191.0
65577,-0.225,-1.310,0.115,-5.550,19.977,-68.954,0.0,115.0
65638,-0.128,-1.289,0.094,-13.107,20.511,-101.107,0.0,0.0
65686,-0.149,-0.974,0.221,-19.550,22.023,-88.122,0.0,0.0
65733,-0.031,-0.922,0.142,-1.298,27.298,-46.130,0.0,0.0
65780,0.092,-0.964,-0.005,11.206,72.817,-9.962,0.0,0.0
65848,-0.038,-1.031,0.016,16.718,131.374,7.786,0.0,0.0
65896,-0.233,-0.904,0.131,17.260,108.840,7.969,0.0,0.0
65943,-0.228,-0.781,0.163,8.252,70.580,2.756,0.0,0.0
65995,-0.216,-0.820,0.135,0.366,36.771,-9.565,0.0,0.0
66041,-0.178,-0.893,0.112,-2.840,23.954,-27.779,0.0,0.0
66087,-0.136,-0.889,0.111,-9.168,34.466,-34.725,0.0,0.0
66135,-0.184,-0.900,0.167,-14.573,43.374,-31.542,0.0,0.0
66181,-0.232,-1.092,0.215,-15.534,31.580,-27.053,0.0,0.0
66240,-0.206,-1.337,0.167,-13.565,25.840,-27.427,0.0,0.0
66290,0.064,-1.333,-0.012,-5.550,69.298,-14.641,0.0,0.0
66336,-0.254,-1.083,0.221,2.603,127.504,-2.023,0.0,0.0
66382,-0.363,-0.760,0.322,13.695,55.366,23.252,0.0,0.0
66442,-0.281,-0.920,0.209,24.244,2.771,42.771,0.0,0.0
66489,-0.095,-1.053,-0.020,24.053,-43.267,53.954,0.0,0.0
66535,-0.035,-0.917,-0.011,23.344,-7.565,61.374,0.0,0.0
66581,-0.197,-0.882,0.073,16.672,0.504,61.679,0.0,0.0
66627,-0.172,-0.966,0.063,22.298,-28.260,50.656,0.0,0.0
66674,-0.051,-0.935,-0.000,24.145,-10.885,43.924,0.0,0.0
66723,-0.098,-0.934,0.017,15.832,18.412,33.267,0.0,0.0
66769,-0.138,-0.990,0.059,15.626,18.672,20.153,0.0,0.0
66813,-0.127,-1.064,0.074,12.328,14.137,1.695,0.0,167.0
66874,-0.148,-1.225,0.075,3.916,17.260,-22.359,0.0,0.0
66921,-0.081,-1.322,0.056,-3.969,31.939,-54.076,0.0,0.0
66980,-0.190,-1.077,0.223,-11.214,55.939,-76.718,0.0,0.0
67084,-0.089,-0.944,0.173,-2.298,5.382,-24.840,0.0,0.0
67131,-0.002,-1.042,0.066,1.557,56.122,-11.817,0.0,0.0
67177,-0.108,-0.931,0.138,-0.366,70.679,-2.542,0.0,0.0
67226,-0.208,-0.778,0.223,-0.405,57.718,2.092,0.0,0.0
67272,-0.215,-0.800,0.196,-6.939,27.107,-4.794,0.0,0.0
67319,-0.162,-0.859,0.154,-6.290,12.137,-20.099,0.0,0.0
67365,-0.171,-0.908,0.155,-10.366,16.229,-29.992,0.0,0.0
67411,-0.225,-0.959,0.239,-13.740,9.397,-33.664,0.0,0.0
67459,-0.236,-1.079,0.264,-10.397,-4.908,-32.374,0.0,0.0
67505,-0.230,-1.317,0.253,-6.611,-15.053,-29.603,0.0,0.0
67552,-0.116,-1.346,0.180,1.740,-5.931,-17.504,0.0,0.0
67598,-0.121,-1.154,0.180,12.824,17.015,7.168,0.0,0.0
67664,-0.086,-0.748,0.147,24.985,31.061,54.794,0.0,0.0
67712,-0.354,-1.138,0.210,20.145,-23.176,75.275,0.0,0.0
67758,-0.108,-1.060,-0.008,26.435,-63.679,74.679,0.0,0.0
67805,0.042,-0.907,-0.065,22.893,-18.611,78.130,0.0,0.0
67851,-0.086,-0.920,0.002,17.985,18.771,77.214,0.0,0.0
67897,-0.159,-0.897,0.045,20.351,16.008,63.397,0.0,0.0
67957,-0.121,-0.844,0.014,11.542,9.374,43.328,0.0,0.0
68004,-0.148,-0.858,0.066,4.420,13.847,12.252,0.0,0.0
68050,-0.145,-0.944,0.073,3.908,14.794,-13.076,0.0,0.0
68114,-0.249,-1.260,0.145,-4.282,8.374,-51.427,0.0,0.0
68161,-0.137,-1.301,0.144,-8.298,11.794,-85.252,0.0,0.0
68207,-0.180,-1.130,0.278,-18.672,17.626,-86.931,0.0,0.0
68254,-0.124,-0.859,0.278,-12.809,5.718,-58.519,0.0,0.0
68300,-0.031,-0.965,0.155,1.779,14.382,-18.779,0.0,0.0
68347,0.001,-0.995,0.080,0.756,60.282,1.115,0.0,0.0
68393,-0.141,-0.920,0.136,2.794,80.824,8.588,0.0,0.0
68440,-0.240,-0.792,0.222,3.679,60.252,5.176,0.0,0.0
68487,-0.266,-0.749,0.246,-3.893,19.885,-4.901,0.0,0.0
68536,-0.161,-0.838,0.148,-6.359,-1.260,-21.168,0.0,0.0
68583,-0.100,-0.843,0.128,-10.534,12.031,-25.145,0.0,0.0
68630,-0.185,-0.936,0.186,-15.092,15.802,-24.305,0.0,0.0
68676,-0.227,-1.114,0.198,-14.939,8.244,-29.649,0.0,0.0
68723,-0.175,-1.179,0.195,-13.985,3.053,-32.168,0.0,0.0
68770,-0.158,-1.315,0.194,-13.336,13.015,-25.794,0.0,0.0
68816,-0.248,-1.424,0.244,-4.107,4.992,-21.908,0.0,0.0
68864,-0.086,-0.807,0.167,17.763,5.366,13.573,0.0,0.0
68910,-0.253,-0.852,0.240,13.076,-9.779,50.901,0.0,0.0
68977,-0.202,-1.162,0.061,20.305,-67.008,65.137,0.0,0.0
69024,0.016,-0.969,-0.073,24.237,-36.031,80.237,0.0,0.0
69070,-0.046,-0.933,-0.012,22.588,11.099,83.771,0.0,0.0
69117,-0.181,-0.887,0.074,21.061,3.969,78.985,0.0,0.0
69165,-0.110,-0.855,0.009,18.954,-11.557,65.504,0.0,0.0
69211,-0.117,-0.844,0.025,12.481,0.405,41.443,0.0,0.0
69258,-0.126,-0.867,0.022,8.336,5.031,8.076,0.0,0.0
69304,-0.122,-0.948,0.053,8.748,18.618,-18.611,0.0,0.0
69349,-0.214,-1.185,0.134,0.924,22.008,-51.137,0.0,163.0
69409,-0.195,-1.443,0.139,-3.733,20.313,-82.053,0.0,0.0
69459,-0.103,-1.047,0.186,-17.817,30.687,-99.366,0.0,0.0
69563,-0.117,-1.020,0.218,-7.756,-4.611,-8.046,0.0,0.0
69610,0.117,-1.026,-0.005,1.786,66.214,6.420,0.0,0.0
69657,-0.125,-0.866,0.172,-2.458,107.290,9.473,0.0,0.0
69703,-0.281,-0.770,0.271,-1.695,73.817,3.626,0.0,0.0
69750,-0.290,-0.799,0.260,-7.260,20.664,-14.664,0.0,0.0
69797,-0.188,-0.885,0.185,-11.389,-6.420,-34.656,0.0,0.0
69844,-0.097,-0.903,0.150,-11.344,7.710,-40.206,0.0,0.0
69892,-0.158,-0.987,0.220,-15.725,20.405,-39.397,0.0,0.0
69958,-0.218,-1.227,0.282,-11.221,24.000,-35.466,0.0,0.0
70005,-0.143,-1.430,0.215,4.511,1.702,-28.794,0.0,0.0
70052,-0.114,-1.341,0.198,15.023,22.252,-7.069,0.0,0.0
70099,-0.087,-0.758,0.172,29.382,31.901,37.534,0.0,0.0
70147,-0.282,-0.858,0.221,24.221,1.427,65.305,0.0,0.0
70193,-0.253,-1.006,0.095,27.221,-40.771,65.092,0.0,0.0
70240,-0.139,-0.961,0.000,25.718,-58.740,58.000,0.0,0.0
70287,-0.094,-0.994,-0.049,23.496,-36.779,49.557,0.0,0.0
70334,-0.153,-0.918,0.028,15.756,-44.473,49.244,0.0,0.0
70384,0.006,-0.827,-0.059,15.611,-18.359,61.221,0.0,0.0
70431,-0.119,-0.888,0.044,4.954,11.786,63.878,0.0,0.0
70478,-0.212,-0.926,0.109,1.405,1.626,47.870,0.0,0.0
70525,-0.154,-1.099,0.099,-1.450,-17.076,24.466,0.0,0.0
70572,-0.149,-1.324,0.092,-11.534,-10.916,-14.260,0.0,0.0
70619,-0.119,-1.267,0.148,-23.298,9.481,-51.176,0.0,0.0
70666,-0.176,-1.062,0.313,-32.366,6.656,-71.305,0.0,0.0
70713,-0.129,-0.773,0.301,-21.069,-22.267,-63.740,0.0,0.0
70760,0.054,-0.801,0.156,-6.053,-20.557,-29.664,0.0,0.0
70828,0.052,-1.026,0.104,-1.588,33.779,-17.107,0.0,0.0
70875,-0.092,-0.990,0.156,0.405,41.427,-13.145,0.0,0.0
70922,-0.140,-0.807,0.198,-2.977,40.847,-12.427,0.0,0.0
70969,-0.207,-0.782,0.226,-8.802,22.076,-16.160,0.0,0.0
71016,-0.148,-0.861,0.177,-4.504,6.260,-27.412,0.0,0.0
71063,-0.170,-0.826,0.197,-8.359,11.076,-33.206,0.0,0.0
71110,-0.193,-0.914,0.206,-10.603,7.313,-27.305,0.0,0.0
71157,-0.206,-1.146,0.226,-7.267,13.237,-21.534,0.0,0.0
71204,-0.221,-1.262,0.225,-7.802,2.130,-16.527,0.0,0.0
71255,-0.204,-1.179,0.255,-12.023,-4.870,3.252,0.0,0.0
71302,-0.310,-1.343,0.320,-4.634,-23.328,16.756,0.0,0.0
71349,-0.076,-0.864,0.143,21.840,-35.122,39.786,0.0,0.0
71396,-0.176,-0.864,0.206,16.962,-25.611,66.702,0.0,0.0
71443,-0.297,-1.250,0.164,23.389,-63.092,63.855,0.0,0.0
71491,-0.003,-1.067,-0.082,33.351,-84.756,58.588,0.0,0.0
71538,0.071,-0.890,-0.083,24.565,-21.328,64.878,0.0,0.0
71585,-0.119,-0.895,0.010,20.710,3.229,63.962,0.0,0.0
71632,-0.142,-0.837,0.031,21.565,-6.412,54.076,0.0,0.0
71700,-0.091,-0.809,0.007,7.305,-2.359,35.710,0.0,0.0
71747,-0.144,-0.964,0.104,-5.092,-0.374,4.527,0.0,0.0
71794,-0.137,-1.205,0.113,-4.527,2.802,-19.298,0.0,0.0
71841,-0.152,-1.349,0.155,-13.137,9.969,-50.130,0.0,0.0
71888,-0.111,-1.187,0.216,-23.878,24.160,-68.191,0.0,0.0
71936,-0.239,-0.846,0.402,-33.534,4.687,-57.496,0.0,0.0
72040,0.057,-0.949,0.091,-3.595,-58.885,-2.397,0.0,0.0
72087,0.079,-0.986,0.026,-3.756,49.565,10.458,0.0,0.0
72134,-0.151,-0.874,0.169,0.382,73.153,6.878,0.0,0.0
72185,-0.257,-0.769,0.257,-3.412,37.015,-4.702,0.0,0.0
72232,-0.208,-0.824,0.204,-9.000,4.221,-20.901,0.0,0.0
72280,-0.200,-0.815,0.212,-13.008,-8.466,-31.847,0.0,0.0
72346,-0.191,-0.927,0.237,-12.542,-8.427,-34.015,0.0,0.0
72393,-0.222,-1.182,0.249,-11.382,-23.061,-35.427,0.0,0.0
72439,-0.088,-1.229,0.170,-5.550,-12.198,-20.527,0.0,0.0
72485,-0.196,-1.382,0.235,-7.160,2.893,-3.252,0.0,0.0
72531,-0.109,-1.241,0.127,17.267,0.511,5.969,0.0,0.0
72578,-0.146,-0.677,0.205,21.198,17.733,46.099,0.0,0.0
72627,-0.410,-1.057,0.239,9.076,-36.580,53.359,0.0,0.0
72673,-0.252,-1.097,0.040,22.672,-111.504,53.336,0.0,0.0
72720,-0.032,-0.968,-0.118,18.412,-100.130,54.588,0.0,0.0
72766,-0.034,-1.004,-0.094,15.313,-50.344,55.069,0.0,0.0
72812,-0.119,-0.937,-0.047,16.176,-35.206,51.000,0.0,0.0
72858,-0.091,-0.820,-0.054,7.351,-34.870,50.740,0.0,0.0
72905,-0.081,-0.859,-0.030,-3.802,-23.504,49.321,0.0,0.0
72951,-0.107,-0.958,0.003,-10.603,-18.603,38.947,0.0,0.0
72997,-0.109,-1.156,0.038,-12.023,-17.588,17.802,0.0,0.0
73047,-0.105,-1.417,0.032,-14.458,0.450,-28.687,0.0,0.0
73093,-0.126,-1.358,0.211,-32.634,31.076,-69.870,0.0,0.0
73140,-0.146,-0.793,0.391,-32.061,30.504,-72.954,0.0,0.0
73186,-0.272,-0.629,0.439,-16.267,-44.053,-21.847,0.0,0.0
73232,0.010,-0.890,0.100,7.130,-65.176,6.954,0.0,0.0
73279,0.058,-1.117,0.013,2.710,-1.977,13.061,0.0,0.0
73325,-0.046,-1.073,0.028,7.588,49.695,5.481,0.0,0.0
73371,-0.204,-0.781,0.213,1.763,47.695,3.809,0.0,0.0
73417,-0.298,-0.825,0.273,-7.733,-5.924,0.145,0.0,0.0
73466,-0.160,-0.863,0.163,-5.389,-41.061,-9.740,0.0,0.0
73513,-0.107,-0.877,0.125,-12.000,-34.603,-15.809,0.0,0.0
73560,-0.146,-0.934,0.174,-11.641,-21.588,-17.221,0.0,0.0
73606,-0.195,-1.044,0.221,-9.878,-21.527,-15.771,0.0,0.0
73653,-0.122,-1.186,0.148,-7.130,-21.206,-11.153,0.0,0.0
73699,-0.205,-1.157,0.225,-13.603,-8.649,0.313,0.0,0.0
73746,-0.370,-1.407,0.274,-11.267,-41.183,-7.725,0.0,0.0
73792,-0.124,-0.887,0.111,20.076,-67.153,2.924,0.0,0.0
73838,-0.185,-0.976,0.077,21.595,-63.076,28.038,0.0,0.0
73888,-0.154,-1.187,-0.053,20.809,-76.275,31.664,0.0,0.0
73934,-0.068,-0.894,-0.049,16.695,-67.649,47.061,0.0,0.0
73981,-0.114,-0.940,-0.016,7.489,-52.664,57.771,0.0,0.0
74041,-0.176,-0.957,0.008,13.931,-57.191,56.534,0.0,0.0
74088,-0.066,-0.868,-0.064,10.580,-50.473,45.023,0.0,0.0
74135,-0.097,-0.940,-0.016,2.519,-27.954,37.916,0.0,0.0
74181,-0.086,-0.969,0.004,3.687,-18.565,31.985,0.0,0.0
74227,-0.141,-1.157,0.079,1.214,-14.962,20.550,0.0,0.0
74274,-0.115,-1.346,0.060,-6.466,-14.191,-4.687,0.0,0.0
74341,-0.125,-1.121,0.215,-24.588,-0.420,-23.901,0.0,0.0
74388,-0.235,-0.768,0.342,-31.313,-60.366,-20.458,0.0,0.0
74491,0.112,-1.023,-0.019,-6.687,-11.053,24.389,0.0,0.0
74539,-0.090,-1.063,0.083,-6.954,36.328,0.069,0.0,0.0
74585,-0.168,-0.894,0.167,-10.763,28.992,-9.618,0.0,0.0
74632,-0.267,-0.836,0.253,-20.450,-14.855,-15.099,0.0,0.0
74678,-0.182,-0.864,0.165,-20.527,-52.527,-22.443,0.0,0.0
74725,-0.136,-0.923,0.114,-23.176,-53.015,-25.626,0.0,0.0
74771,-0.063,-0.957,0.061,-16.580,-33.878,-24.916,0.0,0.0
74821,-0.116,-0.955,0.124,-11.519,-6.397,-18.321,0.0,0.0
74868,-0.145,-1.057,0.107,-9.145,1.305,-8.099,0.0,0.0
74914,-0.137,-1.100,0.097,-11.153,3.992,1.092,0.0,0.0
74961,-0.175,-1.183,0.118,-15.916,11.733,7.321,0.0,0.0
75008,-0.300,-1.400,0.200,-12.000,-2.710,-0.916,0.0,0.0
75055,-0.141,-0.930,0.095,10.473,-20.389,3.313,0.0,0.0
75101,-0.262,-0.813,0.203,1.718,-44.519,27.649,0.0,0.0
75148,-0.162,-1.156,0.017,6.771,-93.076,41.115,0.0,0.0
75194,0.014,-1.001,-0.082,15.252,-66.756,54.145,0.0,0.0
75261,-0.051,-0.984,-0.056,11.542,-20.557,57.412,0.0,0.0
75309,-0.177,-0.923,0.030,15.038,-32.878,54.992,0.0,0.0
75355,-0.139,-0.940,-0.006,9.229,-44.802,45.481,0.0,0.0
75402,-0.032,-0.990,-0.092,10.794,-24.817,32.954,0.0,0.0
75449,-0.083,-0.967,0.002,8.740,6.565,18.786,0.0,0.0
75495,-0.059,-1.017,-0.013,11.305,17.061,11.344,0.0,0.0
75541,-0.195,-1.205,0.100,3.634,21.687,-9.160,0.0,179.0
75601,-0.119,-1.181,0.125,-5.397,15.664,-27.489,0.0,0.0
75649,-0.287,-1.300,0.313,-14.061,22.031,-55.443,0.0,0.0
75721,-0.002,-0.526,0.209,-6.008,0.672,-38.794,0.0,0.0
75770,-0.053,-0.892,0.125,-5.153,-1.634,3.145,0.0,0.0
75820,-0.023,-1.148,0.037,4.405,28.794,3.191,0.0,0.0
75869,-0.060,-0.961,0.092,-7.679,44.115,1.908,0.0,0.0
75918,-0.157,-0.817,0.198,-11.221,43.924,7.214,0.0,0.0
75967,-0.229,-0.860,0.214,-17.626,6.221,-5.832,0.0,0.0
76016,-0.058,-0.892,0.099,-11.084,2.809,-22.107,0.0,0.0
76065,-0.162,-0.924,0.184,-15.748,22.389,-30.115,0.0,0.0
76132,-0.244,-0.969,0.266,-15.084,-0.847,-31.076,0.0,0.0
76184,-0.192,-1.274,0.200,-7.939,-10.191,-27.534,0.0,0.0
76251,-0.077,-1.219,0.123,-2.542,21.107,-16.176,0.0,0.0
76301,-0.266,-1.346,0.197,6.824,8.489,-7.817,0.0,0.0
76350,-0.069,-0.629,0.126,19.977,12.557,28.885,0.0,0.0
76399,-0.283,-0.820,0.201,4.252,-3.870,55.344,0.0,0.0
76448,-0.299,-1.158,0.089,16.863,-62.756,50.023,0.0,0.0
76497,-0.087,-1.000,-0.042,19.664,-66.328,36.092,0.0,0.0
76564,-0.066,-0.966,-0.032,16.969,-29.870,35.137,0.0,0.0
76614,-0.119,-0.876,0.015,14.855,-27.840,45.435,0.0,0.0
76682,-0.101,-0.884,-0.001,8.489,-12.603,50.580,0.0,171.0
76740,-0.119,-0.959,0.014,1.351,-19.435,38.794,0.0,118.0
76798,-0.091,-1.070,0.029,-1.359,-1.198,15.756,0.0,118.0
76857,-0.139,-1.211,0.072,-10.137,5.626,-23.115,0.0,114.0
76919,-0.148,-1.231,0.194,-16.130,12.626,-43.878,0.0,172.0
76980,-0.167,-0.913,0.267,-17.214,-19.084,-58.969,0.0,154.0
77043,0.122,-0.705,0.050,2.443,28.145,-5.382,0.0,0.0
