Timestamp(ms),AccelX(g),AccelY(g),AccelZ(g),GyroX(deg/s),GyroY(deg/s),GyroZ(deg/s),DistanceLeft(cm),DistanceRight(cm)
31906,-0.206,-0.865,0.177,-17.084,8.183,-19.275,0.0,160.0
31964,-0.192,-0.911,0.132,-20.435,-7.771,-22.748,0.0,151.0
32021,-0.206,-0.967,0.121,-19.847,-15.427,-34.145,0.0,153.0
32080,-0.354,-0.974,0.226,-21.053,-35.527,-46.137,0.0,184.0
32141,-0.381,-0.919,0.225,-14.954,-77.832,-42.313,0.0,0.0
32188,-0.294,-0.945,0.130,-11.840,-113.061,-26.061,0.0,0.0
32234,-0.091,-1.002,-0.008,-1.977,-75.443,-4.733,0.0,0.0
32283,-0.156,-0.961,0.073,-2.786,-15.573,15.053,0.0,0.0
32329,-0.266,-1.136,0.095,2.328,6.588,23.580,0.0,0.0
32375,-0.458,-1.387,0.179,6.214,-24.000,12.840,0.0,0.0
32421,-0.315,-1.238,0.069,24.794,-62.802,7.504,0.0,0.0
32468,-0.131,-0.764,0.064,25.664,-55.038,48.618,0.0,0.0
32515,-0.276,-1.094,0.092,11.679,-61.160,79.771,0.0,0.0
32574,-0.243,-1.237,0.019,20.130,-94.260,81.664,0.0,0.0
32621,-0.118,-0.989,-0.027,24.198,-84.389,81.962,0.0,0.0
32664,-0.106,-0.972,-0.045,21.053,-56.000,85.771,0.0,145.0
32723,-0.162,-0.937,-0.003,17.756,-47.603,88.908,0.0,139.0
32782,-0.064,-0.833,-0.054,17.924,-25.267,83.137,0.0,168.0
32840,-0.122,-0.780,0.007,3.954,4.595,61.679,0.0,160.0
32896,-0.180,-0.845,0.069,-5.992,11.145,26.695,0.0,110.0
32952,-0.254,-1.061,0.139,-15.779,0.687,-24.069,0.0,142.0
33010,-0.229,-1.326,0.137,-19.779,0.534,-68.603,0.0,167.0
33069,-0.184,-1.092,0.220,-25.137,22.847,-98.916,0.0,165.0
33129,-0.208,-0.937,0.307,-26.901,26.519,-64.046,0.0,187.0
33187,-0.194,-1.011,0.231,-10.351,13.504,-31.244,0.0,167.0
33250,-0.191,-0.987,0.155,-5.969,30.336,-24.679,0.0,190.0
33310,-0.193,-0.888,0.126,-0.214,52.397,-23.336,0.0,194.0
33370,-0.336,-0.848,0.170,-5.786,51.183,-39.763,0.0,182.0
33430,-0.431,-0.812,0.251,-8.244,1.824,-57.656,0.0,200.0
33489,-0.451,-0.938,0.244,-10.939,-61.214,-64.511,0.0,197.0
33550,-0.296,-0.967,0.148,-8.229,-72.672,-49.412,0.0,196.0
33610,-0.205,-0.989,0.106,-5.160,-42.733,-13.008,0.0,0.0
33657,-0.194,-1.034,0.076,-6.366,-7.336,31.458,0.0,0.0
33724,-0.211,-1.281,0.040,-5.542,0.092,44.710,0.0,0.0
33770,-0.293,-1.218,0.125,7.084,10.733,52.076,0.0,0.0
33817,-0.271,-0.840,0.160,4.221,-19.275,79.718,0.0,0.0
33863,-0.416,-1.059,0.160,-9.802,-76.809,84.786,0.0,0.0
33910,-0.202,-1.202,-0.119,3.893,-110.779,70.260,0.0,0.0
33956,-0.144,-0.967,-0.087,6.366,-86.641,50.901,0.0,0.0
34003,-0.169,-0.956,-0.050,3.557,-69.405,40.359,0.0,0.0
34050,-0.137,-0.912,-0.064,14.702,-62.527,39.557,0.0,0.0
34097,-0.107,-0.847,-0.070,11.313,-46.160,36.221,0.0,0.0
34146,-0.189,-0.830,-0.008,-0.435,-41.924,27.855,0.0,0.0
34190,-0.146,-0.932,-0.039,0.053,-44.382,15.038,0.0,164.0
34247,-0.123,-1.012,-0.020,2.237,-22.779,0.481,0.0,139.0
34308,-0.164,-1.247,0.016,-0.099,15.046,-33.221,0.0,0.0
34355,-0.271,-1.248,0.150,-10.473,41.718,-74.947,0.0,0.0
34401,-0.357,-1.122,0.285,-14.313,37.901,-86.733,0.0,0.0
34448,-0.299,-0.590,0.376,-19.893,-9.511,-51.282,0.0,0.0
34494,-0.250,-0.684,0.285,-24.015,-55.969,5.664,0.0,0.0
34597,-0.024,-1.105,-0.017,-13.008,-37.954,19.550,0.0,0.0
34648,-0.152,-0.849,0.172,-18.427,28.412,20.282,0.0,0.0
34695,-0.323,-0.862,0.289,-22.511,11.260,17.985,0.0,0.0
34741,-0.398,-0.901,0.295,-22.733,-51.237,2.595,0.0,0.0
34788,-0.303,-0.899,0.215,-20.511,-92.496,-14.382,0.0,0.0
34834,-0.227,-0.969,0.139,-16.718,-94.977,-25.931,0.0,0.0
34881,-0.129,-0.947,0.088,-3.641,-64.534,-24.802,0.0,0.0
34928,-0.152,-1.001,0.116,0.382,-26.870,-15.061,0.0,0.0
34974,-0.265,-1.011,0.185,0.336,-27.473,-2.412,0.0,0.0
35021,-0.286,-1.188,0.189,-3.985,-36.351,0.305,0.0,0.0
35089,-0.286,-1.325,0.164,5.046,-34.359,-3.443,0.0,0.0
35135,-0.168,-0.879,0.112,20.145,-25.290,11.351,0.0,0.0
35182,-0.293,-1.012,0.181,12.939,-32.214,32.809,0.0,0.0
35229,-0.241,-1.093,0.064,17.229,-67.191,44.168,0.0,0.0
35275,-0.130,-0.931,0.016,15.740,-55.298,57.672,0.0,0.0
35322,-0.130,-0.898,0.015,13.634,-31.313,65.489,0.0,0.0
35369,-0.168,-0.861,0.041,13.252,-22.511,69.763,0.0,0.0
35417,-0.179,-0.845,0.071,4.427,-25.603,69.168,0.0,0.0
35463,-0.165,-0.857,0.047,-2.687,-26.679,63.206,0.0,0.0
35513,-0.149,-0.862,0.049,-8.779,-18.374,45.847,0.0,0.0
35560,-0.128,-0.944,0.055,-10.489,2.954,22.702,0.0,0.0
35606,-0.263,-1.215,0.133,-18.565,12.168,-15.878,0.0,0.0
35653,-0.246,-1.324,0.154,-16.427,8.702,-56.832,0.0,0.0
35700,-0.268,-1.312,0.274,-20.237,7.733,-77.893,0.0,0.0
35747,-0.143,-0.814,0.306,-19.466,2.137,-66.740,0.0,0.0
35794,-0.038,-0.788,0.228,-10.641,6.489,-10.229,0.0,0.0
35841,-0.138,-1.065,0.144,0.969,30.710,1.832,0.0,0.0
35888,-0.185,-0.994,0.126,6.954,54.351,-22.885,0.0,0.0
35955,-0.249,-0.814,0.179,7.809,55.832,-32.221,0.0,0.0
36002,-0.335,-0.833,0.224,-0.344,19.733,-43.282,0.0,0.0
36049,-0.339,-0.852,0.230,-4.473,-14.237,-51.931,0.0,0.0
36096,-0.241,-0.878,0.194,-6.634,-26.626,-52.420,0.0,0.0
36143,-0.193,-0.895,0.159,-7.878,-11.794,-42.145,0.0,0.0
36190,-0.261,-0.958,0.240,-8.969,1.321,-25.855,0.0,0.0
36237,-0.349,-1.121,0.269,-7.496,-17.298,-16.504,0.0,0.0
36284,-0.290,-1.187,0.245,-6.359,-34.260,-2.985,0.0,0.0
36331,-0.264,-1.273,0.224,-2.099,-30.443,10.649,0.0,0.0
36381,-0.271,-1.116,0.205,12.031,-46.221,28.557,0.0,0.0
36428,-0.170,-0.834,0.121,17.313,-45.115,60.145,0.0,0.0
36475,-0.269,-1.075,0.083,12.008,-52.420,68.198,0.0,0.0
36521,-0.231,-1.103,0.018,18.137,-73.023,66.878,0.0,0.0
36569,-0.155,-0.968,-0.040,17.137,-72.542,58.786,0.0,0.0
36616,-0.111,-0.933,-0.050,16.176,-52.756,58.038,0.0,0.0
36663,-0.110,-0.863,-0.042,13.794,-34.672,59.328,0.0,0.0
36710,-0.093,-0.796,-0.029,4.313,-19.992,62.672,0.0,0.0
36757,-0.147,-0.843,0.001,-1.481,-7.282,59.733,0.0,0.0
36825,-0.174,-0.939,0.051,-8.511,-7.328,37.481,0.0,0.0
36872,-0.199,-1.149,0.069,-15.267,5.252,-6.191,0.0,0.0
36919,-0.193,-1.380,0.056,-23.023,15.573,-52.344,0.0,0.0
36966,-0.286,-1.314,0.250,-33.809,32.427,-91.863,0.0,0.0
37070,-0.155,-0.598,0.392,-20.840,-21.740,-39.153,0.0,0.0
37117,0.004,-0.958,0.098,1.534,2.298,17.366,0.0,0.0
37165,-0.102,-1.017,0.091,7.496,57.023,12.969,0.0,0.0
37212,-0.189,-0.972,0.090,13.405,75.725,-6.115,0.0,0.0
37259,-0.307,-0.802,0.190,9.130,67.008,-23.450,0.0,0.0
37309,-0.398,-0.831,0.230,-2.176,13.183,-47.870,0.0,0.0
37356,-0.369,-0.854,0.229,-2.069,-35.221,-63.214,0.0,0.0
37403,-0.237,-0.952,0.135,-3.328,-56.473,-63.870,0.0,0.0
37450,-0.130,-0.966,0.130,-2.863,-22.550,-49.374,0.0,0.0
37497,-0.174,-1.163,0.129,-1.611,9.618,-27.107,0.0,0.0
37544,-0.252,-1.166,0.227,-1.038,24.634,-1.008,0.0,0.0
37592,-0.362,-1.370,0.252,-7.412,4.802,14.840,0.0,0.0
37639,-0.333,-1.173,0.206,8.809,-35.290,28.214,0.0,0.0
37686,-0.189,-0.625,0.155,11.382,-53.588,60.847,0.0,0.0
37753,-0.308,-1.004,0.120,1.282,-70.641,73.977,0.0,0.0
37801,-0.150,-1.100,-0.069,20.397,-92.198,77.107,0.0,0.0
37849,-0.076,-1.000,-0.104,9.527,-57.939,71.389,0.0,0.0
37896,-0.198,-0.951,0.019,-1.840,-53.931,73.260,0.0,0.0
37943,-0.059,-0.907,-0.094,5.107,-48.847,76.153,0.0,0.0
37990,-0.097,-0.838,-0.032,-1.710,-15.718,67.588,0.0,0.0
38033,-0.181,-0.851,0.052,-8.489,-2.359,43.954,0.0,128.0
38094,-0.207,-0.956,0.082,-5.099,-2.626,16.145,0.0,0.0
38141,-0.199,-1.175,0.109,-4.809,7.489,-26.015,0.0,0.0
38209,-0.247,-1.263,0.191,-15.679,19.229,-63.412,0.0,0.0
38257,-0.332,-1.307,0.287,-23.573,-1.061,-93.519,0.0,0.0
38327,-0.139,-0.488,0.329,-22.229,-26.733,-50.305,0.0,0.0
38374,-0.113,-0.976,0.109,-8.374,-6.412,-3.771,0.0,0.0
38420,-0.134,-1.103,0.060,1.664,32.023,-25.069,0.0,0.0
38466,-0.149,-0.908,0.089,4.359,62.756,-33.618,0.0,0.0
38512,-0.276,-0.806,0.202,-2.305,64.534,-31.298,0.0,0.0
38558,-0.295,-0.890,0.170,-1.687,31.992,-33.412,0.0,0.0
38604,-0.350,-0.821,0.249,-3.214,12.779,-44.115,0.0,0.0
38653,-0.306,-0.917,0.198,-6.573,-22.130,-48.130,0.0,0.0
38701,-0.223,-0.882,0.166,-0.313,-17.824,-38.840,0.0,0.0
38747,-0.257,-1.017,0.172,-5.069,-14.779,-25.672,0.0,0.0
38793,-0.207,-1.101,0.139,-4.023,-5.802,-5.450,0.0,0.0
38839,-0.308,-1.215,0.204,-14.855,-9.298,16.687,0.0,0.0
38886,-0.312,-1.350,0.210,-7.969,-23.443,27.290,0.0,0.0
38932,-0.288,-1.045,0.210,10.061,-41.176,45.229,0.0,0.0
38978,-0.261,-0.963,0.163,10.183,-77.786,73.313,0.0,0.0
39024,-0.147,-1.140,0.019,14.504,-83.206,89.802,0.0,0.0
39073,-0.052,-1.020,-0.056,16.573,-55.664,105.931,0.0,0.0
39134,-0.091,-0.956,-0.037,12.466,-16.344,106.824,0.0,197.0
39191,-0.222,-0.899,0.039,8.702,-14.412,88.939,0.0,141.0
39247,-0.113,-0.840,-0.020,3.527,-26.382,71.099,0.0,137.0
39303,-0.135,-0.788,0.031,-4.015,-1.458,42.015,0.0,120.0
39360,-0.214,-0.890,0.068,-6.076,3.977,-9.573,0.0,138.0
39416,-0.258,-1.105,0.131,-10.160,1.603,-67.557,0.0,136.0
39475,-0.273,-1.514,0.130,-9.275,2.092,-122.565,0.0,162.0
39535,-0.329,-1.416,0.296,-20.198,8.702,-148.511,0.0,0.0
39642,-0.061,-0.763,0.150,1.382,-6.901,6.962,0.0,0.0
39688,-0.075,-1.004,-0.009,10.282,63.412,22.985,0.0,0.0
39734,-0.211,-0.972,0.048,12.947,93.244,9.603,0.0,0.0
39794,-0.305,-0.856,0.133,10.252,82.473,-9.023,0.0,0.0
39841,-0.402,-0.798,0.227,-3.786,30.931,-29.527,0.0,0.0
39887,-0.414,-0.882,0.248,-11.145,-28.870,-44.023,0.0,0.0
39934,-0.260,-0.887,0.166,-11.664,-54.916,-43.008,0.0,0.0
39981,-0.137,-0.840,0.103,-15.061,-27.168,-25.397,0.0,0.0
40027,-0.298,-1.050,0.222,-23.168,-14.740,-9.015,0.0,0.0
40094,-0.375,-1.350,0.237,-17.779,-42.733,-2.725,0.0,0.0
40155,-0.252,-1.339,0.149,-5.824,-45.092,11.130,0.0,0.0
40201,-0.157,-0.935,0.063,19.565,-37.718,33.916,0.0,0.0
40247,-0.168,-0.865,0.013,19.038,-21.458,60.382,0.0,182.0
40300,-0.287,-1.061,-0.004,10.802,-40.145,58.168,0.0,85.0
40354,-0.162,-0.944,-0.118,4.435,-80.740,57.832,0.0,96.0
40409,-0.126,-0.936,-0.091,-3.038,-65.130,56.802,0.0,77.0
40461,-0.106,-0.958,-0.117,4.542,-50.000,52.740,0.0,69.0
40515,-0.102,-0.832,-0.064,3.504,-19.718,41.046,0.0,79.0
40571,-0.188,-0.895,0.012,-1.687,-9.687,26.046,0.0,87.0
40627,-0.223,-0.977,0.083,-0.992,-20.427,4.405,0.0,95.0
40681,-0.224,-1.207,0.088,-2.412,-24.244,-20.313,0.0,105.0
40736,-0.196,-1.351,0.092,-4.824,-15.328,-49.733,0.0,105.0
40792,-0.229,-1.326,0.187,-17.344,7.122,-63.076,0.0,109.0
40848,-0.167,-0.595,0.267,-15.672,-2.145,-37.817,0.0,113.0
40903,-0.166,-0.671,0.194,-8.008,-3.107,16.634,0.0,113.0
40960,-0.225,-1.043,0.144,-1.275,-9.840,16.527,0.0,133.0
41020,-0.145,-1.034,0.058,1.710,-1.718,-0.817,0.0,136.0
41077,-0.134,-0.815,0.063,-3.244,35.092,0.924,0.0,139.0
41134,-0.364,-0.825,0.212,-16.389,12.344,-15.901,0.0,125.0
41190,-0.311,-0.837,0.169,-15.817,-49.763,-36.160,0.0,133.0
41248,-0.172,-0.893,0.061,-17.794,-47.069,-38.840,0.0,152.0
41307,-0.218,-1.067,0.116,-14.580,-12.000,-36.672,0.0,156.0
41367,-0.273,-1.165,0.185,-14.947,-14.405,-26.397,0.0,0.0
41425,-0.242,-1.395,0.152,-10.473,-12.336,-3.328,0.0,166.0
41484,-0.213,-0.988,0.124,12.527,-17.420,23.038,0.0,161.0
41545,-0.327,-0.942,0.168,0.099,-49.557,54.321,0.0,153.0
41600,-0.147,-1.042,-0.038,11.053,-76.779,68.954,0.0,84.0
41655,-0.094,-0.937,-0.065,5.008,-52.824,74.901,0.0,116.0
41709,-0.084,-0.941,-0.066,9.855,-15.458,79.328,0.0,87.0
41763,-0.174,-0.857,0.006,7.450,-4.901,66.611,0.0,92.0
41819,-0.154,-0.895,-0.028,9.008,-1.359,37.359,0.0,99.0
41874,-0.208,-0.869,0.037,7.832,2.901,-1.122,0.0,101.0
41929,-0.138,-1.055,0.001,8.382,11.244,-25.496,0.0,109.0
41985,-0.242,-1.256,0.117,-0.641,17.863,-53.191,0.0,110.0
42044,-0.251,-1.398,0.181,-5.702,20.000,-71.092,0.0,114.0
42099,-0.281,-0.907,0.308,-11.901,-2.489,-75.817,0.0,118.0
42157,0.014,-0.520,0.158,-0.519,1.305,11.771,0.0,129.0
42213,-0.147,-0.945,0.084,-2.832,36.008,40.710,0.0,126.0
42270,-0.217,-1.048,0.053,4.931,48.763,15.260,0.0,150.0
42328,-0.170,-0.817,0.060,-1.641,44.672,-5.115,0.0,137.0
42428,-0.359,-0.849,0.206,-25.557,-6.191,-44.191,0.0,145.0
42487,-0.263,-0.917,0.154,-23.153,-25.107,-51.450,0.0,173.0
42546,-0.273,-1.029,0.163,-19.435,-16.374,-40.939,0.0,145.0
42608,-0.231,-1.190,0.129,-11.397,-9.000,-28.252,0.0,172.0
42667,-0.253,-1.254,0.144,-1.687,18.794,-9.885,0.0,164.0
42727,-0.297,-1.242,0.134,19.687,20.847,1.580,0.0,181.0
42785,-0.188,-0.691,0.135,21.649,13.489,43.511,0.0,174.0
42845,-0.338,-1.132,0.086,9.015,-27.130,53.511,0.0,168.0
42905,-0.134,-0.968,-0.031,14.954,-45.061,51.618,0.0,190.0
42964,-0.108,-0.906,-0.009,14.366,-9.305,51.443,0.0,174.0
43025,-0.135,-0.860,0.004,20.687,12.313,51.290,0.0,0.0
43075,-0.205,-0.866,0.058,12.374,16.656,37.824,0.0,0.0
43126,-0.168,-0.872,0.028,14.832,19.603,21.351,0.0,23.0
43186,-0.199,-0.957,0.062,10.168,23.748,-2.634,0.0,183.0
43247,-0.286,-1.226,0.109,1.885,21.771,-36.634,0.0,0.0
43294,-0.272,-1.475,0.099,1.603,7.527,-80.237,0.0,0.0
43331,-0.325,-1.319,0.231,-6.359,8.405,-98.687,0.0,35.0
43383,-0.072,-0.720,0.148,-3.481,9.145,-74.397,0.0,40.0
43440,-0.091,-0.557,0.134,-1.504,34.969,3.580,0.0,70.0
43492,-0.135,-0.897,0.021,1.977,34.611,25.924,0.0,43.0
43547,-0.127,-1.053,-0.044,12.237,63.565,13.160,0.0,55.0
43603,-0.181,-0.865,0.045,1.366,71.863,-4.573,0.0,51.0
43665,-0.311,-0.824,0.161,-8.405,53.206,-21.504,0.0,0.0
43712,-0.348,-0.932,0.191,-11.282,-13.710,-58.000,0.0,0.0
43759,-0.238,-0.910,0.159,-10.450,-25.176,-65.122,0.0,0.0
43806,-0.210,-0.973,0.167,-13.214,-13.885,-60.130,0.0,0.0
43853,-0.248,-1.172,0.195,-5.847,-3.107,-43.000,0.0,0.0
43900,-0.253,-1.287,0.182,-5.145,-10.664,-25.473,0.0,0.0
43940,-0.287,-1.415,0.188,2.328,-3.786,-14.634,0.0,68.0
43997,-0.317,-1.249,0.171,23.359,-20.740,-6.229,0.0,77.0
44051,-0.166,-0.725,0.141,34.351,-30.084,37.191,0.0,77.0
44105,-0.181,-1.013,0.005,28.405,-33.611,67.389,0.0,80.0
44160,-0.104,-0.973,-0.059,29.000,-23.588,87.145,0.0,79.0
44214,-0.167,-0.964,-0.014,20.328,-10.573,86.656,0.0,86.0
44275,-0.153,-0.962,-0.028,20.733,-5.275,83.565,0.0,0.0
44333,-0.122,-0.835,-0.036,2.969,-12.534,73.412,0.0,140.0
44389,-0.138,-0.848,-0.012,0.290,2.260,55.695,0.0,117.0
44446,-0.173,-0.883,0.041,-7.344,9.710,21.359,0.0,132.0
44505,-0.290,-1.163,0.153,-12.489,4.046,-28.649,0.0,104.0
44563,-0.301,-1.486,0.134,-5.878,-5.527,-89.458,0.0,145.0
44621,-0.300,-1.286,0.305,-13.092,-12.916,-126.107,0.0,157.0
44681,0.012,-0.565,0.236,-3.397,-13.214,-38.458,0.0,163.0
44740,-0.034,-0.929,0.055,3.168,38.198,27.344,0.0,168.0
44801,-0.188,-0.953,0.073,8.779,87.137,10.985,0.0,182.0
44859,-0.294,-0.844,0.112,7.550,68.718,-13.771,0.0,155.0
44919,-0.386,-0.821,0.195,-7.664,19.053,-47.511,0.0,196.0
44981,-0.360,-0.887,0.188,-10.962,-44.328,-74.733,0.0,0.0
45045,-0.213,-0.953,0.151,-10.855,-49.176,-67.115,0.0,0.0
45093,-0.226,-1.156,0.213,-7.107,-17.122,-33.267,0.0,0.0
45137,-0.205,-1.094,0.206,-2.305,-10.099,1.511,0.0,157.0
45241,-0.347,-1.362,0.276,2.435,-18.748,38.191,0.0,188.0
45300,-0.139,-0.814,0.130,26.481,-15.656,49.237,0.0,171.0
45366,-0.354,-1.171,0.131,17.863,-43.397,55.809,0.0,179.0
45422,-0.166,-1.033,-0.002,27.015,-79.832,55.359,0.0,131.0
45478,-0.042,-0.916,-0.061,15.786,-43.527,68.198,0.0,120.0
45535,-0.144,-0.910,0.011,11.901,-13.992,78.076,0.0,138.0
45594,-0.159,-0.859,0.025,5.595,-19.435,69.695,0.0,135.0
45648,-0.104,-0.848,-0.022,1.977,2.038,47.405,0.0,103.0
45704,-0.138,-0.907,0.016,-0.847,22.481,17.359,0.0,105.0
45758,-0.237,-1.127,0.065,-3.763,35.893,-21.992,0.0,107.0
45814,-0.294,-1.265,0.131,-14.626,25.031,-79.107,0.0,133.0
45871,-0.458,-1.393,0.325,-32.244,-15.252,-126.435,0.0,131.0
45929,-0.136,-0.693,0.287,-20.305,-66.252,-85.718,196.0,164.0
45985,0.100,-0.753,0.101,-13.824,-8.298,17.473,192.0,143.0
46046,-0.136,-1.101,0.068,-3.145,81.847,22.351,190.0,155.0
46105,-0.269,-0.916,0.161,12.511,83.023,-3.176,189.0,194.0
46162,-0.292,-0.777,0.183,4.519,52.679,-20.885,186.0,164.0
46222,-0.361,-0.837,0.231,-4.664,9.221,-41.969,184.0,0.0
46279,-0.186,-0.931,0.111,1.840,-2.321,-51.832,181.0,174.0
46339,-0.206,-0.944,0.164,-6.031,22.542,-44.351,178.0,193.0
46397,-0.329,-1.141,0.240,-6.023,12.695,-26.969,176.0,0.0
46455,-0.311,-1.235,0.209,-7.519,-26.046,-10.893,173.0,184.0
46513,-0.348,-1.452,0.208,-0.519,-45.061,-0.603,166.0,178.0
46573,-0.125,-0.728,0.141,19.786,-42.969,44.061,158.0,195.0
46626,-0.240,-1.020,0.082,12.076,-37.145,70.153,153.0,131.0
46684,-0.133,-1.019,-0.043,19.450,-55.038,81.779,0.0,139.0
46740,-0.095,-0.971,-0.058,12.748,-19.817,80.374,0.0,136.0
46797,-0.180,-0.960,0.032,13.603,-7.397,71.824,0.0,134.0
46853,-0.090,-0.819,-0.031,15.710,6.863,61.802,0.0,121.0
46909,-0.199,-0.886,0.048,5.939,18.710,37.214,0.0,119.0
46964,-0.197,-0.916,0.059,6.504,10.382,1.626,0.0,118.0
47024,-0.211,-1.167,0.063,-1.031,14.832,-33.840,0.0,133.0
47080,-0.271,-1.302,0.130,-5.397,12.901,-78.412,0.0,131.0
47139,-0.333,-1.328,0.279,-12.290,0.092,-105.863,0.0,174.0
47196,-0.190,-0.729,0.298,-8.695,-23.206,-85.374,194.0,141.0
47253,-0.011,-0.711,0.127,3.649,7.115,3.038,190.0,149.0
47309,-0.140,-1.029,0.065,4.832,62.786,18.374,189.0,146.0
47368,-0.221,-0.907,0.112,10.084,77.214,9.290,0.0,164.0
47426,-0.286,-0.779,0.173,-0.786,57.595,0.160,0.0,169.0
47484,-0.382,-0.843,0.232,-11.687,6.397,-22.611,0.0,163.0
47546,-0.281,-0.867,0.185,-14.603,-42.672,-42.168,0.0,160.0
47605,-0.175,-0.928,0.120,-15.099,-27.733,-37.527,0.0,181.0
47666,-0.277,-1.155,0.200,-15.947,-15.794,-29.656,0.0,195.0
47726,-0.225,-1.289,0.178,-8.244,-2.473,-16.740,0.0,0.0
47773,-0.341,-1.448,0.225,2.198,-13.557,3.443,0.0,0.0
47819,-0.198,-0.833,0.190,22.092,-26.336,34.573,0.0,0.0
47877,-0.222,-0.775,0.167,8.053,-42.748,64.908,0.0,141.0
47934,-0.239,-1.141,0.049,15.053,-51.580,69.496,0.0,145.0
47991,-0.181,-0.975,0.014,18.275,-64.115,53.557,0.0,147.0
48046,-0.104,-0.927,-0.017,19.733,-38.252,53.160,0.0,32.0
48140,-0.103,-0.876,-0.015,10.771,-1.702,55.557,0.0,41.0
48191,-0.125,-0.906,-0.018,10.473,18.160,42.977,0.0,46.0
48243,-0.152,-0.907,0.049,6.321,34.137,20.115,0.0,53.0
48296,-0.216,-1.186,0.081,-1.954,36.489,-13.099,0.0,57.0
48349,-0.330,-1.301,0.234,-8.511,21.634,-60.618,0.0,59.0
48400,-0.368,-1.459,0.270,-9.840,-0.802,-107.863,176.0,60.0
48450,-0.148,-0.493,0.360,-7.977,-14.183,-81.855,172.0,41.0
48499,-0.011,-0.698,0.139,2.802,-0.115,-1.183,170.0,40.0
48552,-0.134,-1.067,0.067,9.275,43.511,11.389,167.0,45.0
48602,-0.212,-1.006,0.084,6.137,63.885,-12.328,165.0,44.0
48654,-0.236,-0.849,0.122,3.412,57.344,-20.221,0.0,50.0
48711,-0.322,-0.794,0.221,-7.977,34.031,-31.359,0.0,78.0
48763,-0.346,-0.866,0.230,-12.351,-16.786,-51.511,0.0,50.0
48820,-0.222,-0.883,0.176,-13.969,-27.702,-53.031,0.0,61.0
48869,-0.180,-0.985,0.176,-14.328,-5.740,-38.145,153.0,54.0
48919,-0.265,-1.198,0.211,-9.756,9.855,-26.008,150.0,58.0
48972,-0.240,-1.231,0.205,-6.786,7.985,-7.908,148.0,62.0
49022,-0.300,-1.439,0.242,0.053,22.099,1.527,146.0,69.0
49076,-0.261,-0.972,0.234,20.855,-0.779,24.740,0.0,74.0
49130,-0.278,-0.718,0.245,8.824,-26.092,64.145,0.0,85.0
49182,-0.347,-1.120,0.133,16.466,-72.985,68.458,0.0,61.0
49241,-0.207,-1.030,-0.002,19.099,-104.176,57.221,0.0,100.0
49297,-0.085,-0.985,-0.058,15.672,-74.641,54.702,0.0,120.0
49353,-0.026,-0.898,-0.069,19.382,-31.725,63.405,0.0,114.0
49404,-0.086,-0.836,-0.026,8.954,8.939,68.855,0.0,28.0
49461,-0.197,-0.884,0.048,-2.176,11.023,53.626,0.0,71.0
49514,-0.169,-0.915,0.070,-8.115,4.382,28.275,0.0,75.0
49570,-0.212,-1.195,0.083,-9.504,9.908,-10.229,0.0,124.0
49625,-0.232,-1.326,0.152,-9.504,26.618,-64.221,0.0,84.0
49676,-0.354,-1.335,0.344,-17.901,23.542,-109.206,0.0,41.0
49737,-0.125,-0.554,0.357,-8.679,1.969,-75.282,0.0,146.0
49796,-0.116,-0.853,0.206,1.763,4.855,7.244,0.0,142.0
49853,-0.125,-1.035,0.063,4.351,40.107,1.763,0.0,156.0
49911,-0.171,-0.901,0.059,8.870,64.893,-19.557,0.0,159.0
49968,-0.277,-0.798,0.146,-1.290,55.664,-36.015,0.0,51.0
50023,-0.335,-0.839,0.211,-6.618,21.153,-54.000,0.0,54.0
50076,-0.283,-0.895,0.219,-11.397,-13.031,-60.084,0.0,56.0
50132,-0.205,-0.948,0.213,-12.901,-14.794,-46.702,0.0,58.0
50186,-0.192,-1.186,0.200,-9.748,-7.771,-24.313,0.0,62.0
50242,-0.209,-1.196,0.263,-6.405,17.588,-4.336,0.0,67.0
50295,-0.372,-1.535,0.295,5.038,6.275,-1.931,0.0,73.0
50350,-0.219,-0.856,0.216,32.511,-9.076,18.267,0.0,78.0
50404,-0.345,-0.867,0.256,16.359,-40.679,47.458,0.0,86.0
50462,-0.167,-1.129,0.021,30.618,-87.901,68.076,0.0,96.0
50518,-0.052,-0.935,-0.082,26.198,-53.756,80.878,0.0,106.0
50574,-0.192,-0.966,0.031,17.076,-21.931,83.107,0.0,114.0
50630,-0.164,-0.867,0.017,15.076,-43.802,84.710,0.0,123.0
50686,-0.114,-0.866,-0.008,4.321,-33.435,83.099,0.0,123.0
50744,-0.153,-0.885,0.024,-5.206,-16.191,65.718,0.0,138.0
50800,-0.145,-1.061,0.079,-10.763,-4.504,34.244,0.0,111.0
50902,-0.221,-1.339,0.211,-22.344,26.450,-72.198,0.0,149.0
50962,-0.354,-0.918,0.430,-31.832,6.649,-129.573,0.0,130.0
51019,-0.123,-0.628,0.297,-18.328,-46.534,-67.038,0.0,134.0
51077,-0.055,-0.983,0.119,0.702,-11.099,-23.611,0.0,134.0
51134,-0.101,-1.080,0.047,-0.779,60.122,-29.863,0.0,140.0
51193,-0.203,-0.884,0.151,3.046,81.206,-25.183,0.0,163.0
51254,-0.355,-0.840,0.272,-6.580,50.649,-23.580,0.0,0.0
51312,-0.379,-0.862,0.296,-9.122,-19.855,-36.473,0.0,148.0
51372,-0.190,-0.935,0.165,-8.695,-36.382,-32.893,0.0,176.0
51432,-0.226,-1.008,0.242,-11.374,-18.183,-17.924,0.0,182.0
51493,-0.178,-1.040,0.193,-2.779,-4.122,1.832,0.0,154.0
51552,-0.324,-1.181,0.264,-9.939,-22.679,12.191,0.0,151.0
51610,-0.341,-1.295,0.163,12.504,-74.031,6.145,0.0,159.0
51668,-0.183,-0.830,0.078,15.405,-107.931,36.939,0.0,148.0
51727,-0.200,-1.169,-0.052,12.130,-97.679,43.176,0.0,144.0
51784,-0.204,-1.007,-0.076,7.603,-124.985,43.412,0.0,138.0
51843,-0.159,-0.932,-0.096,2.710,-118.145,46.847,0.0,157.0
51900,-0.155,-0.921,-0.110,3.450,-120.611,49.832,0.0,136.0
51958,-0.090,-0.964,-0.150,0.107,-101.634,49.771,0.0,142.0
52020,-0.074,-1.025,-0.108,-2.931,-61.252,41.374,0.0,146.0
52078,-0.117,-0.992,0.014,-5.626,-31.023,31.450,0.0,150.0
52136,-0.169,-1.051,0.113,-8.870,-23.229,26.214,0.0,157.0
52196,-0.180,-1.217,0.167,-16.748,-29.198,14.206,0.0,159.0
52254,-0.265,-1.251,0.266,-29.282,-40.237,-11.542,0.0,164.0
52314,-0.122,-0.638,0.271,-16.809,-68.954,10.031,0.0,164.0
52371,-0.090,-0.769,0.185,-4.870,-50.641,44.580,0.0,117.0
52427,-0.195,-1.228,0.104,3.977,-41.611,15.168,0.0,119.0
52487,-0.088,-1.051,0.056,1.496,-2.351,-20.374,0.0,120.0
52544,-0.220,-0.783,0.203,-10.458,13.733,-13.733,0.0,123.0
52606,-0.420,-0.925,0.276,-20.634,-57.992,-18.061,0.0,123.0
52662,-0.358,-0.967,0.159,-26.618,-136.504,-28.168,0.0,125.0
52718,-0.172,-1.010,0.021,-23.290,-136.763,-26.824,0.0,129.0
52770,-0.234,-0.936,0.107,-22.069,-116.191,-17.824,120.0,133.0
52823,-0.232,-0.900,0.084,-15.489,-133.916,-1.618,116.0,137.0
52874,-0.166,-0.865,0.034,-12.634,-126.824,21.832,109.0,143.0
52926,-0.143,-0.864,0.033,-12.382,-105.565,43.595,104.0,150.0
52981,-0.162,-1.027,-0.020,-12.847,-95.634,58.328,98.0,160.0
53035,-0.338,-1.426,-0.055,-16.840,-122.275,40.069,92.0,195.0
53089,-0.180,-1.030,-0.141,-0.557,-148.076,27.099,86.0,196.0
53142,-0.118,-1.043,-0.212,-13.412,-144.115,38.466,80.0,0.0
53195,-0.127,-1.044,-0.210,-13.611,-120.740,38.450,75.0,0.0
53256,-0.188,-1.019,-0.152,-14.878,-125.115,32.962,0.0,0.0
53316,-0.134,-1.054,-0.185,-10.053,-117.832,19.298,0.0,0.0
53377,-0.120,-1.010,-0.139,-7.832,-98.595,15.344,0.0,0.0
53439,-0.158,-1.067,-0.070,-2.908,-88.183,18.740,0.0,0.0
53486,-0.111,-1.030,-0.062,-2.336,-72.282,25.389,0.0,0.0
53532,-0.098,-1.027,-0.032,-3.290,-47.359,26.122,0.0,0.0
53578,-0.142,-0.993,0.016,-5.710,-44.802,29.931,0.0,0.0
53625,-0.106,-1.066,-0.001,-4.237,-41.137,31.748,0.0,0.0
53685,-0.105,-1.177,0.003,-3.656,-26.237,26.389,0.0,0.0
53788,-0.076,-1.020,0.045,-11.176,10.985,-9.221,0.0,0.0
53835,-0.097,-0.762,0.153,-11.656,14.275,-4.427,0.0,0.0
53881,-0.150,-0.752,0.216,-11.817,-21.809,1.733,0.0,0.0
53945,0.007,-0.993,0.035,-1.695,-38.870,0.481,0.0,0.0
53991,0.074,-1.158,0.037,-3.626,9.038,2.756,0.0,0.0
54037,-0.079,-1.031,0.186,-12.069,21.191,7.183,0.0,0.0
54084,-0.154,-0.942,0.239,-12.229,-8.626,4.710,0.0,0.0
54127,-0.099,-0.905,0.150,-7.855,-25.595,-8.901,0.0,150.0
54188,-0.064,-0.935,0.094,-5.679,-14.450,-23.527,0.0,0.0
54235,-0.099,-0.954,0.081,-3.695,14.695,-29.824,0.0,0.0
54281,-0.189,-0.940,0.140,-6.840,14.695,-32.565,0.0,0.0
54341,-0.180,-0.883,0.131,-1.916,12.962,-31.748,0.0,0.0
54405,-0.268,-1.003,0.181,-6.176,-0.473,-35.962,0.0,0.0
54451,-0.162,-1.095,0.095,0.275,10.000,-34.214,0.0,0.0
54498,-0.240,-1.222,0.152,-5.954,18.588,-24.397,0.0,0.0
54544,-0.207,-1.294,0.137,2.695,21.939,-12.321,0.0,0.0
54583,-0.267,-1.023,0.205,12.023,9.954,8.802,0.0,64.0
54635,-0.177,-0.694,0.176,16.260,-6.191,42.076,0.0,63.0
54691,-0.268,-0.942,0.193,6.534,-34.695,74.710,0.0,66.0
54745,-0.183,-1.181,0.017,14.710,-82.008,76.802,0.0,74.0
54797,-0.061,-1.134,-0.052,20.511,-62.298,68.435,0.0,64.0
54853,-0.035,-0.955,-0.036,18.344,-23.260,77.611,0.0,66.0
54909,-0.098,-0.893,0.011,8.718,-7.870,83.244,0.0,69.0
54965,-0.164,-0.912,0.057,-0.740,-13.397,66.718,0.0,100.0
55019,-0.111,-0.938,0.013,-0.031,-16.099,31.863,0.0,105.0
55073,-0.085,-0.956,0.014,2.000,7.832,-8.893,0.0,78.0
55127,-0.175,-1.135,0.090,-5.260,31.634,-46.198,0.0,80.0
55180,-0.268,-1.432,0.146,-9.115,20.076,-94.886,0.0,81.0
55230,-0.269,-1.309,0.271,-15.756,14.901,-128.237,132.0,81.0
55280,-0.148,-0.757,0.281,-14.840,-6.580,-106.802,131.0,82.0
55337,-0.052,-0.688,0.194,-5.046,-7.718,-30.580,0.0,83.0
55387,0.050,-0.988,-0.030,7.603,42.053,3.977,127.0,86.0
55441,-0.039,-0.980,-0.020,9.443,95.969,15.611,0.0,89.0
55497,-0.170,-0.855,0.086,1.710,113.573,13.000,0.0,128.0
55555,-0.326,-0.826,0.239,-10.427,65.038,-3.099,0.0,131.0
55609,-0.309,-0.867,0.226,-15.153,-5.443,-32.122,0.0,95.0
55662,-0.171,-0.924,0.142,-17.809,-26.153,-37.901,172.0,95.0
55715,-0.121,-0.960,0.133,-17.244,8.107,-30.534,168.0,99.0
55771,-0.212,-1.144,0.175,-16.580,7.282,-23.153,164.0,103.0
55825,-0.271,-1.394,0.237,-9.611,9.008,-15.626,182.0,104.0
55879,-0.141,-1.363,0.124,10.496,24.069,-4.092,176.0,107.0
55932,-0.144,-0.853,0.152,26.366,39.214,26.626,153.0,113.0
55982,-0.251,-0.774,0.200,18.977,9.046,66.771,148.0,41.0
56030,-0.220,-1.105,0.057,16.122,-46.641,78.061,146.0,44.0
56079,-0.121,-1.110,-0.058,18.069,-55.008,71.229,156.0,50.0
56129,-0.082,-1.015,-0.055,12.870,-44.092,62.695,149.0,58.0
56179,-0.069,-0.930,-0.045,17.168,-21.687,59.168,145.0,63.0
56231,-0.101,-0.814,-0.001,8.038,-7.603,51.214,141.0,70.0
56282,-0.130,-0.872,0.010,3.679,-6.168,32.366,139.0,75.0
56332,-0.158,-0.918,0.050,2.382,-6.878,5.931,133.0,80.0
56425,-0.132,-1.201,0.050,0.443,17.099,-40.229,125.0,90.0
56475,-0.266,-1.424,0.171,-10.618,18.389,-75.290,124.0,91.0
56530,-0.320,-1.356,0.271,-13.305,-3.527,-103.328,0.0,94.0
56581,-0.075,-0.657,0.255,-9.229,-22.405,-69.130,119.0,97.0
56631,-0.012,-0.727,0.152,-3.008,-5.046,-2.527,117.0,101.0
56681,0.021,-0.962,0.016,9.802,41.260,20.824,115.0,104.0
56740,-0.088,-0.988,0.015,12.504,90.458,14.481,0.0,107.0
56796,-0.202,-0.837,0.101,5.115,90.504,-1.260,0.0,110.0
56851,-0.368,-0.782,0.236,-13.748,34.137,-26.534,0.0,113.0
56907,-0.358,-0.898,0.210,-18.115,-54.359,-54.679,0.0,117.0
56964,-0.080,-0.914,0.084,-14.084,-43.519,-50.656,0.0,122.0
57021,-0.165,-1.019,0.185,-20.000,5.664,-27.351,0.0,127.0
57077,-0.226,-1.222,0.194,-9.458,4.473,-4.641,0.0,133.0
57135,-0.250,-1.383,0.202,-6.107,-0.580,7.550,0.0,139.0
57196,-0.186,-1.147,0.179,17.221,9.695,30.153,0.0,148.0
57254,-0.256,-0.881,0.229,24.725,-5.664,59.298,0.0,156.0
57308,-0.244,-1.107,0.099,27.374,-52.076,67.931,0.0,72.0
57367,-0.095,-0.954,-0.007,24.870,-55.305,71.389,0.0,174.0
57421,-0.120,-0.910,0.004,17.244,-28.191,70.840,0.0,86.0
57479,-0.129,-0.848,-0.020,17.511,-26.046,62.443,0.0,124.0
57539,-0.106,-0.818,-0.024,8.840,-16.038,47.565,0.0,0.0
57586,-0.144,-0.908,0.007,2.389,-3.427,14.481,0.0,0.0
57633,-0.169,-1.031,0.047,0.893,6.321,-14.748,0.0,0.0
57697,-0.204,-1.267,0.092,-7.679,13.267,-47.275,0.0,0.0
57758,-0.256,-1.373,0.158,-26.115,6.153,-90.786,0.0,0.0
57819,-0.265,-1.010,0.304,-40.023,-26.397,-93.542,0.0,0.0
57876,0.022,-0.610,0.173,-26.458,-45.038,-15.542,0.0,130.0
57933,0.101,-0.981,0.002,-5.672,32.916,10.718,0.0,132.0
57994,-0.105,-1.097,0.053,8.626,111.939,-3.695,0.0,0.0
58051,-0.242,-0.823,0.221,4.603,102.458,-1.702,0.0,139.0
58113,-0.413,-0.811,0.350,-9.504,26.466,-15.550,0.0,0.0
58173,-0.206,-0.881,0.154,-0.618,-33.908,-37.641,0.0,0.0
58237,-0.107,-0.912,0.089,-5.305,7.779,-40.267,0.0,0.0
58299,-0.240,-1.057,0.181,-4.137,27.389,-31.015,0.0,0.0
58359,-0.250,-1.254,0.168,-9.924,2.023,-19.519,0.0,0.0
58406,-0.233,-1.525,0.151,-7.275,-3.718,-9.924,0.0,0.0
58446,-0.150,-0.931,0.138,16.863,2.847,9.191,0.0,68.0
58500,-0.200,-0.593,0.214,14.924,-4.069,49.252,0.0,74.0
58554,-0.314,-1.126,0.152,9.336,-57.618,69.420,0.0,81.0
58608,-0.112,-1.065,-0.000,21.031,-74.397,75.954,0.0,86.0
58663,-0.022,-0.956,-0.071,16.809,-32.298,76.901,0.0,93.0
58722,-0.124,-0.947,-0.015,20.466,-1.229,76.023,0.0,99.0
58778,-0.165,-0.872,0.032,15.397,-2.198,60.153,0.0,104.0
58833,-0.130,-0.925,-0.002,12.870,1.023,34.565,0.0,110.0
58890,-0.132,-0.893,0.034,5.344,11.458,6.321,0.0,113.0
58946,-0.171,-1.025,0.082,-0.565,20.450,-22.115,0.0,118.0
59002,-0.263,-1.260,0.135,-10.740,11.420,-62.427,0.0,120.0
59060,-0.259,-1.357,0.140,-16.282,0.023,-107.847,0.0,123.0
59116,-0.177,-1.051,0.199,-23.473,-12.008,-110.710,0.0,126.0
59173,0.014,-0.650,0.182,-17.214,1.405,-34.160,0.0,128.0
59277,-0.096,-0.966,0.059,13.260,76.740,-5.023,0.0,132.0
59335,-0.200,-0.863,0.132,10.595,86.344,-2.603,0.0,135.0
59401,-0.280,-0.853,0.186,2.878,51.779,-12.053,0.0,138.0
59458,-0.326,-0.887,0.236,-2.954,6.534,-33.618,0.0,143.0
59515,-0.206,-0.907,0.171,-4.359,-8.763,-38.611,0.0,162.0
59574,-0.240,-1.094,0.224,-7.924,-5.649,-27.786,0.0,168.0
59633,-0.195,-1.344,0.153,-4.893,-4.099,-8.908,0.0,176.0
59693,-0.198,-1.405,0.168,-8.702,1.435,22.214,0.0,187.0
59752,-0.145,-0.815,0.160,15.229,8.031,53.023,0.0,191.0
59813,-0.319,-0.901,0.164,1.374,-30.656,73.557,0.0,175.0
59869,-0.209,-1.109,-0.028,11.069,-99.206,60.313,0.0,111.0
59924,-0.009,-0.943,-0.129,14.855,-62.786,50.221,0.0,117.0
59979,-0.140,-0.899,-0.027,7.748,-27.473,44.771,0.0,124.0
60036,-0.105,-0.898,-0.037,10.260,-34.107,40.466,0.0,129.0
60093,-0.053,-0.854,-0.040,0.679,-8.725,34.626,0.0,137.0
60149,-0.130,-0.989,0.041,-0.374,11.191,13.275,0.0,139.0
60206,-0.156,-1.275,0.071,5.229,25.168,-22.702,0.0,140.0
60266,-0.184,-1.333,0.136,-5.733,38.641,-64.221,0.0,144.0
60323,-0.450,-1.422,0.387,-22.115,-6.855,-96.687,0.0,154.0
60382,-0.020,-0.372,0.257,-1.344,-44.389,-43.145,0.0,157.0
60439,0.028,-0.788,0.079,0.756,-2.305,13.779,0.0,161.0
60497,0.022,-1.147,-0.062,16.931,73.290,8.038,0.0,163.0
60556,-0.172,-0.872,0.095,3.634,100.924,-6.450,0.0,161.0
60614,-0.343,-0.780,0.281,-11.481,50.214,-13.473,0.0,172.0
60674,-0.297,-0.889,0.197,-14.008,-44.496,-37.824,0.0,176.0
60732,-0.075,-0.902,0.091,-16.519,-29.565,-46.145,0.0,179.0
60795,-0.162,-1.008,0.166,-17.489,13.061,-38.023,0.0,0.0
60856,-0.294,-1.291,0.260,-13.130,3.450,-35.664,0.0,0.0
60916,-0.184,-1.397,0.196,-2.008,2.908,-23.092,0.0,196.0
60977,-0.190,-1.037,0.201,17.962,22.489,6.427,0.0,0.0
61036,-0.203,-0.715,0.206,23.290,2.031,56.977,0.0,0.0
61096,-0.306,-1.146,0.134,19.969,-54.305,74.214,0.0,193.0
61157,-0.085,-1.044,-0.065,24.634,-56.695,76.336,0.0,195.0
61210,-0.104,-0.924,-0.017,14.046,-18.985,74.038,0.0,91.0
61271,-0.163,-0.933,0.025,13.634,-19.008,68.733,0.0,0.0
61329,-0.130,-0.863,0.010,-0.832,-24.924,54.725,0.0,102.0
61383,-0.130,-0.893,0.041,-7.641,-15.863,28.443,0.0,89.0
61437,-0.116,-1.011,0.049,-5.031,-3.557,-5.107,0.0,96.0
61492,-0.247,-1.279,0.155,-14.481,2.748,-54.046,0.0,97.0
61547,-0.251,-1.500,0.248,-21.550,-0.847,-89.389,0.0,103.0
61596,-0.172,-0.769,0.318,-22.687,-34.977,-89.282,93.0,108.0
61645,0.081,-0.614,0.155,-5.870,-29.176,-17.641,106.0,110.0
61700,0.059,-0.914,0.027,7.611,19.733,9.557,85.0,0.0
61740,-0.037,-1.052,0.044,9.664,84.649,-0.168,89.0,0.0
61803,-0.198,-0.975,0.198,3.336,82.519,-2.290,0.0,0.0
61850,-0.235,-0.792,0.255,-2.718,43.985,-5.992,0.0,0.0
61896,-0.270,-0.828,0.240,-9.198,12.458,-22.527,0.0,0.0
61943,-0.198,-0.886,0.171,-4.618,-1.832,-40.611,0.0,0.0
61989,-0.156,-0.865,0.168,-8.603,14.817,-45.863,0.0,0.0
62036,-0.200,-0.988,0.186,-7.153,25.740,-39.817,0.0,0.0
62140,-0.184,-1.164,0.203,-8.008,11.153,-13.405,0.0,0.0
62186,-0.281,-1.433,0.228,-7.908,7.275,-2.122,0.0,0.0
62233,-0.182,-0.976,0.160,12.450,-8.924,9.099,0.0,0.0
62282,-0.198,-0.767,0.175,7.229,-17.527,38.511,0.0,0.0
62326,-0.206,-1.139,0.047,13.328,-28.031,40.298,0.0,154.0
62384,-0.178,-0.973,0.050,16.763,-44.504,45.595,0.0,155.0
62437,-0.087,-0.906,-0.017,8.840,-35.221,49.908,0.0,59.0
62493,-0.129,-0.957,0.022,13.534,-14.420,51.939,0.0,66.0
62547,-0.157,-0.873,0.041,10.321,-18.756,42.939,0.0,94.0
62601,-0.145,-0.942,0.037,8.504,-14.603,25.878,0.0,71.0
62655,-0.155,-0.993,0.056,7.924,-9.878,1.611,0.0,80.0
62708,-0.125,-1.126,0.052,8.443,6.061,-16.344,0.0,86.0
62776,-0.183,-1.276,0.119,0.214,8.870,-45.718,0.0,109.0
62833,-0.162,-1.152,0.192,-8.015,28.069,-51.282,0.0,111.0
62891,-0.154,-0.740,0.226,-10.489,8.763,-51.817,0.0,90.0
62953,-0.111,-0.568,0.229,-8.466,2.466,-7.305,0.0,0.0
63003,-0.129,-1.069,0.113,-4.626,-0.786,-3.565,0.0,0.0
63047,-0.094,-1.045,0.107,-4.305,14.832,-3.802,0.0,115.0
63106,-0.104,-0.862,0.132,-6.977,33.053,7.176,0.0,119.0
63163,-0.248,-0.829,0.239,-12.802,23.076,12.458,0.0,106.0
63220,-0.268,-0.926,0.208,-14.115,-24.878,-4.534,0.0,108.0
63282,-0.152,-0.915,0.128,-17.679,-27.763,-12.618,0.0,113.0
63340,-0.176,-0.990,0.136,-18.382,-16.435,-13.855,0.0,113.0
63398,-0.271,-1.220,0.176,-20.084,-19.481,-23.489,0.0,112.0
63457,-0.121,-1.311,0.065,-11.916,-14.298,-17.977,0.0,107.0
63515,-0.190,-1.174,0.095,4.038,2.328,-6.847,0.0,122.0
63574,-0.234,-0.810,0.162,5.794,-8.191,39.321,0.0,112.0
63632,-0.166,-1.068,-0.024,4.687,-49.756,52.458,0.0,121.0
63688,-0.123,-0.880,-0.030,-2.962,-61.702,66.023,0.0,86.0
63748,-0.085,-0.977,-0.093,3.389,-26.664,57.931,0.0,80.0
63804,-0.141,-0.924,-0.031,8.710,-19.458,38.679,0.0,84.0
63861,-0.127,-0.926,-0.025,5.176,-8.496,18.313,0.0,87.0
63918,-0.105,-0.928,-0.011,4.504,-5.130,-1.962,0.0,92.0
63975,-0.138,-1.036,0.000,4.435,10.634,-20.366,0.0,91.0
64032,-0.204,-1.280,0.029,-2.863,4.481,-48.466,0.0,93.0
64089,-0.120,-1.395,0.031,-10.687,10.588,-66.000,0.0,79.0
64147,-0.184,-1.039,0.194,-19.885,16.076,-78.466,0.0,129.0
64205,-0.032,-0.523,0.181,-17.038,-8.168,-15.282,0.0,111.0
64267,0.057,-0.930,-0.019,1.443,22.710,-2.382,0.0,107.0
64324,-0.037,-1.064,0.003,10.198,81.733,-5.855,0.0,106.0
64387,-0.117,-0.840,0.107,-2.237,83.145,5.649,0.0,182.0
64445,-0.240,-0.855,0.191,-10.855,42.969,-1.198,0.0,118.0
64503,-0.225,-0.949,0.166,-8.992,2.229,-21.389,0.0,116.0
64563,-0.123,-0.916,0.125,-7.885,17.939,-20.634,0.0,126.0
64622,-0.216,-1.135,0.173,-7.794,25.626,-16.756,0.0,129.0
64681,-0.251,-1.295,0.208,2.084,21.443,-18.718,0.0,138.0
64735,-0.253,-1.397,0.212,13.008,23.443,-7.649,0.0,27.0
64792,-0.089,-0.715,0.138,32.374,13.031,33.389,0.0,35.0
64846,-0.254,-0.957,0.168,12.397,-5.053,64.855,0.0,47.0
64903,-0.136,-1.181,-0.014,30.305,-47.924,59.115,0.0,69.0
