Timestamp(ms),AccelX(g),AccelY(g),AccelZ(g),GyroX(deg/s),GyroY(deg/s),GyroZ(deg/s),DistanceLeft(cm),DistanceRight(cm)
45788,-0.199,-0.827,0.208,-5.985,51.580,-16.183,0.0,99.0
45845,-0.264,-0.840,0.229,-13.458,10.573,-25.557,0.0,137.0
45904,-0.188,-0.943,0.145,-18.473,-13.496,-48.611,0.0,175.0
45961,-0.181,-1.002,0.156,-23.802,0.336,-69.183,0.0,101.0
46016,-0.250,-1.000,0.249,-27.313,-5.756,-74.160,0.0,102.0
46071,-0.260,-0.904,0.296,-25.771,-37.809,-58.458,0.0,104.0
46128,-0.229,-0.969,0.251,-25.137,-59.366,-41.206,0.0,110.0
46187,-0.165,-1.059,0.165,-17.435,-59.718,-28.053,0.0,117.0
46243,-0.063,-1.214,0.056,-11.710,-21.214,-4.695,0.0,120.0
46301,-0.199,-1.281,0.156,-9.824,5.405,11.985,0.0,127.0
46361,-0.161,-1.012,0.101,15.107,-18.191,26.084,0.0,187.0
46420,-0.159,-0.666,0.200,15.305,-17.473,78.397,0.0,181.0
46479,-0.344,-1.151,0.195,22.168,-62.084,82.282,0.0,152.0
46538,-0.257,-1.249,0.064,41.344,-115.282,43.069,0.0,171.0
46600,-0.136,-1.139,0.006,55.519,-111.779,22.412,0.0,0.0
46648,0.017,-0.973,-0.068,62.443,-73.122,38.992,0.0,0.0
46715,0.045,-0.912,-0.058,50.702,-8.931,60.000,0.0,0.0
46776,-0.104,-0.885,0.049,30.107,34.763,75.336,0.0,0.0
46824,-0.152,-0.835,0.119,12.641,22.924,74.000,0.0,0.0
46871,-0.180,-0.928,0.169,-3.061,6.489,53.626,0.0,0.0
46918,-0.219,-0.973,0.211,-16.962,-10.794,7.763,0.0,0.0
46958,-0.179,-1.068,0.261,-32.359,-24.382,-42.832,0.0,85.0
47012,-0.159,-1.198,0.330,-54.176,-21.366,-85.916,0.0,82.0
47074,-0.226,-1.147,0.377,-74.229,-36.977,-148.168,0.0,0.0
47121,0.153,-0.617,0.234,-26.031,-39.664,-66.725,190.0,0.0
47185,0.121,-0.934,0.130,1.771,13.802,-6.908,0.0,0.0
47233,0.055,-1.240,-0.044,6.985,117.908,-25.779,0.0,0.0
47281,-0.060,-0.961,0.010,10.412,183.344,-32.397,0.0,0.0
47333,-0.266,-0.806,0.145,-1.916,193.183,-26.969,0.0,0.0
47379,-0.469,-0.894,0.323,-9.420,131.023,-38.794,0.0,0.0
47425,-0.468,-0.939,0.348,-7.901,30.977,-61.565,0.0,0.0
47472,-0.316,-0.863,0.310,-15.206,-28.824,-71.298,0.0,0.0
47532,-0.243,-0.891,0.291,-23.076,-55.489,-62.107,0.0,0.0
47595,-0.164,-1.076,0.284,-14.000,-58.489,-26.214,0.0,0.0
47641,-0.044,-1.177,0.215,-0.481,-35.611,12.786,0.0,0.0
47687,-0.088,-1.362,0.240,3.244,3.847,41.611,0.0,0.0
47748,-0.164,-1.477,0.207,23.305,20.450,57.756,0.0,0.0
47808,-0.146,-0.573,0.275,34.733,6.786,104.221,0.0,0.0
47867,-0.316,-0.900,0.230,18.420,-37.550,121.137,0.0,0.0
47915,-0.412,-1.392,0.069,27.137,-113.298,66.008,0.0,0.0
47954,-0.260,-1.198,-0.064,30.908,-133.000,7.855,0.0,99.0
48010,-0.140,-0.997,-0.063,34.053,-129.580,-4.214,0.0,105.0
48067,0.040,-0.775,-0.118,33.244,-89.229,24.489,0.0,101.0
48121,0.001,-0.845,-0.061,15.893,-29.847,56.863,0.0,100.0
48176,-0.115,-0.898,0.030,-2.008,-5.718,59.779,0.0,97.0
48232,-0.141,-0.887,0.140,-9.458,-5.130,48.450,0.0,131.0
48291,-0.130,-0.980,0.174,-10.450,-12.511,22.092,0.0,171.0
48351,-0.090,-1.243,0.230,-21.290,-1.641,-22.397,0.0,200.0
48406,-0.041,-1.146,0.337,-44.992,47.206,-77.443,0.0,105.0
48462,-0.249,-1.195,0.510,-58.031,32.504,-112.000,0.0,129.0
48564,0.019,-0.679,0.219,-0.183,32.893,-27.924,0.0,161.0
48624,-0.134,-1.272,0.131,-5.855,70.802,-27.405,0.0,161.0
48683,-0.174,-0.941,0.196,-4.313,70.878,-14.885,0.0,163.0
48739,-0.267,-0.741,0.313,-18.122,25.550,14.840,0.0,120.0
48795,-0.288,-0.892,0.291,-14.405,-37.969,12.588,0.0,144.0
48855,-0.240,-0.934,0.264,-21.382,-67.962,-8.397,0.0,175.0
48914,-0.220,-1.058,0.255,-19.092,-93.641,-16.855,0.0,181.0
48974,-0.049,-0.929,0.179,-2.389,-72.947,5.015,0.0,0.0
49020,-0.025,-0.975,0.150,2.702,-18.840,27.473,0.0,0.0
49067,-0.130,-0.935,0.221,1.771,-0.649,37.382,0.0,195.0
49130,-0.227,-1.071,0.275,-2.832,-10.130,31.023,0.0,0.0
49190,-0.326,-1.451,0.280,-2.885,-45.649,-3.397,0.0,0.0
49238,-0.166,-0.978,0.150,21.649,-73.359,-16.611,0.0,0.0
49284,-0.067,-0.584,0.158,27.939,-71.656,34.580,0.0,0.0
49344,-0.169,-1.062,0.111,27.046,-73.466,68.977,0.0,0.0
49391,-0.095,-1.251,0.009,38.473,-65.206,75.458,0.0,0.0
49437,-0.095,-1.071,0.012,25.489,-48.137,73.901,0.0,0.0
49483,-0.067,-0.895,0.026,18.565,-31.863,77.260,0.0,0.0
49528,-0.100,-0.847,0.058,11.931,-19.282,79.489,0.0,171.0
49590,-0.177,-0.877,0.118,0.374,-27.000,67.687,0.0,155.0
49648,-0.153,-0.894,0.118,-7.740,-38.779,37.084,0.0,175.0
49707,-0.089,-0.885,0.132,-16.153,-30.573,3.145,0.0,157.0
49765,-0.078,-0.946,0.178,-34.916,-5.870,-31.046,0.0,163.0
49824,-0.207,-1.162,0.324,-53.916,-10.298,-73.427,0.0,171.0
49884,-0.186,-1.213,0.452,-59.229,-47.534,-99.511,0.0,183.0
49943,-0.011,-1.239,0.344,-40.977,-57.344,-87.160,0.0,185.0
50003,0.104,-0.923,0.192,-6.305,-5.038,-56.160,0.0,0.0
50054,0.083,-0.688,0.068,14.519,87.924,-6.565,0.0,0.0
50101,-0.079,-0.917,0.062,22.275,127.160,10.298,0.0,0.0
50147,-0.198,-1.126,0.082,27.748,133.053,3.092,0.0,0.0
50194,-0.163,-0.963,0.072,23.221,123.954,-0.336,0.0,0.0
50240,-0.193,-0.723,0.177,0.328,109.542,16.336,0.0,0.0
50287,-0.352,-0.821,0.307,-17.099,55.702,18.916,0.0,0.0
50333,-0.387,-0.916,0.339,-20.824,-29.763,1.153,0.0,0.0
50379,-0.245,-0.930,0.270,-27.641,-75.840,-20.420,0.0,185.0
50440,-0.162,-0.980,0.248,-32.893,-81.878,-32.229,0.0,0.0
50490,-0.133,-0.954,0.286,-23.924,-74.137,-24.656,0.0,0.0
50537,-0.127,-0.999,0.286,-14.939,-71.389,-9.695,0.0,0.0
50583,-0.067,-0.999,0.278,-3.771,-58.214,8.664,0.0,0.0
50630,-0.061,-0.915,0.237,5.061,-33.893,21.824,0.0,0.0
50677,-0.178,-1.025,0.308,3.137,-22.397,24.122,0.0,0.0
50723,-0.308,-1.463,0.332,2.267,-37.374,3.466,0.0,0.0
50770,-0.213,-1.506,0.118,36.145,-50.328,-28.298,0.0,0.0
50818,0.057,-0.655,0.117,59.061,-11.336,11.420,0.0,0.0
50864,-0.134,-0.849,0.166,37.595,9.626,65.061,0.0,0.0
50931,-0.298,-1.277,0.195,41.557,-29.275,83.947,0.0,0.0
50992,-0.176,-1.077,0.081,40.611,-81.924,82.145,0.0,0.0
51039,-0.049,-0.908,0.010,31.237,-66.092,87.313,0.0,0.0
51086,-0.044,-0.904,0.018,25.115,-36.679,87.656,0.0,0.0
51132,-0.105,-0.911,0.064,14.603,-15.908,73.366,0.0,0.0
51234,-0.109,-0.751,0.161,-7.076,-6.023,40.122,0.0,167.0
51295,-0.132,-0.890,0.219,-19.374,-12.313,10.198,0.0,0.0
51342,-0.144,-1.060,0.295,-40.649,-6.573,-47.450,0.0,0.0
51389,-0.105,-1.257,0.293,-56.351,7.382,-96.863,0.0,0.0
51438,-0.177,-1.439,0.419,-72.817,21.260,-133.908,0.0,0.0
51485,-0.066,-1.038,0.373,-55.122,8.458,-136.145,0.0,0.0
51532,0.120,-0.559,0.256,-17.267,36.053,-65.221,0.0,0.0
51579,-0.060,-0.757,0.252,-12.389,61.802,-11.939,0.0,0.0
51627,-0.173,-1.240,0.202,-5.198,51.176,-3.466,0.0,0.0
51673,-0.074,-1.218,0.098,6.702,61.939,-13.496,0.0,0.0
51720,-0.093,-0.810,0.185,-7.153,83.939,-1.580,0.0,0.0
51767,-0.202,-0.791,0.243,-15.031,69.580,14.969,0.0,0.0
51814,-0.350,-0.832,0.339,-18.176,12.176,8.115,0.0,0.0
51881,-0.303,-0.892,0.274,-21.947,-54.015,-18.000,0.0,0.0
51929,-0.184,-0.991,0.239,-25.130,-79.824,-30.290,0.0,0.0
51976,-0.058,-0.996,0.176,-16.687,-71.206,-15.916,0.0,0.0
52023,-0.028,-0.962,0.220,-11.679,-42.634,11.740,0.0,0.0
52069,-0.075,-1.032,0.238,-3.229,-22.550,31.977,0.0,0.0
52116,-0.122,-0.992,0.260,4.084,-18.252,36.947,0.0,0.0
52163,-0.158,-1.087,0.303,6.000,-19.840,32.595,0.0,0.0
52210,-0.218,-1.314,0.282,12.626,-26.824,14.214,0.0,0.0
52257,-0.233,-1.465,0.243,27.031,-41.374,-8.664,0.0,0.0
52307,0.005,-0.781,0.134,53.183,-27.542,12.557,0.0,0.0
52355,-0.062,-0.826,0.165,46.229,-11.359,68.237,0.0,0.0
52402,-0.189,-1.270,0.122,48.191,-22.863,82.397,0.0,0.0
52449,-0.167,-1.209,0.078,50.763,-43.275,72.359,0.0,0.0
52496,-0.066,-0.963,0.029,38.656,-33.954,63.374,0.0,0.0
52543,-0.046,-0.861,0.051,26.992,-12.282,63.260,0.0,0.0
52590,-0.084,-0.813,0.091,17.565,-3.588,64.687,0.0,0.0
52637,-0.121,-0.832,0.128,4.847,-5.061,52.824,0.0,0.0
52683,-0.103,-0.838,0.119,-2.832,-4.481,27.252,0.0,0.0
52751,-0.099,-0.772,0.183,-18.206,8.244,-8.076,0.0,0.0
52799,-0.167,-0.926,0.246,-40.855,15.954,-59.634,0.0,0.0
52846,-0.191,-1.051,0.298,-50.122,2.893,-95.588,0.0,0.0
52893,-0.145,-1.226,0.372,-54.298,-9.008,-113.656,0.0,0.0
52940,-0.106,-1.376,0.408,-56.748,-11.809,-121.206,0.0,0.0
52987,-0.013,-1.572,0.327,-40.420,3.893,-115.397,0.0,0.0
53035,0.157,-0.853,0.138,-2.603,60.183,-79.206,0.0,0.0
53082,0.074,-0.508,0.088,10.053,128.542,-19.847,0.0,0.0
53129,-0.139,-0.842,0.059,14.565,155.389,8.130,0.0,0.0
53179,-0.280,-1.209,0.034,31.008,136.595,-0.809,0.0,0.0
53226,-0.131,-0.988,-0.023,28.626,127.260,-10.481,0.0,0.0
53273,-0.136,-0.678,0.075,-2.069,140.427,13.252,0.0,0.0
53321,-0.380,-0.843,0.302,-23.267,94.351,18.656,0.0,0.0
53368,-0.374,-0.944,0.317,-15.435,1.107,1.786,0.0,0.0
53415,-0.252,-0.863,0.296,-28.496,-44.130,-21.557,0.0,0.0
53463,-0.199,-0.963,0.266,-39.489,-55.542,-36.275,0.0,0.0
53510,-0.212,-1.021,0.319,-33.328,-65.290,-37.679,0.0,0.0
53557,-0.208,-0.992,0.337,-22.733,-95.023,-18.924,0.0,0.0
53625,-0.083,-0.991,0.238,-10.489,-99.939,11.145,0.0,0.0
53729,-0.130,-1.250,0.242,-1.901,-48.000,40.641,0.0,0.0
53777,-0.200,-1.629,0.169,20.802,-41.061,-4.229,0.0,0.0
53824,-0.028,-0.771,0.185,49.733,-26.908,5.420,0.0,0.0
53871,-0.108,-0.950,0.177,42.183,-39.756,54.954,0.0,0.0
53918,-0.126,-1.170,0.112,51.794,-55.344,74.290,0.0,0.0
53970,-0.021,-1.002,-0.008,55.580,-45.679,80.924,0.0,0.0
54018,-0.031,-0.900,0.014,46.107,-16.328,84.901,0.0,0.0
54064,-0.070,-0.860,0.007,39.206,-0.107,84.802,0.0,0.0
54113,-0.100,-0.864,0.020,25.450,7.015,75.969,0.0,0.0
54159,-0.124,-0.844,0.044,10.618,13.328,53.214,0.0,0.0
54205,-0.136,-0.815,0.091,-3.420,18.160,22.038,0.0,0.0
54251,-0.146,-0.847,0.178,-14.969,20.023,-12.649,0.0,0.0
54296,-0.167,-0.980,0.266,-30.214,17.176,-54.038,0.0,187.0
54356,-0.197,-1.108,0.358,-41.679,7.702,-99.771,0.0,0.0
54403,-0.163,-1.295,0.448,-53.282,-9.573,-135.214,0.0,0.0
54450,-0.172,-1.528,0.515,-56.305,-26.115,-139.824,0.0,0.0
54496,0.095,-1.005,0.209,-13.611,-17.885,-109.298,0.0,0.0
54545,0.151,-0.514,0.143,7.771,48.443,-32.969,0.0,0.0
54591,0.001,-0.785,0.073,6.802,93.748,15.580,0.0,0.0
54637,-0.093,-1.113,0.020,21.229,112.252,32.298,0.0,0.0
54684,-0.130,-1.096,0.036,27.038,121.756,27.420,0.0,0.0
54730,-0.072,-0.817,0.067,17.710,139.008,30.328,0.0,0.0
54776,-0.180,-0.779,0.177,5.214,137.740,37.053,0.0,0.0
54822,-0.332,-0.785,0.342,-10.748,93.824,21.115,0.0,0.0
54870,-0.369,-0.935,0.376,-20.718,14.649,-15.740,0.0,0.0
54916,-0.207,-0.887,0.293,-28.145,-31.580,-45.573,0.0,0.0
54965,-0.137,-0.904,0.247,-38.496,-38.313,-58.687,0.0,0.0
55012,-0.107,-0.976,0.230,-36.840,-33.466,-60.313,0.0,0.0
55058,-0.086,-1.061,0.255,-29.427,-21.763,-52.908,0.0,0.0
55104,-0.070,-1.177,0.259,-22.344,-7.397,-40.069,0.0,0.0
55151,-0.085,-1.319,0.316,-10.405,9.557,-21.176,0.0,0.0
55197,-0.152,-1.623,0.308,8.115,13.947,-8.931,0.0,0.0
55243,-0.042,-0.915,0.212,39.229,20.664,17.763,0.0,0.0
55290,-0.073,-0.527,0.255,38.672,23.092,67.122,0.0,0.0
55336,-0.185,-0.834,0.220,38.252,13.626,92.550,0.0,0.0
55403,-0.320,-1.291,0.187,42.832,-39.916,83.603,0.0,0.0
55450,-0.163,-1.164,0.033,45.931,-75.061,31.809,0.0,0.0
55496,-0.051,-0.934,0.016,42.000,-59.115,27.229,0.0,0.0
55542,0.001,-0.830,0.019,35.718,-28.244,43.595,0.0,0.0
55589,-0.083,-0.837,0.068,22.893,-5.275,55.962,0.0,0.0
55635,-0.116,-0.908,0.106,12.885,-7.008,55.481,0.0,0.0
55682,-0.101,-0.874,0.130,4.870,-5.023,43.718,0.0,0.0
55729,-0.102,-0.843,0.160,-7.473,-0.527,26.664,0.0,0.0
55775,-0.116,-0.889,0.185,-23.985,8.130,-2.046,0.0,0.0
55825,-0.188,-1.061,0.273,-41.840,4.473,-45.038,0.0,0.0
55871,-0.136,-1.123,0.286,-47.321,-5.511,-76.130,0.0,0.0
55918,-0.157,-1.267,0.344,-58.275,-9.664,-102.053,0.0,0.0
55964,-0.202,-1.493,0.425,-62.847,-24.710,-120.557,0.0,0.0
56011,0.060,-0.912,0.295,-27.878,-33.176,-96.466,0.0,0.0
56057,0.219,-0.525,0.145,4.031,24.832,-21.397,0.0,0.0
56161,-0.043,-1.117,0.014,24.634,111.504,30.611,0.0,0.0
56208,-0.100,-1.115,0.005,33.611,135.763,11.313,0.0,0.0
56254,-0.083,-0.764,0.065,18.466,149.015,20.000,0.0,0.0
56304,-0.282,-0.770,0.260,-7.603,117.771,22.824,0.0,0.0
56350,-0.393,-0.918,0.350,-13.679,28.977,-2.763,0.0,0.0
56397,-0.242,-0.902,0.277,-16.802,-37.290,-33.786,0.0,0.0
56443,-0.135,-0.942,0.213,-29.084,-51.221,-47.328,0.0,0.0
56491,-0.060,-0.936,0.212,-30.901,-39.534,-46.603,0.0,0.0
56538,-0.064,-0.960,0.247,-25.802,-19.977,-33.489,0.0,0.0
56584,-0.097,-1.055,0.246,-17.076,-7.466,-26.595,0.0,0.0
56631,-0.032,-1.020,0.215,-6.382,11.542,-17.740,0.0,0.0
56677,-0.082,-1.001,0.245,-2.557,36.031,-2.794,0.0,0.0
56744,-0.213,-1.192,0.330,2.115,29.321,-1.534,0.0,0.0
56792,-0.270,-1.531,0.273,15.313,-12.053,-17.817,0.0,0.0
56838,-0.045,-0.747,0.196,38.985,-9.145,2.443,0.0,0.0
56885,-0.054,-0.620,0.212,33.641,-2.649,62.122,0.0,0.0
56931,-0.189,-1.105,0.185,38.137,-14.481,89.412,0.0,0.0
56978,-0.242,-1.264,0.115,44.137,-49.832,85.954,0.0,0.0
57025,-0.161,-1.159,0.031,37.122,-66.527,65.893,0.0,0.0
57071,-0.039,-0.941,-0.008,33.023,-52.870,59.412,0.0,0.0
57118,-0.034,-0.820,0.014,23.107,-25.817,63.160,0.0,0.0
57168,-0.124,-0.865,0.091,10.466,-10.176,55.527,0.0,0.0
57214,-0.164,-0.908,0.131,0.916,-17.527,35.214,0.0,0.0
57262,-0.131,-0.863,0.128,-8.718,-23.069,13.046,0.0,0.0
57309,-0.095,-0.844,0.148,-18.374,-20.435,-3.221,0.0,0.0
57355,-0.104,-0.899,0.198,-29.695,-12.397,-20.298,0.0,0.0
57402,-0.174,-1.057,0.308,-41.817,-14.031,-42.763,0.0,0.0
57449,-0.165,-1.160,0.350,-42.511,-33.344,-63.786,0.0,0.0
57496,-0.101,-1.243,0.344,-42.550,-44.344,-73.908,0.0,0.0
57543,-0.099,-1.680,0.368,-48.267,-34.168,-87.794,0.0,0.0
57607,0.189,-0.740,0.215,-12.221,6.153,-70.802,0.0,0.0
57654,0.063,-0.517,0.160,10.412,80.229,17.206,0.0,0.0
57700,-0.137,-0.967,0.144,14.954,92.435,25.351,0.0,0.0
57747,-0.149,-1.345,0.017,32.443,86.305,-2.786,0.0,0.0
57794,0.042,-0.922,-0.011,34.496,122.160,-7.573,0.0,0.0
57841,-0.063,-0.665,0.104,7.802,157.099,22.954,0.0,0.0
57887,-0.348,-0.784,0.327,-13.015,120.466,23.511,0.0,0.0
57934,-0.496,-0.953,0.445,-18.176,9.344,-9.565,0.0,0.0
57981,-0.267,-0.940,0.320,-18.916,-68.908,-42.893,0.0,0.0
58032,-0.075,-0.927,0.266,-29.366,-74.305,-51.695,0.0,0.0
58079,0.018,-0.944,0.233,-27.962,-46.656,-38.863,0.0,0.0
58126,0.022,-1.000,0.219,-18.053,-11.031,-22.908,0.0,0.0
58173,-0.010,-1.017,0.199,-8.725,25.313,-13.267,0.0,0.0
58220,-0.027,-1.039,0.130,-5.084,53.321,-2.382,0.0,0.0
58266,-0.072,-1.005,0.140,-9.420,69.832,13.260,0.0,0.0
58313,-0.224,-1.191,0.230,-14.382,58.412,8.214,0.0,0.0
58360,-0.399,-1.517,0.313,-8.458,5.107,-26.840,0.0,0.0
58407,-0.098,-0.708,0.212,15.153,-30.359,-19.214,0.0,0.0
58475,-0.074,-0.669,0.261,6.420,-30.092,43.351,0.0,0.0
58522,-0.243,-1.315,0.201,23.855,-78.794,57.290,0.0,0.0
58626,0.017,-1.002,0.044,41.870,-50.206,36.580,0.0,0.0
58673,0.022,-0.958,0.021,43.206,-8.611,62.084,0.0,0.0
58720,-0.059,-0.881,0.107,39.939,18.496,72.008,0.0,0.0
58767,-0.157,-0.930,0.156,26.916,16.137,64.267,0.0,0.0
58814,-0.166,-0.945,0.139,20.847,-4.092,43.832,0.0,0.0
58861,-0.098,-0.839,0.136,13.237,-3.313,23.542,0.0,0.0
58930,-0.114,-0.874,0.151,-5.580,9.481,-0.229,0.0,0.0
58979,-0.135,-1.004,0.213,-17.069,8.534,-35.298,0.0,0.0
59026,-0.103,-1.082,0.217,-19.206,13.206,-55.832,0.0,0.0
59072,-0.097,-1.218,0.200,-27.061,23.924,-73.389,0.0,0.0
59118,-0.201,-1.517,0.306,-43.985,24.702,-92.458,0.0,0.0
59164,-0.057,-1.015,0.246,-31.000,10.641,-94.771,0.0,0.0
59210,0.105,-0.533,0.119,-8.237,39.542,-37.191,0.0,0.0
59254,-0.052,-0.711,0.136,-7.817,63.504,0.298,149.0,0.0
59314,-0.125,-1.119,0.048,0.313,73.290,-7.519,0.0,0.0
59361,-0.041,-1.166,-0.013,15.206,105.626,-30.244,0.0,0.0
59410,-0.017,-0.789,0.042,3.756,151.748,-11.969,0.0,0.0
59456,-0.248,-0.791,0.216,-10.328,147.886,5.740,0.0,0.0
59502,-0.451,-0.962,0.379,-16.214,68.809,-8.275,0.0,0.0
59548,-0.258,-0.963,0.256,-9.756,-6.916,-34.405,0.0,0.0
59595,-0.118,-0.924,0.214,-20.947,-11.511,-44.496,0.0,0.0
59640,-0.074,-0.971,0.210,-23.534,5.374,-39.672,191.0,0.0
59701,-0.101,-0.935,0.275,-17.580,22.595,-26.443,0.0,0.0
59746,-0.146,-1.047,0.282,-8.290,7.992,-9.298,178.0,0.0
59809,-0.094,-1.126,0.249,-1.893,11.237,1.031,0.0,0.0
59852,-0.166,-1.282,0.271,6.458,17.489,1.160,141.0,0.0
59912,-0.209,-1.447,0.295,16.229,7.496,0.450,0.0,0.0
59958,0.005,-0.682,0.194,42.122,11.718,42.275,190.0,0.0
60017,-0.115,-0.723,0.228,36.626,18.099,89.153,188.0,0.0
60061,-0.273,-1.287,0.171,41.321,-29.443,91.168,159.0,0.0
60116,-0.172,-1.227,0.047,49.282,-52.229,58.206,113.0,0.0
60161,-0.024,-0.954,-0.008,37.115,-25.733,42.489,156.0,0.0
60217,-0.072,-0.864,0.050,23.038,-1.015,46.740,126.0,0.0
60267,-0.156,-0.871,0.128,12.290,-14.023,42.595,0.0,0.0
60313,-0.111,-0.867,0.098,6.137,-15.473,28.298,0.0,0.0
60359,-0.112,-0.871,0.108,-5.221,-5.252,6.443,0.0,0.0
60406,-0.103,-0.879,0.134,-14.260,5.969,-12.153,0.0,0.0
60447,-0.132,-0.953,0.186,-23.840,10.901,-28.611,110.0,0.0
60503,-0.154,-1.014,0.241,-31.252,5.198,-42.061,109.0,0.0
60542,-0.138,-1.140,0.298,-36.359,-3.099,-56.740,89.0,0.0
60597,-0.162,-1.284,0.338,-39.443,-9.794,-71.168,90.0,0.0
60638,-0.216,-1.603,0.400,-39.115,-29.489,-87.046,106.0,0.0
60695,0.086,-0.861,0.200,-5.099,-21.519,-71.076,88.0,0.0
60741,0.141,-0.484,0.117,11.763,48.420,3.580,0.0,0.0
60788,-0.037,-0.838,0.032,17.466,94.229,22.664,0.0,0.0
60834,-0.125,-1.201,-0.038,33.519,115.145,5.519,0.0,0.0
60880,-0.063,-1.099,-0.077,42.328,145.740,-19.977,0.0,0.0
60928,-0.031,-0.734,-0.008,25.656,190.130,-3.008,0.0,0.0
60974,-0.310,-0.746,0.222,-2.611,177.244,11.779,0.0,0.0
61021,-0.493,-0.944,0.405,-9.611,78.618,-4.802,0.0,0.0
61124,-0.162,-0.896,0.239,-26.321,-44.389,-51.397,0.0,0.0
61173,-0.074,-0.928,0.228,-33.771,-19.702,-53.221,0.0,0.0
61220,-0.100,-0.986,0.225,-27.137,-1.740,-47.565,0.0,0.0
61266,-0.093,-1.052,0.234,-21.282,9.038,-38.824,0.0,0.0
61314,-0.091,-1.124,0.240,-14.573,23.275,-20.366,0.0,0.0
61360,-0.199,-1.366,0.294,-7.237,24.809,-14.298,186.0,0.0
61419,-0.181,-1.463,0.250,8.527,11.679,-13.405,182.0,0.0
61464,-0.030,-0.652,0.220,28.420,21.130,37.244,181.0,0.0
61524,-0.116,-0.717,0.222,25.649,22.924,84.336,0.0,0.0
61572,-0.279,-1.239,0.207,32.427,-26.924,97.275,0.0,0.0
61638,-0.187,-1.223,0.071,42.870,-51.198,61.824,0.0,0.0
61685,-0.038,-0.968,0.005,39.595,-25.290,40.878,0.0,0.0
61732,-0.043,-0.882,0.037,31.176,-1.603,48.832,0.0,0.0
61778,-0.133,-0.879,0.100,22.718,0.763,48.794,0.0,0.0
61826,-0.135,-0.903,0.090,15.412,-8.511,37.695,0.0,0.0
61872,-0.110,-0.915,0.074,5.664,-7.893,19.076,0.0,0.0
61919,-0.102,-0.875,0.095,-5.847,-1.244,0.328,0.0,0.0
61961,-0.101,-0.897,0.115,-18.786,8.969,-18.313,134.0,0.0
62016,-0.149,-0.994,0.181,-31.267,11.466,-38.107,0.0,93.0
62069,-0.165,-1.084,0.236,-37.779,0.076,-67.023,134.0,98.0
62131,-0.091,-1.112,0.244,-43.557,-2.489,-73.824,0.0,0.0
62178,-0.166,-1.405,0.271,-49.855,-16.328,-82.794,0.0,0.0
62219,-0.073,-1.441,0.176,-26.962,-13.947,-88.076,0.0,100.0
62272,0.158,-0.650,0.113,-3.565,36.267,-66.000,181.0,98.0
62332,0.028,-0.578,0.089,4.267,110.634,-2.763,0.0,0.0
62380,-0.179,-1.124,0.051,27.832,124.084,2.176,0.0,0.0
62427,-0.153,-1.167,-0.003,37.763,122.992,-10.450,0.0,0.0
62474,-0.007,-0.894,-0.055,29.076,157.496,1.405,0.0,0.0
62540,-0.231,-0.749,0.139,3.870,173.603,26.641,0.0,0.0
62587,-0.446,-0.954,0.351,-2.557,56.679,10.557,0.0,0.0
62635,-0.311,-0.853,0.338,-9.557,-19.603,-17.130,0.0,0.0
62681,-0.206,-0.951,0.263,-23.725,-53.595,-32.977,0.0,0.0
62728,-0.099,-0.907,0.236,-20.328,-51.763,-32.511,0.0,0.0
62775,-0.149,-0.979,0.264,-19.763,-44.733,-24.702,0.0,0.0
62822,-0.036,-1.104,0.164,-6.557,-31.595,-19.908,0.0,0.0
62869,-0.038,-1.035,0.221,-5.031,7.168,-5.198,0.0,0.0
62915,-0.191,-1.262,0.291,-2.336,10.206,2.176,0.0,0.0
62965,-0.204,-1.484,0.299,12.611,-11.840,2.733,0.0,0.0
63012,-0.049,-0.939,0.183,32.076,-5.481,15.550,0.0,0.0
63059,-0.040,-0.597,0.208,31.366,8.679,62.832,0.0,0.0
63100,-0.189,-0.957,0.198,29.206,-4.053,90.458,0.0,110.0
63157,-0.255,-1.230,0.163,33.588,-42.458,89.412,0.0,113.0
63212,-0.137,-1.139,0.030,33.321,-62.542,56.832,0.0,117.0
63268,-0.045,-0.913,0.022,21.885,-37.573,40.405,0.0,121.0
63330,-0.068,-0.839,0.058,12.878,-16.550,39.443,0.0,0.0
63377,-0.141,-0.880,0.115,1.412,-17.771,31.603,0.0,0.0
63440,-0.128,-0.893,0.113,-8.038,-24.450,11.565,0.0,131.0
63493,-0.100,-0.849,0.132,-19.374,-17.649,-14.260,120.0,133.0
63550,-0.095,-0.952,0.170,-27.893,-8.412,-34.855,0.0,136.0
63611,-0.130,-1.090,0.252,-33.947,2.489,-56.405,0.0,0.0
63712,-0.161,-1.343,0.354,-35.840,-24.412,-78.756,0.0,139.0
63769,0.018,-1.163,0.199,-17.931,-17.092,-73.573,0.0,141.0
63826,0.158,-0.502,0.112,5.542,61.053,-13.145,0.0,142.0
63885,-0.073,-0.771,0.084,16.885,109.756,28.382,0.0,145.0
63945,-0.167,-1.284,0.005,29.382,108.496,24.023,0.0,146.0
64007,-0.063,-1.016,0.025,19.229,118.069,16.595,0.0,0.0
64054,-0.227,-0.782,0.250,-5.878,110.695,35.695,0.0,0.0
64099,-0.363,-0.847,0.359,-11.382,43.092,23.168,0.0,166.0
64158,-0.329,-0.881,0.339,-18.809,-29.015,-11.702,0.0,179.0
64217,-0.161,-0.964,0.246,-29.511,-54.702,-53.618,0.0,154.0
64276,-0.101,-0.918,0.254,-29.122,-45.427,-62.916,0.0,157.0
64334,-0.119,-1.010,0.243,-20.656,-40.084,-55.496,0.0,158.0
64394,-0.021,-1.048,0.154,-6.061,3.313,-50.702,0.0,163.0
64455,-0.088,-1.022,0.211,-2.931,44.038,-19.038,0.0,164.0
64517,-0.253,-1.313,0.308,2.702,27.939,5.496,0.0,0.0
64564,-0.221,-1.263,0.213,24.794,-19.756,11.725,0.0,0.0
64609,-0.035,-0.590,0.168,33.992,-9.397,50.290,0.0,173.0
64669,-0.136,-0.794,0.184,26.092,-2.725,91.664,0.0,181.0
64730,-0.265,-1.205,0.187,32.053,-42.076,103.664,0.0,186.0
64790,-0.194,-1.219,0.066,31.153,-76.908,69.908,0.0,0.0
64838,-0.063,-0.937,0.018,26.092,-64.160,57.664,0.0,0.0
64885,-0.026,-0.846,0.006,18.542,-41.275,66.405,0.0,0.0
64935,-0.102,-0.875,0.057,6.023,-18.366,64.954,0.0,0.0
64983,-0.147,-0.914,0.086,-3.168,-19.557,43.198,0.0,0.0
65030,-0.108,-0.827,0.083,-11.878,-15.412,16.802,0.0,0.0
65077,-0.110,-0.857,0.129,-25.580,-6.794,-7.565,0.0,0.0
65124,-0.139,-1.000,0.190,-36.527,-0.634,-36.031,0.0,0.0
65171,-0.182,-1.104,0.255,-43.534,-8.427,-68.023,0.0,0.0
65218,-0.167,-1.171,0.339,-47.885,-20.481,-85.321,0.0,0.0
65266,-0.206,-1.500,0.513,-57.573,-30.710,-100.901,0.0,0.0
65313,-0.053,-1.288,0.337,-29.229,-38.573,-108.588,0.0,0.0
65381,0.208,-0.486,0.161,13.275,17.809,-36.137,0.0,0.0
65429,-0.005,-0.764,0.066,17.473,98.023,30.244,0.0,0.0
65499,-0.106,-1.278,-0.019,35.473,118.092,33.145,0.0,0.0
65545,-0.060,-1.038,-0.019,36.366,152.878,13.870,0.0,0.0
65592,-0.175,-0.703,0.140,13.389,165.420,25.603,0.0,0.0
65638,-0.384,-0.772,0.331,-7.672,107.664,26.489,0.0,0.0
65684,-0.459,-0.892,0.390,-11.137,4.611,-5.389,0.0,0.0
65730,-0.259,-0.894,0.239,-18.641,-59.740,-46.366,0.0,0.0
65776,-0.127,-0.925,0.221,-32.290,-60.641,-69.985,0.0,0.0
65839,-0.060,-0.917,0.229,-33.466,-36.779,-72.962,0.0,0.0
65886,-0.114,-1.041,0.277,-26.473,-13.267,-61.878,0.0,0.0
65932,-0.049,-1.077,0.223,-15.611,0.527,-44.840,0.0,0.0
65978,-0.122,-1.233,0.290,-11.969,13.939,-17.282,0.0,0.0
66025,-0.218,-1.573,0.326,-1.053,2.817,-4.252,0.0,0.0
66071,-0.164,-1.183,0.238,26.061,-24.290,10.664,0.0,0.0
66117,-0.056,-0.575,0.213,33.275,-27.527,53.389,0.0,0.0
66163,-0.135,-0.740,0.176,30.107,-26.160,87.832,0.0,0.0
66209,-0.285,-1.130,0.189,32.740,-56.466,88.580,0.0,0.0
66258,-0.297,-1.304,0.079,38.198,-102.664,48.893,0.0,0.0
66362,0.092,-0.909,-0.088,48.511,-42.405,29.870,0.0,0.0
66409,0.001,-0.842,0.003,31.107,39.740,60.130,0.0,0.0
66455,-0.152,-0.905,0.103,17.847,45.611,66.679,0.0,0.0
66501,-0.208,-0.917,0.161,8.038,16.573,59.191,0.0,0.0
66547,-0.167,-0.873,0.157,-3.573,-12.000,42.153,0.0,0.0
66593,-0.139,-0.891,0.158,-17.168,-24.244,20.725,0.0,0.0
66640,-0.099,-0.942,0.188,-29.794,-20.122,-7.649,0.0,0.0
66686,-0.107,-0.978,0.244,-40.099,-9.969,-38.947,0.0,0.0
66753,-0.089,-1.149,0.276,-46.504,-0.824,-66.275,0.0,0.0
66800,-0.203,-1.466,0.388,-60.298,-8.786,-102.130,0.0,0.0
66846,-0.179,-1.311,0.294,-41.374,-39.229,-122.809,0.0,0.0
66893,0.213,-0.539,0.122,-8.336,-11.023,-65.534,0.0,0.0
66939,0.089,-0.623,0.086,-0.771,61.580,-3.053,0.0,0.0
66985,-0.093,-1.007,0.036,8.588,97.710,3.580,0.0,0.0
67032,-0.149,-1.283,-0.012,25.206,109.794,-13.298,0.0,0.0
67079,-0.025,-0.969,-0.035,26.847,138.137,-13.412,0.0,0.0
67125,-0.114,-0.710,0.104,3.405,166.947,18.824,0.0,0.0
67169,-0.368,-0.810,0.323,-14.405,120.733,29.809,0.0,0.0
67216,-0.470,-0.953,0.404,-13.496,6.275,13.069,0.0,0.0
67262,-0.241,-0.920,0.268,-14.992,-59.710,-12.237,0.0,0.0
67309,-0.074,-0.966,0.186,-24.237,-57.237,-26.221,0.0,0.0
67355,-0.003,-0.916,0.199,-21.885,-19.817,-21.969,0.0,0.0
67402,-0.129,-0.955,0.281,-18.618,-2.366,-12.855,0.0,0.0
67448,-0.172,-0.990,0.293,-13.282,-12.786,-15.336,0.0,0.0
67495,-0.072,-1.047,0.186,-4.466,-11.969,-14.817,0.0,0.0
67545,-0.104,-1.120,0.236,-6.206,13.817,-7.832,0.0,0.0
67591,-0.204,-1.336,0.274,-3.366,8.092,-11.840,0.0,0.0
67638,-0.250,-1.453,0.287,10.985,-16.412,-17.351,0.0,0.0
67684,-0.046,-0.873,0.178,35.519,-23.511,4.046,0.0,0.0
67731,0.028,-0.638,0.174,36.511,-6.634,64.695,0.0,0.0
67777,-0.131,-1.074,0.137,37.924,-1.374,96.344,0.0,0.0
67824,-0.209,-1.219,0.100,43.336,-27.450,89.664,0.0,0.0
67870,-0.128,-1.101,0.024,38.359,-36.740,61.672,0.0,0.0
67917,-0.045,-0.901,0.023,29.382,-20.557,50.824,0.0,0.0
67984,-0.085,-0.809,0.053,17.427,-4.443,49.756,0.0,0.0
68031,-0.139,-0.833,0.106,2.557,-9.122,38.725,0.0,0.0
68077,-0.128,-0.927,0.113,-9.427,-13.893,15.840,0.0,0.0
68124,-0.086,-0.927,0.113,-16.718,-9.000,-9.702,0.0,0.0
68170,-0.062,-0.926,0.151,-25.580,10.763,-27.580,0.0,0.0
68217,-0.111,-1.044,0.194,-33.221,26.397,-44.145,0.0,0.0
68264,-0.158,-1.168,0.271,-36.092,16.366,-59.504,0.0,0.0
68311,-0.120,-1.332,0.283,-35.336,7.519,-70.237,0.0,0.0
68358,-0.168,-1.652,0.336,-33.947,2.237,-84.992,0.0,0.0
68407,0.041,-0.868,0.208,-6.641,11.542,-77.908,0.0,0.0
68454,0.146,-0.520,0.091,8.893,59.504,-13.779,0.0,0.0
68501,-0.019,-0.769,0.002,20.237,101.985,15.046,0.0,0.0
68547,-0.121,-1.163,-0.108,33.580,132.015,-3.191,0.0,0.0
68594,-0.085,-1.130,-0.147,43.878,163.305,-27.618,0.0,0.0
68641,-0.078,-0.767,-0.064,27.656,197.679,-12.374,0.0,0.0
68687,-0.241,-0.714,0.103,0.511,186.649,12.519,0.0,0.0
68791,-0.374,-1.000,0.270,-16.122,16.550,-24.290,0.0,0.0
68838,-0.117,-0.890,0.183,-29.733,-11.115,-55.580,0.0,0.0
68905,-0.063,-0.935,0.201,-33.214,12.924,-54.573,0.0,0.0
68953,-0.160,-1.056,0.265,-26.412,24.336,-38.672,0.0,0.0
68999,-0.115,-1.175,0.208,-16.718,29.733,-32.786,0.0,0.0
69046,-0.133,-1.242,0.222,-11.298,38.855,-19.786,0.0,0.0
69093,-0.186,-1.347,0.273,-6.656,31.038,-5.115,0.0,0.0
69140,-0.164,-1.245,0.241,12.641,13.382,10.313,0.0,0.0
69186,-0.044,-0.741,0.189,27.702,22.267,37.504,0.0,0.0
69233,-0.111,-0.680,0.212,30.359,35.565,68.794,0.0,0.0
69280,-0.267,-1.062,0.231,37.924,6.412,74.618,0.0,0.0
69330,-0.181,-1.272,0.095,53.221,-32.473,50.595,0.0,0.0
69377,-0.014,-1.102,-0.002,57.748,-10.618,35.252,0.0,0.0
69424,0.014,-0.927,-0.003,49.504,34.794,40.420,0.0,0.0
69471,-0.109,-0.867,0.077,38.008,54.634,50.313,0.0,0.0
69518,-0.184,-0.865,0.128,26.092,36.328,49.366,0.0,0.0
69564,-0.188,-0.911,0.128,13.672,10.885,33.939,0.0,0.0
69611,-0.120,-0.883,0.079,3.618,3.611,11.443,0.0,0.0
69658,-0.102,-0.848,0.087,-7.649,13.977,-12.542,0.0,0.0
69705,-0.157,-0.944,0.139,-19.611,24.214,-42.389,0.0,0.0
69772,-0.244,-1.151,0.224,-29.802,13.809,-78.244,0.0,0.0
69820,-0.197,-1.343,0.265,-33.351,-14.580,-104.977,0.0,0.0
69867,-0.149,-1.443,0.309,-37.168,-21.122,-108.092,0.0,0.0
69913,-0.005,-1.091,0.206,-19.924,-12.160,-91.473,0.0,0.0
69960,0.141,-0.511,0.116,4.458,42.092,-27.756,0.0,0.0
70007,-0.025,-0.697,0.059,9.435,73.336,24.046,0.0,0.0
70054,-0.134,-1.075,-0.031,15.840,81.969,30.183,0.0,0.0
70102,-0.097,-1.187,-0.086,26.008,92.405,10.069,0.0,0.0
70149,0.001,-0.836,-0.037,20.061,129.969,13.603,0.0,0.0
70199,-0.141,-0.760,0.129,2.756,153.496,30.290,0.0,0.0
70246,-0.332,-0.839,0.288,-4.443,113.328,18.725,0.0,0.0
70293,-0.374,-0.972,0.345,-9.710,33.244,-15.687,0.0,0.0
70340,-0.167,-0.954,0.227,-12.779,-2.008,-39.931,0.0,0.0
70401,-0.122,-0.943,0.229,-24.015,7.282,-50.237,0.0,0.0
70448,-0.117,-1.032,0.237,-16.679,7.511,-49.573,0.0,0.0
70495,-0.162,-1.101,0.272,-11.221,12.023,-45.244,0.0,0.0
70542,-0.175,-1.237,0.286,-8.634,1.687,-38.405,0.0,0.0
70589,-0.090,-1.286,0.233,1.290,7.122,-20.382,0.0,0.0
70639,-0.185,-1.350,0.262,14.519,4.565,5.473,0.0,0.0
70686,-0.105,-0.821,0.189,28.534,-8.351,31.099,0.0,0.0
70733,-0.063,-0.606,0.126,27.779,-0.260,67.702,0.0,0.0
70780,-0.239,-0.938,0.151,25.718,-11.389,79.519,0.0,0.0
70828,-0.316,-1.250,0.097,32.786,-61.321,55.313,0.0,0.0
70875,-0.155,-1.147,-0.022,35.840,-82.305,26.092,0.0,0.0
70922,-0.022,-0.925,-0.049,32.298,-61.947,25.634,0.0,0.0
70969,0.015,-0.858,-0.031,27.557,-20.168,41.580,0.0,0.0
71016,-0.097,-0.862,0.069,18.687,1.573,53.321,0.0,0.0
71084,-0.151,-0.925,0.094,9.267,-7.885,49.015,0.0,0.0
71131,-0.116,-0.918,0.112,-1.260,-10.763,27.206,0.0,0.0
71178,-0.112,-0.972,0.116,-7.382,-1.153,7.664,0.0,0.0
71282,-0.135,-1.206,0.206,-26.573,7.374,-45.603,0.0,0.0
71329,-0.176,-1.364,0.296,-40.740,6.893,-73.786,0.0,0.0
71376,-0.180,-1.144,0.312,-35.489,-10.824,-95.718,0.0,0.0
71424,0.065,-0.495,0.234,-14.237,-6.656,-50.603,0.0,0.0
71471,0.023,-0.646,0.161,-1.962,22.748,2.206,0.0,0.0
71518,-0.056,-1.010,0.093,9.321,40.649,7.656,0.0,0.0
71586,-0.034,-1.330,-0.010,17.229,66.122,-9.847,0.0,0.0
71633,-0.072,-0.776,0.157,4.344,115.137,4.573,0.0,0.0
71681,-0.272,-0.803,0.301,-8.107,76.191,18.374,0.0,0.0
71728,-0.311,-0.890,0.302,-4.305,-3.611,3.840,0.0,0.0
71798,-0.107,-0.908,0.157,-9.405,-34.160,-21.237,0.0,0.0
71844,-0.066,-0.972,0.153,-17.237,-11.237,-29.885,0.0,0.0
71890,-0.113,-0.937,0.217,-15.015,6.046,-28.321,0.0,0.0
71937,-0.208,-1.067,0.251,-15.420,-4.321,-30.634,0.0,0.0
71984,-0.126,-1.129,0.206,-10.252,-5.420,-29.160,0.0,0.0
72032,-0.139,-1.229,0.227,-8.313,7.557,-19.725,0.0,0.0
72079,-0.232,-1.411,0.277,-0.794,-0.939,-13.466,0.0,0.0
72125,-0.108,-0.997,0.167,20.405,-9.794,2.206,0.0,0.0
72171,-0.116,-0.593,0.224,21.969,-8.244,44.947,0.0,0.0
72217,-0.189,-0.979,0.169,23.168,-26.718,74.588,0.0,0.0
72263,-0.196,-1.179,0.116,33.374,-57.244,84.084,0.0,0.0
72309,-0.147,-1.110,0.035,31.031,-63.588,71.069,0.0,0.0
72356,-0.053,-1.027,-0.013,28.031,-49.855,62.511,0.0,0.0
72402,-0.036,-0.874,0.012,26.824,-21.389,64.237,0.0,0.0
72449,-0.109,-0.845,0.054,16.084,-5.450,60.878,0.0,0.0
72493,-0.166,-0.895,0.083,7.519,-12.397,46.405,0.0,0.0
72539,-0.141,-0.892,0.075,-1.275,-19.962,20.969,0.0,0.0
72585,-0.108,-0.875,0.087,-10.954,-15.710,-1.313,0.0,0.0
72632,-0.112,-0.966,0.126,-18.328,-3.908,-20.466,0.0,0.0
72678,-0.170,-1.236,0.203,-28.420,-1.550,-46.664,0.0,0.0
72724,-0.138,-1.267,0.243,-30.145,-1.099,-70.870,0.0,0.0
72770,-0.171,-1.289,0.357,-43.573,-2.435,-81.527,0.0,0.0
72817,-0.189,-1.214,0.330,-36.718,-27.649,-87.137,0.0,0.0
72866,-0.003,-0.550,0.245,-12.260,-37.298,-38.115,0.0,0.0
72912,0.054,-0.589,0.107,-0.992,-17.473,20.031,0.0,0.0
72960,0.047,-1.008,-0.036,9.496,31.023,31.244,0.0,0.0
73006,-0.049,-1.249,-0.026,15.573,92.450,4.053,0.0,0.0
73052,-0.066,-1.010,0.070,14.099,123.061,-11.282,0.0,0.0
73099,-0.181,-0.739,0.253,0.267,115.916,8.053,0.0,0.0
73145,-0.286,-0.818,0.329,-5.939,57.053,17.954,0.0,0.0
73191,-0.241,-0.878,0.273,-0.786,0.046,1.809,0.0,0.0
73237,-0.132,-0.935,0.173,-9.763,-10.122,-23.107,0.0,0.0
73304,-0.121,-0.960,0.179,-16.870,0.863,-35.710,0.0,0.0
73351,-0.173,-0.969,0.260,-16.031,4.031,-34.687,0.0,0.0
73397,-0.200,-1.173,0.234,-12.679,-11.634,-40.496,0.0,0.0
73444,-0.104,-1.240,0.182,-9.359,-7.649,-39.985,0.0,0.0
73490,-0.118,-1.477,0.231,-7.916,10.557,-26.908,0.0,0.0
73537,-0.141,-1.328,0.228,13.817,10.328,-9.504,0.0,0.0
73583,-0.096,-0.549,0.284,25.641,-3.443,37.305,0.0,0.0
73629,-0.113,-0.644,0.195,23.130,-4.786,72.221,0.0,0.0
73733,-0.221,-1.262,0.004,37.084,-60.855,49.344,0.0,0.0
73783,-0.072,-1.000,-0.034,28.183,-39.702,21.328,0.0,0.0
73829,-0.079,-0.860,0.016,21.779,-21.817,29.595,0.0,0.0
73876,-0.124,-0.847,0.042,13.542,-26.176,39.450,0.0,0.0
73922,-0.114,-0.856,0.068,5.298,-27.160,40.802,0.0,0.0
73969,-0.107,-0.910,0.079,0.137,-25.252,34.550,0.0,0.0
74015,-0.079,-0.933,0.090,-2.618,-14.702,22.275,0.0,0.0
74062,-0.083,-1.008,0.135,-8.252,0.527,8.153,0.0,0.0
74108,-0.168,-1.271,0.215,-19.771,3.046,-17.710,0.0,0.0
74156,-0.157,-1.320,0.301,-27.046,-2.550,-45.977,0.0,0.0
74202,-0.154,-1.356,0.368,-36.565,-17.229,-61.656,0.0,0.0
74252,-0.118,-1.021,0.299,-27.290,-39.198,-70.260,0.0,0.0
74298,0.045,-0.421,0.241,-9.672,-30.748,-25.099,0.0,0.0
74345,0.030,-0.730,0.116,4.069,-10.176,13.519,0.0,0.0
74391,0.113,-1.014,-0.081,22.702,40.519,17.221,0.0,0.0
74438,-0.009,-1.196,-0.036,13.878,110.634,-1.046,0.0,0.0
74484,-0.115,-0.910,0.132,-0.229,121.115,-2.115,0.0,0.0
74531,-0.297,-0.747,0.340,-13.580,66.679,10.580,0.0,0.0
74578,-0.298,-0.850,0.303,-14.687,-16.267,-0.176,0.0,0.0
74637,-0.088,-0.906,0.150,-15.458,-41.664,-25.489,0.0,0.0
74686,-0.042,-0.938,0.142,-24.099,-8.053,-34.206,0.0,0.0
74735,-0.108,-0.972,0.191,-22.611,11.641,-31.878,0.0,0.0
74784,-0.210,-1.100,0.286,-21.260,4.763,-32.443,0.0,0.0
74833,-0.140,-1.226,0.245,-14.466,-14.634,-32.008,0.0,0.0
74883,-0.096,-1.256,0.259,-10.115,-4.481,-16.435,0.0,0.0
74932,-0.171,-1.357,0.289,1.885,1.542,-4.405,0.0,0.0
74981,-0.122,-0.915,0.229,23.511,-11.969,13.168,0.0,0.0
75030,-0.116,-0.633,0.216,27.191,-14.672,47.336,0.0,0.0
75099,-0.191,-1.148,0.110,35.214,-33.260,58.458,0.0,0.0
75149,-0.091,-1.062,0.008,41.756,-46.221,51.412,0.0,0.0
75198,-0.071,-0.997,-0.013,32.397,-24.557,49.740,0.0,0.0
75247,-0.113,-0.917,0.040,26.015,-20.382,52.580,0.0,0.0
75296,-0.101,-0.835,0.047,18.450,-20.313,54.557,0.0,0.0
75345,-0.137,-0.902,0.064,6.008,-21.397,44.305,0.0,0.0
75392,-0.126,-0.948,0.072,-2.145,-22.908,22.695,0.0,158.0
75455,-0.100,-0.907,0.103,-9.122,-17.504,2.466,0.0,0.0
75504,-0.097,-1.102,0.138,-17.473,-3.740,-20.779,0.0,0.0
75574,-0.146,-1.302,0.209,-26.405,0.336,-47.603,0.0,0.0
75623,-0.113,-1.276,0.335,-40.573,3.718,-56.947,0.0,0.0
75673,-0.148,-0.979,0.332,-33.275,-12.725,-62.214,0.0,0.0
75722,-0.002,-0.498,0.239,-8.695,-19.053,-17.076,0.0,0.0
75771,-0.010,-0.708,0.146,1.344,-3.069,19.931,0.0,0.0
75821,-0.019,-1.137,0.012,12.328,31.000,16.328,0.0,0.0
75870,-0.056,-1.207,0.028,13.366,73.489,-9.779,0.0,0.0
75919,-0.060,-0.807,0.135,6.260,100.817,0.351,0.0,0.0
75968,-0.233,-0.715,0.270,-6.573,80.733,16.855,0.0,0.0
76020,-0.299,-0.905,0.283,-6.710,11.954,0.794,0.0,0.0
76069,-0.134,-0.937,0.179,-8.313,-8.885,-24.985,0.0,0.0
76120,-0.095,-0.967,0.196,-19.473,6.908,-37.115,0.0,0.0
76186,-0.168,-0.991,0.262,-20.008,10.794,-37.160,0.0,0.0
