Timestamp(ms),AccelX(g),AccelY(g),AccelZ(g),GyroX(deg/s),GyroY(deg/s),GyroZ(deg/s),DistanceLeft(cm),DistanceRight(cm)
32619,-0.122,-0.976,0.176,-1.794,-1.962,4.794,0.0,67.0
32671,-0.133,-0.977,0.187,-1.847,-2.420,2.176,0.0,66.0
32723,-0.122,-0.975,0.190,-2.855,-2.374,0.382,0.0,66.0
32776,-0.134,-0.975,0.180,-2.916,-2.237,-1.305,0.0,66.0
32829,-0.124,-0.978,0.170,-3.168,-1.130,-2.397,0.0,67.0
32881,-0.137,-0.979,0.181,-3.458,0.107,-2.992,0.0,66.0
32932,-0.136,-0.977,0.174,-3.511,-0.740,-3.298,178.0,66.0
32988,-0.135,-0.974,0.175,-3.687,-0.321,-2.985,0.0,65.0
33040,-0.141,-0.988,0.181,-3.908,0.214,-3.427,0.0,64.0
33093,-0.148,-0.969,0.184,-4.267,-1.221,-3.366,0.0,64.0
33145,-0.136,-0.974,0.194,-4.527,-2.115,-1.672,0.0,63.0
33198,-0.141,-0.979,0.188,-3.565,-2.794,-0.863,0.0,63.0
33250,-0.133,-0.981,0.176,-3.748,-1.206,-0.962,0.0,64.0
33302,-0.143,-0.976,0.181,-3.565,-0.740,-0.641,0.0,62.0
33354,-0.138,-0.981,0.181,-4.069,-3.489,-0.427,0.0,57.0
33406,-0.128,-0.974,0.164,-4.435,-2.511,-0.718,0.0,58.0
33462,-0.133,-0.977,0.160,-5.137,-1.153,-0.840,0.0,70.0
33515,-0.136,-0.975,0.173,-5.863,-2.382,-1.939,0.0,67.0
33567,-0.127,-0.964,0.160,-6.473,-1.176,-2.229,0.0,61.0
33619,-0.132,-0.973,0.160,-7.290,0.664,-2.557,0.0,61.0
33672,-0.145,-0.980,0.178,-7.802,-0.038,-4.794,0.0,62.0
33724,-0.125,-0.969,0.160,-8.588,0.504,-6.206,0.0,63.0
33775,-0.134,-0.966,0.155,-9.656,1.160,-6.275,170.0,60.0
33825,-0.132,-0.968,0.148,-10.328,0.702,-5.969,169.0,59.0
33875,-0.139,-0.959,0.147,-11.672,1.870,-7.221,169.0,58.0
33930,-0.137,-0.956,0.139,-13.565,4.023,-8.588,167.0,64.0
33980,-0.147,-0.953,0.141,-15.595,3.733,-9.389,160.0,57.0
34031,-0.134,-0.951,0.105,-16.214,2.809,-9.481,165.0,73.0
34081,-0.106,-0.904,0.063,-15.618,20.550,-8.374,158.0,66.0
34131,-0.184,-0.880,0.086,-13.908,40.771,-4.863,156.0,68.0
34183,-0.237,-0.881,-0.001,-7.397,59.267,7.092,162.0,72.0
34229,-0.442,-0.798,-0.170,5.740,104.985,4.756,86.0,64.0
34275,-0.610,-0.549,-0.293,-0.107,134.008,-21.237,83.0,82.0
34323,-0.676,-0.429,-0.232,-11.672,105.748,-7.603,72.0,106.0
34374,-0.444,-1.013,-0.129,-24.954,72.641,34.183,73.0,116.0
34423,-0.486,-1.275,0.239,-30.313,17.008,83.672,66.0,143.0
34471,0.287,-1.475,0.186,-35.992,-19.527,208.863,59.0,114.0
34522,-0.158,-2.000,0.492,-56.580,-24.115,119.000,77.0,152.0
34571,0.064,-1.517,0.438,41.008,-84.519,-73.664,51.0,135.0
34617,0.125,-1.417,-0.518,73.794,55.137,-119.573,52.0,95.0
34664,0.033,-1.469,-0.707,117.886,242.443,14.420,57.0,121.0
34712,-0.715,-1.136,0.555,70.069,111.275,39.015,50.0,123.0
34762,-0.025,-1.392,-0.291,39.374,-36.580,-85.176,51.0,125.0
34811,-0.013,-0.611,-0.174,27.763,81.924,-72.969,50.0,157.0
34860,-0.993,-0.806,0.474,-20.817,26.069,-61.267,16.0,159.0
34907,-0.434,-0.275,0.381,-29.603,-118.557,-49.710,17.0,160.0
34955,0.043,-1.050,-0.306,-2.260,-59.550,-29.313,16.0,162.0
35003,0.182,-0.956,-0.078,-4.557,-2.076,-6.458,16.0,164.0
35051,-0.006,-0.887,0.318,-13.679,-8.763,0.397,16.0,163.0
35098,0.050,-0.926,0.100,2.954,11.924,-21.534,16.0,163.0
35189,-0.074,-0.961,0.043,18.771,11.389,-22.359,16.0,165.0
35240,-0.045,-0.977,0.068,21.008,-21.168,-11.298,16.0,165.0
35290,-0.062,-1.007,0.035,14.420,12.534,3.122,38.0,163.0
35339,-0.020,-0.925,0.018,15.076,-28.908,-16.580,38.0,163.0
35387,0.104,-1.005,0.004,3.023,8.198,-6.702,18.0,164.0
35434,-0.089,-0.953,0.266,-0.229,1.664,-4.924,16.0,164.0
35482,-0.015,-0.938,0.136,3.695,-3.809,-11.122,16.0,163.0
35531,-0.032,-1.035,0.156,12.183,8.618,2.580,42.0,162.0
35579,-0.079,-1.027,0.063,8.931,-3.634,3.634,19.0,163.0
35628,-0.017,-0.938,0.165,5.115,-10.954,9.031,17.0,162.0
35678,-0.029,-0.883,0.078,2.649,13.366,8.435,16.0,162.0
35726,-0.131,-1.101,0.200,2.191,-1.183,13.000,17.0,163.0
35781,-0.109,-0.969,0.244,1.481,-19.489,26.672,0.0,113.0
35830,-0.152,-0.863,0.250,-1.046,5.802,25.794,79.0,112.0
35881,-0.201,-0.953,0.269,4.756,-20.954,22.863,76.0,162.0
35933,-0.063,-1.147,0.069,2.595,-13.924,23.298,76.0,162.0
35984,-0.266,-0.875,0.400,-3.969,11.137,39.069,75.0,162.0
36033,-0.096,-1.032,0.214,13.206,-20.550,17.450,73.0,111.0
36087,-0.184,-0.981,0.217,3.198,11.763,18.206,74.0,162.0
36135,-0.329,-0.980,0.200,11.664,1.389,13.084,70.0,111.0
36187,-0.170,-0.849,0.267,0.374,-3.695,21.847,73.0,162.0
36235,-0.235,-0.929,0.347,17.931,10.473,29.794,73.0,112.0
36286,-0.270,-0.811,0.225,14.931,11.412,29.710,73.0,162.0
36335,-0.221,-0.937,0.123,10.649,1.496,22.947,75.0,111.0
36390,-0.275,-0.976,0.250,2.634,-2.496,19.115,0.0,111.0
36449,-0.322,-0.893,0.282,0.985,7.023,18.908,0.0,164.0
36505,-0.324,-0.940,0.268,4.023,-11.641,13.229,0.0,113.0
36558,-0.354,-0.883,0.276,-0.588,0.076,15.695,89.0,133.0
36609,-0.354,-0.854,0.271,1.809,-6.046,16.771,81.0,132.0
36658,-0.314,-0.895,0.198,1.893,-3.924,9.282,80.0,112.0
36713,-0.368,-0.861,0.307,-5.527,-6.947,19.275,0.0,109.0
36770,-0.271,-0.824,0.240,-1.099,2.618,15.046,0.0,132.0
36827,-0.316,-0.874,0.318,-4.595,-8.855,11.832,0.0,138.0
36884,-0.329,-0.837,0.252,-0.901,2.664,10.153,0.0,132.0
36942,-0.252,-0.755,0.353,-14.305,7.901,18.588,0.0,158.0
37000,-0.144,-1.215,0.952,-9.374,43.130,43.031,0.0,127.0
37058,-0.154,-1.405,0.657,38.832,45.405,43.107,0.0,103.0
37112,-0.620,-0.960,0.662,28.992,-48.878,26.038,0.0,94.0
37167,-0.072,-0.395,-0.327,95.939,-32.908,27.588,0.0,87.0
37222,-0.304,-0.191,-0.567,57.695,140.916,-7.527,0.0,87.0
37277,-0.860,-0.640,-1.316,61.977,234.870,-53.229,197.0,110.0
37332,-0.872,-0.978,-0.386,-130.298,144.427,-52.382,176.0,132.0
37390,-1.060,-0.847,0.375,-89.595,79.405,-25.244,0.0,129.0
37447,-0.943,-1.155,0.152,-31.137,-13.885,-34.832,0.0,127.0
37505,-0.657,-0.898,0.125,-7.382,11.710,-24.359,195.0,149.0
37563,-0.609,-0.942,-0.240,28.153,58.885,-23.504,159.0,127.0
37617,-0.677,-0.756,-0.102,3.351,25.244,-41.000,160.0,131.0
37671,-0.527,-0.821,-0.143,16.992,13.656,-24.710,162.0,122.0
37727,-0.363,-0.958,-0.291,16.641,19.176,-15.794,164.0,126.0
37780,-0.635,-0.859,0.015,25.137,30.641,-34.634,167.0,102.0
37878,-0.312,-0.770,-0.159,36.718,-88.542,-34.962,0.0,94.0
37936,-0.259,-0.939,0.218,-5.557,-68.733,-31.275,0.0,133.0
37995,-0.488,-1.564,0.549,2.405,-97.847,-12.656,0.0,177.0
38055,-0.425,-0.833,0.301,58.374,38.298,33.107,0.0,132.0
38112,-0.578,-0.789,0.075,76.679,-3.183,9.603,181.0,133.0
38170,-0.279,-0.482,-0.293,48.496,-26.603,1.847,181.0,175.0
38230,-0.372,-0.573,-0.042,-6.405,51.519,1.153,186.0,173.0
38283,-0.460,-0.826,0.363,-25.939,31.183,-5.733,187.0,86.0
38338,-0.325,-0.873,0.469,-9.153,30.595,6.954,0.0,83.0
38392,-0.298,-0.864,0.277,15.458,29.656,-3.191,0.0,83.0
38451,-0.319,-0.788,0.162,2.145,47.809,-20.496,0.0,165.0
38509,-0.238,-0.744,0.213,-17.076,39.359,-19.947,195.0,151.0
38565,-0.133,-1.003,0.044,-1.412,57.527,-29.534,184.0,76.0
38620,-0.273,-1.155,-0.087,4.183,112.443,-42.710,0.0,70.0
38671,-0.497,-1.137,-0.026,-8.122,77.618,-53.351,122.0,111.0
38728,-0.378,-0.856,-0.364,0.099,43.573,-44.160,0.0,136.0
38784,-0.480,-1.048,-0.215,-45.015,16.053,-52.710,127.0,164.0
38833,-0.501,-1.033,-0.040,-32.267,17.779,-38.412,129.0,59.0
38880,-0.513,-1.037,-0.040,-19.092,14.450,-26.863,97.0,57.0
38933,-0.402,-0.893,-0.102,-15.176,-13.412,-17.664,96.0,160.0
38985,-0.344,-0.991,-0.169,-13.672,-12.344,-3.588,96.0,98.0
39037,-0.359,-0.974,-0.033,-22.221,-28.977,8.397,130.0,109.0
39090,-0.171,-1.027,-0.167,-15.443,-27.802,9.122,129.0,106.0
39139,-0.186,-0.971,-0.130,-6.947,-30.519,8.679,128.0,62.0
39191,-0.266,-0.986,-0.119,-1.412,-29.481,6.183,128.0,111.0
39250,-0.216,-1.023,-0.149,-6.145,-37.092,2.824,127.0,147.0
39304,-0.115,-0.988,-0.186,-5.908,-14.580,8.351,127.0,147.0
39356,-0.223,-0.945,-0.090,-0.366,-45.618,-2.489,127.0,141.0
39411,-0.260,-0.928,-0.103,-1.817,-55.389,1.137,125.0,138.0
39463,-0.268,-1.059,-0.092,-1.710,-35.038,9.321,125.0,138.0
39517,-0.187,-0.988,-0.081,-2.939,-34.076,11.740,125.0,142.0
39569,-0.143,-0.943,-0.089,2.168,-25.382,1.863,125.0,143.0
39621,-0.370,-1.051,-0.033,6.840,-29.634,-1.221,125.0,127.0
39672,-0.303,-1.002,-0.097,-1.954,-23.305,1.519,125.0,128.0
39726,-0.369,-0.902,0.030,-0.947,-51.153,10.168,124.0,144.0
39778,-0.260,-0.973,-0.081,2.832,-56.374,10.183,123.0,145.0
39831,-0.297,-1.004,-0.002,-1.588,-32.962,9.115,123.0,146.0
39886,-0.329,-0.980,0.043,1.649,-50.687,4.282,123.0,146.0
39944,-0.360,-0.879,0.034,0.710,-51.275,7.695,0.0,147.0
40001,-0.454,-0.977,0.074,9.641,-73.672,16.076,0.0,151.0
40059,-0.325,-0.906,-0.023,2.237,-49.939,20.527,0.0,151.0
40117,-0.333,-1.003,0.083,2.641,-46.176,23.908,0.0,154.0
40174,-0.259,-0.932,0.124,2.588,-61.672,16.649,0.0,157.0
40232,-0.172,-0.934,0.065,8.397,-42.092,5.756,0.0,157.0
40292,-0.278,-0.936,0.103,10.214,-7.618,5.237,0.0,189.0
40352,-0.311,-0.973,0.164,4.137,-3.618,-0.145,0.0,0.0
40401,-0.303,-1.005,0.195,11.420,-14.084,-13.664,0.0,0.0
40460,-0.287,-0.913,0.216,17.672,-5.229,-24.000,0.0,161.0
40520,-0.286,-0.993,0.169,22.244,5.786,-23.069,0.0,0.0
40566,-0.288,-0.810,0.273,5.069,-2.252,-19.542,0.0,0.0
40668,-0.193,-0.953,0.300,-2.794,-34.626,-13.038,0.0,160.0
40725,-0.124,-0.932,0.217,-4.634,-14.344,-42.809,0.0,162.0
40783,-0.122,-0.882,0.319,-8.137,-5.771,-30.962,0.0,163.0
40844,-0.102,-0.901,0.361,-1.130,-13.626,-24.435,0.0,0.0
40907,-0.038,-0.962,0.340,-3.702,-6.992,-20.145,0.0,0.0
40968,-0.017,-0.976,0.260,5.931,12.305,-21.779,0.0,0.0
41028,-0.085,-0.987,0.295,-1.435,14.489,-31.832,0.0,0.0
41088,-0.110,-0.886,0.306,-0.061,12.198,-36.412,0.0,190.0
41148,-0.100,-0.919,0.313,-2.580,8.443,-26.641,0.0,189.0
41207,-0.022,-0.986,0.304,1.412,1.122,-9.122,0.0,189.0
41268,-0.036,-0.977,0.350,1.832,17.046,-1.412,0.0,191.0
41326,-0.046,-0.938,0.363,7.679,10.779,-5.412,0.0,182.0
41387,-0.030,-0.978,0.320,7.588,-2.618,-2.687,0.0,191.0
41448,0.017,-0.917,0.252,8.656,13.977,-4.855,0.0,170.0
41507,-0.024,-0.949,0.276,4.954,19.023,-1.290,0.0,180.0
41565,-0.032,-0.943,0.315,1.405,12.634,-1.992,169.0,174.0
41624,0.010,-0.938,0.300,2.412,11.901,-2.595,0.0,179.0
41682,-0.010,-0.957,0.313,2.687,13.481,-5.344,0.0,177.0
41742,-0.013,-0.943,0.293,4.336,18.298,-9.038,0.0,172.0
41800,-0.014,-0.965,0.280,6.687,18.679,-10.725,0.0,165.0
41859,-0.029,-0.941,0.236,5.130,24.718,-13.252,0.0,170.0
41914,-0.034,-0.952,0.229,2.122,26.672,-13.527,115.0,183.0
41971,-0.020,-0.934,0.179,1.672,52.710,-15.718,113.0,172.0
42024,-0.069,-0.939,0.226,-3.931,50.649,-16.809,112.0,164.0
42078,-0.087,-0.899,0.242,-8.244,41.313,-20.397,111.0,163.0
42132,-0.035,-0.888,0.207,-7.359,45.237,-22.634,110.0,174.0
42185,0.021,-0.945,0.213,-8.550,59.672,-20.733,109.0,164.0
42236,0.002,-1.012,0.372,-6.565,83.023,-18.893,108.0,121.0
42287,-0.285,-1.155,0.823,5.359,62.504,-14.427,108.0,117.0
42338,-0.327,-1.305,0.781,29.053,-27.954,11.992,107.0,119.0
42388,-0.338,-1.148,0.403,50.015,-50.382,44.634,105.0,123.0
42442,-0.385,-0.944,0.165,37.718,-81.977,-0.992,103.0,126.0
42496,-0.166,-0.196,0.049,63.084,10.176,-16.748,99.0,177.0
42547,-0.247,-0.130,0.132,15.099,65.008,7.191,95.0,130.0
42594,-0.398,-0.535,0.240,-28.351,15.786,-1.580,90.0,78.0
42642,-0.360,-0.669,0.296,-67.321,-89.252,-20.427,84.0,94.0
42692,-0.074,-1.320,0.065,-107.832,-215.153,-48.870,78.0,150.0
42746,0.473,-1.785,-0.134,-91.924,-243.550,-34.771,73.0,0.0
42798,1.232,-1.701,-0.331,3.947,-127.672,28.771,39.0,0.0
42854,0.973,-1.363,0.286,-13.931,40.099,33.824,66.0,0.0
42907,0.442,-0.936,0.432,21.863,78.939,-13.511,66.0,0.0
42960,0.134,-1.519,0.385,22.962,35.450,-47.611,65.0,0.0
43013,-0.056,-1.037,0.873,34.916,-9.313,12.992,62.0,0.0
43066,0.297,-0.751,0.313,63.069,-81.931,-25.542,60.0,0.0
43105,0.524,-0.636,0.071,47.580,-37.901,-59.237,61.0,0.0
43163,0.553,-0.781,0.020,34.191,16.061,-66.565,159.0,0.0
43215,0.000,-0.742,0.674,28.649,9.084,-36.565,58.0,0.0
43268,0.538,-0.777,0.482,31.656,-33.450,-40.015,58.0,0.0
43324,0.453,-0.508,0.366,36.626,-11.679,-31.160,60.0,0.0
43376,0.225,-0.690,0.415,26.664,-8.183,-32.099,59.0,0.0
43472,0.685,-0.715,0.237,28.756,-13.550,-27.328,58.0,0.0
43525,0.470,-0.815,0.490,16.534,5.969,0.969,58.0,0.0
43578,0.470,-0.683,0.507,18.901,-21.504,-13.099,73.0,0.0
43631,0.682,-0.702,0.503,17.702,0.962,-2.824,58.0,0.0
43683,0.544,-0.629,0.547,18.718,2.969,-21.145,57.0,0.0
43736,0.545,-0.576,0.447,9.664,2.191,-28.794,57.0,0.0
43789,0.376,-0.606,0.505,3.748,23.679,-1.206,57.0,0.0
43844,0.510,-0.557,0.548,1.275,-20.718,-1.824,57.0,0.0
43897,0.769,-0.715,0.509,2.786,-14.313,-5.779,57.0,0.0
43950,0.503,-0.636,0.667,4.687,11.885,-13.595,57.0,0.0
44002,0.523,-0.500,0.387,8.679,27.924,-7.382,58.0,0.0
44055,0.415,-0.537,0.433,0.214,10.603,6.573,58.0,0.0
44107,0.452,-0.553,0.548,-18.725,13.008,22.519,58.0,0.0
44161,0.510,-0.690,0.738,-10.237,-16.206,29.916,58.0,0.0
44213,0.622,-0.627,0.704,2.809,30.855,36.901,58.0,0.0
44266,0.525,-0.758,0.689,16.336,11.420,30.466,58.0,0.0
44321,0.414,-0.737,0.493,20.122,14.344,48.237,58.0,0.0
44375,0.355,-0.606,0.534,-0.458,26.405,45.473,59.0,0.0
44427,0.295,-0.657,0.698,-3.031,-5.412,46.756,60.0,0.0
44480,0.535,-0.678,0.498,-1.489,10.908,33.176,61.0,0.0
44533,0.313,-0.674,0.601,-8.496,18.450,25.634,62.0,0.0
44587,0.221,-0.652,0.676,-10.405,-3.115,24.313,63.0,0.0
44640,0.221,-0.535,0.414,-12.756,40.122,14.939,71.0,0.0
44695,-0.063,-0.685,0.691,-21.420,2.901,38.924,99.0,0.0
44750,0.169,-0.803,0.583,-12.519,-5.168,60.176,104.0,0.0
44806,0.440,-1.081,0.707,3.725,11.061,74.137,103.0,0.0
44864,0.347,-1.010,0.589,11.153,34.656,27.252,105.0,0.0
44917,0.107,-0.771,0.648,-1.573,65.573,13.473,107.0,146.0
44973,0.035,-0.792,0.767,8.878,32.008,27.908,110.0,0.0
45029,0.451,-0.900,0.127,22.008,16.221,-7.771,114.0,0.0
45085,-0.050,-0.758,0.218,-37.198,96.992,-75.099,119.0,0.0
45139,-0.424,-0.844,0.376,-38.641,39.336,-71.771,82.0,0.0
45194,-0.444,-1.048,0.661,-68.664,10.092,-68.168,83.0,196.0
45248,-0.040,-0.545,0.358,-38.000,58.504,-49.687,84.0,0.0
45306,-0.326,-0.837,0.432,-46.939,93.298,-42.679,86.0,0.0
45361,-0.493,-1.135,0.705,-51.733,62.321,-54.473,88.0,0.0
45415,-0.226,-1.006,0.606,-27.672,-11.023,12.206,87.0,200.0
45469,0.094,-1.082,0.392,-13.534,-18.550,8.664,86.0,194.0
45523,0.202,-0.986,0.135,-8.939,4.511,4.771,85.0,191.0
45578,-0.052,-1.048,0.419,-22.901,-24.916,-6.366,86.0,193.0
45632,0.082,-0.719,0.283,-28.779,-2.130,-16.496,86.0,189.0
45686,0.030,-1.033,0.299,-22.107,-27.084,-31.901,87.0,187.0
45741,0.031,-1.023,0.349,-21.611,-44.229,-25.466,87.0,0.0
45799,0.109,-0.989,0.364,-6.824,-31.214,-14.725,87.0,0.0
45853,0.031,-1.115,0.307,7.672,-9.489,-11.076,86.0,195.0
45907,0.004,-1.012,0.298,7.626,-21.069,10.504,85.0,0.0
45962,0.089,-0.933,0.232,5.443,-10.023,6.176,84.0,0.0
46016,0.308,-0.808,-0.017,-5.855,0.870,8.168,83.0,0.0
46070,0.053,-1.041,0.287,-5.481,-29.153,8.137,82.0,197.0
46125,0.227,-0.991,0.254,-20.008,-14.153,-6.542,82.0,0.0
46222,0.138,-0.972,0.271,-6.916,-6.710,-10.145,82.0,196.0
46276,0.087,-1.018,0.300,-0.244,-12.565,-10.824,82.0,0.0
46339,0.198,-1.052,0.155,-12.702,49.061,1.031,82.0,195.0
46392,0.082,-0.967,0.301,-9.305,10.122,-1.626,81.0,0.0
46445,0.204,-0.963,0.125,-2.481,-13.618,-4.916,81.0,0.0
46498,0.096,-0.962,0.266,-11.573,-0.573,-1.771,80.0,0.0
46552,0.154,-0.922,0.190,-11.885,0.305,-1.740,80.0,0.0
46605,0.143,-1.065,0.255,-7.962,2.794,3.023,79.0,196.0
46658,0.099,-0.985,0.302,-10.160,-1.573,-6.786,79.0,200.0
46711,0.298,-1.004,0.071,-0.603,-13.679,-2.740,79.0,0.0
46764,-0.007,-0.988,0.309,-6.534,19.710,-4.580,79.0,198.0
46820,0.139,-0.939,0.127,-2.435,-37.748,-0.038,79.0,198.0
46873,0.308,-0.931,0.049,-12.519,-3.382,-2.008,79.0,0.0
46926,0.108,-0.984,0.228,-6.565,3.008,5.275,78.0,0.0
46966,0.226,-0.975,0.166,-8.496,-20.237,3.977,78.0,0.0
47019,0.239,-0.990,0.120,-1.557,-3.794,4.534,78.0,0.0
47072,0.288,-0.992,0.019,-7.221,-3.168,1.237,77.0,0.0
47125,0.082,-0.968,0.240,-10.565,9.382,1.145,78.0,0.0
47178,0.311,-0.954,0.033,-10.985,-1.198,-2.038,79.0,0.0
47232,0.230,-0.962,0.099,-14.443,21.695,-3.412,79.0,0.0
47288,0.263,-1.084,0.049,-9.115,2.389,-5.718,80.0,0.0
47341,0.078,-0.998,0.228,-21.672,29.366,-7.405,81.0,200.0
47395,0.243,-0.970,0.049,-10.603,18.527,-6.061,82.0,199.0
47449,0.239,-1.015,-0.001,-9.962,18.069,-2.580,83.0,0.0
47499,0.001,-1.000,0.283,-18.168,30.061,-1.374,84.0,142.0
47549,0.242,-0.934,0.067,-16.687,37.695,-1.000,85.0,140.0
47603,0.286,-0.979,0.003,-8.939,32.718,2.771,85.0,0.0
47653,-0.035,-1.113,0.320,-17.695,38.061,-4.344,86.0,139.0
47707,-0.018,-1.007,0.264,6.366,-7.664,14.954,87.0,195.0
47763,-0.061,-1.036,0.248,6.656,26.695,27.405,88.0,193.0
47811,-0.458,-1.003,0.345,19.374,51.878,55.863,86.0,97.0
47861,-0.633,-0.937,0.237,-0.634,-50.244,30.496,84.0,140.0
47911,-0.273,-0.750,-0.125,-22.534,-97.886,38.573,80.0,143.0
47963,-0.104,-0.593,-0.013,-31.191,-55.160,100.580,76.0,148.0
48015,-0.006,-0.603,0.114,-13.489,-72.145,133.702,73.0,188.0
48063,0.002,-0.991,0.131,1.916,-182.458,77.626,70.0,110.0
48110,-0.010,-1.677,0.113,52.122,-214.588,58.634,67.0,106.0
48162,0.497,-2.000,-0.724,110.443,-187.511,50.847,110.0,104.0
48211,0.632,-0.841,-0.589,50.015,36.656,63.137,113.0,73.0
48261,0.238,-0.910,-0.180,-32.053,115.107,11.427,118.0,95.0
48309,-0.271,-0.910,0.236,-15.229,87.725,-12.008,81.0,92.0
48356,-0.375,-1.229,0.088,-23.427,72.855,-54.672,85.0,85.0
48403,-0.442,-1.271,-0.064,-6.916,96.191,-69.573,90.0,81.0
48454,-0.914,-1.487,0.181,-25.679,108.000,-57.427,96.0,156.0
48506,-0.441,-1.146,-0.182,-38.588,48.008,-62.573,101.0,151.0
48560,-0.371,-1.235,-0.109,-56.771,60.519,-86.740,106.0,147.0
48614,-0.490,-1.170,-0.009,-52.053,113.695,-93.099,112.0,134.0
48664,-0.117,-1.185,-0.418,-29.718,132.038,-97.626,117.0,103.0
48715,-0.541,-0.842,0.004,-53.855,84.076,-82.344,121.0,100.0
48769,-0.376,-1.073,0.012,-45.908,55.962,-58.786,112.0,171.0
48865,-0.010,-0.876,-0.070,-24.687,-10.771,-3.221,115.0,151.0
48919,0.027,-1.037,-0.093,-19.962,4.725,-15.092,128.0,158.0
48972,0.164,-0.972,-0.169,-8.137,15.779,-6.885,117.0,143.0
49026,0.119,-0.962,-0.214,-8.656,12.252,-23.260,118.0,155.0
49082,-0.170,-0.959,-0.022,-1.679,-42.359,-15.389,129.0,147.0
49135,0.325,-0.885,-0.404,-9.870,-35.969,-4.321,129.0,149.0
49189,0.168,-1.020,-0.161,-5.626,-7.336,-3.878,129.0,148.0
49243,0.242,-0.974,-0.122,5.351,-21.588,-2.084,129.0,150.0
49298,0.298,-1.030,-0.158,4.733,28.450,3.771,119.0,176.0
49351,0.179,-1.030,-0.081,21.069,-12.695,-5.527,127.0,157.0
49405,0.374,-0.993,-0.382,17.214,-29.076,-12.802,127.0,156.0
49460,0.182,-0.974,-0.224,-0.969,14.267,-20.809,126.0,157.0
49516,0.222,-0.881,-0.213,1.649,-2.496,-11.427,126.0,152.0
49570,0.337,-1.001,-0.322,-2.794,14.863,-6.382,126.0,154.0
49625,0.135,-0.831,-0.102,-11.878,29.206,-6.290,126.0,154.0
49678,0.235,-0.976,-0.087,-7.939,-16.382,4.221,126.0,151.0
49731,0.346,-1.024,-0.168,0.130,-30.206,0.519,117.0,152.0
49785,0.346,-0.955,-0.197,0.176,-5.427,-6.084,125.0,153.0
49839,0.318,-0.974,-0.230,-3.183,10.221,-6.756,126.0,155.0
49893,0.302,-0.935,-0.238,-3.137,2.389,-1.092,126.0,154.0
49946,0.339,-0.936,-0.186,-12.710,2.458,-8.489,127.0,154.0
50003,0.271,-1.003,-0.171,-1.550,1.023,-11.183,127.0,154.0
50059,0.323,-1.020,-0.270,-2.908,1.298,-9.313,128.0,165.0
50115,0.371,-0.977,-0.263,-1.748,20.573,-4.969,129.0,0.0
50158,0.303,-0.896,-0.182,1.885,3.366,-8.855,130.0,0.0
50214,0.235,-1.038,-0.112,-1.802,-13.069,-9.656,130.0,0.0
50257,0.422,-0.857,-0.271,-5.160,-5.481,-11.137,132.0,0.0
50323,0.328,-0.973,-0.224,-2.916,8.802,-23.221,133.0,0.0
50365,0.192,-0.957,-0.119,-5.756,14.427,-13.405,135.0,0.0
50419,0.406,-0.934,-0.225,2.046,-10.191,-0.870,135.0,161.0
50477,0.408,-0.917,-0.254,4.649,5.542,-8.542,135.0,164.0
50531,0.310,-0.978,-0.231,2.733,-4.107,-12.908,135.0,161.0
50585,0.366,-0.965,-0.229,-1.947,8.282,0.031,136.0,159.0
50638,0.369,-0.913,-0.205,-0.489,11.924,1.267,136.0,145.0
50692,0.320,-0.948,-0.125,3.679,-18.931,-6.695,136.0,144.0
50745,0.377,-0.978,-0.191,5.122,-2.672,0.466,136.0,144.0
50799,0.412,-0.913,-0.185,7.107,-10.252,2.420,135.0,163.0
50855,0.408,-0.955,-0.194,13.176,-14.542,-0.924,135.0,0.0
50902,0.351,-0.919,-0.138,5.260,-0.763,4.053,135.0,0.0
50958,0.425,-0.974,-0.201,10.389,-3.908,6.053,135.0,0.0
51001,0.375,-0.986,-0.120,6.626,-1.733,1.634,135.0,0.0
51057,0.369,-0.958,-0.107,9.397,2.313,0.122,135.0,0.0
51099,0.308,-0.992,-0.082,18.405,-5.137,3.489,135.0,0.0
51155,0.326,-0.989,-0.114,20.244,-11.076,3.817,136.0,200.0
51211,0.324,-0.943,-0.142,18.069,8.916,12.168,136.0,168.0
51267,0.288,-0.995,-0.071,18.702,1.450,12.580,136.0,0.0
51310,0.254,-0.990,-0.013,20.809,-8.618,15.008,135.0,0.0
51369,0.333,-0.939,-0.058,22.534,3.466,18.435,134.0,0.0
51411,0.260,-1.003,-0.022,24.450,-1.244,19.824,133.0,0.0
51468,0.223,-0.971,0.009,23.649,-8.328,21.763,132.0,199.0
51565,0.229,-0.991,0.036,21.282,-19.695,13.649,131.0,152.0
51619,0.238,-1.018,0.027,20.168,-17.954,15.344,130.0,162.0
51674,0.226,-0.991,0.032,21.405,-17.023,12.611,129.0,174.0
51728,0.169,-1.042,0.062,20.695,-16.252,13.275,128.0,159.0
51782,0.173,-0.962,0.073,18.344,-18.756,12.893,127.0,169.0
51837,0.187,-0.964,0.069,18.496,-26.282,14.214,126.0,173.0
51894,0.125,-1.005,0.100,16.458,-22.611,15.786,125.0,160.0
51948,0.175,-0.985,0.070,14.458,-20.901,16.344,124.0,176.0
52002,0.142,-0.974,0.078,13.321,-8.450,18.267,123.0,170.0
52057,0.071,-0.997,0.154,11.115,-30.008,14.595,122.0,167.0
52111,0.132,-0.967,0.133,10.634,-29.328,22.817,121.0,167.0
52165,0.160,-1.009,0.130,14.145,-27.351,12.069,120.0,172.0
52218,0.105,-0.979,0.157,13.901,-16.481,10.992,119.0,164.0
52274,0.144,-0.996,0.128,17.412,-10.672,5.176,118.0,181.0
52330,0.048,-1.007,0.156,19.344,9.405,0.260,117.0,167.0
52384,-0.021,-1.177,0.190,23.313,3.489,19.908,115.0,169.0
52439,-0.096,-1.104,0.190,31.053,36.763,57.176,113.0,181.0
52497,-0.417,-1.076,0.387,35.198,52.626,105.878,182.0,185.0
52556,-0.691,-0.903,0.621,19.160,-11.947,173.496,0.0,179.0
52616,-0.694,-1.157,0.363,-13.122,-119.611,213.053,0.0,173.0
52671,-0.418,-0.745,-0.010,-0.939,-148.023,148.405,0.0,119.0
52727,-0.019,-0.678,-0.151,-40.435,-82.603,88.710,0.0,124.0
52784,-0.059,-0.870,0.458,-99.672,-32.115,58.221,0.0,126.0
52842,-0.073,-0.769,0.498,-97.855,-63.053,-18.847,0.0,108.0
52898,-0.031,-0.945,0.352,-79.893,-56.107,-29.000,0.0,111.0
52954,-0.212,-0.995,0.526,-25.855,-38.626,-26.947,0.0,112.0
53009,-0.356,-0.812,0.539,-22.450,-35.397,-13.878,0.0,110.0
53063,-0.211,-0.843,0.296,14.702,-25.122,19.305,0.0,82.0
53118,-0.142,-0.849,0.084,13.977,26.985,15.351,0.0,114.0
53172,-0.318,-0.987,0.251,-19.931,20.557,11.076,0.0,80.0
53226,-0.219,-0.913,0.264,-25.061,-7.389,0.679,0.0,79.0
53279,-0.296,-0.896,0.234,-17.122,31.870,-10.412,0.0,79.0
53338,-0.550,-0.772,0.342,-12.382,42.878,-10.481,0.0,105.0
53393,-0.510,-0.851,0.218,-15.046,19.924,-5.924,0.0,103.0
53446,-0.483,-0.866,0.241,-22.595,4.275,3.489,0.0,81.0
53501,-0.377,-0.937,0.163,-10.397,13.107,6.023,0.0,101.0
53557,-0.529,-0.841,0.237,-20.374,8.214,1.893,0.0,117.0
53611,-0.480,-0.844,0.200,-15.542,-10.038,9.046,0.0,79.0
53664,-0.456,-0.848,0.168,-22.641,-13.511,9.656,0.0,79.0
53720,-0.507,-0.667,0.241,-23.214,-19.641,18.802,0.0,101.0
53776,-0.416,-0.501,0.165,-20.771,-32.336,18.817,0.0,77.0
53830,-0.345,-0.810,0.156,-22.649,-13.412,-8.519,0.0,78.0
53883,-0.699,-1.105,0.548,-10.336,20.031,-28.153,0.0,77.0
53938,-0.669,-1.422,0.368,42.977,-98.336,-78.053,0.0,76.0
53991,-0.445,-0.854,0.219,40.214,-55.229,-20.908,0.0,67.0
54044,-0.750,-0.857,0.303,32.298,-33.588,33.351,0.0,80.0
54097,-0.422,-0.650,-0.098,35.137,-84.832,72.099,0.0,69.0
54151,-0.314,-0.888,-0.261,-9.756,-56.008,86.153,0.0,71.0
54204,-0.348,-0.666,0.104,-58.122,-57.489,87.443,0.0,71.0
54261,-0.311,-1.125,0.490,-51.427,-46.740,30.840,0.0,73.0
54358,-0.205,-0.907,0.344,-14.061,6.802,14.122,0.0,73.0
54411,-0.426,-0.718,0.294,-13.550,-15.870,-22.397,0.0,72.0
54464,-0.448,-0.888,0.194,-24.466,10.305,-21.382,0.0,72.0
54517,-0.726,-0.770,0.444,-29.435,8.794,-22.504,0.0,63.0
54574,-0.426,-0.749,-0.032,-27.031,-29.038,-32.939,0.0,63.0
54627,-0.457,-0.796,0.087,-70.153,-29.779,-32.817,0.0,64.0
54680,-0.251,-0.879,0.052,-66.786,-1.656,-25.489,0.0,65.0
54729,-0.091,-0.960,0.204,-67.092,19.267,-6.031,131.0,66.0
54786,0.100,-1.314,0.446,-14.023,43.649,1.557,0.0,65.0
54839,0.047,-1.266,0.181,38.450,86.725,-1.160,0.0,64.0
54895,-0.336,-1.564,0.212,37.901,19.374,-19.718,0.0,62.0
54947,-0.109,-1.187,-0.019,47.542,48.229,-51.672,0.0,59.0
55002,-0.556,-1.181,0.321,51.275,115.855,-16.397,0.0,76.0
55055,-0.675,-0.819,0.366,72.382,3.244,-20.802,0.0,70.0
55108,-0.320,-0.671,0.121,72.168,-6.076,9.557,0.0,68.0
55161,-0.263,-0.722,0.103,68.328,47.466,35.237,0.0,65.0
55215,-0.225,-1.113,0.274,60.481,31.443,33.870,0.0,63.0
55270,-0.238,-1.190,0.451,73.855,57.389,59.687,0.0,56.0
55323,-0.313,-1.295,0.710,91.115,40.519,44.153,0.0,60.0
55375,-0.440,-1.142,0.470,146.206,60.031,56.450,0.0,61.0
55430,-0.641,-0.496,0.172,159.626,46.321,4.794,0.0,80.0
55482,-0.882,0.053,-0.153,141.282,64.244,7.069,0.0,54.0
55536,-0.936,-0.036,0.130,79.160,56.824,53.557,0.0,72.0
55588,-0.764,-0.181,0.590,40.160,21.565,59.626,0.0,59.0
55642,-0.656,-0.321,0.531,16.962,-9.733,45.534,0.0,60.0
55695,-0.578,-0.165,0.421,24.565,-3.206,26.359,0.0,60.0
55750,-0.766,-0.370,0.690,11.321,-24.412,7.733,0.0,54.0
55806,-0.731,-0.221,0.549,18.908,-41.275,15.092,0.0,60.0
55860,-0.628,-0.107,0.684,5.557,4.969,3.496,0.0,62.0
55916,-0.807,-0.300,0.731,17.748,16.458,17.550,0.0,62.0
55969,-0.695,-0.194,0.706,25.855,-11.573,5.122,0.0,65.0
56023,-0.620,-0.081,0.582,26.847,-12.565,-8.809,0.0,65.0
56076,-0.787,-0.171,0.528,27.176,-5.496,-15.076,0.0,57.0
56132,-0.749,-0.070,0.537,12.290,-19.244,5.618,0.0,58.0
56185,-0.699,-0.008,0.669,4.115,-14.145,1.565,0.0,59.0
56241,-0.628,-0.129,0.677,4.847,-24.893,4.145,0.0,59.0
56298,-0.593,-0.004,0.668,8.099,-10.359,0.427,0.0,60.0
56351,-0.654,-0.093,0.666,13.397,-9.603,3.855,0.0,67.0
56404,-0.666,-0.022,0.668,10.878,-6.099,5.046,0.0,66.0
56458,-0.625,-0.035,0.647,4.115,-4.542,1.061,0.0,68.0
56511,-0.652,-0.020,0.669,-5.603,0.069,-2.359,0.0,63.0
56565,-0.656,-0.159,0.715,-9.122,-4.489,1.794,0.0,76.0
56619,-0.511,-0.367,0.775,1.366,-7.702,3.496,0.0,63.0
56671,-0.374,-0.408,0.753,18.023,-8.130,-15.534,0.0,62.0
56728,-0.339,-0.232,0.809,31.511,-28.397,-9.443,0.0,64.0
56781,-0.293,-0.047,0.678,58.893,-23.954,-3.366,0.0,68.0
56836,-0.372,0.164,0.697,58.443,-2.382,17.405,0.0,73.0
56889,-0.698,-0.246,0.729,40.771,21.786,-3.641,0.0,69.0
56942,-0.788,-0.098,0.861,32.947,68.908,-45.931,0.0,73.0
56996,-0.807,0.254,1.159,39.595,44.450,-13.038,0.0,69.0
57085,-0.578,0.283,0.768,9.382,43.427,27.962,51.0,84.0
57139,-0.614,0.384,0.735,20.901,22.473,28.916,0.0,68.0
57192,-0.498,0.608,0.541,1.626,3.847,17.405,0.0,66.0
57249,-0.813,0.518,0.552,-18.534,57.901,-8.656,0.0,66.0
57308,-1.115,0.132,0.651,-47.878,18.160,6.664,0.0,61.0
57363,-0.949,0.063,0.321,-26.962,-11.443,7.542,0.0,55.0
57415,-1.229,0.088,0.271,-18.893,26.107,23.481,0.0,64.0
57470,-1.050,0.095,0.412,-18.450,9.725,52.580,0.0,54.0
57523,-0.967,-0.048,0.578,-79.198,-26.473,45.855,0.0,56.0
57579,-0.794,-0.216,0.550,-48.466,-60.359,19.336,0.0,68.0
57631,-0.768,0.080,0.605,-33.756,-29.305,13.763,0.0,71.0
57684,-0.666,0.156,0.573,-16.847,-21.351,11.756,0.0,78.0
57741,-0.656,0.371,0.586,-16.351,-8.679,-2.763,0.0,76.0
57793,-0.765,0.403,0.916,-55.924,-35.450,-11.450,0.0,70.0
57847,-0.546,-0.098,0.851,-76.107,-53.641,1.328,0.0,85.0
57901,-0.220,-0.191,0.878,-42.198,-26.420,7.229,0.0,76.0
57955,-0.153,0.015,0.810,5.695,16.565,-4.229,0.0,99.0
58008,-0.516,0.183,0.823,3.443,36.351,-12.847,0.0,90.0
58061,-0.719,0.212,0.812,4.336,-0.015,-0.351,0.0,79.0
58115,-0.460,0.215,0.652,8.435,-8.534,8.481,0.0,79.0
58168,-0.513,0.205,0.742,-11.931,13.618,7.893,0.0,76.0
58224,-0.506,0.184,0.747,-11.252,7.252,7.275,0.0,77.0
58277,-0.511,0.112,0.729,-20.855,13.053,8.023,0.0,77.0
58331,-0.489,0.154,0.665,-26.489,17.374,8.359,0.0,76.0
58383,-0.568,-0.005,0.637,-19.122,27.511,12.214,0.0,76.0
58436,-0.624,-0.005,0.649,-20.931,27.702,8.687,0.0,75.0
58489,-0.621,-0.156,0.648,-28.336,11.168,1.832,0.0,71.0
58543,-0.603,-0.379,0.611,-28.153,17.290,-16.870,0.0,70.0
58595,-0.780,-0.385,0.785,-11.809,37.015,-29.069,0.0,67.0
58647,-1.028,-0.112,0.877,12.328,18.130,-36.275,0.0,63.0
58702,-0.979,-0.048,0.619,21.794,31.015,-36.008,0.0,64.0
58756,-1.057,0.042,0.804,7.443,1.870,-2.901,0.0,63.0
58808,-0.675,0.040,0.574,26.924,-42.481,-12.176,0.0,64.0
58860,-0.602,-0.015,0.465,27.183,7.252,-13.626,0.0,63.0
58912,-0.781,0.035,0.590,22.221,-7.794,-24.725,0.0,63.0
58966,-0.761,0.093,0.517,10.641,-12.771,-22.588,0.0,65.0
59018,-0.781,0.001,0.599,10.550,-8.130,-21.198,0.0,65.0
59071,-0.826,0.064,0.573,15.618,-1.870,-11.031,0.0,63.0
59123,-0.778,-0.038,0.594,23.282,-6.496,3.641,0.0,65.0
59179,-0.716,0.091,0.598,5.252,15.366,-6.023,0.0,66.0
59232,-0.789,-0.078,0.685,-15.389,-2.405,-9.969,0.0,67.0
59284,-0.592,-0.268,0.651,1.908,-8.221,-5.939,0.0,67.0
59337,-0.485,-0.199,0.716,-0.130,0.053,-21.794,0.0,67.0
59389,-0.541,-0.328,0.722,14.313,13.130,-46.328,0.0,68.0
59443,-0.667,-0.215,0.640,23.679,24.069,-55.748,0.0,69.0
59496,-0.813,-0.158,0.690,23.084,16.397,-47.573,0.0,68.0
59549,-0.777,-0.123,0.698,24.015,1.122,-52.748,0.0,69.0
59606,-0.755,-0.198,0.676,18.641,1.382,-46.809,0.0,74.0
59662,-0.744,-0.228,0.701,15.672,-0.473,-45.618,0.0,73.0
59715,-0.676,-0.337,0.766,14.405,-8.420,-49.863,0.0,74.0
59816,-0.512,-0.302,0.711,25.397,-0.130,-64.046,0.0,155.0
59875,-0.512,-0.215,0.639,28.145,5.916,-66.336,0.0,166.0
59933,-0.532,-0.104,0.511,14.275,20.359,-69.069,0.0,164.0
59992,-0.589,-0.168,0.640,-11.053,26.092,-62.893,0.0,161.0
60050,-0.555,-0.254,0.650,-14.038,17.847,-54.832,0.0,160.0
60108,-0.514,-0.270,0.619,-21.977,16.305,-52.695,0.0,159.0
60170,-0.604,-0.468,0.561,-33.115,29.313,-64.977,0.0,162.0
60227,-0.639,-0.573,0.631,-45.427,32.603,-67.237,0.0,152.0
60285,-0.615,-0.677,0.629,-40.282,10.031,-70.351,0.0,151.0
60343,-0.529,-0.693,0.483,-44.969,12.145,-70.511,0.0,149.0
60400,-0.581,-0.718,0.451,-43.824,17.542,-47.527,0.0,151.0
60459,-0.559,-0.735,0.371,-50.771,-8.672,-32.183,0.0,145.0
60516,-0.446,-0.830,0.320,-48.206,-12.672,-7.557,0.0,148.0
60573,-0.368,-0.881,0.301,-38.595,-5.687,-4.885,0.0,147.0
60632,-0.369,-0.912,0.323,-35.344,2.618,-2.794,0.0,156.0
60693,-0.389,-0.915,0.298,-28.885,-10.435,-7.176,0.0,152.0
60750,-0.334,-0.896,0.222,-27.092,-10.969,-7.061,0.0,151.0
60808,-0.343,-0.879,0.211,-22.153,8.099,-7.748,0.0,145.0
60865,-0.375,-0.914,0.219,-21.687,6.481,-6.290,0.0,143.0
60922,-0.385,-0.915,0.188,-17.733,9.252,-5.321,0.0,141.0
60980,-0.361,-0.910,0.189,-13.115,7.366,-5.069,0.0,140.0
61036,-0.359,-0.941,0.147,-11.389,4.046,-7.122,0.0,120.0
61093,-0.393,-0.863,0.140,-14.992,7.580,-7.298,0.0,138.0
61151,-0.386,-0.908,0.097,-17.649,1.756,-1.771,0.0,137.0
61210,-0.363,-0.928,0.101,-18.267,6.099,2.450,0.0,137.0
61267,-0.401,-0.926,0.120,-19.427,6.069,2.954,0.0,135.0
61325,-0.373,-0.907,0.128,-17.122,-7.496,3.672,0.0,135.0
61381,-0.470,-0.935,0.115,-18.595,-13.321,4.718,0.0,135.0
61438,-0.403,-0.896,0.056,-19.427,-13.267,16.947,0.0,136.0
61496,-0.370,-0.910,0.026,-17.061,14.420,14.672,0.0,134.0
61554,-0.479,-0.972,0.060,-11.748,11.069,3.412,0.0,156.0
61612,-0.387,-0.910,0.092,-21.511,-13.802,-1.130,0.0,154.0
61673,-0.328,-0.946,0.108,-19.885,-27.672,-16.725,0.0,148.0
61731,-0.267,-0.960,0.029,1.672,-11.504,-12.206,0.0,154.0
61789,-0.402,-1.020,0.049,4.908,9.916,-15.260,0.0,135.0
61845,-0.350,-0.980,0.032,4.573,-7.435,-10.107,0.0,131.0
61901,-0.296,-0.956,0.016,-9.237,0.412,-15.832,0.0,127.0
61959,-0.287,-0.990,0.095,-17.244,15.641,-14.504,0.0,126.0
62015,-0.317,-1.182,0.231,-11.458,-16.336,-22.511,0.0,124.0
62072,0.044,-1.158,-0.051,18.527,-13.153,-42.305,0.0,144.0
62132,-0.106,-0.821,0.198,3.870,23.092,-14.000,0.0,175.0
62194,-0.162,-0.891,0.134,19.000,-33.763,-49.336,0.0,170.0
62249,-0.129,-0.670,-0.035,4.985,-0.794,-51.832,0.0,91.0
62308,-0.260,-1.049,0.048,-30.351,40.534,-68.588,0.0,163.0
62365,-0.323,-0.928,0.238,-33.450,34.817,-60.344,0.0,131.0
62422,-0.324,-1.026,0.228,-21.695,-39.000,-71.420,0.0,124.0
62478,0.124,-1.543,-0.330,-11.550,-36.748,-40.351,0.0,116.0
62534,0.257,-1.199,-0.361,-12.084,1.275,-15.145,0.0,119.0
62590,-0.019,-1.117,-0.203,-12.718,61.580,-27.626,0.0,123.0
62646,-0.152,-0.784,-0.044,-26.389,5.000,-27.832,0.0,101.0
62745,0.009,-0.883,-0.126,-12.374,-35.168,-17.664,149.0,99.0
62800,0.109,-1.003,-0.155,-9.878,-15.802,-5.466,0.0,100.0
62855,0.161,-1.018,-0.117,-6.992,-26.794,9.618,189.0,101.0
62910,0.209,-1.024,-0.113,1.969,-25.779,0.702,0.0,107.0
62965,0.248,-1.065,-0.185,1.763,-14.321,-11.832,189.0,107.0
63021,0.180,-0.987,-0.061,-0.450,-16.962,-15.298,0.0,106.0
63076,0.181,-1.048,-0.141,10.710,-21.656,-12.290,189.0,107.0
63132,0.191,-0.946,-0.188,4.267,-12.962,-13.748,0.0,108.0
63200,0.088,-0.960,-0.072,6.168,-3.496,-4.802,191.0,107.0
63258,0.159,-0.991,-0.109,3.817,-20.641,-13.725,0.0,107.0
63315,0.149,-1.004,-0.116,8.992,-25.603,-3.763,0.0,108.0
63374,0.240,-1.091,-0.183,3.244,-28.573,-6.099,190.0,107.0
63431,0.184,-0.941,-0.059,3.084,-26.969,-2.519,191.0,109.0
63490,0.284,-0.987,-0.166,10.794,-23.885,-3.115,0.0,110.0
63548,0.273,-1.024,-0.116,-0.405,-9.863,-6.641,0.0,110.0
63606,0.111,-1.015,0.025,3.580,-13.733,-15.802,0.0,112.0
63665,0.240,-0.978,-0.132,6.924,-18.863,-6.527,0.0,115.0
63727,0.157,-0.988,-0.087,8.145,-24.191,-5.137,0.0,119.0
63791,0.203,-1.005,-0.088,6.817,-41.473,-8.931,0.0,0.0
63854,0.197,-0.947,-0.103,1.756,-25.916,0.496,0.0,0.0
63906,0.347,-1.037,-0.121,1.153,-42.076,-13.252,16.0,0.0
63970,0.354,-1.009,-0.093,5.687,-23.527,-8.344,0.0,0.0
64033,0.262,-1.047,-0.064,15.718,-23.244,-9.038,0.0,0.0
64097,0.339,-0.946,-0.185,2.031,-29.695,-21.061,0.0,0.0
64160,0.278,-0.956,-0.147,1.740,-2.870,-20.985,0.0,0.0
64224,0.358,-1.005,-0.167,0.191,-20.939,-14.779,0.0,0.0
64291,0.243,-0.950,-0.079,-2.168,-27.305,-14.588,0.0,0.0
64344,0.282,-1.008,-0.106,-0.534,-11.244,-20.885,17.0,0.0
64397,0.262,-0.987,-0.107,1.618,-17.893,-17.656,16.0,0.0
64460,0.375,-0.992,-0.161,4.053,-10.595,-11.244,0.0,0.0
64529,0.304,-1.030,-0.060,10.130,-1.885,-12.916,0.0,0.0
64591,0.282,-1.009,-0.077,14.397,-6.985,-11.603,0.0,0.0
64654,0.270,-0.989,-0.112,19.893,-0.382,0.824,0.0,0.0
64716,0.276,-0.963,-0.138,13.496,3.473,-14.534,0.0,0.0
64779,0.134,-1.081,0.111,13.244,-12.221,11.725,0.0,0.0
64837,0.271,-0.928,0.239,23.763,-64.191,16.962,0.0,66.0
64891,0.418,-0.891,-0.040,52.939,-41.947,17.290,0.0,70.0
64953,0.276,-0.847,0.024,50.824,-23.977,43.794,0.0,167.0
65006,0.258,-1.005,0.067,42.847,-72.153,49.847,185.0,60.0
65060,0.504,-0.912,0.009,45.031,-55.809,55.313,182.0,67.0
65114,0.364,-1.033,0.228,47.901,16.916,66.550,177.0,61.0
65167,0.101,-1.036,0.418,76.198,7.168,86.450,175.0,72.0
65229,-0.131,-1.055,0.514,92.031,-48.397,108.931,0.0,0.0
65278,-0.088,-1.062,0.421,92.061,-129.336,96.962,200.0,0.0
65344,0.047,-0.938,0.356,90.160,-104.855,87.260,0.0,196.0
65397,0.046,-0.878,0.461,87.557,-70.962,71.000,0.0,47.0
65452,0.046,-0.692,0.544,83.031,-30.015,76.168,0.0,49.0
65506,-0.099,-0.702,0.688,64.847,-48.595,69.137,0.0,63.0
65560,-0.075,-0.842,0.692,36.863,-33.099,52.206,0.0,51.0
65614,-0.127,-0.902,0.686,2.252,-6.115,30.840,0.0,57.0
