Timestamp(ms),AccelX(g),AccelY(g),AccelZ(g),GyroX(deg/s),GyroY(deg/s),GyroZ(deg/s),DistanceLeft(cm),DistanceRight(cm)
39315,-0.620,0.059,1.102,6.412,-51.290,-22.290,0.0,0.0
39362,-0.160,-0.062,0.905,-11.496,-120.527,31.802,0.0,0.0
39408,0.303,-0.097,0.856,0.115,-97.489,32.977,0.0,0.0
39454,0.474,-0.033,0.826,6.519,5.397,-0.962,0.0,0.0
39500,0.136,0.077,0.968,-1.260,68.351,-0.718,0.0,0.0
39547,-0.148,-0.020,1.112,-4.603,24.130,0.824,0.0,0.0
39593,0.009,-0.004,1.023,-0.802,-22.412,-3.779,0.0,0.0
39640,0.129,-0.002,0.932,-1.588,2.008,0.397,0.0,0.0
39689,-0.029,-0.040,1.036,-2.763,9.527,3.847,0.0,0.0
39735,0.005,-0.001,1.027,4.260,-8.947,4.389,0.0,0.0
39781,0.105,0.019,0.964,3.336,-0.901,1.435,0.0,0.0
39828,0.018,0.031,1.028,1.496,13.511,0.893,0.0,0.0
39874,0.009,0.007,1.001,1.481,0.458,-0.328,0.0,0.0
39920,0.033,-0.005,0.976,-1.771,-0.893,-1.267,0.0,0.0
39966,0.054,-0.013,0.963,-1.863,-0.557,-1.252,0.0,0.0
40013,0.047,0.018,0.986,-2.916,7.290,-3.511,0.0,0.0
40059,0.104,0.032,0.978,-4.038,9.771,-7.672,0.0,0.0
40109,0.155,0.100,1.017,-9.763,26.221,-18.344,0.0,0.0
40155,-0.162,0.069,1.156,-16.130,26.351,-34.580,0.0,0.0
40202,-0.650,0.006,1.284,-23.023,-93.847,-17.038,0.0,0.0
40248,-0.322,-0.096,1.054,-26.359,-249.008,20.305,0.0,0.0
40295,0.444,-0.194,0.645,2.321,-219.405,26.588,0.0,0.0
40341,0.867,-0.202,0.626,16.015,-109.641,18.458,0.0,0.0
40388,1.188,-0.114,0.443,13.260,80.542,-27.443,0.0,0.0
40434,0.603,-0.040,0.465,-2.313,250.130,-42.290,0.0,0.0
40481,-0.302,-0.085,0.974,-4.832,250.130,-36.328,0.0,0.0
40548,-0.633,-0.027,1.120,-1.893,108.679,-32.847,0.0,0.0
40595,-0.533,-0.070,1.121,-30.305,-138.168,18.748,0.0,0.0
40641,0.135,-0.212,0.860,0.740,-180.603,30.634,0.0,0.0
40688,0.758,-0.129,0.751,14.885,-80.855,21.382,0.0,0.0
40734,0.729,-0.013,0.778,8.489,87.107,-9.779,0.0,0.0
40781,0.015,0.019,1.066,-8.061,133.275,-12.573,0.0,0.0
40827,-0.402,-0.098,1.285,1.725,-8.420,-5.450,0.0,0.0
40875,0.106,-0.035,0.933,2.191,-66.008,-5.794,0.0,0.0
40921,0.293,-0.095,0.836,-0.229,6.847,1.847,0.0,0.0
40971,-0.011,-0.084,1.050,4.115,30.954,7.038,0.0,0.0
41017,0.050,-0.031,1.010,7.130,-6.885,0.824,0.0,0.0
41064,0.129,-0.019,0.948,1.015,3.382,-2.298,0.0,0.0
41110,0.074,-0.028,0.978,-2.450,14.779,-4.573,0.0,0.0
41157,0.005,-0.060,1.023,-1.374,4.405,-3.229,0.0,0.0
41203,0.047,-0.045,0.995,-0.977,-4.962,0.687,0.0,0.0
41250,0.079,-0.051,0.964,-1.260,-0.985,0.267,0.0,0.0
41296,0.081,-0.020,0.978,-1.779,11.122,-0.992,0.0,0.0
41344,0.040,-0.047,1.009,-3.939,6.214,-2.206,0.0,0.0
41390,0.121,-0.061,0.972,-0.611,6.519,-7.489,0.0,0.0
41440,0.095,-0.018,0.979,-3.832,20.992,-11.840,0.0,0.0
41487,-0.084,-0.011,1.114,-7.351,1.443,-12.397,0.0,0.0
41533,-0.349,-0.082,1.229,-2.260,-63.527,-9.656,0.0,0.0
41580,-0.303,-0.138,1.105,11.176,-156.534,13.672,0.0,0.0
41627,-0.049,0.015,0.895,15.893,-222.962,55.573,0.0,0.0
41731,1.350,-0.021,0.418,10.435,-14.153,-0.656,0.0,0.0
41778,0.796,-0.031,0.571,-13.481,237.183,-41.115,0.0,0.0
41825,0.054,-0.054,0.904,-14.206,250.130,-44.023,0.0,0.0
41871,-0.278,-0.051,1.031,-8.359,196.542,-37.733,0.0,0.0
41938,-0.770,-0.046,1.306,-0.031,7.840,-29.336,0.0,0.0
41986,-0.347,-0.121,0.996,-5.595,-164.870,32.611,0.0,0.0
42033,0.100,-0.201,0.924,15.023,-185.168,53.847,0.0,0.0
42080,0.756,-0.093,0.788,31.252,-146.489,37.267,0.0,0.0
42127,1.062,0.064,0.665,19.969,8.153,-17.794,0.0,0.0
42173,0.637,0.025,0.687,-2.687,172.191,-47.931,0.0,0.0
42220,-0.190,-0.033,0.936,-5.298,197.954,-40.626,0.0,0.0
42267,-0.807,-0.013,1.234,-2.672,32.504,-11.099,0.0,0.0
42314,-0.465,-0.078,1.028,-14.672,-176.656,32.427,0.0,0.0
42364,0.527,-0.143,0.681,5.863,-175.397,32.450,0.0,0.0
42412,0.983,0.014,0.585,9.122,20.626,-4.260,0.0,0.0
42459,0.363,0.043,0.851,-13.344,150.634,-16.435,0.0,0.0
42505,-0.186,-0.063,1.181,-17.435,85.107,-12.901,0.0,0.0
42552,-0.025,-0.035,1.074,-6.992,-15.840,-19.977,0.0,0.0
42599,0.180,-0.055,0.942,-10.099,-1.794,-8.038,0.0,0.0
42646,0.060,-0.102,1.046,-4.809,19.321,0.260,0.0,0.0
42693,0.030,-0.066,1.072,0.260,-4.908,2.855,0.0,0.0
42740,0.159,-0.051,0.996,2.809,-9.855,-0.618,0.0,0.0
42808,0.133,-0.035,0.972,-0.595,17.435,-4.450,0.0,0.0
42855,0.010,-0.060,1.042,0.641,0.763,0.069,0.0,0.0
42902,0.114,-0.055,0.964,1.748,-11.824,-1.466,0.0,0.0
42949,0.108,-0.063,0.964,-0.176,4.527,-0.099,0.0,0.0
42995,0.046,-0.033,0.987,0.580,5.542,0.481,0.0,0.0
43042,0.029,-0.041,1.002,-2.580,-11.191,2.511,0.0,0.0
43089,0.117,-0.008,0.962,-7.214,-7.840,8.901,0.0,0.0
43137,0.361,-0.036,0.871,-14.504,47.473,7.580,0.0,0.0
43184,0.311,-0.030,0.822,-12.351,149.176,-5.962,0.0,0.0
43231,-0.076,-0.078,0.848,-17.275,202.626,-14.015,0.0,0.0
43276,-0.654,-0.186,1.091,-7.618,154.160,-9.603,0.0,0.0
43323,-1.235,-0.201,1.236,15.137,-50.183,-12.901,0.0,0.0
43370,-0.757,-0.031,0.983,2.611,-212.176,4.412,0.0,0.0
43417,-0.229,-0.183,0.809,18.573,-250.137,30.397,0.0,0.0
43464,0.441,-0.079,0.665,26.740,-206.298,30.504,0.0,0.0
43512,0.902,-0.019,0.627,12.641,-78.939,19.481,0.0,0.0
43559,0.973,-0.034,0.583,-3.977,94.618,-22.053,0.0,0.0
43607,0.546,0.039,0.461,-25.924,250.130,-37.351,0.0,0.0
43674,-0.677,-0.109,0.865,-34.252,250.130,-10.351,0.0,0.0
43721,-1.774,-0.308,1.579,14.893,-105.427,1.908,0.0,0.0
43768,-0.678,-0.076,0.770,8.092,-250.137,-2.977,0.0,0.0
43816,0.500,-0.050,0.426,16.763,-250.137,1.336,0.0,0.0
43864,0.997,0.053,0.613,8.405,-51.389,25.023,0.0,0.0
43911,0.790,-0.038,0.669,-7.351,138.702,-11.634,0.0,0.0
43958,0.126,-0.029,0.826,-18.802,245.550,-28.412,0.0,0.0
44005,-0.648,-0.184,1.227,-15.580,147.664,-13.160,0.0,0.0
44053,-0.867,-0.189,1.301,10.527,-94.809,-19.092,0.0,0.0
44103,0.034,0.009,0.815,3.389,-162.489,-1.389,0.0,0.0
44208,0.200,-0.094,0.970,2.038,33.206,6.115,0.0,0.0
44255,-0.064,-0.074,1.087,5.870,13.725,0.824,0.0,0.0
44302,0.033,-0.042,1.013,3.779,-17.878,-1.359,0.0,0.0
44349,0.126,-0.059,0.930,1.420,-0.763,-0.061,0.0,0.0
44396,-0.007,-0.071,1.029,-1.084,1.618,1.229,0.0,0.0
44444,0.067,-0.060,0.972,2.863,-6.092,3.237,0.0,0.0
44491,0.074,-0.058,0.979,0.229,-1.313,2.244,0.0,0.0
44538,0.025,-0.056,0.999,-0.534,3.084,0.519,0.0,0.0
44585,0.030,-0.065,0.993,0.290,-6.534,0.985,0.0,0.0
44636,0.046,-0.042,1.023,0.893,-14.015,5.985,0.0,0.0
44684,0.150,-0.062,0.977,4.473,7.504,7.359,0.0,0.0
44731,0.295,-0.056,0.958,11.061,52.985,3.618,0.0,0.0
44778,0.334,0.000,0.792,16.908,149.634,-1.321,0.0,0.0
44825,0.051,0.055,0.721,7.962,232.336,3.672,0.0,0.0
44872,-0.280,0.014,0.612,1.740,250.130,11.580,0.0,0.0
44920,-0.600,-0.032,0.468,-1.008,250.130,6.931,0.0,0.0
44967,-1.017,-0.140,0.549,-0.137,210.847,-12.511,0.0,0.0
45016,-1.213,-0.118,0.690,11.099,91.771,-33.687,0.0,0.0
45078,-1.030,-0.009,0.566,2.366,-4.954,-39.824,0.0,112.0
45134,-0.934,-0.076,0.534,-3.588,-34.267,-22.458,0.0,114.0
45192,-1.115,-0.098,0.729,4.809,-62.229,-6.985,0.0,114.0
45253,-1.025,-0.053,0.776,-0.214,-169.237,-1.878,0.0,0.0
45300,-0.762,-0.073,0.729,1.137,-250.137,-12.084,0.0,0.0
45348,-0.503,-0.114,0.655,0.847,-250.137,-24.504,0.0,0.0
45395,0.004,-0.048,0.674,-1.763,-196.695,-18.405,0.0,0.0
45463,0.221,-0.065,0.805,-3.481,-89.611,9.817,0.0,0.0
45510,0.109,-0.116,0.958,4.870,-24.290,9.473,0.0,0.0
45559,0.086,-0.097,0.964,3.863,-8.511,7.824,0.0,0.0
45605,0.065,-0.071,1.000,1.420,5.412,7.015,0.0,0.0
45651,0.041,-0.088,1.026,3.672,1.969,4.008,0.0,0.0
45698,0.036,-0.104,0.995,3.221,0.000,3.649,0.0,0.0
45744,0.029,-0.063,0.998,1.366,-5.885,5.855,0.0,0.0
45790,0.069,-0.117,0.960,2.565,1.718,2.313,0.0,0.0
45836,0.036,-0.085,0.979,1.130,1.786,-0.924,0.0,0.0
45883,0.021,-0.061,0.998,0.779,7.695,-1.099,0.0,0.0
45929,-0.007,-0.083,1.016,-0.260,-4.237,-2.328,0.0,0.0
45975,0.024,-0.055,0.978,0.046,2.229,-2.985,0.0,0.0
46024,0.038,-0.079,0.994,-2.748,3.084,-3.412,0.0,0.0
46070,-0.049,-0.061,1.066,-3.305,0.206,-6.511,0.0,0.0
46117,-0.085,-0.073,1.104,-5.840,-6.504,-7.687,0.0,0.0
46163,-0.314,-0.031,1.279,2.298,-85.603,-3.679,0.0,0.0
46210,-0.075,-0.028,0.986,-7.840,-156.397,-1.214,0.0,0.0
46257,-0.086,-0.158,0.929,-16.611,-196.260,-4.985,0.0,0.0
46303,0.530,-0.209,0.557,-1.992,-237.557,-10.336,0.0,0.0
46350,1.091,-0.057,0.415,3.427,-100.817,-7.893,0.0,0.0
46396,0.796,-0.182,0.587,1.870,43.679,9.046,0.0,0.0
46445,0.620,-0.078,0.768,1.519,62.321,0.000,0.0,0.0
46492,0.722,-0.091,0.681,-2.015,108.168,-8.176,0.0,0.0
46538,0.533,-0.033,0.788,-16.412,167.824,-5.580,0.0,0.0
46585,0.219,-0.168,0.924,-7.168,169.557,-8.153,0.0,0.0
46689,-0.250,-0.166,1.077,-5.573,115.649,-7.809,0.0,0.0
46735,-0.112,-0.147,0.977,-3.458,35.573,-13.473,0.0,0.0
46782,-0.323,-0.103,1.118,1.863,-11.015,-9.031,0.0,0.0
46828,-0.064,-0.127,0.939,0.061,-39.969,-1.878,0.0,0.0
46875,-0.046,-0.131,1.011,3.198,-33.282,3.672,0.0,0.0
46924,0.171,-0.085,0.853,6.702,5.710,4.565,0.0,0.0
46971,-0.039,-0.094,1.007,-2.534,29.260,7.221,0.0,0.0
47017,-0.105,-0.120,1.052,-0.702,6.664,2.450,0.0,0.0
47065,-0.088,-0.093,1.023,1.542,-22.924,-1.687,0.0,0.0
47111,0.069,-0.122,0.932,0.824,-10.489,3.092,0.0,0.0
47158,-0.054,-0.116,1.033,-0.718,9.290,3.916,0.0,0.0
47204,-0.025,-0.110,0.998,4.382,-0.672,3.237,0.0,0.0
47251,-0.014,-0.111,0.983,3.244,-2.122,4.023,0.0,0.0
47297,0.078,-0.098,0.945,4.542,18.534,4.893,0.0,0.0
47344,0.193,-0.102,0.924,4.427,59.580,0.031,0.0,0.0
47393,0.271,-0.137,0.847,17.168,132.206,-1.595,0.0,0.0
47440,-0.167,-0.067,0.749,25.359,207.252,0.359,0.0,0.0
47486,-0.707,0.039,0.896,16.397,185.344,4.489,0.0,0.0
47534,-1.179,-0.053,1.051,9.832,43.046,0.290,0.0,0.0
47580,-1.422,0.061,1.193,-10.206,-219.046,-16.473,0.0,0.0
47627,-0.876,-0.179,0.607,-18.855,-250.137,-7.756,0.0,0.0
47674,0.494,0.059,0.386,0.298,-250.137,-23.115,0.0,0.0
47721,1.104,0.018,0.525,1.107,-86.229,26.458,0.0,0.0
47767,0.840,-0.075,0.645,-13.244,145.740,-6.519,0.0,0.0
47835,0.191,-0.005,0.674,-21.763,250.130,-17.176,0.0,0.0
47882,-0.957,-0.130,1.261,-15.679,140.359,26.282,0.0,0.0
47929,-1.175,-0.200,1.392,-1.878,-134.977,7.878,0.0,0.0
47975,-0.517,-0.162,0.828,-5.947,-250.137,-5.244,0.0,0.0
48022,0.763,-0.079,0.489,6.137,-199.863,-12.840,0.0,0.0
48069,1.032,-0.005,0.539,4.214,63.321,3.534,0.0,0.0
48116,0.208,-0.077,0.820,-15.328,225.275,-13.237,0.0,0.0
48163,-0.505,-0.150,1.199,-7.336,136.351,0.130,0.0,0.0
48209,-0.603,-0.187,1.227,1.763,-25.756,-7.489,0.0,0.0
48260,-0.056,-0.093,0.891,0.626,-90.939,-11.885,0.0,0.0
48307,0.233,-0.098,0.810,-1.672,-11.038,2.809,0.0,0.0
48354,-0.018,-0.100,1.000,-2.710,36.802,5.916,0.0,0.0
48400,-0.133,-0.134,1.059,2.664,13.634,-4.282,0.0,0.0
48447,-0.087,-0.104,1.000,2.702,-11.397,-8.443,0.0,0.0
48494,-0.034,-0.119,0.957,-1.924,-1.176,-3.557,0.0,0.0
48541,-0.113,-0.159,1.001,-0.214,2.557,2.053,0.0,0.0
48588,-0.068,-0.112,0.997,3.679,-10.160,0.328,0.0,0.0
48634,-0.039,-0.077,0.981,3.985,-13.580,-2.069,0.0,0.0
48702,0.007,-0.100,0.942,0.863,5.908,2.466,0.0,0.0
48749,-0.055,-0.115,0.979,-0.275,2.053,-1.336,0.0,0.0
48796,-0.137,-0.104,1.028,0.893,-5.710,0.649,0.0,0.0
48843,-0.022,-0.081,0.969,2.305,-16.656,1.718,0.0,0.0
48890,0.092,-0.061,0.987,-2.252,10.969,5.076,0.0,0.0
48937,0.437,-0.078,0.735,-2.824,119.458,-3.160,0.0,0.0
48984,-0.041,-0.005,0.707,-6.313,250.130,4.481,0.0,0.0
49031,-0.691,-0.054,0.843,-10.427,250.130,32.351,0.0,0.0
49135,-1.334,-0.009,1.198,7.908,-157.695,-3.214,0.0,0.0
49185,-0.671,-0.139,0.551,-2.206,-250.137,-4.015,0.0,0.0
49232,0.384,0.002,0.408,4.733,-250.137,-38.527,0.0,0.0
49280,1.080,0.068,0.545,2.595,-63.878,-15.557,0.0,0.0
49327,0.527,-0.051,0.766,-5.374,130.405,-21.718,0.0,0.0
49374,0.060,0.008,0.844,-17.969,202.214,-23.611,0.0,0.0
49421,-0.703,-0.123,1.209,-13.023,115.947,-7.145,0.0,0.0
49468,-0.943,-0.152,1.363,-1.107,-129.939,3.481,0.0,0.0
49515,-0.160,-0.163,0.853,15.710,-250.137,8.130,0.0,0.0
49562,0.870,-0.063,0.493,21.885,-109.878,1.473,0.0,0.0
49631,0.611,0.030,0.748,-0.466,110.679,-1.260,0.0,0.0
49678,-0.288,-0.069,1.184,-12.779,99.160,-6.557,0.0,0.0
49725,-0.366,-0.132,1.210,2.473,-59.710,-7.962,0.0,0.0
49772,0.257,-0.042,0.828,2.573,-60.908,0.489,0.0,0.0
49819,0.226,-0.052,0.910,-0.672,27.160,9.588,0.0,0.0
49866,-0.064,-0.079,1.076,3.000,25.099,5.099,0.0,0.0
49913,0.019,-0.042,1.018,2.916,-22.634,1.046,0.0,0.0
49960,0.166,-0.008,0.919,-2.511,-0.687,-3.313,0.0,0.0
50008,0.036,-0.095,1.004,-4.183,14.916,-0.817,0.0,0.0
50055,-0.024,-0.058,1.031,-1.260,-1.779,0.427,0.0,0.0
50122,0.083,-0.062,0.979,-0.153,-11.847,0.679,0.0,0.0
50169,0.080,-0.057,0.971,-3.053,6.992,-1.359,0.0,0.0
50216,0.003,-0.071,1.031,-2.725,0.756,-0.374,0.0,0.0
50264,0.063,-0.056,0.990,-0.992,-6.458,1.542,0.0,0.0
50312,0.067,-0.056,0.988,-1.344,1.733,0.359,0.0,0.0
50359,0.039,-0.075,0.992,0.290,0.679,1.802,0.0,0.0
50406,0.064,-0.049,1.002,1.122,-2.702,4.183,0.0,0.0
50453,0.146,-0.055,0.993,0.206,10.656,3.336,0.0,0.0
50500,0.379,-0.057,0.956,4.313,54.145,-11.489,0.0,0.0
50550,0.385,-0.027,0.766,14.176,168.038,-40.733,0.0,0.0
50597,-0.197,-0.011,0.759,-9.756,249.519,-47.527,0.0,0.0
50646,-0.816,-0.131,0.927,-9.534,193.191,-13.000,0.0,0.0
50693,-1.452,-0.154,1.116,3.786,-22.313,-1.702,0.0,0.0
50740,-1.071,-0.100,0.937,-8.863,-234.962,5.427,0.0,0.0
50787,-0.455,-0.135,0.697,7.893,-250.137,17.672,0.0,0.0
50835,0.411,-0.051,0.567,7.557,-227.695,15.382,0.0,0.0
50882,0.926,-0.006,0.657,7.458,-44.557,8.160,0.0,0.0
50929,0.750,-0.015,0.582,-3.832,174.008,-28.107,0.0,0.0
50998,-0.119,0.008,0.663,-29.496,250.130,-17.443,0.0,0.0
51045,-1.429,-0.220,1.411,-8.321,48.824,12.038,0.0,0.0
51093,-0.951,-0.102,1.049,-3.092,-239.153,9.282,0.0,0.0
51140,0.004,-0.131,0.644,-3.496,-250.137,25.656,0.0,0.0
51187,0.882,-0.118,0.594,12.115,-100.504,16.069,0.0,0.0
51235,0.851,-0.008,0.582,7.481,152.580,-18.038,0.0,0.0
51282,-0.259,-0.008,0.991,-13.229,243.031,-31.901,0.0,0.0
51330,-0.887,-0.148,1.307,-11.053,44.901,-13.603,0.0,0.0
51378,-0.692,-0.134,1.115,-2.565,-156.084,-5.412,0.0,0.0
51429,0.173,-0.149,0.771,1.489,-165.924,20.427,0.0,0.0
51476,0.677,-0.122,0.655,9.679,-2.191,1.855,0.0,0.0
51523,0.074,0.020,0.997,-2.649,116.137,-13.191,0.0,0.0
51628,-0.184,-0.158,1.008,1.298,-65.832,-17.771,0.0,0.0
51676,0.091,-0.121,0.881,-1.756,-12.458,9.855,0.0,0.0
51743,-0.022,-0.097,1.020,4.580,7.649,10.527,0.0,0.0
51789,0.002,-0.065,1.010,2.069,-6.954,4.634,0.0,0.0
51835,0.057,-0.098,0.986,2.076,-0.679,0.229,0.0,0.0
51881,-0.001,-0.088,0.985,1.679,11.008,-1.031,0.0,0.0
51928,-0.055,-0.111,1.022,0.962,-2.015,4.450,0.0,0.0
51977,0.024,-0.094,0.981,3.725,-11.061,4.191,0.0,0.0
52024,0.031,-0.081,0.995,2.672,0.344,3.344,0.0,0.0
52070,0.030,-0.072,0.969,3.733,6.908,0.122,0.0,0.0
52116,-0.028,-0.062,1.001,0.977,4.603,-0.328,0.0,0.0
52162,-0.021,-0.062,0.996,1.641,-6.092,-0.817,0.0,0.0
52208,0.004,-0.088,0.970,0.573,-3.267,-1.695,0.0,0.0
52255,-0.028,-0.076,0.981,1.519,-1.092,-0.160,0.0,0.0
52301,-0.067,-0.076,0.999,1.206,-7.954,3.160,0.0,0.0
52347,-0.009,-0.052,0.991,-2.985,-13.710,9.870,0.0,0.0
52414,0.204,-0.073,0.965,-1.527,-1.405,3.901,0.0,0.0
52461,0.455,-0.029,0.679,4.878,156.886,-24.137,0.0,0.0
52507,-0.093,-0.017,0.674,-16.992,250.130,-22.985,0.0,0.0
52553,-1.001,-0.101,0.888,-14.779,240.641,5.634,0.0,0.0
52600,-1.786,-0.142,1.415,-16.229,-55.542,13.275,0.0,0.0
52646,-1.081,-0.156,0.861,-9.710,-250.137,3.046,0.0,0.0
52694,0.058,-0.098,0.448,-0.427,-250.137,2.954,0.0,0.0
52740,1.068,-0.033,0.451,3.145,-129.344,-14.641,0.0,0.0
52787,0.781,-0.097,0.635,-7.000,134.748,-16.756,0.0,0.0
52836,-0.073,-0.107,0.925,-11.145,216.573,-31.412,0.0,0.0
52883,-0.837,-0.178,1.275,-7.084,85.779,-19.458,0.0,0.0
52929,-0.791,-0.091,1.215,-6.534,-129.076,5.710,0.0,0.0
52976,-0.129,-0.214,0.867,1.550,-215.908,23.870,0.0,0.0
53022,0.731,-0.124,0.645,14.229,-107.595,6.336,0.0,0.0
53069,0.938,-0.022,0.536,7.779,118.229,-16.092,0.0,0.0
53115,0.027,-0.023,0.779,-24.687,250.130,-25.649,0.0,0.0
53163,-0.838,-0.205,1.221,-17.992,159.160,-9.977,0.0,0.0
53209,-1.180,-0.225,1.357,6.397,-111.374,-0.244,0.0,0.0
53276,-0.247,-0.171,0.804,5.855,-250.137,19.710,0.0,0.0
53322,0.829,-0.055,0.595,15.573,-35.962,9.847,0.0,0.0
53369,0.234,-0.014,0.913,-3.450,107.344,5.351,0.0,0.0
53415,-0.179,-0.186,1.128,-4.931,53.786,-1.328,0.0,0.0
53463,-0.090,-0.085,1.042,1.427,-12.260,-15.176,0.0,0.0
53510,0.061,-0.103,0.918,-4.321,-5.702,-5.191,0.0,0.0
53556,0.027,-0.135,0.978,-5.099,16.603,1.496,0.0,0.0
53603,-0.067,-0.099,1.048,-0.489,9.031,1.695,0.0,0.0
53649,-0.020,-0.125,1.018,2.626,-14.962,-2.176,0.0,0.0
53699,0.057,-0.080,0.960,0.695,4.924,-1.702,0.0,0.0
53745,-0.008,-0.111,1.011,-0.366,10.649,-0.557,0.0,0.0
53792,-0.061,-0.114,1.026,0.771,-1.969,0.031,0.0,0.0
53838,0.019,-0.104,0.961,4.359,-12.466,-0.298,0.0,0.0
53885,0.008,-0.108,0.958,1.947,0.534,0.305,0.0,0.0
53932,0.004,-0.079,0.967,0.221,7.908,1.466,0.0,0.0
53979,-0.057,-0.113,1.015,-0.885,-5.168,-0.267,0.0,0.0
54082,0.030,-0.086,0.928,-4.756,24.137,2.794,0.0,0.0
54129,0.016,-0.094,0.989,-14.832,44.061,5.603,0.0,0.0
54175,0.120,-0.181,0.937,-6.794,74.382,-6.985,0.0,0.0
54225,-0.105,-0.104,0.932,-2.176,132.802,-18.176,0.0,0.0
54273,-0.449,-0.151,0.951,-2.786,135.832,-12.534,0.0,0.0
54320,-1.145,-0.157,1.272,11.687,-36.313,5.656,0.0,0.0
54367,-0.840,-0.167,0.999,9.412,-241.000,11.992,0.0,0.0
54413,0.064,-0.151,0.659,13.061,-250.137,17.351,0.0,0.0
54460,0.873,-0.035,0.520,17.389,-100.382,-0.748,0.0,0.0
54507,0.774,-0.026,0.559,-4.687,131.870,-18.282,0.0,0.0
54554,0.104,-0.020,0.659,-25.695,250.130,-25.618,0.0,0.0
54601,-0.921,-0.188,1.214,-20.763,172.779,-8.725,0.0,0.0
54668,-1.236,-0.213,1.399,-0.252,-155.832,-5.672,0.0,0.0
54715,0.194,-0.136,0.580,8.130,-250.137,12.321,0.0,0.0
54762,1.082,-0.089,0.482,13.122,-70.679,11.481,0.0,0.0
54809,0.692,-0.069,0.684,-3.282,171.191,-16.947,0.0,0.0
54856,-0.022,-0.053,0.930,-18.153,230.046,-30.901,0.0,0.0
54903,-0.685,-0.203,1.214,-7.107,110.366,-22.076,0.0,0.0
54950,-0.844,-0.187,1.244,8.122,-98.405,-12.244,0.0,0.0
54998,-0.161,-0.141,0.873,10.023,-191.740,18.290,0.0,0.0
55045,0.534,-0.145,0.646,18.450,-74.000,22.969,0.0,0.0
55095,0.289,-0.023,0.878,7.107,80.389,10.725,0.0,0.0
55141,-0.120,-0.067,1.079,-0.771,65.794,1.282,0.0,0.0
55188,-0.157,-0.105,1.063,-1.023,-4.733,-5.771,0.0,0.0
55235,0.016,-0.084,0.944,-1.344,-19.733,-5.229,0.0,0.0
55282,0.005,-0.120,0.934,-0.221,5.947,1.718,0.0,0.0
55329,-0.060,-0.089,1.011,-0.542,3.802,4.229,0.0,0.0
55376,0.008,-0.094,0.984,-1.214,-11.275,-0.237,0.0,0.0
55424,0.031,-0.082,0.965,-2.954,5.435,-2.695,0.0,0.0
55471,-0.057,-0.115,1.019,-1.450,5.771,-2.099,0.0,0.0
55538,-0.047,-0.109,1.014,-0.718,-6.008,0.397,0.0,0.0
55585,0.024,-0.071,0.969,0.237,-1.626,-1.061,0.0,0.0
55631,-0.001,-0.080,0.979,-1.046,6.374,-2.176,0.0,0.0
55678,-0.062,-0.109,1.002,-1.634,3.092,-1.824,0.0,0.0
55726,0.010,-0.093,0.959,-0.374,2.733,-1.405,0.0,0.0
55773,0.010,-0.098,0.987,-2.153,10.771,-1.573,0.0,0.0
55820,0.083,-0.104,0.971,1.672,34.519,-10.481,0.0,0.0
55867,0.088,-0.077,0.942,-1.267,83.069,-15.374,0.0,0.0
55914,-0.111,-0.097,0.868,4.084,145.000,-28.542,0.0,0.0
55965,-0.778,-0.061,1.140,-2.107,80.298,-9.405,0.0,0.0
56012,-1.180,-0.159,1.269,-6.069,-142.214,21.435,0.0,0.0
56059,-0.525,-0.235,0.819,2.168,-250.137,27.313,0.0,0.0
56107,0.812,-0.103,0.351,21.832,-227.122,10.557,0.0,0.0
56154,1.067,0.016,0.499,7.206,61.275,-3.748,0.0,0.0
56201,0.348,-0.008,0.736,-15.641,229.435,-27.565,0.0,0.0
56248,-0.502,-0.135,1.054,-19.939,208.336,-20.504,0.0,0.0
56295,-0.977,-0.139,1.372,-9.053,-16.580,-10.542,0.0,0.0
56343,-0.610,-0.154,1.067,-5.099,-230.214,15.405,0.0,0.0
56411,0.585,-0.199,0.640,15.099,-191.061,26.733,0.0,0.0
56458,0.844,0.054,0.614,10.405,157.886,-9.550,0.0,0.0
56562,-0.801,-0.183,1.251,-5.534,108.725,-15.443,0.0,0.0
56609,-0.760,-0.116,1.098,-6.145,-183.420,7.061,0.0,0.0
56657,0.097,-0.213,0.755,2.214,-248.687,36.244,0.0,0.0
56705,0.980,-0.132,0.506,26.763,-72.099,8.321,0.0,0.0
56752,0.663,0.050,0.696,-4.718,148.947,-17.840,0.0,0.0
56799,-0.156,-0.039,1.089,-22.626,167.290,-25.244,0.0,0.0
56846,-0.538,-0.221,1.244,-3.588,9.863,-21.855,0.0,0.0
56897,-0.102,-0.100,0.981,-0.191,-66.756,-8.962,0.0,0.0
56944,0.151,-0.124,0.888,2.046,-16.206,10.977,0.0,0.0
56991,0.028,-0.103,0.988,4.374,16.710,9.878,0.0,0.0
57039,0.003,-0.074,1.020,1.031,-4.046,4.198,0.0,0.0
57086,0.085,-0.087,0.949,-1.374,0.191,-3.069,0.0,0.0
57134,0.024,-0.087,0.985,-3.099,15.008,-4.328,0.0,0.0
57181,-0.055,-0.129,1.002,-3.603,5.359,-0.237,0.0,0.0
57228,-0.030,-0.125,1.005,-0.901,-9.405,2.725,0.0,0.0
57276,0.025,-0.077,0.972,1.908,-5.870,4.061,0.0,0.0
57323,0.037,-0.094,0.970,-1.679,2.893,0.863,0.0,0.0
57373,-0.015,-0.104,1.007,-3.802,5.962,0.267,0.0,0.0
57420,-0.000,-0.106,1.014,-2.466,-3.702,-0.977,0.0,0.0
57468,-0.008,-0.093,1.002,-0.649,-1.969,1.305,0.0,0.0
57516,0.003,-0.125,0.987,0.588,-3.931,0.473,0.0,0.0
57563,-0.061,-0.081,1.022,-0.244,-11.908,5.046,0.0,0.0
57611,-0.008,-0.123,1.016,1.649,-26.076,6.237,0.0,0.0
57658,0.091,-0.093,1.034,7.267,-48.534,1.122,0.0,0.0
57705,0.468,-0.073,0.861,10.748,9.740,-13.313,0.0,0.0
57753,0.433,-0.052,0.720,3.405,154.389,-34.947,0.0,0.0
57821,-0.401,-0.053,0.912,-10.550,228.076,-20.939,0.0,0.0
57869,-1.181,-0.151,1.301,-7.641,-75.733,6.344,0.0,0.0
57916,-0.628,-0.192,0.939,1.870,-250.137,22.649,0.0,0.0
57970,0.709,-0.091,0.547,24.130,-204.313,16.092,0.0,0.0
58016,0.976,-0.028,0.603,15.779,41.962,-9.183,0.0,0.0
58062,0.422,-0.005,0.744,-7.611,202.695,-44.344,0.0,0.0
58108,-0.346,-0.099,0.909,-14.305,222.053,-38.366,0.0,0.0
58156,-1.020,-0.063,1.234,-15.038,59.130,-7.267,0.0,0.0
58202,-0.813,-0.155,1.125,-18.206,-164.321,31.160,0.0,0.0
58251,0.154,-0.223,0.781,9.672,-222.305,28.405,0.0,0.0
58298,1.043,-0.032,0.508,24.137,-19.832,-1.496,0.0,0.0
58344,0.479,0.107,0.733,-16.023,219.382,-21.695,0.0,0.0
58390,-0.553,-0.145,1.112,-14.450,208.137,-27.382,0.0,0.0
58437,-1.197,-0.172,1.410,3.481,-40.351,-13.107,0.0,0.0
58483,-0.635,-0.102,0.961,-4.344,-246.557,24.389,0.0,0.0
58529,0.404,-0.270,0.582,12.344,-218.893,31.695,0.0,0.0
58576,0.889,0.035,0.597,21.130,6.237,5.794,0.0,0.0
58622,0.199,0.033,0.927,-9.496,131.878,-8.489,0.0,0.0
58672,-0.270,-0.138,1.190,-8.885,33.824,-12.710,0.0,0.0
58719,0.031,-0.077,0.956,-6.550,-25.664,-23.847,0.0,0.0
58765,0.048,-0.139,0.937,-10.038,6.221,-5.145,0.0,0.0
58811,-0.056,-0.125,1.041,-1.725,2.443,3.046,0.0,0.0
58858,0.026,-0.114,1.013,1.580,-11.153,2.130,0.0,0.0
58904,0.090,-0.070,0.977,-0.473,3.695,-2.015,0.0,0.0
59008,-0.026,-0.100,1.011,0.771,1.992,-1.130,0.0,0.0
59054,0.013,-0.102,0.986,1.786,-6.565,0.595,0.0,0.0
59101,0.065,-0.097,0.954,0.916,2.076,0.588,0.0,0.0
59150,-0.003,-0.088,1.001,-0.099,8.710,-0.305,0.0,0.0
59196,-0.024,-0.081,1.002,-0.198,-4.550,1.679,0.0,0.0
59243,0.061,-0.087,0.952,-2.023,-1.260,-1.534,0.0,0.0
59289,-0.010,-0.101,1.009,-1.282,3.588,0.656,0.0,0.0
59335,0.030,-0.074,0.985,-0.450,2.221,-0.863,0.0,0.0
59382,0.163,-0.090,0.957,-1.534,22.595,-4.305,0.0,0.0
59428,0.299,-0.073,0.807,0.420,104.260,-16.397,0.0,0.0
59475,-0.018,-0.040,0.757,-13.588,206.069,-19.076,0.0,0.0
59522,-1.002,-0.181,1.236,-9.412,130.809,-3.962,0.0,0.0
59569,-1.260,-0.191,1.320,4.092,-154.603,11.756,0.0,0.0
59618,-0.291,-0.177,0.756,12.122,-250.137,25.847,0.0,0.0
59665,0.762,0.009,0.571,22.069,-158.191,11.817,0.0,0.0
59712,0.912,-0.051,0.589,4.450,73.534,-15.038,0.0,0.0
59758,0.347,-0.058,0.573,-13.969,250.130,-47.489,0.0,0.0
59805,-0.656,-0.098,0.865,-16.511,250.130,-28.634,0.0,0.0
59851,-1.566,-0.207,1.403,-8.229,-2.321,0.397,0.0,0.0
59898,-1.065,-0.196,1.036,-5.382,-250.137,9.893,0.0,0.0
59945,0.379,-0.144,0.414,13.756,-250.137,9.092,0.0,0.0
59992,1.268,0.012,0.426,10.908,-35.191,0.908,0.0,0.0
60059,0.369,-0.019,0.756,-15.244,225.863,-25.023,0.0,0.0
60106,-0.822,-0.196,1.257,-6.244,100.969,-18.260,0.0,0.0
60152,-0.832,-0.113,1.227,-6.282,-135.969,10.466,0.0,0.0
60199,-0.036,-0.224,0.816,2.885,-216.092,41.763,0.0,0.0
60247,0.732,-0.183,0.619,26.229,-94.176,23.313,0.0,0.0
60293,0.737,0.042,0.709,9.626,94.237,-2.725,0.0,0.0
60340,0.072,-0.010,0.937,-18.313,182.267,-28.519,0.0,0.0
60387,-0.615,-0.169,1.201,-9.282,68.924,-21.061,0.0,0.0
60434,-0.731,-0.118,1.259,-11.634,-117.771,5.763,0.0,0.0
60483,0.046,-0.269,0.834,3.809,-217.740,30.282,0.0,0.0
60530,0.822,-0.138,0.577,22.382,-69.924,9.939,0.0,0.0
60577,0.467,-0.011,0.850,1.023,87.191,6.931,0.0,0.0
60623,0.015,-0.083,1.126,-5.229,66.038,-4.176,0.0,0.0
60670,0.030,-0.088,1.052,0.466,3.702,-17.962,0.0,0.0
60718,0.123,-0.090,0.943,-4.466,2.542,-7.573,0.0,0.0
60765,0.066,-0.161,0.999,-2.542,7.427,1.405,0.0,0.0
60811,0.079,-0.084,1.001,3.496,1.679,3.595,0.0,0.0
60858,0.120,-0.102,0.965,0.511,-1.840,2.847,0.0,0.0
60924,0.129,-0.077,0.965,-1.366,10.198,-1.847,0.0,0.0
60972,0.048,-0.127,1.021,-1.481,1.771,-0.565,0.0,0.0
61019,0.092,-0.101,0.990,1.244,-6.794,-0.664,0.0,0.0
61066,0.115,-0.104,0.979,0.282,0.252,0.206,0.0,0.0
61112,0.081,-0.107,1.003,-0.061,4.702,-0.817,0.0,0.0
61159,0.095,-0.086,0.976,0.542,2.939,-2.160,0.0,0.0
61206,0.045,-0.103,1.020,-1.015,-3.206,-0.779,0.0,0.0
61253,0.129,-0.066,0.961,0.359,-4.298,-2.084,0.0,0.0
61299,0.306,-0.120,0.906,-0.145,35.466,-5.061,0.0,0.0
61346,0.386,-0.080,0.733,-1.687,142.618,-19.183,0.0,0.0
61454,-0.964,-0.207,1.180,-28.053,185.290,16.443,0.0,0.0
61501,-1.202,-0.172,1.289,16.313,-171.542,11.351,0.0,0.0
61548,-0.324,-0.105,0.709,12.908,-250.137,17.763,0.0,0.0
61595,0.593,-0.115,0.573,18.962,-167.420,12.290,0.0,0.0
61642,0.893,-0.042,0.607,19.870,45.885,-12.061,0.0,0.0
61689,0.372,0.051,0.592,-5.779,235.466,-39.511,0.0,0.0
61736,-0.691,-0.097,0.937,-27.374,250.130,-34.832,0.0,0.0
61784,-1.545,-0.205,1.491,-10.053,-46.534,-7.252,0.0,0.0
61851,-0.834,-0.179,0.859,-0.878,-250.137,7.580,0.0,0.0
61898,1.127,-0.105,0.323,17.710,-170.176,-8.908,0.0,0.0
61945,0.915,0.018,0.575,-4.496,151.153,-13.092,0.0,0.0
61992,-0.197,-0.069,1.013,-23.519,236.092,-23.832,0.0,0.0
62040,-0.912,-0.228,1.360,-5.954,38.466,-11.313,0.0,0.0
62087,-0.622,-0.099,1.143,4.267,-187.863,18.580,0.0,0.0
62134,0.364,-0.241,0.740,13.870,-203.977,34.198,0.0,0.0
62181,1.090,-0.014,0.513,30.130,-3.779,-1.985,0.0,0.0
62228,0.559,0.110,0.690,-13.107,200.015,-21.733,0.0,0.0
62279,-0.549,-0.145,1.181,-24.649,181.336,-19.924,0.0,0.0
62326,-0.869,-0.166,1.355,3.061,-74.565,-13.527,0.0,0.0
62373,-0.194,-0.123,0.882,3.221,-204.290,8.565,0.0,0.0
62420,0.653,-0.199,0.615,10.740,-114.244,18.458,0.0,0.0
62468,0.589,-0.002,0.768,1.328,78.489,1.168,0.0,0.0
62515,-0.031,-0.056,1.125,-12.954,92.901,-0.366,0.0,0.0
62562,-0.101,-0.152,1.115,-2.725,-5.756,-12.863,0.0,0.0
62609,0.137,-0.088,0.942,-3.687,-9.099,-11.328,0.0,0.0
62657,0.064,-0.133,0.999,-3.313,17.389,3.656,0.0,0.0
62704,-0.031,-0.143,1.051,4.954,-2.382,3.969,0.0,0.0
62754,0.104,-0.093,0.968,3.542,-14.809,3.603,0.0,0.0
62801,0.146,-0.056,0.949,-0.351,3.595,-2.061,0.0,0.0
62849,0.038,-0.111,0.998,-2.260,11.977,-1.382,0.0,0.0
62896,0.029,-0.114,1.023,-0.206,-4.649,-0.221,0.0,0.0
62943,0.078,-0.104,0.966,1.786,-8.221,1.611,0.0,0.0
62990,0.083,-0.099,0.966,0.160,-3.344,0.733,0.0,0.0
63038,0.058,-0.090,0.992,-0.580,5.374,0.557,0.0,0.0
63085,0.053,-0.099,0.994,-1.695,-4.786,0.519,0.0,0.0
63132,0.148,-0.087,0.959,-0.275,5.046,3.145,0.0,0.0
63200,0.393,-0.116,0.909,5.099,76.504,-4.206,0.0,0.0
63247,0.100,-0.050,0.763,13.366,250.130,-27.985,0.0,0.0
63295,-0.928,-0.058,1.134,10.748,205.443,-12.710,0.0,0.0
63342,-1.438,-0.087,1.289,7.618,-85.176,1.779,0.0,0.0
63389,-0.800,-0.128,0.792,0.603,-250.137,27.893,0.0,0.0
63437,0.211,-0.113,0.489,14.550,-250.137,42.511,0.0,0.0
63507,0.905,-0.046,0.576,16.756,-50.153,20.725,0.0,0.0
63553,0.645,0.022,0.591,-13.740,204.481,-49.924,0.0,0.0
63600,-0.462,-0.016,1.007,-23.084,234.015,-43.473,0.0,0.0
63649,-1.233,-0.136,1.361,-20.954,-2.672,-9.069,0.0,0.0
63695,-0.907,-0.154,1.116,-19.290,-250.137,31.550,0.0,0.0
63741,0.497,-0.288,0.501,13.695,-250.137,32.405,0.0,0.0
63789,1.363,0.022,0.458,24.878,-9.382,4.695,0.0,0.0
63835,0.685,0.035,0.678,-14.985,228.611,-29.710,0.0,0.0
63938,-0.909,-0.128,1.298,-9.092,59.756,-20.130,0.0,0.0
63984,-0.531,-0.215,1.064,-3.924,-227.901,27.557,0.0,0.0
64030,0.586,-0.242,0.613,27.267,-197.824,16.176,0.0,0.0
64077,1.065,0.070,0.507,14.275,59.702,-14.573,0.0,0.0
64126,-0.023,0.020,0.969,-21.145,193.672,-20.481,0.0,0.0
64173,-0.694,-0.240,1.339,-12.519,16.710,-5.710,0.0,0.0
64220,-0.158,-0.083,1.015,7.374,-120.588,-1.450,0.0,0.0
64266,0.382,-0.103,0.764,5.634,-63.389,11.267,0.0,0.0
64312,0.267,-0.065,0.925,-1.168,34.084,9.794,0.0,0.0
64359,0.020,-0.049,1.098,-0.641,25.863,3.977,0.0,0.0
64405,0.091,-0.094,1.008,0.267,-21.221,-5.031,0.0,0.0
64451,0.208,-0.063,0.918,-4.168,7.496,-9.221,0.0,0.0
64498,0.031,-0.121,1.009,-5.313,26.366,-2.046,0.0,0.0
64547,-0.026,-0.134,1.047,-0.092,-11.832,0.328,0.0,0.0
64593,0.154,-0.074,0.944,0.511,-12.466,0.977,0.0,0.0
64641,0.137,-0.088,0.963,-2.511,10.015,-2.412,0.0,0.0
64687,0.047,-0.088,1.008,-2.840,12.824,-3.092,0.0,0.0
64733,0.024,-0.109,1.003,0.427,-4.763,-2.687,0.0,0.0
64780,0.081,-0.110,0.982,0.000,-9.756,-0.832,0.0,0.0
64826,0.086,-0.083,0.971,-1.168,6.397,-0.069,0.0,0.0
64872,0.044,-0.103,1.008,-0.473,4.344,-1.412,0.0,0.0
64919,0.065,-0.100,1.004,0.466,1.382,-0.832,0.0,0.0
64965,0.098,-0.081,0.990,1.397,6.496,-0.061,0.0,0.0
65014,0.148,-0.063,0.987,-1.481,29.107,-2.214,0.0,0.0
65061,-0.172,-0.026,1.230,1.359,-0.374,-4.511,0.0,0.0
65107,-0.353,-0.033,1.292,2.084,-112.527,4.916,0.0,0.0
65155,-0.107,-0.156,1.068,5.412,-214.282,28.427,0.0,0.0
65201,0.358,-0.075,0.815,12.611,-240.214,31.389,0.0,0.0
65248,0.755,-0.042,0.537,8.542,-158.824,9.786,0.0,0.0
65294,0.844,-0.194,0.529,-7.962,-59.382,3.565,0.0,0.0
65341,0.844,-0.144,0.579,0.580,36.038,-13.053,0.0,0.0
65388,0.717,-0.081,0.589,-1.305,124.160,-17.695,0.0,0.0
65455,0.257,-0.096,0.917,-4.687,121.244,-21.863,0.0,0.0
65502,0.285,-0.028,0.945,-7.397,59.603,-15.763,0.0,0.0
65548,0.344,-0.126,0.944,-9.069,39.397,-13.252,0.0,0.0
65595,0.260,-0.085,1.026,-2.824,38.687,-4.634,0.0,0.0
65642,0.216,-0.071,1.008,2.183,37.008,-11.504,0.0,0.0
65688,0.215,-0.085,1.008,1.832,15.924,-4.885,0.0,0.0
65735,0.222,-0.053,0.979,3.756,17.603,-5.366,0.0,0.0
65781,0.240,-0.073,0.941,2.000,20.489,-5.618,0.0,0.0
65828,0.136,-0.068,0.990,-0.679,16.939,-3.557,0.0,0.0
65878,0.206,-0.059,0.921,0.183,9.824,-5.313,0.0,0.0
65925,0.167,-0.061,0.960,-5.023,16.282,-2.252,0.0,0.0
65972,0.174,-0.058,0.954,-4.481,20.191,-4.046,0.0,0.0
66018,0.133,-0.089,0.976,-7.099,28.031,-3.664,0.0,0.0
66065,0.047,-0.069,1.052,-5.534,13.031,-2.626,0.0,0.0
66112,0.136,-0.087,0.994,-3.031,3.748,-3.573,0.0,0.0
66158,0.115,-0.100,1.019,-4.084,1.466,0.046,0.0,0.0
66205,0.111,-0.079,1.025,1.176,5.321,-0.389,0.0,0.0
66252,0.125,-0.092,0.994,1.183,0.435,-0.542,0.0,0.0
66356,0.118,-0.087,0.982,1.183,-0.275,-1.328,0.0,0.0
66406,0.148,-0.079,0.974,0.832,12.969,-1.588,0.0,0.0
66452,0.270,-0.089,0.919,5.817,49.466,-7.557,0.0,0.0
66499,-0.036,-0.052,1.014,3.855,71.359,-12.427,0.0,0.0
66546,-0.132,-0.067,1.044,1.160,14.947,-13.542,0.0,0.0
66593,0.105,-0.044,0.873,-4.321,5.664,-17.122,0.0,0.0
66639,0.253,-0.042,0.697,-18.489,93.427,-23.023,0.0,0.0
66686,-0.105,-0.097,0.756,-31.321,165.740,-28.771,0.0,0.0
66734,-0.250,-0.132,0.691,-41.084,188.931,-27.580,0.0,0.0
66781,-0.593,-0.201,0.773,-42.015,189.924,-14.481,0.0,0.0
66848,-0.818,-0.275,0.898,-25.611,110.824,-9.863,0.0,0.0
66895,-0.982,-0.263,0.979,0.557,-42.176,-21.092,0.0,0.0
66942,-0.721,-0.231,0.878,2.901,-97.832,-10.046,0.0,0.0
66990,-0.579,-0.235,0.899,10.176,-96.702,1.542,0.0,0.0
67037,-0.592,-0.231,0.967,20.656,-128.534,9.023,0.0,0.0
67084,-0.421,-0.209,0.930,24.863,-156.115,12.786,0.0,0.0
67131,-0.111,-0.198,0.824,26.664,-136.473,13.198,0.0,0.0
67178,0.030,-0.117,0.854,23.366,-79.687,19.786,0.0,0.0
67224,-0.020,-0.113,0.933,18.092,-39.542,18.557,0.0,0.0
67275,0.056,-0.126,0.896,15.191,-26.466,11.466,0.0,0.0
67322,-0.016,-0.073,0.964,14.038,-21.122,11.176,0.0,0.0
67368,0.025,-0.063,0.967,9.649,-18.794,11.313,0.0,0.0
67416,-0.013,-0.086,1.001,7.733,-19.389,8.595,0.0,0.0
67463,0.119,-0.064,0.925,9.313,-9.725,5.824,0.0,0.0
67510,0.029,-0.054,0.997,3.618,0.977,6.924,0.0,0.0
67557,0.045,-0.036,0.998,2.595,-5.389,2.076,0.0,0.0
67604,0.044,-0.043,0.987,1.672,-1.733,0.542,0.0,0.0
67651,0.063,-0.063,0.972,-0.069,-0.855,-1.008,0.0,0.0
67719,0.035,-0.029,0.987,-0.061,6.382,0.115,0.0,0.0
67766,-0.073,-0.008,1.045,-3.107,-17.275,-1.603,0.0,0.0
67813,-0.382,0.074,1.183,-23.397,-84.847,17.267,0.0,0.0
67860,-0.250,-0.213,1.123,-25.038,-228.595,45.695,0.0,0.0
67907,0.650,-0.083,0.677,17.061,-229.542,3.260,0.0,0.0
67954,1.274,-0.059,0.437,7.435,-39.298,-12.351,0.0,0.0
68001,1.099,-0.114,0.377,-7.405,206.771,-41.496,0.0,0.0
68048,0.104,-0.026,0.601,-21.824,250.130,-33.687,0.0,0.0
68096,-0.930,-0.153,1.242,-17.611,196.763,-6.008,0.0,0.0
68169,-0.933,-0.207,1.251,3.435,-250.137,9.069,0.0,0.0
68219,0.805,-0.180,0.484,35.802,-250.137,28.977,0.0,0.0
68286,1.367,0.095,0.445,19.290,49.305,-0.351,0.0,0.0
68336,0.259,0.013,0.760,-27.618,250.130,-37.099,0.0,0.0
68403,-0.799,-0.140,1.323,-13.313,121.443,-24.122,0.0,0.0
68453,-0.397,-0.131,0.970,3.221,-244.000,13.038,0.0,0.0
68520,0.643,-0.157,0.612,17.107,-196.443,29.679,0.0,0.0
68570,0.762,0.018,0.729,3.015,90.481,-8.626,0.0,0.0
68637,0.095,-0.045,1.047,-10.878,102.046,-16.985,0.0,0.0
68690,0.087,-0.098,1.022,0.992,-32.588,-7.260,0.0,0.0
68757,0.289,-0.087,0.940,3.992,-22.244,4.588,0.0,0.0
68807,0.216,-0.062,0.989,6.908,21.298,10.916,0.0,0.0
68874,0.219,-0.022,0.995,7.969,7.649,6.336,0.0,0.0
