Timestamp(ms),AccelX(g),AccelY(g),AccelZ(g),GyroX(deg/s),GyroY(deg/s),GyroZ(deg/s),DistanceLeft(cm),DistanceRight(cm)
36432,0.600,-0.004,0.641,4.237,-61.221,24.901,0.0,0.0
36480,0.172,-0.040,0.994,-2.824,49.794,10.794,0.0,0.0
36526,-0.016,-0.087,1.096,1.763,17.321,4.397,0.0,0.0
36572,0.144,-0.007,0.983,2.809,-0.580,3.794,0.0,0.0
36618,0.084,-0.020,1.003,1.122,11.809,2.626,0.0,0.0
36664,0.014,-0.064,1.023,-0.641,5.557,3.496,0.0,0.0
36711,0.092,-0.021,1.000,0.443,-10.817,7.069,0.0,0.0
36757,0.148,-0.041,0.950,0.595,5.969,4.725,0.0,0.0
36806,0.062,-0.015,1.012,-2.412,12.305,0.641,0.0,0.0
36852,0.040,-0.054,1.016,-2.084,-2.702,1.710,0.0,0.0
36898,0.082,-0.043,0.987,-1.206,-6.137,2.924,0.0,0.0
36945,0.125,-0.028,0.970,-1.962,3.313,1.313,0.0,0.0
36992,0.046,-0.065,0.987,-1.420,4.664,-0.366,0.0,0.0
37038,0.110,-0.016,0.949,-4.298,3.038,0.046,0.0,0.0
37085,0.022,-0.035,1.010,-8.115,8.931,-0.634,0.0,0.0
37131,-0.350,0.057,1.147,-20.122,-56.244,-0.466,0.0,0.0
37177,-0.431,-0.033,1.064,-44.595,-209.466,33.260,0.0,0.0
37222,0.330,-0.310,0.645,-25.084,-250.137,25.145,111.0,0.0
37282,1.431,-0.051,0.371,-3.809,-138.855,-5.374,0.0,0.0
37328,1.167,-0.221,0.480,-12.779,189.237,-23.496,0.0,0.0
37376,0.349,-0.142,0.733,-16.328,250.130,-25.115,0.0,0.0
37422,-0.283,-0.184,1.191,-0.908,185.473,-19.763,0.0,0.0
37469,-0.223,-0.151,1.044,9.710,101.038,-27.191,0.0,0.0
37515,-0.441,-0.086,1.059,-4.977,18.450,-11.145,0.0,0.0
37562,-0.622,-0.208,1.201,-9.519,-125.672,38.962,0.0,0.0
37609,-0.019,-0.256,0.910,15.527,-221.282,39.908,0.0,0.0
37676,0.984,-0.121,0.570,27.282,-104.137,17.611,0.0,0.0
37723,0.641,-0.022,0.761,0.160,150.763,-18.947,0.0,0.0
37769,0.010,-0.083,0.998,-12.069,176.901,-14.962,0.0,0.0
37816,-0.435,-0.149,1.223,-4.405,46.496,-4.008,0.0,0.0
37862,-0.131,-0.136,1.029,1.466,-68.771,-10.252,0.0,0.0
37909,0.288,-0.121,0.801,-0.580,-37.427,-2.351,0.0,0.0
37955,0.135,-0.117,0.972,-4.557,17.466,8.115,0.0,0.0
38002,0.047,-0.098,1.060,-2.443,3.557,2.695,0.0,0.0
38048,0.141,-0.103,0.986,1.084,-10.954,-3.649,0.0,0.0
38098,0.141,-0.113,0.977,-4.122,15.130,-2.542,0.0,0.0
38145,0.020,-0.128,1.051,0.969,6.260,3.214,0.0,0.0
38192,0.074,-0.107,0.996,3.053,-10.489,0.893,0.0,0.0
38238,0.153,-0.114,0.957,1.931,-6.252,3.496,0.0,0.0
38285,0.107,-0.084,0.984,1.053,8.427,0.870,0.0,0.0
38331,0.082,-0.111,0.987,-0.649,1.817,0.954,0.0,0.0
38378,0.043,-0.116,1.020,2.992,-15.954,1.168,0.0,0.0
38425,0.190,-0.100,0.920,2.313,-5.359,3.550,0.0,0.0
38471,0.239,-0.095,0.924,0.069,31.137,4.069,0.0,0.0
38518,0.408,-0.092,0.822,2.046,90.802,-1.977,0.0,0.0
38567,0.335,-0.069,0.562,-9.397,247.344,-7.847,0.0,0.0
38615,-0.383,-0.110,0.701,-15.076,250.130,-6.466,0.0,0.0
38662,-1.256,-0.193,1.027,6.252,190.221,12.573,0.0,0.0
38708,-1.638,-0.079,1.350,0.611,-131.634,-11.046,0.0,0.0
38755,-0.997,-0.106,0.811,-2.618,-250.137,7.786,0.0,0.0
38858,0.486,-0.116,0.676,23.916,-218.863,45.908,0.0,0.0
38905,0.817,-0.033,0.728,11.595,-53.634,16.802,0.0,0.0
38952,0.979,-0.074,0.483,-3.969,128.595,-37.687,0.0,0.0
39000,0.302,0.004,0.460,-21.878,250.130,-27.573,0.0,0.0
39066,-0.815,-0.218,1.003,-23.962,250.130,-1.947,0.0,0.0
39113,-0.988,-0.127,1.222,6.336,-50.214,-8.198,0.0,0.0
39160,-0.580,-0.077,0.973,3.282,-184.534,-5.802,0.0,0.0
39207,-0.117,-0.156,0.846,11.939,-184.595,3.588,0.0,0.0
39255,0.543,-0.032,0.673,14.366,-68.099,0.031,0.0,0.0
39302,0.302,0.022,0.787,-3.557,104.855,1.595,0.0,0.0
39348,-0.171,-0.072,0.988,-11.099,125.725,0.389,0.0,0.0
39395,-0.536,-0.163,1.177,-4.145,26.168,-0.679,0.0,0.0
39442,-0.252,-0.078,0.979,-0.695,-62.443,-7.649,0.0,0.0
39492,-0.027,-0.096,0.885,-4.916,-30.206,1.756,0.0,0.0
39539,-0.064,-0.082,0.969,-4.565,-1.847,4.710,0.0,0.0
39586,-0.110,-0.092,0.988,-2.221,9.405,0.244,0.0,0.0
39632,-0.141,-0.095,0.993,-2.420,1.290,0.733,0.0,0.0
39680,-0.110,-0.090,0.990,-3.183,-2.595,0.725,0.0,0.0
39727,-0.111,-0.108,1.000,-0.779,-0.130,2.450,0.0,0.0
39774,-0.105,-0.099,0.989,-1.954,-12.611,2.000,0.0,0.0
39821,-0.121,-0.105,1.014,-0.786,-10.107,3.046,0.0,0.0
39868,-0.075,-0.070,0.963,-3.870,-16.504,3.931,0.0,0.0
39936,-0.191,-0.096,1.060,-10.160,-40.473,12.710,0.0,0.0
39983,0.367,-0.178,0.866,7.427,-27.344,-9.275,0.0,0.0
40030,0.680,-0.044,0.544,6.489,148.565,-27.702,0.0,0.0
40077,-0.079,-0.051,0.532,-15.870,250.130,-18.084,0.0,0.0
40124,-0.830,-0.128,0.679,-14.893,250.130,10.832,0.0,0.0
40171,-1.786,-0.283,1.157,16.977,90.832,30.588,0.0,0.0
40218,-1.492,-0.090,1.004,-1.275,-250.137,-15.573,0.0,0.0
40265,-0.724,-0.059,0.553,-3.290,-250.137,-12.084,0.0,0.0
40312,0.336,-0.108,0.382,-2.053,-250.137,-17.267,0.0,0.0
40363,0.937,0.053,0.623,-2.427,-26.901,10.443,0.0,0.0
40410,0.305,-0.154,0.898,-4.992,124.634,-7.511,0.0,0.0
40457,0.090,-0.067,0.826,-6.275,178.176,-16.321,0.0,0.0
40504,-0.671,-0.148,1.127,-7.870,152.107,5.458,0.0,0.0
40551,-0.961,-0.181,1.333,1.969,-72.214,4.969,0.0,0.0
40598,-0.533,-0.139,0.937,9.344,-246.237,5.206,0.0,0.0
40646,0.426,-0.064,0.581,2.931,-194.069,18.527,0.0,0.0
40693,0.657,-0.082,0.692,0.351,-11.046,17.137,0.0,0.0
40740,0.335,-0.098,0.938,-4.893,66.954,-10.603,0.0,0.0
40808,0.069,-0.078,0.958,-4.954,88.985,-17.130,0.0,0.0
40855,-0.348,-0.155,1.168,-8.366,12.389,-0.725,0.0,0.0
40902,-0.108,-0.190,1.035,1.122,-69.802,1.221,0.0,0.0
40949,0.291,-0.127,0.834,2.595,-28.931,2.702,0.0,0.0
40997,0.149,-0.100,0.982,1.656,34.336,8.939,0.0,0.0
41044,0.009,-0.105,1.031,4.504,33.435,1.344,0.0,0.0
41092,-0.041,-0.128,1.022,2.710,11.496,-3.817,0.0,0.0
41139,0.022,-0.123,0.953,-0.168,0.122,-2.718,0.0,0.0
41186,-0.047,-0.124,1.025,2.160,-7.809,1.382,0.0,0.0
41233,0.099,-0.092,0.928,1.496,-4.458,-0.718,0.0,0.0
41340,-0.043,-0.106,1.016,-0.336,13.031,0.122,0.0,0.0
41388,-0.025,-0.096,1.006,2.000,-10.145,2.374,0.0,0.0
41435,-0.007,-0.104,0.976,1.115,-6.046,3.969,0.0,0.0
41482,-0.049,-0.108,1.018,1.542,-16.221,11.061,0.0,0.0
41530,-0.101,-0.103,1.057,4.580,-50.542,18.321,0.0,0.0
41577,0.320,-0.131,0.932,8.092,-47.916,19.160,0.0,0.0
41624,0.693,-0.105,0.711,19.588,81.542,-6.046,0.0,0.0
41671,0.331,0.036,0.628,9.115,250.130,-20.679,0.0,0.0
41719,-0.334,-0.026,0.661,-10.595,250.130,-15.252,0.0,0.0
41769,-1.117,-0.100,0.951,-7.794,217.527,12.275,0.0,0.0
41818,-1.819,-0.095,1.403,-16.641,-121.954,8.634,0.0,0.0
41865,-1.018,-0.169,0.721,-20.168,-250.137,1.779,0.0,0.0
41912,0.047,-0.101,0.437,2.824,-250.137,-3.733,0.0,0.0
41960,1.157,0.060,0.399,3.908,-137.031,-16.847,0.0,0.0
42007,0.720,-0.144,0.690,-12.679,121.221,-24.824,0.0,0.0
42054,-0.042,-0.108,1.037,-9.748,171.985,-39.038,0.0,0.0
42102,-0.609,-0.177,1.235,-2.221,48.885,-20.458,0.0,0.0
42149,-0.622,-0.051,1.183,-2.695,-120.397,15.794,0.0,0.0
42218,-0.051,-0.233,0.894,0.863,-209.947,52.389,0.0,0.0
42265,0.976,-0.050,0.616,28.450,-59.450,4.847,0.0,0.0
42313,0.920,-0.008,0.623,4.137,129.443,-29.618,0.0,0.0
42360,0.375,0.015,0.541,-18.603,250.130,-37.412,0.0,0.0
42408,-0.876,-0.129,1.176,-18.244,219.061,1.679,0.0,0.0
42456,-1.222,-0.200,1.524,-9.053,-126.992,5.748,0.0,0.0
42503,-0.069,-0.189,0.762,2.023,-250.137,0.168,0.0,0.0
42557,0.986,-0.013,0.457,6.244,-50.344,-1.611,0.0,0.0
42603,0.266,-0.034,0.938,-13.679,116.160,9.252,0.0,0.0
42652,-0.180,-0.155,1.171,-3.298,45.634,-4.084,0.0,0.0
42698,0.026,-0.101,1.020,-0.565,-22.664,-10.412,0.0,0.0
42745,0.156,-0.110,0.932,-3.580,-1.901,0.664,0.0,0.0
42791,0.065,-0.110,1.000,0.198,14.725,5.824,0.0,0.0
42838,0.052,-0.095,1.010,1.389,-8.084,1.855,0.0,0.0
42884,0.140,-0.080,0.940,-2.466,-1.336,-0.038,0.0,0.0
42930,0.096,-0.091,0.976,-4.137,10.809,-1.305,0.0,0.0
42977,0.041,-0.147,1.018,-4.237,3.519,-2.405,0.0,0.0
43023,0.059,-0.138,0.988,-1.595,-6.237,2.176,0.0,0.0
43072,0.117,-0.104,0.966,-1.305,-0.901,2.786,0.0,0.0
43118,0.095,-0.111,0.977,-1.527,4.840,1.763,0.0,0.0
43165,0.065,-0.094,1.017,-1.282,3.878,2.435,0.0,0.0
43211,0.353,-0.136,0.972,1.305,21.221,-0.992,0.0,0.0
43257,0.655,-0.121,0.647,15.366,163.794,-19.412,0.0,0.0
43303,-0.153,-0.078,0.852,14.885,250.130,-25.450,0.0,0.0
43351,-0.667,-0.131,0.948,14.405,199.916,-19.023,0.0,0.0
43397,-1.196,-0.138,1.038,20.481,32.824,-9.740,0.0,0.0
43444,-1.160,0.061,1.026,-15.198,-183.076,3.992,0.0,0.0
43490,-0.546,-0.135,0.719,-16.084,-250.137,21.229,0.0,0.0
43557,0.577,-0.044,0.559,-0.427,-224.939,12.656,0.0,0.0
43603,0.870,-0.101,0.618,-0.198,88.573,-10.687,0.0,0.0
43651,0.298,-0.033,0.563,-15.863,250.130,-31.832,0.0,0.0
43697,-0.810,-0.104,1.076,-23.183,241.008,0.733,0.0,0.0
43800,-0.897,-0.215,1.044,-3.977,-250.137,13.351,0.0,0.0
43847,0.676,-0.139,0.473,16.855,-220.076,16.260,0.0,0.0
43893,1.041,-0.006,0.523,14.336,55.183,8.168,0.0,0.0
43940,0.432,-0.037,0.667,-17.618,245.328,-20.237,0.0,0.0
43986,-0.505,-0.146,0.950,-17.527,250.130,-19.626,0.0,0.0
44037,-1.205,-0.246,1.356,-2.221,42.290,-6.092,0.0,0.0
44083,-1.066,-0.183,1.175,1.878,-243.588,1.588,0.0,0.0
44130,0.075,-0.181,0.625,7.824,-250.137,8.260,0.0,0.0
44176,1.059,-0.020,0.403,20.260,-65.221,1.183,0.0,0.0
44223,0.459,-0.000,0.721,-8.046,160.878,-2.878,0.0,0.0
44269,-0.409,-0.154,1.171,-8.794,126.626,0.733,0.0,0.0
44316,-0.422,-0.152,1.173,-1.733,-23.794,-4.351,0.0,0.0
44363,-0.004,-0.101,0.917,-3.611,-66.802,-5.786,0.0,0.0
44409,0.194,-0.095,0.846,-4.542,-0.710,7.725,0.0,0.0
44477,-0.023,-0.080,1.020,-6.786,32.710,7.939,0.0,0.0
44523,-0.059,-0.142,1.038,-1.466,-1.611,-2.275,0.0,0.0
44570,0.028,-0.099,0.986,-2.588,6.023,-0.252,0.0,0.0
44616,-0.038,-0.129,1.021,-1.427,11.611,2.435,0.0,0.0
44663,-0.076,-0.135,1.038,3.794,-0.573,2.924,0.0,0.0
44710,-0.030,-0.112,0.997,3.328,-8.603,5.122,0.0,0.0
44756,-0.030,-0.106,0.989,2.473,-0.130,4.672,0.0,0.0
44804,-0.007,-0.136,0.975,2.893,-0.328,3.870,0.0,0.0
44850,-0.044,-0.126,1.002,5.351,-2.244,5.489,0.0,0.0
44900,-0.052,-0.097,0.998,7.130,-4.542,6.458,0.0,0.0
44947,-0.075,-0.073,0.980,1.405,-18.756,8.847,0.0,0.0
44993,-0.106,-0.065,1.065,-8.023,-42.374,21.573,0.0,0.0
45040,0.398,-0.193,0.857,-1.282,-17.244,9.595,0.0,0.0
45087,0.496,-0.082,0.749,13.626,126.550,-20.916,0.0,0.0
45134,-0.042,-0.078,0.797,7.405,231.237,-20.519,0.0,0.0
45180,-0.787,-0.114,1.059,10.710,165.947,-9.824,0.0,0.0
45228,-0.995,-0.030,1.085,-4.595,-1.710,2.092,0.0,0.0
45275,-1.061,-0.059,1.094,-30.954,-214.588,34.023,0.0,0.0
45342,-0.288,-0.308,0.678,-14.237,-250.137,33.847,0.0,0.0
45389,1.360,-0.083,0.306,17.809,-80.901,-16.725,0.0,0.0
45435,0.777,0.014,0.631,-12.947,220.267,-32.328,0.0,0.0
45483,-0.110,-0.139,0.793,-15.443,250.130,-38.267,0.0,0.0
45530,-0.982,-0.138,1.194,-1.855,180.405,-10.336,0.0,0.0
45577,-1.391,-0.123,1.428,-14.740,-119.214,9.786,0.0,0.0
45624,-0.612,-0.286,0.827,-6.450,-250.137,26.099,0.0,0.0
45671,0.959,-0.151,0.262,24.832,-240.344,-5.031,0.0,0.0
45718,1.311,0.076,0.353,6.992,125.092,-12.458,0.0,0.0
45768,0.037,-0.036,0.756,-21.351,250.130,-26.023,0.0,0.0
45815,-0.876,-0.203,1.156,-3.870,193.710,-1.298,0.0,0.0
45862,-1.076,-0.120,1.312,-4.427,-49.481,-0.160,0.0,0.0
45908,-0.590,-0.136,0.974,-8.573,-250.137,21.115,0.0,0.0
45956,0.576,-0.259,0.547,12.221,-205.336,4.183,0.0,0.0
46003,1.042,0.094,0.460,9.878,62.786,-12.336,0.0,0.0
46050,0.045,0.021,0.884,-30.000,220.313,-4.489,0.0,0.0
46097,-0.632,-0.283,1.274,-19.931,94.519,0.214,0.0,0.0
46144,-0.460,-0.191,1.167,4.450,-67.481,-19.802,0.0,0.0
46252,0.149,-0.152,0.885,-4.634,0.489,11.908,0.0,0.0
46299,-0.081,-0.164,1.025,2.725,30.237,4.122,0.0,0.0
46346,-0.121,-0.118,1.026,3.756,4.885,-1.137,0.0,0.0
46393,-0.078,-0.130,0.973,0.489,-6.649,-2.618,0.0,0.0
46439,-0.030,-0.161,0.939,-0.573,-1.015,1.328,0.0,0.0
46486,-0.088,-0.143,0.972,0.061,9.229,5.542,0.0,0.0
46533,-0.092,-0.126,0.993,0.779,0.443,1.504,0.0,0.0
46580,-0.056,-0.126,0.969,-0.412,-5.160,1.069,0.0,0.0
46627,-0.085,-0.109,0.990,-1.626,-0.634,2.145,0.0,0.0
46674,-0.069,-0.134,1.003,-0.656,-8.725,5.519,0.0,0.0
46742,-0.037,-0.114,0.968,0.168,2.641,7.473,0.0,0.0
46789,0.072,-0.123,0.971,1.763,25.931,6.427,0.0,0.0
46836,0.165,-0.090,0.877,1.679,77.435,-4.130,0.0,0.0
46883,0.028,-0.084,0.790,-7.115,149.053,-13.573,0.0,0.0
46930,-0.364,-0.144,0.794,-16.130,187.931,-9.489,0.0,0.0
46978,-1.001,-0.188,1.032,-11.634,95.244,15.565,0.0,0.0
47026,-1.295,-0.192,1.240,-9.420,-136.740,17.267,0.0,0.0
47073,-0.705,-0.234,0.852,7.481,-250.137,6.580,0.0,0.0
47120,0.484,-0.130,0.455,21.626,-250.137,-11.458,0.0,0.0
47170,1.090,0.063,0.439,4.748,24.206,-15.328,0.0,0.0
47217,0.402,-0.044,0.568,-26.626,250.130,-22.718,0.0,0.0
47265,-0.621,-0.193,0.864,-31.382,250.130,-8.855,0.0,0.0
47312,-1.418,-0.277,1.361,-8.695,67.420,20.359,0.0,0.0
47360,-1.249,-0.187,1.248,-6.771,-250.137,11.527,0.0,0.0
47407,0.054,-0.289,0.487,9.420,-250.137,-3.397,0.0,0.0
47454,1.256,0.018,0.362,24.954,-96.489,-28.664,0.0,0.0
47502,0.727,0.013,0.529,-15.160,216.534,-9.817,0.0,0.0
47549,-0.341,-0.138,0.876,-30.855,250.130,-6.382,0.0,0.0
47617,-1.230,-0.397,1.278,10.015,72.786,22.244,0.0,0.0
47665,-0.648,-0.123,0.937,-2.305,-250.137,6.664,0.0,0.0
47712,0.397,-0.209,0.503,5.267,-208.916,1.519,0.0,0.0
47759,0.932,0.012,0.607,6.824,9.870,10.969,0.0,0.0
47806,0.256,-0.080,0.895,-15.802,145.901,-2.076,0.0,0.0
47853,-0.271,-0.203,1.100,-13.702,115.695,-17.565,0.0,0.0
47901,-0.494,-0.237,1.187,-1.260,-3.046,-9.550,0.0,0.0
47948,-0.246,-0.153,1.040,1.260,-95.618,6.664,0.0,0.0
47995,0.261,-0.188,0.795,5.817,-63.809,6.977,0.0,0.0
48047,0.306,-0.051,0.837,0.794,57.802,-0.198,0.0,0.0
48094,-0.096,-0.140,1.010,-7.702,81.656,-0.229,0.0,0.0
48141,-0.248,-0.199,1.097,-4.779,19.053,-11.916,0.0,0.0
48189,-0.108,-0.172,0.980,2.221,-22.366,-12.115,0.0,0.0
48236,-0.012,-0.139,0.938,-2.069,-5.595,-0.794,0.0,0.0
48283,-0.104,-0.179,1.003,0.183,0.595,2.221,0.0,0.0
48330,-0.048,-0.139,0.956,2.656,-3.664,3.313,0.0,0.0
48378,-0.066,-0.131,0.989,-0.931,5.359,3.695,0.0,0.0
48425,-0.125,-0.166,1.007,1.824,-1.756,7.710,0.0,0.0
48494,-0.141,-0.164,0.988,2.534,-25.046,9.473,0.0,0.0
48541,-0.172,-0.120,1.031,-3.763,-78.420,26.412,0.0,0.0
48589,0.123,-0.195,0.969,-5.458,-103.595,29.412,0.0,0.0
48636,0.663,-0.212,0.831,12.870,-28.275,2.290,0.0,0.0
48741,0.105,-0.020,0.581,-10.000,250.130,-22.939,0.0,0.0
48788,-1.000,-0.168,0.900,-26.298,250.130,23.786,0.0,0.0
48856,-1.646,-0.255,1.455,-13.954,-104.573,18.336,0.0,0.0
48903,-0.639,-0.213,0.673,4.588,-250.137,-16.206,0.0,0.0
48949,0.563,-0.120,0.389,7.061,-250.137,-39.458,0.0,0.0
48998,1.122,0.049,0.498,-5.427,53.397,-20.718,0.0,0.0
49044,0.134,-0.201,0.730,-10.962,250.130,-23.191,0.0,0.0
49091,-0.875,-0.210,1.218,2.237,158.863,-4.847,0.0,0.0
49137,-1.154,-0.169,1.408,-5.435,-116.855,11.519,0.0,0.0
49184,-0.433,-0.254,0.865,-2.374,-250.137,16.305,0.0,0.0
49230,0.719,-0.164,0.510,14.481,-196.878,-9.466,0.0,0.0
49276,1.131,0.049,0.539,11.084,52.969,-7.176,0.0,0.0
49324,0.447,-0.063,0.662,-17.015,241.702,-19.328,0.0,0.0
49370,-0.409,-0.145,1.002,-21.580,240.893,-5.702,0.0,0.0
49436,-1.027,-0.271,1.343,-4.092,26.634,15.664,0.0,0.0
49483,-0.349,-0.237,0.913,2.649,-250.137,4.008,0.0,0.0
49529,0.710,-0.111,0.515,11.870,-137.924,-11.366,0.0,0.0
49575,0.634,-0.063,0.674,-6.519,82.008,7.305,0.0,0.0
49623,-0.111,-0.151,1.064,-11.992,129.450,3.427,0.0,0.0
49669,-0.305,-0.238,1.170,-2.168,22.855,-8.718,0.0,0.0
49716,-0.085,-0.115,1.022,-1.748,-40.473,-9.496,0.0,0.0
49762,0.114,-0.163,0.917,-4.603,-15.641,2.176,0.0,0.0
49808,0.091,-0.184,0.944,-0.374,22.840,5.550,0.0,0.0
49858,-0.043,-0.188,0.981,-0.328,29.847,0.427,0.0,0.0
49904,-0.059,-0.166,0.997,-2.588,12.939,-2.649,0.0,0.0
49950,-0.045,-0.153,0.986,-2.107,1.153,-1.962,0.0,0.0
49997,-0.024,-0.183,0.955,-2.962,3.466,0.695,0.0,0.0
50043,-0.069,-0.170,0.980,-1.573,6.405,1.565,0.0,0.0
50091,-0.074,-0.170,0.987,-1.771,-5.031,2.115,0.0,0.0
50137,-0.128,-0.168,1.002,-0.931,-10.870,6.115,0.0,0.0
50184,-0.210,-0.173,1.104,-4.344,-49.649,20.725,0.0,0.0
50230,0.108,-0.232,1.022,6.000,-71.237,23.237,0.0,0.0
50277,0.542,-0.248,0.803,27.107,11.305,-2.061,0.0,0.0
50326,0.382,0.010,0.735,21.191,171.160,-17.870,0.0,0.0
50372,-0.362,-0.065,0.931,-1.183,209.931,-8.779,0.0,0.0
50419,-0.921,-0.156,1.234,-3.924,45.565,1.878,0.0,0.0
50466,-0.954,-0.150,1.154,-10.893,-185.710,8.962,0.0,0.0
50512,-0.135,-0.252,0.728,-5.229,-250.137,16.015,0.0,0.0
50560,0.839,-0.124,0.530,13.947,-125.695,-0.672,0.0,0.0
50606,0.847,-0.026,0.533,-0.275,129.450,-19.420,0.0,0.0
50653,0.127,-0.049,0.661,-27.847,250.130,-22.550,0.0,0.0
50700,-0.904,-0.215,1.164,-25.382,198.740,2.260,0.0,0.0
50766,-1.484,-0.306,1.543,-6.466,-160.031,15.382,0.0,0.0
50813,0.279,-0.302,0.515,8.237,-250.137,-7.947,0.0,0.0
50861,1.404,0.067,0.395,21.542,-25.282,-10.901,0.0,0.0
50907,0.526,-0.059,0.637,-13.244,245.870,-6.466,0.0,0.0
50954,-0.388,-0.110,0.982,-21.656,250.130,-7.183,0.0,0.0
51001,-1.073,-0.377,1.310,2.595,57.901,9.779,0.0,0.0
51047,-0.714,-0.151,1.116,8.954,-180.168,-0.710,0.0,0.0
51094,0.075,-0.147,0.719,2.550,-196.817,5.038,0.0,0.0
51197,0.406,-0.031,0.755,-4.832,120.565,-6.290,0.0,0.0
51248,-0.487,-0.224,1.189,-12.321,90.756,3.130,0.0,0.0
51295,-0.431,-0.219,1.144,2.870,-51.702,-9.977,0.0,0.0
51341,-0.001,-0.117,0.887,-0.527,-73.015,-3.939,0.0,0.0
51388,0.173,-0.160,0.870,-2.229,-5.321,7.634,0.0,0.0
51435,-0.012,-0.144,1.021,0.412,27.939,6.466,0.0,0.0
51481,-0.081,-0.146,1.030,1.412,14.481,-0.092,0.0,0.0
51528,-0.080,-0.151,0.997,1.328,-0.466,-1.344,0.0,0.0
51575,-0.061,-0.165,0.982,2.771,-4.771,0.321,0.0,0.0
51621,-0.036,-0.162,0.964,1.336,-1.336,1.794,0.0,0.0
51689,-0.058,-0.151,0.976,2.611,1.969,1.443,0.0,0.0
51736,-0.037,-0.125,0.938,3.275,10.412,-1.038,0.0,0.0
51783,-0.111,-0.161,0.979,0.298,3.405,2.649,0.0,0.0
51829,-0.147,-0.146,1.026,1.656,-16.168,5.634,0.0,0.0
51876,-0.007,-0.143,0.970,3.237,-25.191,3.260,0.0,0.0
51923,0.000,-0.127,0.969,4.290,-2.366,9.901,0.0,0.0
51971,-0.039,-0.114,0.997,2.954,1.305,9.634,0.0,0.0
52017,0.002,-0.163,1.042,1.947,-10.901,8.885,0.0,0.0
52064,0.252,-0.151,0.932,17.038,26.405,1.076,0.0,0.0
52114,0.377,-0.071,0.672,19.763,174.427,-7.221,0.0,0.0
52161,-0.257,-0.020,0.655,13.145,250.130,1.756,0.0,0.0
52208,-0.934,-0.038,0.799,8.252,239.511,25.603,0.0,0.0
52255,-1.492,-0.062,1.190,-6.725,0.893,18.168,0.0,0.0
52301,-1.119,-0.091,0.917,-26.031,-239.435,4.817,0.0,0.0
52348,-0.568,-0.094,0.696,-17.985,-250.137,0.634,0.0,0.0
52396,0.496,-0.143,0.409,-8.336,-250.137,-24.725,0.0,0.0
52443,1.169,-0.052,0.431,-2.893,14.931,-51.840,0.0,0.0
52490,0.228,-0.104,0.702,-7.740,250.130,-38.496,0.0,0.0
52537,-0.771,-0.059,1.053,-12.550,228.321,-5.069,0.0,0.0
52587,-1.306,-0.131,1.492,-24.153,-61.618,18.031,0.0,0.0
52635,-0.719,-0.285,0.972,-1.198,-250.137,14.107,0.0,0.0
52682,0.715,-0.178,0.405,19.443,-236.427,-3.664,0.0,0.0
52729,1.266,0.092,0.436,15.206,79.412,-11.725,0.0,0.0
52776,0.161,-0.004,0.682,-16.023,250.130,-18.756,0.0,0.0
52824,-0.871,-0.153,1.211,-12.229,184.244,3.901,0.0,0.0
52871,-1.101,-0.200,1.380,-3.595,-101.656,-2.947,0.0,0.0
52918,-0.304,-0.121,0.862,-2.397,-250.137,3.130,0.0,0.0
52968,0.741,-0.087,0.478,4.664,-110.298,4.710,0.0,0.0
53015,0.475,-0.062,0.747,-9.237,101.076,11.084,0.0,0.0
53062,-0.180,-0.122,1.156,-11.969,95.687,4.000,0.0,0.0
53109,-0.247,-0.166,1.131,-1.924,-12.931,-13.679,0.0,0.0
53156,0.021,-0.109,0.964,-8.954,-38.496,-9.557,0.0,0.0
53203,0.108,-0.156,0.923,-6.313,0.885,5.885,0.0,0.0
53251,0.010,-0.172,1.012,-2.924,15.573,4.053,0.0,0.0
53298,0.042,-0.093,0.975,-2.260,16.069,2.473,0.0,0.0
53345,-0.072,-0.166,1.021,-2.939,6.237,0.878,0.0,0.0
53392,0.020,-0.132,0.958,-3.405,-5.817,-2.519,0.0,0.0
53443,-0.006,-0.136,0.989,-5.206,3.878,2.992,0.0,0.0
53490,-0.007,-0.180,0.989,-1.763,-1.443,1.328,0.0,0.0
53537,-0.011,-0.159,0.977,-1.176,-1.771,0.237,0.0,0.0
53641,-0.077,-0.152,1.028,-0.733,-20.229,7.153,0.0,0.0
53688,-0.030,-0.127,1.007,-7.550,-43.626,20.565,0.0,0.0
53736,0.296,-0.222,0.956,-1.260,-31.885,9.527,0.0,0.0
53783,0.540,-0.192,0.785,18.321,70.595,-27.504,0.0,0.0
53830,0.258,-0.013,0.684,0.260,215.542,-33.229,0.0,0.0
53877,-0.465,-0.168,0.830,-16.275,250.130,-10.695,0.0,0.0
53946,-1.108,-0.200,1.183,-6.832,97.939,12.229,0.0,0.0
53993,-1.063,-0.180,1.073,-4.817,-250.137,21.466,0.0,0.0
54040,-0.053,-0.206,0.548,7.115,-250.137,9.000,0.0,0.0
54088,1.212,-0.056,0.311,22.588,-94.687,-15.397,0.0,0.0
54135,0.729,-0.009,0.487,-13.115,220.954,-21.382,0.0,0.0
54182,-0.471,-0.112,0.958,-21.191,250.130,-10.771,0.0,0.0
54231,-1.232,-0.285,1.477,-5.412,19.863,8.382,0.0,0.0
54278,-0.760,-0.183,1.066,-3.496,-248.183,9.931,0.0,0.0
54325,0.471,-0.206,0.590,5.740,-232.099,14.580,0.0,0.0
54376,1.049,-0.019,0.488,18.519,53.130,-2.015,0.0,0.0
54423,0.286,0.010,0.705,-15.260,242.580,-15.718,0.0,0.0
54470,-0.591,-0.215,1.169,-23.366,192.137,-13.542,0.0,0.0
54518,-1.180,-0.300,1.411,8.916,-66.580,-2.802,0.0,0.0
54565,-0.457,-0.200,0.924,0.298,-250.137,5.786,0.0,0.0
54612,0.722,-0.181,0.461,13.763,-152.000,-2.733,0.0,0.0
54661,0.601,-0.024,0.722,5.733,67.977,8.328,0.0,0.0
54708,-0.096,-0.114,1.153,-10.672,85.962,7.160,0.0,0.0
54755,-0.140,-0.215,1.094,3.947,-12.443,-13.603,0.0,0.0
54823,0.165,-0.091,0.886,-2.824,-17.344,-7.588,0.0,0.0
54872,-0.009,-0.156,1.037,-1.313,13.725,7.282,0.0,0.0
54919,0.011,-0.143,1.011,2.641,-14.687,1.710,0.0,0.0
54966,0.167,-0.097,0.929,-0.466,-3.458,3.542,0.0,0.0
55014,0.103,-0.109,0.964,-3.000,22.802,-0.168,0.0,0.0
55067,-0.025,-0.156,1.028,-1.939,9.069,-0.672,0.0,0.0
55113,0.050,-0.126,0.991,-1.611,-9.176,0.985,0.0,0.0
55159,0.081,-0.124,0.959,-1.176,0.313,0.840,0.0,0.0
55205,0.056,-0.148,0.970,-0.679,5.649,1.748,0.0,0.0
55255,0.041,-0.124,0.992,-0.504,2.176,2.641,0.0,0.0
55322,0.425,-0.135,0.818,-0.656,62.427,-2.939,0.0,0.0
55369,0.102,-0.063,0.656,-0.969,250.130,-4.321,0.0,0.0
55415,-0.811,-0.132,1.009,-6.672,250.130,7.588,0.0,0.0
55461,-1.472,-0.243,1.310,8.740,-1.198,12.221,0.0,0.0
55507,-1.051,-0.089,1.015,-8.160,-250.137,1.618,0.0,0.0
55555,0.063,-0.272,0.561,-2.405,-250.137,0.817,0.0,0.0
55601,1.019,-0.114,0.390,17.756,-71.771,-21.298,0.0,0.0
55647,0.545,-0.003,0.525,-7.214,212.992,-18.893,0.0,0.0
55693,-0.594,-0.117,1.028,-24.954,249.076,-6.107,0.0,0.0
55743,-1.320,-0.242,1.487,-3.267,-40.656,8.023,0.0,0.0
55789,-0.766,-0.183,0.973,-8.733,-250.137,7.756,0.0,0.0
55835,0.411,-0.159,0.554,-3.847,-245.061,15.542,0.0,0.0
55882,1.012,-0.123,0.524,7.824,-9.824,9.015,0.0,0.0
55928,0.498,-0.080,0.715,-12.053,192.794,-12.160,0.0,0.0
55974,-0.304,-0.157,0.990,-19.145,220.718,-18.565,0.0,0.0
56022,-0.950,-0.318,1.320,-1.359,56.863,-3.000,0.0,0.0
56125,0.005,-0.240,0.741,6.641,-250.137,22.427,0.0,0.0
56171,1.015,-0.037,0.488,22.145,3.885,3.366,0.0,0.0
56220,0.278,-0.055,0.825,-7.351,174.580,-6.466,0.0,0.0
56267,-0.349,-0.137,1.096,-10.672,130.176,-11.489,0.0,0.0
56313,-0.520,-0.238,1.189,-3.847,-16.840,-18.649,0.0,0.0
56360,-0.100,-0.158,0.939,-2.817,-75.893,-13.679,0.0,0.0
56407,0.167,-0.128,0.812,-3.557,-17.733,1.710,0.0,0.0
56453,0.019,-0.172,0.969,-6.183,33.908,11.450,0.0,0.0
56500,-0.106,-0.132,1.043,-2.557,24.763,5.275,0.0,0.0
56546,-0.085,-0.155,1.032,-2.366,-3.939,-3.733,0.0,0.0
56593,-0.025,-0.143,0.969,-2.244,-4.473,1.069,0.0,0.0
56642,-0.037,-0.187,0.974,-4.626,3.183,3.145,0.0,0.0
56688,-0.039,-0.168,0.984,-1.145,2.061,0.924,0.0,0.0
56735,-0.052,-0.181,0.967,-3.679,1.176,0.313,0.0,0.0
56781,-0.041,-0.163,0.971,-2.611,3.145,0.275,0.0,0.0
56828,-0.030,-0.179,0.973,-2.336,5.053,-0.794,0.0,0.0
56875,-0.059,-0.174,0.985,-2.672,9.557,0.305,0.0,0.0
56922,-0.069,-0.173,0.992,-0.473,9.427,1.069,0.0,0.0
56968,-0.006,-0.185,0.949,0.763,16.344,-1.595,0.0,0.0
57014,0.134,-0.169,0.863,0.427,68.374,-0.947,0.0,0.0
57081,0.034,-0.170,0.823,5.763,159.351,0.206,0.0,0.0
57127,-0.586,-0.150,0.893,8.718,184.855,-0.885,0.0,0.0
57175,-1.130,-0.136,1.099,3.122,35.580,6.855,0.0,0.0
57222,-0.995,-0.111,0.988,-23.824,-174.298,14.092,0.0,0.0
57268,-0.459,-0.253,0.775,-20.580,-250.137,22.878,0.0,0.0
57315,0.187,-0.217,0.748,8.771,-217.145,0.344,0.0,0.0
57361,0.684,-0.100,0.689,9.092,-73.473,-14.481,0.0,0.0
57408,0.590,-0.088,0.628,-5.458,130.855,-27.695,0.0,0.0
57455,-0.001,-0.181,0.605,-17.687,250.130,-21.969,0.0,0.0
57504,-1.090,-0.197,1.111,-13.038,181.916,15.695,0.0,0.0
57551,-1.260,-0.232,1.428,-22.046,-134.534,21.550,0.0,0.0
57598,-0.471,-0.336,0.861,2.947,-250.137,1.511,0.0,0.0
57646,0.762,-0.134,0.497,21.145,-186.977,-29.511,0.0,0.0
57692,0.901,-0.053,0.526,5.626,112.710,-9.496,0.0,0.0
57739,-0.084,-0.164,0.833,-8.481,243.221,-15.947,0.0,0.0
57786,-0.925,-0.223,1.214,8.305,121.580,-1.542,0.0,0.0
57832,-0.886,-0.121,1.217,-9.832,-114.382,17.863,0.0,0.0
57879,-0.385,-0.254,0.922,-7.015,-250.137,31.336,0.0,0.0
57947,0.767,-0.273,0.470,17.664,-148.038,-2.405,0.0,0.0
57994,0.540,-0.075,0.657,-1.237,171.229,-13.015,0.0,0.0
58041,-0.302,-0.110,1.017,-12.802,191.763,-13.427,0.0,0.0
58087,-0.757,-0.231,1.317,-7.916,19.626,-4.809,0.0,0.0
58134,-0.324,-0.198,1.038,-3.534,-117.084,-14.649,0.0,0.0
58181,0.242,-0.136,0.778,-0.893,-72.160,3.198,0.0,0.0
58228,0.152,-0.187,0.873,-0.168,31.565,13.412,0.0,0.0
58274,-0.089,-0.150,1.041,-0.038,38.550,9.740,0.0,0.0
58321,-0.094,-0.149,1.036,-0.344,1.290,-2.916,0.0,0.0
58372,0.001,-0.165,0.955,-0.168,-6.962,-4.405,0.0,0.0
58419,-0.012,-0.174,0.944,-2.374,8.832,2.267,0.0,0.0
58466,-0.069,-0.165,0.991,-1.985,6.237,2.573,0.0,0.0
58569,-0.009,-0.149,0.954,-2.687,-2.634,-2.069,0.0,0.0
58616,-0.068,-0.184,0.988,-2.252,4.771,0.244,0.0,0.0
58663,-0.084,-0.183,0.994,-2.031,-4.313,2.649,0.0,0.0
58710,-0.044,-0.166,0.988,-2.076,-11.168,3.305,0.0,0.0
58757,0.088,-0.185,0.964,-0.275,8.252,3.603,0.0,0.0
58804,0.294,-0.204,0.851,9.763,78.344,-6.435,0.0,0.0
58851,0.107,-0.124,0.714,14.962,196.321,-14.634,0.0,0.0
58901,-0.567,-0.046,0.881,-1.603,222.305,6.908,0.0,0.0
58948,-1.259,-0.223,1.179,0.748,46.779,29.771,0.0,0.0
58995,-1.201,-0.142,1.127,-5.588,-226.763,8.916,0.0,0.0
59042,-0.391,-0.186,0.625,-4.000,-250.137,8.084,0.0,0.0
59089,0.654,-0.137,0.435,5.847,-202.611,-3.221,0.0,0.0
59137,1.011,-0.053,0.513,1.359,57.038,-7.855,0.0,0.0
59183,0.343,-0.085,0.621,-16.351,250.130,-30.954,0.0,0.0
59230,-0.675,-0.206,1.033,-12.031,233.252,-12.252,0.0,0.0
59278,-1.094,-0.233,1.319,-11.748,19.718,0.573,0.0,0.0
59345,-0.826,-0.221,1.081,-6.328,-211.435,11.267,0.0,0.0
59393,0.415,-0.186,0.598,5.351,-200.908,9.985,0.0,0.0
59440,0.774,-0.081,0.641,4.870,3.664,6.687,0.0,0.0
59487,0.113,-0.133,1.004,-4.847,104.382,-5.733,0.0,0.0
59534,-0.175,-0.209,1.088,-1.137,48.122,-13.427,0.0,0.0
59581,-0.114,-0.141,0.972,-4.374,20.786,-9.183,0.0,0.0
59628,-0.131,-0.188,0.975,-1.969,-3.916,7.321,0.0,0.0
59675,-0.040,-0.167,0.961,1.305,-12.176,5.939,0.0,0.0
59722,0.026,-0.113,0.940,-0.885,3.534,4.748,0.0,0.0
59772,-0.021,-0.173,0.982,-1.672,6.656,0.985,0.0,0.0
59820,-0.035,-0.143,0.988,-1.603,4.160,0.122,0.0,0.0
59867,-0.048,-0.176,0.987,-1.771,-1.527,0.992,0.0,0.0
59914,-0.033,-0.152,0.991,-2.084,-3.466,4.351,0.0,0.0
59961,-0.014,-0.169,0.979,-1.237,-4.710,0.328,0.0,0.0
60008,-0.022,-0.167,0.990,-0.344,-1.206,2.176,0.0,0.0
60055,-0.017,-0.174,0.973,0.366,-1.191,0.664,0.0,0.0
60102,-0.010,-0.172,0.974,0.244,2.985,0.405,0.0,0.0
60149,-0.048,-0.148,0.987,0.023,1.099,2.198,0.0,0.0
60217,-0.032,-0.168,0.969,-0.115,-2.802,-1.580,0.0,0.0
60265,-0.022,-0.172,0.945,-1.321,6.107,-0.031,0.0,0.0
60312,-0.065,-0.158,1.001,-2.206,-3.901,1.649,0.0,0.0
60359,0.007,-0.171,0.952,-1.855,-4.496,-0.779,0.0,0.0
60406,-0.039,-0.143,0.999,-4.603,1.840,0.924,0.0,0.0
60453,-0.075,-0.155,1.034,-2.947,-8.450,0.687,0.0,0.0
60500,-0.171,-0.178,1.118,-0.344,-44.092,3.145,0.0,0.0
60549,-0.299,-0.191,1.199,12.397,-131.153,13.023,0.0,0.0
60596,-0.075,-0.124,1.078,10.061,-209.725,41.916,0.0,0.0
60643,0.546,-0.181,0.669,11.809,-204.641,34.489,0.0,0.0
60711,0.962,-0.175,0.561,1.832,-85.840,11.756,0.0,0.0
60759,1.073,-0.187,0.345,-6.076,170.588,-38.336,0.0,0.0
60806,0.023,-0.139,0.869,0.573,240.664,-25.145,0.0,0.0
60854,-0.285,-0.198,1.115,-1.290,102.244,-22.069,0.0,0.0
60901,-0.271,-0.118,1.143,1.328,-33.183,-17.786,0.0,0.0
60948,0.247,-0.119,0.854,-6.183,-56.573,-2.550,0.0,0.0
61052,0.239,-0.142,0.981,-1.740,25.130,5.481,0.0,0.0
61101,0.168,-0.115,1.007,-0.565,12.855,-4.069,0.0,0.0
61148,0.171,-0.138,1.001,-4.947,8.015,-2.893,0.0,0.0
61198,0.166,-0.158,0.999,-2.748,2.496,-3.550,0.0,0.0
61246,0.150,-0.122,0.988,-2.305,3.954,-1.336,0.0,0.0
61293,0.170,-0.167,0.970,-2.176,2.985,-0.626,0.0,0.0
61340,0.133,-0.145,0.974,-0.664,10.237,-2.244,0.0,0.0
61387,0.122,-0.174,0.983,-0.718,1.748,0.702,0.0,0.0
61435,0.142,-0.144,0.980,-2.099,2.168,0.252,0.0,0.0
61483,0.186,-0.140,0.938,0.092,8.267,-0.954,0.0,0.0
61530,0.115,-0.164,0.998,-2.458,11.481,-0.481,0.0,0.0
61583,0.127,-0.160,0.990,-0.908,3.519,0.183,0.0,0.0
61632,0.385,-0.171,0.854,0.107,47.519,-4.534,0.0,0.0
61678,0.382,-0.165,0.828,3.061,141.740,-9.985,0.0,0.0
61725,0.142,-0.105,0.736,10.237,237.527,-23.618,0.0,0.0
61771,-0.364,-0.065,0.751,-5.008,250.130,-21.672,0.0,0.0
61817,-0.821,-0.175,0.871,-8.290,198.573,2.603,0.0,0.0
61863,-1.086,-0.241,0.956,3.328,45.931,4.786,0.0,0.0
61911,-1.010,-0.189,0.950,4.412,-107.718,-15.321,0.0,0.0
61957,-0.518,-0.107,0.748,-0.023,-153.878,-5.985,0.0,0.0
62003,-0.732,-0.269,1.042,10.908,-186.275,4.359,0.0,0.0
62052,0.033,-0.058,0.706,11.137,-210.214,-11.160,0.0,0.0
62099,0.524,-0.044,0.614,-7.008,-36.450,-2.107,0.0,0.0
62145,-0.121,-0.206,1.053,-2.733,42.504,5.435,0.0,0.0
62191,-0.136,-0.147,1.028,0.840,-0.687,-2.511,0.0,0.0
62238,-0.068,-0.109,0.975,-3.504,-3.626,1.687,0.0,0.0
62284,-0.063,-0.164,0.963,-1.260,0.511,1.206,0.0,0.0
62330,-0.117,-0.150,0.985,0.527,0.099,2.168,0.0,0.0
62376,-0.070,-0.145,0.960,-0.939,-3.107,3.710,0.0,0.0
62424,-0.097,-0.149,0.992,0.153,-3.924,2.924,0.0,0.0
62470,-0.011,-0.115,0.957,-1.237,-2.580,2.802,0.0,0.0
62519,-0.098,-0.140,1.017,-3.191,-2.603,2.779,0.0,0.0
62566,-0.039,-0.132,0.987,-0.748,-8.550,1.542,0.0,0.0
62612,-0.037,-0.140,0.982,-2.740,-7.824,2.153,0.0,0.0
62658,-0.047,-0.142,0.983,-0.740,1.557,1.550,0.0,0.0
62705,-0.060,-0.140,0.978,-1.466,0.557,0.206,0.0,0.0
62751,-0.079,-0.145,1.001,-2.374,-0.710,2.015,0.0,0.0
62798,-0.025,-0.134,0.968,-2.183,-3.969,1.023,0.0,0.0
62844,-0.036,-0.141,0.993,-2.000,4.198,1.076,0.0,0.0
62891,-0.035,-0.121,1.026,-2.275,7.885,-1.000,0.0,0.0
62958,-0.171,-0.145,1.097,-2.405,-6.870,1.168,0.0,0.0
63004,-0.443,-0.111,1.195,-4.031,-101.473,31.412,0.0,0.0
63051,-0.182,-0.252,1.005,-2.061,-208.901,45.611,0.0,0.0
63097,0.545,-0.250,0.666,22.756,-184.939,10.122,0.0,0.0
63144,1.023,-0.067,0.583,23.687,-36.641,0.130,0.0,0.0
63191,0.856,-0.088,0.554,11.374,144.969,-28.878,0.0,0.0
63238,0.163,-0.006,0.750,-8.718,246.313,-33.954,0.0,0.0
63284,-0.634,-0.173,1.221,-9.061,126.664,-20.489,0.0,0.0
63331,-0.730,-0.114,1.271,-7.092,-106.893,-4.725,0.0,0.0
63381,-0.036,-0.202,0.875,-2.443,-231.870,26.702,0.0,0.0
63484,1.026,-0.039,0.575,12.870,76.580,-3.198,0.0,0.0
63531,0.293,0.005,0.764,-21.244,239.588,-34.603,0.0,0.0
63578,-0.521,-0.169,1.175,-17.450,164.450,-20.519,0.0,0.0
63625,-0.927,-0.191,1.439,-4.817,-102.206,-9.168,0.0,0.0
63671,-0.085,-0.188,0.833,-2.008,-246.618,3.611,0.0,0.0
63718,0.825,-0.167,0.533,8.695,-111.405,14.275,0.0,0.0
63765,0.606,-0.022,0.785,-7.702,84.870,12.344,0.0,0.0
63811,0.088,-0.146,1.090,-9.733,91.550,-1.038,0.0,0.0
63879,0.012,-0.131,1.092,-4.008,15.550,-11.458,0.0,0.0
63926,0.149,-0.149,0.945,-5.466,8.580,-4.191,0.0,0.0
63972,0.093,-0.201,1.015,-2.389,6.565,4.473,0.0,0.0
64019,0.101,-0.117,1.008,1.550,-2.336,6.176,0.0,0.0
64065,0.154,-0.138,0.961,-0.718,-1.405,4.458,0.0,0.0
64112,0.182,-0.145,0.949,-1.473,6.389,0.122,0.0,0.0
64159,0.099,-0.136,1.004,-3.443,8.053,-0.115,0.0,0.0
64205,0.125,-0.177,0.983,-2.183,-4.687,-1.305,0.0,0.0
64252,0.165,-0.142,0.966,-0.672,3.962,1.099,0.0,0.0
64299,0.125,-0.148,0.979,-1.786,8.466,-0.267,0.0,0.0
64344,0.102,-0.153,1.000,-0.443,3.901,-1.000,0.0,0.0
64390,0.119,-0.139,0.982,-1.099,0.702,-0.603,0.0,0.0
64437,0.104,-0.165,0.989,-1.771,1.153,0.221,0.0,0.0
64484,0.110,-0.168,0.994,-0.122,-2.947,-0.275,0.0,0.0
64531,0.135,-0.151,0.962,-0.977,1.015,-0.252,0.0,0.0
64577,0.108,-0.163,0.975,0.069,6.313,3.069,0.0,0.0
64624,0.102,-0.139,0.990,-0.198,-0.061,0.511,0.0,0.0
64671,0.109,-0.159,0.993,-0.076,-2.573,1.885,0.0,0.0
64717,0.197,-0.170,0.979,2.305,4.084,-0.458,0.0,0.0
64768,0.520,-0.137,0.741,2.168,94.740,-6.130,0.0,0.0
64815,0.180,-0.069,0.737,-7.443,229.229,-7.282,0.0,0.0
64862,-0.458,-0.151,0.911,-16.710,241.916,-5.947,0.0,0.0
64908,-1.270,-0.256,1.378,-0.779,29.282,6.992,0.0,0.0
64955,-0.860,-0.187,1.087,3.771,-228.969,7.344,0.0,0.0
65002,0.143,-0.189,0.670,18.160,-250.137,-5.519,0.0,0.0
65049,0.942,-0.029,0.548,17.824,-35.588,-11.168,0.0,0.0
65096,0.572,-0.048,0.550,-1.313,227.695,-35.779,0.0,0.0
65143,-0.676,-0.116,0.979,-10.031,250.130,-21.191,0.0,0.0
65217,-1.546,-0.182,1.450,0.626,-102.656,11.611,0.0,0.0
65266,-0.383,-0.196,0.649,-10.145,-250.137,39.771,0.0,0.0
65333,1.008,-0.233,0.315,22.038,-181.809,18.947,0.0,0.0
65383,0.528,-0.055,0.741,-1.725,172.794,-12.626,0.0,0.0
65449,-0.312,-0.083,1.134,-8.603,125.000,-8.802,0.0,0.0
65500,-0.321,-0.139,1.111,-7.374,-88.931,-5.916,0.0,0.0
65566,0.264,-0.162,0.818,-1.748,-84.160,9.672,0.0,0.0
65615,0.238,-0.100,0.933,-3.099,40.031,8.672,0.0,0.0
65682,0.022,-0.126,1.105,-4.550,19.763,7.779,0.0,0.0
65735,0.190,-0.055,0.932,-3.023,4.397,-7.756,0.0,0.0
65802,0.036,-0.199,1.014,-5.573,20.977,-0.328,0.0,0.0
65852,0.053,-0.140,1.000,0.702,-10.573,3.015,0.0,0.0
65918,0.154,-0.138,0.949,-0.954,-5.008,4.206,0.0,0.0
65968,0.072,-0.142,0.987,-3.840,11.939,-1.130,0.0,0.0
