Timestamp(ms),AccelX(g),AccelY(g),AccelZ(g),GyroX(deg/s),GyroY(deg/s),GyroZ(deg/s),DistanceLeft(cm),DistanceRight(cm)
12498,0.49,0.024,1.056,0,-0.031,-0.015,16,33
12541,0.49,0.025,1.057,-0.023,0,0,16,33
12583,0.49,0.026,1.057,0,-0.053,0.008,13,33
12625,0.49,0.025,1.057,0.023,-0.038,0,16,35
12668,0.49,0.024,1.057,0,-0.023,0.008,12,36
12710,0.489,0.023,1.056,0,-0.023,-0.008,15,36
12752,0.49,0.025,1.057,0.023,-0.023,0.015,16,33
12793,0.49,0.026,1.058,0.038,-0.031,0.046,15,17
12838,0.49,0.025,1.057,0.008,-0.038,0.038,16,23
12879,0.49,0.025,1.057,0.023,-0.008,0.008,13,17
12920,0.49,0.025,1.057,0,-0.038,-0.023,16,8
12960,0.49,0.026,1.057,-0.038,-0.061,-0.008,12,8
13001,0.49,0.025,1.057,-0.031,0.008,0.008,12,8
13043,0.49,0.024,1.059,0,-0.008,0,17,37
13086,0.489,0.024,1.058,-0.015,-0.008,-0.031,16,35
13129,0.49,0.026,1.058,-0.023,-0.031,-0.023,30,33
13171,0.49,0.023,1.057,0,0,-0.023,17,32
13212,0.49,0.022,1.058,0.038,-0.031,-0.015,17,8
13257,0.49,0.024,1.057,0.038,-0.015,0.008,16,33
13299,0.49,0.025,1.058,0.046,0,0,17,35
13341,0.49,0.024,1.057,0.023,-0.038,-0.008,13,35
13382,0.49,0.025,1.057,0.023,-0.023,0.023,16,8
13425,0.49,0.025,1.058,0.015,0,0.008,32,37
13468,0.49,0.026,1.057,0,-0.031,0.008,17,38
13511,0.49,0.025,1.057,0,-0.015,0.031,32,38
13554,0.49,0.023,1.058,-0.038,-0.031,0.015,16,38
13595,0.489,0.025,1.058,-0.046,-0.023,0.031,13,8
13637,0.489,0.025,1.058,-0.015,-0.031,0,13,38
13679,0.49,0.025,1.059,0,-0.038,0.008,17,31
13723,0.489,0.025,1.058,0.031,-0.031,0,16,8
13766,0.49,0.025,1.058,-0.008,-0.008,0,31,35
13809,0.489,0.026,1.058,-0.015,-0.038,0.015,17,34
13851,0.49,0.026,1.058,-0.015,-0.038,-0.008,16,35
13893,0.49,0.025,1.059,0.008,-0.008,0.015,31,8
13935,0.489,0.024,1.06,-0.015,-0.031,0.023,32,8
13976,0.49,0.024,1.059,-0.008,-0.046,-0.023,17,8
14018,0.49,0.024,1.057,-0.023,-0.008,-0.008,12,30
14060,0.49,0.024,1.059,0,-0.023,0.069,12,34
14102,0.491,0.024,1.058,-0.031,-0.023,0.015,12,30
14146,0.489,0.024,1.058,-0.015,0.023,0.023,17,8
14187,0.49,0.025,1.057,-0.053,-0.023,0.015,17,8
14231,0.491,0.025,1.058,-0.008,-0.008,-0.008,31,37
14274,0.49,0.026,1.057,0,0.023,0.008,31,31
14315,0.489,0.025,1.058,-0.023,-0.031,0.008,16,8
14358,0.49,0.024,1.058,0,0,0.015,31,30
14401,0.489,0.026,1.057,0.008,-0.008,-0.015,31,35
14443,0.49,0.025,1.059,0.008,-0.023,-0.015,30,8
14484,0.489,0.024,1.059,-0.023,0,-0.008,17,8
14526,0.49,0.023,1.058,0.015,0,0.023,31,8
14571,0.49,0.025,1.057,-0.015,-0.023,0.015,31,8
14655,0.489,0.025,1.057,-0.015,-0.008,0.008,30,8
14699,0.489,0.024,1.057,0.015,-0.031,-0.008,30,31
14740,0.489,0.025,1.056,-0.008,-0.023,-0.008,30,8
14784,0.49,0.025,1.057,0.008,-0.031,-0.038,31,33
14826,0.491,0.024,1.058,-0.008,-0.023,-0.015,31,8
14868,0.49,0.024,1.058,-0.061,0,-0.008,31,8
14909,0.489,0.023,1.057,-0.015,0,-0.031,17,8
14950,0.489,0.025,1.057,0.008,-0.023,0,17,8
14994,0.49,0.026,1.057,-0.015,-0.008,0,30,44
15039,0.49,0.024,1.058,0,-0.031,0,31,8
15081,0.49,0.025,1.058,0.015,0,-0.015,31,8
15123,0.49,0.027,1.059,0.015,-0.015,-0.008,31,8
15165,0.49,0.026,1.058,0.015,-0.008,0.008,17,30
15208,0.49,0.024,1.059,0.031,0.015,0.015,17,30
15249,0.489,0.024,1.059,0.023,0.008,0.015,17,8
15291,0.49,0.026,1.059,-0.015,0.031,0.008,17,30
15333,0.49,0.025,1.059,-0.023,-0.015,-0.023,31,8
15376,0.49,0.023,1.056,0.008,-0.046,-0.015,17,30
15418,0.491,0.024,1.057,-0.031,0.008,-0.008,17,30
15460,0.49,0.026,1.058,0,-0.008,0.008,31,8
15506,0.489,0.025,1.058,-0.008,0.023,0,32,8
15547,0.489,0.023,1.058,0.031,0.015,-0.008,17,8
15589,0.49,0.023,1.059,-0.008,0,0,31,8
15631,0.49,0.026,1.059,0.015,0,0.015,31,8
15673,0.49,0.025,1.059,-0.015,-0.038,0.015,17,30
15717,0.489,0.023,1.058,-0.031,-0.038,0.015,31,30
15759,0.489,0.024,1.057,-0.015,-0.008,0.023,12,31
15801,0.489,0.027,1.057,0.008,0,0.015,17,8
15842,0.489,0.025,1.057,0,-0.031,0,13,8
15890,0.491,0.024,1.058,-0.008,-0.038,0,17,30
15934,0.491,0.025,1.057,0.008,-0.038,0.008,17,30
15975,0.491,0.026,1.058,0.008,0,0.015,31,8
16016,0.49,0.024,1.058,0,-0.023,0.008,31,8
16057,0.49,0.024,1.058,-0.031,-0.008,0.031,31,8
16098,0.49,0.025,1.059,0,-0.031,0.015,31,8
16140,0.49,0.027,1.058,-0.015,0.015,0.015,17,30
16181,0.49,0.026,1.057,0.008,0.008,0.031,17,31
16223,0.491,0.023,1.059,0.008,0,-0.008,17,30
16264,0.49,0.024,1.059,0,-0.015,0,17,30
16306,0.49,0.026,1.056,0.015,-0.015,0.031,20,30
16351,0.49,0.025,1.057,-0.015,0,0.015,20,30
16391,0.488,0.024,1.058,0.008,-0.031,0,17,8
16432,0.489,0.024,1.059,0,0.008,0,31,8
16474,0.49,0.025,1.057,-0.008,-0.023,0.008,17,30
16514,0.49,0.026,1.057,0.015,-0.031,0.008,20,8
16556,0.49,0.024,1.057,0.038,-0.015,-0.015,31,8
16596,0.489,0.023,1.058,-0.023,0.008,-0.015,31,8
16637,0.489,0.025,1.058,-0.015,-0.031,-0.008,30,8
16677,0.489,0.026,1.058,-0.023,-0.031,0.015,16,8
16719,0.489,0.025,1.057,-0.023,-0.008,0,31,8
16803,0.49,0.024,1.058,-0.023,0,0.023,16,30
16847,0.49,0.025,1.058,0.015,-0.015,0.015,22,8
16888,0.49,0.023,1.059,0.023,-0.046,0.015,31,8
16930,0.49,0.024,1.058,-0.015,0.023,0.038,17,30
16971,0.489,0.026,1.057,0.008,-0.031,0.053,20,8
17012,0.489,0.025,1.059,-0.015,-0.038,0.008,31,8
17054,0.49,0.024,1.059,-0.008,-0.046,0,16,30
17096,0.49,0.024,1.06,-0.023,-0.046,0.023,16,30
17136,0.49,0.024,1.06,-0.015,-0.023,0.015,16,8
17178,0.49,0.024,1.059,-0.061,0.015,0.031,13,30
17219,0.489,0.024,1.056,-0.015,0.015,-0.008,14,30
17264,0.49,0.024,1.057,0.008,0.008,0.038,13,30
17306,0.489,0.025,1.058,0.031,0.015,0.015,16,30
17346,0.49,0.025,1.057,0.008,-0.023,0.015,17,8
17388,0.49,0.025,1.057,0.008,-0.015,-0.008,16,30
17430,0.49,0.024,1.057,-0.023,0.008,0.008,16,30
17471,0.49,0.025,1.057,-0.008,0.008,0.015,17,8
17512,0.49,0.026,1.056,0,-0.031,0.008,17,30
17553,0.489,0.024,1.056,-0.008,0,0.008,17,8
17594,0.49,0.024,1.056,0.008,-0.008,0.015,17,8
17634,0.49,0.025,1.058,0.023,-0.023,0.008,17,8
17678,0.491,0.025,1.059,0.023,0.008,0,17,8
17718,0.49,0.025,1.058,0.023,0.008,0.015,17,8
17759,0.49,0.025,1.058,0.031,0.008,0,17,8
17799,0.49,0.025,1.057,0,-0.015,-0.008,17,8
17841,0.49,0.024,1.058,0,0,-0.008,17,30
17883,0.49,0.024,1.059,-0.008,-0.031,0,17,33
17924,0.491,0.024,1.058,0.023,-0.023,0,17,8
17965,0.49,0.025,1.058,0.015,-0.008,0.015,17,8
18006,0.489,0.027,1.057,-0.015,0,-0.023,17,8
18046,0.49,0.025,1.058,-0.038,-0.008,0.015,17,30
18091,0.49,0.024,1.057,-0.023,0,0,17,8
18131,0.49,0.024,1.057,-0.008,-0.015,-0.015,17,8
18172,0.49,0.025,1.058,0.008,-0.023,-0.008,17,8
18212,0.489,0.026,1.058,-0.038,-0.023,0,17,8
18253,0.49,0.025,1.058,0.023,-0.015,0,17,8
18294,0.489,0.024,1.058,0.008,-0.023,0.031,17,8
18335,0.489,0.026,1.058,0.015,0.008,0.031,17,8
18377,0.489,0.025,1.058,0.015,-0.031,0.008,17,39
18419,0.489,0.024,1.058,0.008,0,0.023,17,35
18460,0.49,0.025,1.058,-0.008,-0.008,0.008,17,8
18501,0.489,0.025,1.057,-0.038,-0.015,-0.008,17,8
18546,0.489,0.026,1.057,-0.023,-0.008,-0.008,17,32
18588,0.49,0.024,1.057,-0.008,0,0,17,17
18630,0.49,0.025,1.057,0.008,-0.023,0.008,17,31
18670,0.49,0.025,1.058,0.023,-0.008,-0.008,17,8
18713,0.49,0.024,1.058,0.008,-0.023,-0.008,17,41
18754,0.489,0.024,1.059,0.008,0,0.008,17,8
18796,0.49,0.025,1.058,-0.008,-0.008,-0.015,17,33
18839,0.489,0.026,1.059,-0.008,-0.046,-0.023,17,33
18933,0.49,0.024,1.058,0.023,-0.038,0,17,0
18989,0.49,0.025,1.058,0.008,-0.015,0,16,0
19044,0.489,0.025,1.057,0,-0.038,-0.008,17,0
19099,0.49,0.025,1.057,0.008,-0.023,0.015,17,0
19142,0.49,0.025,1.058,0.008,0,0,17,37
19185,0.49,0.026,1.057,-0.023,-0.023,-0.008,17,50
19228,0.49,0.024,1.058,0.008,-0.008,0.008,17,37
19271,0.488,0.025,1.057,-0.053,-0.092,0.008,17,37
19312,0.49,0.025,1.06,-0.053,-0.092,-0.008,17,8
19353,0.49,0.024,1.058,-0.031,0.008,0.015,17,8
19396,0.489,0.023,1.058,-0.015,-0.031,0,17,47
19447,0.491,0.025,1.058,0.023,0.008,0.015,17,0
19503,0.489,0.027,1.058,-0.008,0.008,0.015,17,0
19559,0.49,0.024,1.057,-0.031,-0.046,0.008,17,0
19602,0.49,0.024,1.058,-0.023,0.046,-0.015,17,51
19645,0.49,0.026,1.058,0.008,0.046,0.008,17,50
19687,0.49,0.026,1.058,-0.023,-0.008,0.015,17,17
19739,0.49,0.025,1.057,0.008,0,0.008,17,0
19794,0.489,0.024,1.058,0.031,0,-0.015,17,0
19847,0.49,0.026,1.057,-0.015,-0.008,-0.008,17,0
19902,0.49,0.025,1.059,0.015,0.008,-0.015,17,0
19945,0.49,0.024,1.058,0,0.008,-0.023,17,34
19987,0.49,0.025,1.058,0.008,-0.015,-0.008,17,33
20033,0.49,0.025,1.059,-0.015,-0.053,0,17,33
20076,0.488,0.025,1.057,-0.008,-0.053,0,17,35
20117,0.49,0.025,1.057,0.015,-0.031,0,17,8
20160,0.49,0.025,1.057,0,-0.008,0.008,17,49
20204,0.49,0.025,1.058,-0.038,-0.023,-0.008,17,48
20255,0.489,0.024,1.058,-0.015,-0.023,-0.008,17,0
20312,0.49,0.025,1.058,0.008,-0.038,-0.015,17,0
20355,0.49,0.025,1.059,0.023,-0.038,-0.023,17,33
20407,0.489,0.025,1.058,0,-0.031,0.008,17,0
20462,0.489,0.024,1.058,0.023,-0.031,0.015,17,0
20508,0.49,0.026,1.057,0.008,-0.046,0,17,29
20550,0.49,0.024,1.058,-0.008,-0.015,0.008,17,37
20593,0.489,0.023,1.059,-0.008,-0.031,0.015,17,33
20634,0.49,0.024,1.057,-0.008,-0.038,0,17,8
20675,0.489,0.026,1.057,-0.023,-0.008,0,17,8
20717,0.49,0.026,1.058,-0.038,-0.015,0.015,17,8
20758,0.489,0.024,1.059,0.015,-0.008,0.008,17,8
20799,0.49,0.024,1.058,-0.038,-0.008,0.031,17,8
20840,0.489,0.025,1.058,0,0.008,0.008,17,8
20882,0.489,0.026,1.058,0.015,0,0.008,17,26
20927,0.489,0.024,1.058,0.008,0.023,0.008,17,8
20979,0.49,0.025,1.058,0.015,-0.038,0.015,17,0
21035,0.49,0.025,1.058,0.008,-0.015,-0.015,17,0
21076,0.49,0.024,1.057,0.023,-0.008,0,17,8
21117,0.49,0.025,1.057,0.015,-0.015,0,17,8
21159,0.49,0.026,1.058,-0.023,-0.015,0,17,23
21200,0.49,0.025,1.057,-0.031,0.008,0.008,17,8
21285,0.49,0.024,1.057,0.015,0.008,-0.008,17,21
21328,0.49,0.025,1.057,0.008,-0.031,0.015,17,21
21381,0.491,0.025,1.058,-0.008,-0.008,0.015,17,0
21426,0.49,0.024,1.058,0.015,-0.015,0.023,17,17
21467,0.49,0.024,1.057,0.023,-0.023,0,17,8
21509,0.49,0.025,1.057,0.031,-0.015,0.008,17,18
21556,0.489,0.025,1.057,-0.008,-0.023,0.008,17,17
21596,0.489,0.024,1.058,-0.031,-0.023,0.015,17,8
21637,0.49,0.025,1.058,-0.008,-0.031,-0.008,17,21
21678,0.49,0.025,1.058,0,-0.015,-0.023,17,19
21729,0.49,0.024,1.058,-0.031,-0.015,0.023,17,0
21784,0.489,0.025,1.059,-0.053,-0.015,0.023,17,0
21825,0.489,0.025,1.058,-0.015,-0.061,0.031,17,17
21869,0.49,0.026,1.06,0.031,-0.031,-0.008,17,18
21910,0.49,0.024,1.058,0.015,-0.031,0.008,17,18
21961,0.49,0.024,1.058,-0.008,-0.008,0.008,17,0
22017,0.49,0.025,1.058,0.015,0,0.023,17,0
22057,0.49,0.025,1.058,-0.031,-0.023,0,17,22
22097,0.49,0.024,1.059,-0.015,-0.015,0.023,17,8
22138,0.49,0.026,1.059,0.008,-0.038,0.023,17,17
22179,0.49,0.026,1.059,-0.008,-0.031,0,17,22
22221,0.49,0.025,1.058,0,-0.015,0.008,17,21
22261,0.49,0.024,1.057,0,-0.038,-0.008,17,8
22302,0.49,0.025,1.058,-0.023,-0.015,0.008,17,22
22346,0.489,0.026,1.058,0.015,0,0,17,8
22397,0.489,0.025,1.057,-0.008,0.015,-0.015,17,0
22452,0.489,0.025,1.058,0.015,0,-0.008,17,0
22504,0.489,0.026,1.058,0.023,0.008,0,17,0
22559,0.489,0.025,1.058,0,-0.015,-0.015,17,0
22600,0.489,0.023,1.058,-0.015,-0.023,-0.015,17,21
22641,0.489,0.024,1.058,-0.008,-0.031,-0.008,17,21
22682,0.489,0.024,1.057,0,-0.038,-0.015,17,18
22724,0.489,0.025,1.057,-0.008,-0.031,0,17,19
22764,0.489,0.025,1.058,-0.008,-0.053,-0.031,17,8
22808,0.49,0.025,1.057,-0.015,0.008,0.023,17,8
22859,0.49,0.026,1.057,0.031,-0.015,0.031,17,0
22915,0.49,0.024,1.057,0.031,0.008,0.015,17,0
22956,0.49,0.024,1.057,0.031,0,0,17,24
22996,0.49,0.025,1.058,0,0.031,-0.008,17,8
23036,0.49,0.025,1.057,0,0.008,0.015,17,8
23078,0.49,0.025,1.058,-0.023,-0.031,0,17,26
23130,0.49,0.025,1.058,0.015,-0.015,0.008,17,0
23185,0.489,0.025,1.058,-0.015,-0.031,-0.015,17,0
23226,0.49,0.024,1.058,-0.023,0.008,0,17,8
23270,0.49,0.025,1.059,-0.038,-0.023,-0.008,17,30
23322,0.49,0.025,1.06,-0.046,-0.008,0.023,17,0
23377,0.491,0.025,1.059,0.008,0.015,0.008,17,0
23429,0.49,0.025,1.058,0.015,-0.008,0.023,17,0
23484,0.49,0.025,1.057,0,0,-0.023,17,0
23526,0.489,0.025,1.059,0.015,-0.046,0,17,29
23621,0.49,0.024,1.059,0,-0.015,0.023,17,0
23676,0.489,0.024,1.058,-0.023,0,0.015,17,0
23718,0.49,0.025,1.057,0.015,0,-0.015,17,28
23759,0.488,0.024,1.058,0,0,-0.008,17,24
23801,0.489,0.025,1.059,0,-0.023,-0.008,17,24
23844,0.49,0.025,1.057,0.023,0,-0.008,17,8
23886,0.49,0.025,1.058,0.015,0,-0.008,17,30
23928,0.49,0.024,1.058,0.008,-0.023,-0.015,17,30
23970,0.49,0.024,1.057,0.008,0,0,17,23
24011,0.49,0.023,1.058,0.023,0.023,-0.015,17,8
24052,0.491,0.024,1.058,0.008,0.015,-0.015,17,21
24093,0.49,0.024,1.057,0.015,-0.008,0,17,20
24135,0.49,0.025,1.057,0.023,-0.031,-0.015,17,22
24177,0.489,0.024,1.058,0,-0.015,0.008,17,22
24218,0.49,0.024,1.058,0.038,-0.008,0.008,17,21
24262,0.49,0.025,1.058,0.046,-0.023,0,17,8
24303,0.489,0.024,1.057,0.031,-0.046,-0.008,17,23
24345,0.49,0.025,1.056,-0.023,-0.015,0.008,17,24
24386,0.489,0.025,1.057,-0.008,-0.008,-0.008,17,8
24438,0.488,0.023,1.058,0,-0.046,0.015,17,0
24494,0.488,0.024,1.059,0.031,-0.023,0,17,0
24535,0.49,0.024,1.058,0,-0.008,0.008,17,8
24574,0.49,0.025,1.057,-0.008,-0.008,0.008,17,8
24616,0.49,0.025,1.058,-0.015,-0.015,0.008,17,23
24669,0.49,0.026,1.057,0.038,0.023,0.008,17,0
24714,0.489,0.025,1.057,0.008,-0.023,0.031,17,22
24755,0.49,0.025,1.059,-0.008,0,0.008,17,22
24797,0.489,0.025,1.058,-0.015,-0.023,0,17,24
24839,0.49,0.024,1.059,0.008,-0.008,0.023,17,25
24881,0.491,0.024,1.058,-0.015,-0.015,0,17,22
24922,0.49,0.024,1.058,-0.008,-0.008,-0.031,17,21
24964,0.49,0.024,1.057,0.008,0.023,0.015,17,21
25006,0.488,0.026,1.058,0.023,-0.008,0.015,17,21
25047,0.49,0.026,1.057,0.015,-0.015,0.023,17,21
25089,0.489,0.025,1.058,-0.008,-0.008,0.015,17,21
25134,0.49,0.025,1.057,-0.023,-0.023,0.015,17,22
25175,0.489,0.025,1.056,0,-0.008,0.008,17,22
25217,0.49,0.025,1.059,0.015,-0.015,0,17,26
25257,0.49,0.025,1.059,0,0.023,0,17,8
25298,0.489,0.025,1.058,0.031,0,-0.008,17,8
25339,0.49,0.025,1.059,-0.015,-0.038,0.031,17,8
25380,0.491,0.025,1.058,0,-0.008,-0.008,17,8
25422,0.49,0.024,1.059,-0.015,0.008,0.008,17,22
25464,0.49,0.025,1.059,0.023,-0.015,-0.015,17,22
25506,0.489,0.026,1.058,-0.038,0.008,0.015,17,23
25547,0.49,0.026,1.058,-0.023,-0.015,0,17,8
25591,0.49,0.025,1.057,-0.015,-0.015,0.008,17,8
25632,0.49,0.025,1.058,-0.015,-0.015,-0.015,17,8
25673,0.489,0.025,1.059,0.008,-0.031,0.015,17,8
25714,0.489,0.025,1.057,0,-0.008,0.015,17,8
25809,0.489,0.024,1.057,-0.008,-0.023,0,17,0
25865,0.49,0.024,1.057,0,-0.023,-0.015,17,0
25917,0.49,0.025,1.057,0,-0.038,-0.023,17,0
25973,0.489,0.025,1.057,-0.008,0.015,0.015,17,0
26015,0.49,0.024,1.057,-0.008,0.008,0.015,17,24
26057,0.489,0.025,1.059,0.015,-0.008,-0.008,17,24
26102,0.49,0.025,1.057,-0.023,0,0.015,17,25
26144,0.49,0.024,1.058,0.008,-0.031,0,17,25
26186,0.489,0.024,1.057,-0.031,-0.015,-0.015,17,26
26229,0.49,0.024,1.059,0.008,-0.008,-0.008,17,27
26270,0.488,0.024,1.057,0.046,-0.008,0.008,17,8
26311,0.489,0.024,1.057,0.031,0.015,-0.008,17,8
26353,0.489,0.025,1.057,0.008,-0.008,0.015,17,25
26394,0.49,0.025,1.057,0.008,-0.031,-0.015,17,8
26436,0.49,0.025,1.058,0.008,-0.023,-0.023,17,23
26478,0.49,0.025,1.057,-0.008,0,0.023,17,24
26533,0.489,0.025,1.059,0.008,-0.031,-0.008,17,0
26590,0.49,0.024,1.058,-0.038,-0.008,0,17,0
26631,0.489,0.024,1.058,-0.008,0,0.008,17,8
26674,0.489,0.024,1.058,-0.008,-0.015,0.023,17,26
26715,0.489,0.024,1.058,-0.008,-0.023,0.008,17,8
26757,0.489,0.025,1.059,-0.023,-0.023,0.008,17,26
26798,0.489,0.024,1.059,-0.008,-0.008,0.008,17,8
26841,0.489,0.025,1.057,0.008,-0.023,-0.008,17,30
26882,0.489,0.026,1.058,0,-0.031,0,17,8
26923,0.489,0.024,1.059,0,-0.031,-0.008,17,8
26979,0.489,0.025,1.058,0.008,0.008,-0.023,17,0
27034,0.49,0.025,1.058,0.008,-0.023,0.008,17,0
27077,0.49,0.023,1.057,0.046,0,-0.015,17,27
27119,0.49,0.023,1.057,0,-0.015,0,17,25
27161,0.489,0.025,1.058,-0.023,0,-0.008,17,29
27204,0.489,0.025,1.057,-0.008,-0.015,-0.023,17,30
27245,0.491,0.025,1.058,0.015,-0.015,0,17,8
27292,0.489,0.024,1.058,0.008,-0.038,-0.008,17,8
27332,0.489,0.025,1.057,0.008,-0.038,0,17,8
27373,0.489,0.024,1.057,0.015,-0.008,0.008,17,24
27417,0.49,0.025,1.057,0.015,-0.008,0.015,17,24
27457,0.489,0.024,1.057,0,0.031,-0.023,17,8
27499,0.49,0.025,1.058,0.008,0.008,0,17,24
27540,0.489,0.025,1.058,-0.031,0,0.023,17,25
27581,0.489,0.025,1.057,0,0,-0.023,17,29
27623,0.49,0.024,1.057,0.046,-0.038,0.015,17,27
27664,0.49,0.025,1.058,0.023,-0.023,0,17,25
27705,0.49,0.025,1.057,0.023,-0.023,0.015,17,25
27747,0.49,0.025,1.057,0.008,-0.015,0,17,24
27788,0.489,0.025,1.058,0.015,-0.023,0.015,17,25
27829,0.489,0.025,1.058,-0.008,-0.023,0.015,17,27
27873,0.49,0.025,1.058,0.023,-0.015,-0.031,17,8
27924,0.489,0.024,1.058,0.023,-0.046,-0.015,17,0
27979,0.489,0.024,1.057,0.015,-0.038,0.008,17,0
28073,0.489,0.025,1.06,0.038,0.008,0,17,0
28129,0.49,0.026,1.058,0.008,-0.015,-0.015,17,0
28169,0.491,0.024,1.058,0.008,0.008,0,17,8
28210,0.49,0.024,1.058,0,-0.023,-0.023,17,8
28250,0.489,0.024,1.059,-0.008,0.023,0.008,17,8
28291,0.49,0.025,1.058,-0.008,0.008,0,17,8
28331,0.49,0.024,1.058,0.023,-0.008,-0.008,17,8
28374,0.49,0.025,1.058,0,-0.015,-0.031,17,8
28414,0.489,0.024,1.057,-0.015,-0.031,-0.015,17,8
28454,0.488,0.024,1.058,-0.015,-0.008,-0.015,17,8
28495,0.489,0.025,1.058,-0.031,-0.015,0,17,8
28535,0.49,0.024,1.058,0.008,-0.031,-0.008,17,8
28576,0.489,0.025,1.057,0.015,0,0.015,17,8
28616,0.489,0.025,1.056,-0.008,0,0.015,17,8
28657,0.49,0.023,1.058,0.031,-0.015,0,17,8
28697,0.489,0.024,1.058,0,0,-0.015,17,8
28738,0.489,0.024,1.057,0.008,-0.008,0,17,8
28781,0.489,0.025,1.057,-0.038,-0.008,0,17,8
28822,0.489,0.025,1.058,-0.038,-0.031,-0.008,17,8
28863,0.49,0.025,1.057,0,-0.031,-0.008,17,8
28914,0.489,0.025,1.057,-0.015,-0.046,-0.008,16,0
28969,0.49,0.024,1.057,-0.008,-0.038,0.023,17,0
29010,0.49,0.025,1.058,0.008,0,0,17,8
29050,0.49,0.025,1.058,0.023,-0.015,0.015,17,8
29091,0.49,0.025,1.057,-0.046,0,-0.008,17,8
29131,0.49,0.024,1.057,0,-0.023,0.008,17,8
29172,0.489,0.025,1.059,0,-0.031,-0.008,17,8
29213,0.49,0.025,1.058,0.015,-0.031,0,17,8
29267,0.49,0.026,1.058,0.023,-0.023,0.015,17,0
29323,0.49,0.025,1.059,0,-0.031,0.023,17,0
29364,0.49,0.025,1.058,-0.015,-0.015,0.023,17,8
29415,0.49,0.025,1.058,0,-0.008,0.023,17,0
29470,0.49,0.025,1.058,-0.008,-0.015,0.023,17,0
29522,0.49,0.025,1.057,0,-0.038,0,17,0
29578,0.489,0.025,1.057,-0.023,-0.015,-0.023,17,0
29629,0.489,0.025,1.058,0.015,-0.008,-0.015,17,0
29685,0.489,0.026,1.057,-0.008,-0.015,0.008,17,0
29736,0.489,0.025,1.058,-0.015,-0.015,0.015,17,0
29782,0.49,0.024,1.059,-0.023,-0.015,0.008,17,30
29824,0.49,0.025,1.058,-0.038,-0.023,0.023,17,30
29864,0.489,0.025,1.058,-0.015,0.015,0,17,8
29906,0.488,0.026,1.058,-0.008,-0.031,0.015,17,30
29959,0.49,0.024,1.058,-0.023,0,-0.008,17,0
30014,0.489,0.025,1.058,0,-0.038,-0.023,17,0
30065,0.489,0.026,1.057,0,-0.031,-0.008,17,0
30121,0.49,0.026,1.057,0.038,-0.008,-0.015,17,0
30173,0.489,0.025,1.059,0,0,-0.015,17,0
30228,0.488,0.024,1.058,-0.023,0.008,-0.015,17,0
30272,0.489,0.024,1.058,-0.008,-0.008,0.008,17,8
30314,0.489,0.025,1.058,0.015,0.008,0.008,16,30
30409,0.489,0.025,1.057,0.023,-0.015,-0.015,17,0
30465,0.489,0.025,1.058,-0.008,-0.038,0.015,17,0
30517,0.489,0.026,1.057,-0.031,-0.023,0,17,0
30572,0.489,0.025,1.058,-0.015,-0.015,0.015,17,0
30614,0.488,0.026,1.058,-0.015,-0.023,0.023,17,30
30666,0.489,0.026,1.058,0.008,-0.008,0.023,17,0
30722,0.491,0.025,1.059,-0.015,-0.015,0.031,17,0
30774,0.49,0.025,1.058,0,-0.015,0.008,17,0
30829,0.489,0.024,1.058,-0.023,-0.038,-0.023,17,0
30875,0.489,0.025,1.057,-0.046,0.023,0.015,17,30
30917,0.49,0.024,1.057,-0.008,0,-0.008,17,30
30969,0.489,0.024,1.058,-0.008,-0.031,0.008,17,0
31025,0.489,0.024,1.058,-0.008,-0.023,-0.008,17,0
31066,0.49,0.025,1.058,0.015,-0.023,-0.008,17,8
31107,0.49,0.025,1.057,0.031,-0.023,-0.023,17,8
31148,0.49,0.025,1.058,-0.015,-0.031,0,17,8
31188,0.489,0.025,1.059,-0.015,-0.008,0.015,17,8
31229,0.49,0.024,1.059,-0.015,0.008,0.008,17,8
31270,0.49,0.025,1.059,-0.008,-0.015,0.046,17,8
31314,0.489,0.024,1.057,-0.008,-0.031,0.061,17,8
31355,0.489,0.025,1.059,0.008,-0.023,0,17,8
31396,0.49,0.025,1.058,-0.008,0.008,-0.008,17,8
31438,0.49,0.025,1.058,0,0,0.008,17,29
31479,0.489,0.024,1.058,0.015,0.023,-0.015,17,8
31521,0.489,0.024,1.057,-0.015,0,0.015,17,29
31562,0.489,0.025,1.059,-0.031,-0.015,0.038,17,8
31604,0.49,0.025,1.058,0.008,0,0.031,17,8
31645,0.49,0.025,1.057,0,0.008,0.015,17,8
31686,0.49,0.025,1.057,0,-0.008,0.038,17,8
31730,0.491,0.025,1.058,0.015,0,0,17,8
31771,0.49,0.025,1.056,0.031,-0.015,0,17,8
31812,0.489,0.025,1.057,-0.015,-0.008,0.008,17,8
31853,0.49,0.024,1.058,0,0.008,0,17,8
31894,0.49,0.024,1.057,-0.008,0,0,17,8
31935,0.49,0.025,1.058,0,0.008,0,17,8
31976,0.489,0.025,1.057,0.015,0,0.008,17,8
32017,0.489,0.024,1.058,-0.008,-0.023,0,17,8
32058,0.489,0.024,1.057,-0.008,-0.038,0.023,17,8
32099,0.489,0.024,1.057,0.023,-0.031,0.015,17,8
32140,0.49,0.024,1.057,-0.008,-0.015,0.008,17,8
32185,0.489,0.024,1.057,-0.023,-0.008,-0.031,17,8
32226,0.489,0.024,1.057,0,-0.038,-0.015,17,8
32278,0.489,0.024,1.057,-0.015,-0.031,-0.008,17,0
32334,0.489,0.024,1.056,-0.023,-0.031,0.008,17,0
32375,0.49,0.025,1.056,-0.008,-0.008,0.023,17,8
32416,0.49,0.026,1.057,0.023,0,0.031,17,8
32458,0.49,0.025,1.058,0.031,0.008,0.008,17,24
32499,0.489,0.025,1.058,-0.023,-0.023,0,17,8
32541,0.49,0.025,1.058,-0.023,-0.023,0.008,17,8
32582,0.49,0.024,1.058,-0.023,-0.023,-0.023,17,8
32669,0.489,0.024,1.058,0.008,-0.015,0.038,17,8
32711,0.489,0.024,1.058,0.031,0,0.008,17,8
32763,0.489,0.025,1.058,0.015,-0.015,-0.023,17,0
32819,0.489,0.025,1.058,0.038,-0.038,0,17,0
32862,0.489,0.025,1.058,-0.008,-0.031,0,17,24
32904,0.49,0.024,1.057,-0.031,-0.008,0.015,17,26
32945,0.489,0.024,1.057,-0.031,-0.023,0.031,17,8
32987,0.49,0.026,1.059,-0.015,-0.008,0.015,17,8
33039,0.49,0.025,1.057,0,-0.015,-0.008,17,0
33094,0.489,0.025,1.057,-0.008,-0.015,0.023,17,0
33144,0.489,0.024,1.057,-0.023,-0.015,0.008,17,8
33185,0.489,0.024,1.058,-0.008,-0.053,-0.015,17,24
33225,0.489,0.025,1.058,-0.023,-0.038,0,17,8
33266,0.49,0.024,1.057,-0.008,-0.015,-0.023,17,8
33307,0.49,0.025,1.058,-0.038,0.008,0,17,27
33347,0.49,0.025,1.058,0,0.008,-0.015,17,8
33388,0.491,0.025,1.058,-0.008,0.015,-0.038,17,8
33429,0.49,0.026,1.06,0.008,-0.023,-0.008,17,29
33471,0.49,0.025,1.059,0.015,-0.046,-0.008,17,28
33512,0.49,0.025,1.059,-0.038,-0.061,0.008,17,27
33566,0.49,0.024,1.057,-0.015,-0.053,-0.015,17,0
33622,0.49,0.023,1.058,0.015,-0.015,0.008,17,0
33661,0.49,0.024,1.058,0.015,-0.015,0,17,8
33702,0.49,0.023,1.058,-0.031,-0.008,0.015,17,8
33743,0.489,0.025,1.058,0.015,0.015,0.031,17,29
33785,0.49,0.025,1.057,0.023,0,0.023,17,26
33825,0.49,0.025,1.057,-0.008,-0.015,-0.015,17,8
33866,0.489,0.024,1.059,0.008,-0.008,0.008,17,8
33906,0.489,0.024,1.058,0.023,0,0.008,17,8
33946,0.49,0.024,1.058,0.015,-0.031,0.015,17,8
33997,0.49,0.025,1.058,0,-0.008,0,17,0
34053,0.489,0.026,1.059,0.023,-0.008,-0.015,17,0
34107,0.49,0.025,1.058,0.023,0,0,17,0
34149,0.489,0.024,1.058,-0.008,-0.038,0.031,17,25
34200,0.49,0.025,1.058,0.015,-0.015,0,17,0
34255,0.49,0.025,1.057,-0.008,-0.015,-0.008,17,0
34307,0.49,0.024,1.058,0.008,-0.031,0.008,17,0
34362,0.49,0.025,1.06,0.023,-0.015,-0.015,17,0
34404,0.489,0.025,1.058,0.015,-0.046,0,17,23
34445,0.49,0.025,1.057,0.023,0,0,17,23
34486,0.49,0.025,1.058,0.008,-0.015,-0.015,17,23
34530,0.489,0.025,1.059,-0.008,-0.015,0.023,17,8
34571,0.488,0.025,1.059,-0.015,-0.023,0.031,17,24
34613,0.49,0.025,1.058,-0.015,0,0.015,17,27
34655,0.49,0.025,1.057,-0.008,-0.023,0.008,17,28
34696,0.49,0.025,1.057,0,-0.023,0,17,30
34748,0.489,0.025,1.058,0,-0.031,-0.015,17,0
34803,0.489,0.025,1.057,-0.015,-0.023,0,17,0
34844,0.49,0.025,1.057,0.008,-0.023,0.023,17,22
34886,0.489,0.024,1.058,0.015,-0.015,-0.008,17,22
34970,0.49,0.025,1.058,0.015,-0.031,0.008,17,22
35015,0.489,0.024,1.057,-0.023,-0.038,-0.031,17,22
35055,0.489,0.024,1.058,0,-0.038,0,17,8
35097,0.49,0.024,1.058,0.031,0.023,0.031,17,23
35137,0.49,0.025,1.057,0.023,-0.038,-0.008,17,8
35178,0.489,0.024,1.056,0.031,-0.031,0.008,17,8
35219,0.489,0.025,1.058,0,-0.023,0.023,17,8
35259,0.49,0.025,1.058,-0.008,-0.015,0.015,17,8
35300,0.489,0.025,1.058,-0.023,-0.008,-0.031,17,8
35341,0.489,0.025,1.057,-0.023,-0.023,0,17,8
35381,0.489,0.025,1.059,-0.015,-0.031,-0.031,17,8
35425,0.489,0.024,1.058,-0.015,-0.038,-0.008,17,8
35466,0.489,0.024,1.057,0.008,0,-0.015,17,8
35507,0.49,0.024,1.057,0,0.008,0.015,17,23
35548,0.489,0.025,1.057,-0.015,-0.038,0.023,17,8
35589,0.489,0.025,1.057,0,-0.023,0,17,8
35629,0.49,0.024,1.057,0.023,-0.015,0,17,8
35670,0.489,0.024,1.058,-0.008,-0.015,0.008,17,8
35710,0.49,0.025,1.058,-0.008,-0.023,-0.015,17,8
35751,0.489,0.025,1.059,0.023,-0.038,0,17,8
35792,0.489,0.024,1.058,-0.008,0,0,17,8
35833,0.49,0.025,1.059,-0.008,-0.008,-0.015,17,24
35878,0.489,0.025,1.057,0.008,-0.023,0,17,23
35919,0.489,0.025,1.058,-0.031,-0.038,0,17,8
35960,0.489,0.024,1.058,-0.015,-0.023,0,17,23
36001,0.489,0.025,1.058,0.031,0,-0.008,17,8
36042,0.49,0.025,1.057,0.015,0,0,17,8
36083,0.488,0.024,1.057,-0.015,-0.008,0,17,24
36125,0.489,0.025,1.057,0,-0.015,0,17,25
36167,0.49,0.026,1.057,0.015,-0.015,0.015,17,25
36209,0.489,0.025,1.057,0,-0.031,0.023,17,26
36251,0.49,0.024,1.057,0.008,-0.008,0.031,17,26
36296,0.489,0.026,1.058,-0.008,-0.031,0,17,26
36338,0.49,0.024,1.058,-0.015,-0.038,0,17,26
36380,0.489,0.024,1.057,0.008,-0.008,0,17,26
36421,0.49,0.025,1.057,0,0,0.031,17,25
36463,0.489,0.024,1.057,-0.023,0,0.031,17,26
36505,0.49,0.023,1.057,0.023,-0.023,-0.008,17,26
36547,0.49,0.024,1.057,-0.008,-0.023,0,17,25
36589,0.49,0.025,1.057,-0.008,-0.023,0.008,17,24
36631,0.49,0.024,1.058,0.008,-0.015,0,17,25
36673,0.488,0.024,1.058,0.053,0,0.015,17,25
36718,0.49,0.024,1.058,0.015,0.015,-0.015,17,25
36760,0.49,0.025,1.058,-0.015,-0.015,0.023,17,25
36802,0.489,0.024,1.058,0.023,-0.008,0.015,17,25
36844,0.489,0.024,1.058,0.008,0.008,0,17,25
36886,0.489,0.025,1.06,-0.031,0,0.023,17,25
36928,0.489,0.024,1.057,0.015,-0.015,0.038,17,26
36969,0.49,0.025,1.057,-0.015,0,0,17,23
37011,0.49,0.024,1.058,-0.008,0.008,0.015,17,23
37096,0.489,0.024,1.059,0.015,-0.015,0,17,23
37138,0.489,0.025,1.057,-0.038,-0.046,-0.015,17,23
37184,0.489,0.024,1.057,-0.031,-0.015,-0.023,17,27
37226,0.49,0.024,1.057,-0.031,-0.031,-0.031,17,27
37276,0.49,0.025,1.058,-0.046,-0.015,0.038,17,23
37318,0.49,0.025,1.059,-0.038,-0.008,0.023,17,28
37359,0.49,0.024,1.058,-0.031,0.023,0.015,17,23
37400,0.49,0.025,1.057,-0.015,-0.008,-0.023,17,23
37442,0.489,0.024,1.057,0.008,-0.008,-0.008,17,23
37483,0.489,0.024,1.057,-0.031,0,-0.023,17,22
37524,0.489,0.024,1.057,-0.023,0,-0.015,17,22
37565,0.49,0.024,1.059,-0.008,-0.015,0.008,17,22
37609,0.491,0.025,1.058,-0.031,-0.023,0,17,22
37651,0.489,0.025,1.058,-0.008,0,0.015,17,23
37692,0.49,0.024,1.058,-0.031,-0.023,-0.015,17,22
37733,0.49,0.026,1.056,-0.031,-0.008,0.008,17,22
37774,0.49,0.025,1.057,0.015,-0.008,0.008,17,22
37815,0.489,0.025,1.059,0.023,0.023,-0.008,17,22
37857,0.49,0.024,1.058,0.015,-0.008,-0.023,17,22
37898,0.491,0.024,1.059,-0.015,-0.031,-0.038,17,23
37939,0.491,0.024,1.058,0,-0.023,-0.015,17,23
37980,0.49,0.025,1.058,-0.015,-0.038,0,17,23
38025,0.49,0.025,1.059,0.008,-0.031,0.008,17,23
38066,0.49,0.024,1.058,-0.015,-0.023,-0.008,17,23
38107,0.489,0.025,1.058,-0.008,0,-0.008,17,23
38149,0.49,0.024,1.058,0.008,0.008,-0.008,17,23
38190,0.489,0.025,1.06,0.038,0.008,-0.023,17,23
38231,0.491,0.025,1.058,0.038,0,-0.015,17,23
38273,0.491,0.025,1.058,0.015,0.015,-0.031,17,23
38313,0.49,0.025,1.058,0.015,-0.015,-0.015,17,23
38354,0.49,0.025,1.058,0,0,-0.015,17,23
38396,0.49,0.024,1.059,0.008,-0.015,0,17,23
38439,0.49,0.025,1.059,0,-0.015,-0.015,16,8
38480,0.489,0.024,1.058,0.023,-0.023,-0.031,17,8
38521,0.489,0.025,1.057,-0.015,0,0.008,17,23
38563,0.49,0.025,1.057,0.008,-0.023,0.008,17,23
38604,0.489,0.025,1.057,0.008,-0.008,0,17,23
38645,0.489,0.025,1.058,0.008,-0.008,0,17,23
38687,0.49,0.025,1.057,0.008,0.008,0.015,17,23
38728,0.489,0.024,1.057,-0.015,-0.031,0,17,23
38770,0.489,0.026,1.057,-0.015,-0.031,0.015,17,23
38811,0.489,0.026,1.057,0.023,-0.023,0.038,17,23
38853,0.489,0.025,1.058,0,-0.023,-0.008,17,23
38897,0.489,0.025,1.057,-0.015,0.008,-0.031,17,24
38939,0.49,0.025,1.059,-0.008,0.008,-0.031,17,24
38980,0.489,0.024,1.057,-0.023,0.031,-0.031,17,24
39022,0.49,0.025,1.057,-0.038,0.008,-0.008,17,24
39063,0.49,0.025,1.057,-0.031,-0.015,-0.023,17,24
39105,0.49,0.024,1.057,-0.015,-0.031,-0.015,17,24
39147,0.49,0.025,1.058,-0.031,0.008,-0.031,17,24
39231,0.49,0.024,1.058,0.046,-0.008,-0.015,17,24
39273,0.49,0.024,1.058,0,-0.023,-0.015,17,25
39315,0.49,0.025,1.057,0,-0.008,-0.008,17,25
39359,0.49,0.025,1.058,-0.053,-0.015,0.008,17,25
39401,0.49,0.024,1.057,0,0.008,-0.008,17,24
39443,0.49,0.023,1.058,0.015,-0.015,0.015,17,25
39484,0.489,0.023,1.057,0.015,-0.015,0.008,17,25
39526,0.49,0.024,1.058,0.008,-0.031,0,17,25
39568,0.49,0.025,1.058,0.023,0.008,0,17,24
39609,0.49,0.025,1.056,0.038,0.008,-0.046,17,25
39651,0.489,0.024,1.058,0,-0.015,-0.015,17,24
39693,0.489,0.024,1.059,-0.031,0,0.008,17,24
39734,0.49,0.025,1.059,0.015,0,0,17,23
39779,0.49,0.026,1.058,0.023,0.015,0,17,23
39820,0.489,0.024,1.056,0.008,-0.015,0.023,17,23
39862,0.49,0.024,1.057,0.038,0,0,17,23
39904,0.49,0.025,1.057,0.031,-0.008,-0.008,17,24
39945,0.489,0.026,1.059,0.031,-0.031,0.008,17,23
39987,0.49,0.026,1.057,-0.008,-0.008,-0.023,17,23
40029,0.489,0.025,1.059,0.015,-0.031,0,17,23
40070,0.489,0.025,1.057,0.038,-0.015,-0.008,17,23
40112,0.489,0.025,1.058,0.008,0,0.008,17,23
40154,0.489,0.025,1.057,0.015,0.008,-0.008,17,22
40198,0.49,0.024,1.057,0,0.015,-0.008,17,22
40240,0.49,0.025,1.057,0.031,-0.015,0.008,17,23
40281,0.489,0.024,1.057,0,0,-0.008,17,22
40323,0.489,0.025,1.058,0.031,-0.015,0.008,17,22
40365,0.489,0.024,1.059,0.015,0,-0.008,17,23
40406,0.49,0.025,1.057,0.038,0,-0.008,17,22
40448,0.49,0.025,1.058,-0.015,-0.046,0,17,22
40488,0.489,0.026,1.058,0.008,-0.015,0.008,17,8
40530,0.489,0.024,1.059,0.008,-0.008,-0.008,17,23
40572,0.489,0.025,1.058,-0.015,-0.008,-0.015,17,26
40617,0.489,0.025,1.057,0.008,-0.015,-0.008,17,23
40659,0.489,0.025,1.057,0.015,0,0.015,17,23
40699,0.489,0.025,1.058,-0.008,-0.015,0,17,8
40741,0.489,0.026,1.059,-0.038,-0.008,0.008,17,26
40782,0.489,0.025,1.057,0.015,-0.038,-0.008,17,8
40824,0.488,0.025,1.057,0.008,-0.031,-0.015,17,23
40866,0.489,0.025,1.057,0.008,-0.031,-0.008,17,22
40908,0.49,0.025,1.057,-0.008,-0.031,-0.015,17,22
40950,0.489,0.025,1.056,0.008,-0.023,-0.008,17,22
40992,0.489,0.024,1.06,-0.008,0,-0.023,17,23
41037,0.49,0.024,1.057,-0.008,0.008,-0.008,17,23
41078,0.49,0.024,1.059,-0.023,0.008,0.008,17,23
41120,0.489,0.025,1.059,-0.008,-0.015,0.023,17,23
41162,0.489,0.025,1.06,0.015,-0.008,-0.015,17,23
41204,0.489,0.024,1.058,-0.023,0.008,-0.008,17,23
41245,0.49,0.025,1.057,-0.015,0,-0.008,17,8
41286,0.49,0.025,1.059,-0.015,-0.015,0,17,8
41371,0.489,0.026,1.057,0.008,0,0,17,23
41413,0.49,0.026,1.058,-0.031,-0.008,0.008,17,22
41455,0.49,0.024,1.059,-0.015,0.008,0.015,17,23
41496,0.49,0.025,1.059,0.008,0.008,0.023,17,8
41564,0.491,0.025,1.059,-0.031,-0.008,0.031,17,23
41607,0.49,0.025,1.059,-0.023,-0.015,-0.008,17,8
41651,0.49,0.025,1.059,-0.046,-0.008,-0.015,17,8
41695,0.488,0.024,1.059,-0.023,-0.038,-0.008,17,22
41739,0.489,0.024,1.057,0.008,-0.031,-0.008,17,22
41784,0.489,0.025,1.059,-0.023,-0.023,-0.023,17,23
41827,0.489,0.025,1.057,-0.008,0,-0.008,17,8
41872,0.489,0.025,1.059,-0.023,0.008,0.015,17,23
41916,0.489,0.025,1.058,-0.008,-0.023,0.008,17,23
41960,0.49,0.025,1.058,0.015,-0.023,-0.023,17,23
42007,0.489,0.025,1.057,0.023,-0.046,-0.023,17,8
42052,0.489,0.024,1.058,0.008,-0.038,-0.023,17,23
42096,0.49,0.025,1.057,0.008,-0.015,0,17,23
42139,0.49,0.025,1.057,0,-0.015,0.008,17,8
42184,0.489,0.025,1.057,0.008,-0.015,0,17,23
42228,0.49,0.025,1.058,-0.023,-0.031,0.023,17,23
42273,0.489,0.024,1.058,0.015,0.008,0.008,17,23
42317,0.49,0.024,1.058,0.023,-0.008,-0.008,17,23
42362,0.489,0.025,1.058,0.023,-0.023,-0.008,17,23
42406,0.49,0.025,1.059,0.015,-0.023,0.023,17,23
42455,0.49,0.024,1.059,0.023,0.008,-0.015,17,23
42499,0.49,0.024,1.058,0,0.008,0.008,17,23
42544,0.489,0.024,1.059,-0.023,-0.038,0.015,17,23
42587,0.49,0.025,1.058,-0.008,-0.008,0.031,17,8
42638,0.489,0.024,1.059,0.008,-0.008,0.015,17,24
42680,0.49,0.023,1.058,-0.015,-0.015,-0.008,17,8
42724,0.489,0.024,1.057,-0.015,-0.031,-0.008,17,24
42767,0.489,0.025,1.059,0.015,-0.015,0.015,17,25
42811,0.49,0.025,1.059,0.023,-0.038,0.008,17,25
42855,0.49,0.024,1.058,0,-0.008,-0.008,17,25
42901,0.49,0.024,1.059,0.008,-0.015,0,17,25
42944,0.49,0.024,1.058,0,-0.008,0,17,24
42988,0.49,0.025,1.058,-0.008,-0.015,0.015,17,24
43032,0.489,0.025,1.058,-0.023,-0.008,0.031,17,24
43075,0.49,0.025,1.058,0,-0.023,0,17,24
43119,0.49,0.025,1.058,0.015,0,0.008,17,24
43162,0.49,0.026,1.057,-0.008,-0.008,-0.038,17,23
43206,0.49,0.024,1.058,0,-0.023,-0.023,17,23
43249,0.489,0.024,1.057,0.023,-0.023,-0.015,17,23
43293,0.49,0.024,1.057,0.031,0,0,17,24
43339,0.489,0.026,1.059,0.023,-0.008,-0.008,17,23
43383,0.49,0.024,1.058,-0.023,-0.031,-0.023,17,23
43427,0.49,0.024,1.059,-0.015,-0.008,-0.008,17,23
43470,0.49,0.024,1.058,0,-0.031,-0.008,17,23
43514,0.49,0.025,1.058,-0.008,-0.031,-0.023,17,23
43558,0.491,0.024,1.058,-0.008,-0.053,-0.015,17,23
43644,0.489,0.025,1.057,0.008,0,-0.015,17,23
43688,0.489,0.025,1.057,0.008,0,-0.015,17,23
43732,0.489,0.025,1.058,0,-0.008,0.008,17,23
43776,0.49,0.024,1.058,-0.008,-0.015,-0.015,17,23
43823,0.489,0.024,1.057,-0.008,-0.015,0.008,17,23
43867,0.489,0.023,1.057,0.031,-0.015,-0.008,17,23
43910,0.49,0.026,1.058,0,0,0.008,17,8
43953,0.49,0.025,1.058,0.008,-0.015,0,17,23
43997,0.49,0.025,1.057,0.038,0.015,0.008,17,23
44040,0.489,0.025,1.056,0.015,0.008,-0.008,17,22
44084,0.489,0.024,1.057,0.031,0,0,17,23
44128,0.489,0.025,1.058,0.031,0,0,17,22
44171,0.489,0.025,1.058,-0.008,-0.038,-0.023,17,22
44215,0.489,0.025,1.058,-0.008,-0.008,-0.031,17,22
44262,0.489,0.024,1.058,0,-0.015,0.008,17,22
44305,0.489,0.025,1.058,0.008,0,0.008,17,23
44348,0.49,0.024,1.057,0.015,-0.008,0,17,8
44392,0.49,0.025,1.058,-0.008,-0.008,0,17,23
44436,0.491,0.024,1.057,0,-0.008,-0.023,17,22
44480,0.49,0.026,1.056,-0.023,0,-0.031,17,24
44523,0.489,0.025,1.057,-0.031,-0.008,-0.008,17,22
44567,0.49,0.025,1.058,-0.015,0.015,-0.031,17,22
44610,0.49,0.025,1.058,-0.015,0.031,0,17,8
44654,0.489,0.024,1.058,0.046,0.031,0.015,17,23
44698,0.49,0.025,1.058,0.031,-0.015,-0.008,17,22
44744,0.49,0.025,1.059,0.023,-0.023,0,17,23
44788,0.489,0.025,1.058,0.015,0,-0.008,17,23
44831,0.49,0.026,1.058,0.038,0,0.023,17,8
44875,0.489,0.024,1.058,-0.031,-0.015,0,17,23
44919,0.49,0.024,1.059,-0.015,-0.008,0.008,17,23
44963,0.491,0.025,1.059,0.023,0.031,-0.008,17,23
45007,0.49,0.025,1.057,-0.008,0,-0.015,17,23
45051,0.489,0.025,1.057,-0.008,-0.008,0,17,23
45094,0.49,0.025,1.057,0,-0.023,0,17,23
45138,0.489,0.024,1.057,0.008,-0.015,-0.015,17,23
45186,0.49,0.025,1.057,-0.008,0.008,0.038,17,23
45230,0.491,0.025,1.057,0,0.008,-0.023,17,23
45274,0.49,0.024,1.057,0,-0.015,0.015,17,23
45318,0.49,0.024,1.058,-0.008,-0.038,-0.023,17,23
45362,0.49,0.025,1.058,0.008,-0.046,0,17,23
45406,0.489,0.025,1.058,0,0,-0.023,17,24
45450,0.489,0.024,1.057,0.031,-0.046,0.023,17,24
45494,0.49,0.025,1.058,-0.023,-0.046,0.008,17,24
45538,0.49,0.025,1.058,-0.031,-0.008,-0.023,17,25
45582,0.49,0.024,1.058,0,-0.008,0.008,17,25
45629,0.49,0.024,1.058,-0.046,-0.038,0,17,26
45674,0.49,0.025,1.058,-0.038,-0.023,0,17,26
45718,0.489,0.025,1.059,0.031,-0.015,-0.008,17,26
45762,0.489,0.024,1.058,0.031,-0.038,0.015,16,25
45806,0.49,0.025,1.058,0.023,-0.015,0.023,17,25
45893,0.49,0.025,1.057,0,-0.015,-0.015,17,24
45937,0.488,0.025,1.057,-0.008,-0.038,0,17,24
45982,0.489,0.024,1.058,-0.015,0,-0.015,17,25
46026,0.489,0.024,1.058,0.008,-0.015,0,17,25
46070,0.49,0.024,1.058,0.015,-0.015,0.015,17,26
46116,0.489,0.025,1.058,0.015,-0.015,0,17,8
46160,0.49,0.024,1.057,0.031,-0.008,0.008,17,26
46205,0.491,0.024,1.059,0,0,0,17,27
46249,0.49,0.025,1.058,-0.023,0.008,0,17,27
46294,0.489,0.025,1.057,0.031,-0.015,-0.008,17,25
46339,0.49,0.024,1.058,0.023,-0.023,0,17,27
46383,0.488,0.023,1.058,-0.023,-0.023,-0.015,17,26
46427,0.489,0.025,1.058,0.008,0.008,0.008,17,26
46470,0.489,0.024,1.059,-0.023,-0.038,0.023,17,8
46515,0.489,0.025,1.057,0,0.008,0.023,17,27
46562,0.49,0.025,1.058,-0.008,-0.015,0.015,17,28
46607,0.49,0.024,1.058,0.015,-0.008,-0.015,17,28
46651,0.489,0.025,1.058,-0.023,0,0,17,28
46696,0.488,0.025,1.058,-0.023,-0.008,0.015,17,28
46740,0.488,0.025,1.058,-0.038,-0.031,0.015,17,28
46783,0.489,0.025,1.057,0.008,-0.031,0.031,17,8
46828,0.49,0.025,1.058,-0.015,-0.023,0.061,17,27
46872,0.489,0.025,1.058,-0.023,-0.015,0.008,17,26
46917,0.49,0.024,1.059,-0.015,0.008,0,17,27
46961,0.49,0.025,1.058,0,-0.015,0,17,25
47008,0.49,0.025,1.057,-0.008,0,0,17,26
47053,0.49,0.025,1.057,0,-0.023,0.008,17,26
47097,0.489,0.025,1.056,0.008,-0.008,0,17,26
47142,0.49,0.025,1.058,-0.008,-0.008,0,17,26
47186,0.49,0.025,1.058,0.008,-0.008,0,17,25
47229,0.49,0.025,1.058,-0.008,-0.015,0.031,17,8
47275,0.49,0.025,1.058,-0.031,-0.015,0.038,17,24
47318,0.49,0.024,1.057,0,0.008,0,17,8
47362,0.49,0.025,1.057,0,0,-0.015,17,24
47407,0.489,0.025,1.058,0.008,-0.023,-0.015,17,24
47451,0.488,0.025,1.057,0.023,-0.031,-0.008,17,25
47499,0.49,0.024,1.058,0,0.015,-0.023,17,25
47542,0.49,0.025,1.058,0.008,-0.008,0.008,17,8
47587,0.491,0.025,1.059,0.031,-0.008,0.023,17,25
47631,0.49,0.025,1.058,0.031,0,0.023,17,25
47675,0.49,0.025,1.059,0.008,-0.008,0.023,17,24
47720,0.489,0.025,1.059,-0.008,-0.038,-0.008,17,23
47763,0.489,0.025,1.057,0.031,-0.038,-0.015,17,8
47808,0.49,0.024,1.058,0.008,-0.031,0,17,23
47852,0.489,0.024,1.058,0,0.023,0.023,17,23
47897,0.489,0.024,1.057,-0.008,-0.015,0,17,23
47944,0.489,0.025,1.057,0,0,0.015,17,23
47989,0.489,0.025,1.058,0,-0.008,-0.023,17,23
48033,0.489,0.025,1.059,0.023,0,0,17,23
48077,0.49,0.025,1.058,0.015,0.015,-0.008,17,23
48165,0.488,0.024,1.059,0,-0.008,0.023,17,23
48210,0.488,0.024,1.059,0.008,0,-0.015,17,23
48254,0.489,0.024,1.058,0,-0.023,0.023,17,23
48299,0.489,0.025,1.057,0,-0.008,0.015,17,23
48344,0.49,0.025,1.057,-0.015,-0.038,-0.008,17,23
48394,0.49,0.025,1.056,0.008,0.015,0.008,17,23
48440,0.49,0.025,1.057,0,0.008,0.015,17,24
48484,0.49,0.025,1.058,0,-0.015,0.031,17,24
48526,0.489,0.024,1.059,0.046,-0.015,0,17,8
48570,0.49,0.025,1.057,0,-0.023,-0.008,17,23
48613,0.489,0.024,1.057,-0.023,-0.038,0,17,23
48657,0.489,0.026,1.057,-0.023,0,0,17,23
48700,0.49,0.025,1.057,0,0,-0.023,17,23
48744,0.49,0.024,1.057,0,-0.031,0,17,23
48786,0.49,0.025,1.058,0.023,-0.015,0,17,8
48830,0.489,0.024,1.058,0.046,-0.046,0.015,17,23
48876,0.489,0.025,1.059,0.015,0,0,17,24
48920,0.489,0.025,1.058,0,-0.015,-0.023,17,24
48963,0.489,0.025,1.058,-0.008,-0.046,-0.015,17,24
49007,0.49,0.025,1.059,0,-0.015,0.015,17,24
49051,0.49,0.025,1.058,0.023,-0.023,0.008,17,24
49093,0.489,0.025,1.058,0.031,-0.023,0.008,17,8
49137,0.489,0.023,1.059,0.031,-0.023,0,17,24
49180,0.49,0.024,1.057,0,0,-0.015,17,24
49224,0.49,0.024,1.059,0,0,0,17,24
49268,0.49,0.025,1.057,0.023,-0.015,0.023,17,25
49311,0.49,0.025,1.059,0.031,-0.015,0.015,17,25
49358,0.49,0.024,1.058,0.038,-0.053,0.008,17,25
49402,0.49,0.025,1.058,0.053,-0.031,0,17,25
49445,0.49,0.024,1.057,0.023,0,-0.015,17,25
49488,0.489,0.024,1.058,0.023,-0.008,-0.015,17,8
49532,0.49,0.025,1.059,0.023,-0.015,-0.008,17,25
49576,0.49,0.025,1.058,0.015,-0.023,0.023,17,25
49620,0.489,0.024,1.058,0.015,-0.031,-0.023,17,25
49664,0.49,0.025,1.058,0.023,-0.023,0.008,17,25
49707,0.489,0.025,1.058,0.008,-0.031,0,17,8
49751,0.49,0.025,1.057,-0.015,-0.046,0.008,17,26
49798,0.491,0.025,1.057,-0.015,-0.008,0,17,26
49842,0.49,0.025,1.058,0,-0.015,0.008,17,26
49885,0.489,0.025,1.057,0.023,-0.023,0.023,17,22
49929,0.489,0.025,1.057,0.038,-0.015,0.031,17,22
49973,0.489,0.025,1.057,0.015,-0.046,0.023,17,22
50016,0.49,0.024,1.057,0,-0.023,0.023,17,22
50060,0.489,0.025,1.057,0,-0.015,0.008,17,22
50104,0.49,0.024,1.059,0,-0.031,0,17,22
50147,0.49,0.024,1.058,-0.008,-0.008,0.008,17,22
50191,0.49,0.025,1.057,-0.008,-0.038,0,16,23
50238,0.489,0.025,1.059,0,-0.023,-0.008,17,22
50281,0.49,0.023,1.059,0,-0.023,0.015,17,22
50325,0.49,0.024,1.058,0,-0.008,0.038,17,22
50412,0.49,0.025,1.058,0.008,0.008,0,17,22
50456,0.489,0.024,1.058,-0.015,0.015,-0.008,17,22
50500,0.489,0.026,1.057,0,-0.008,-0.008,17,22
50543,0.489,0.025,1.057,0.008,-0.031,0,17,22
50587,0.489,0.025,1.058,-0.008,-0.015,0.008,17,22
50631,0.489,0.025,1.058,-0.038,0.023,0.023,17,22
50675,0.49,0.025,1.057,0,0.008,-0.008,17,22
50721,0.49,0.026,1.058,0.031,-0.015,-0.015,17,22
50765,0.49,0.025,1.058,0.015,-0.038,0,17,23
50809,0.49,0.024,1.059,0.015,-0.023,0,17,22
50853,0.49,0.025,1.058,0,0.008,0.008,17,22
50896,0.49,0.025,1.059,0.015,0,0,17,8
50940,0.49,0.024,1.057,0.031,-0.008,-0.023,17,22
50984,0.489,0.025,1.058,0,-0.015,0,17,22
51027,0.489,0.025,1.057,0.046,-0.023,-0.008,17,22
51072,0.488,0.025,1.058,0,0,0,17,22
51115,0.49,0.025,1.059,0.008,-0.031,0,17,8
51162,0.49,0.024,1.059,0,0.008,-0.008,17,22
51206,0.489,0.024,1.057,0.008,-0.015,-0.015,17,22
51250,0.489,0.024,1.058,-0.023,-0.015,-0.008,17,22
51294,0.49,0.025,1.057,-0.008,-0.015,-0.031,17,26
51338,0.489,0.025,1.057,0.008,-0.008,0.008,17,25
51382,0.488,0.025,1.058,-0.008,-0.015,0.008,17,25
51426,0.49,0.025,1.058,0.008,0.008,-0.008,17,25
51471,0.489,0.025,1.058,0.008,-0.038,0,17,24
51515,0.489,0.024,1.059,-0.008,-0.031,0.023,17,24
51559,0.489,0.024,1.057,-0.008,-0.031,-0.008,17,24
51606,0.49,0.024,1.059,0.008,-0.008,-0.015,17,24
51650,0.49,0.024,1.058,0.031,-0.031,0.015,17,24
51693,0.49,0.025,1.057,0,-0.015,0.008,16,8
51737,0.49,0.025,1.057,0.015,-0.023,0.031,17,24
51781,0.489,0.025,1.058,-0.023,-0.046,0,17,23
51826,0.49,0.025,1.059,-0.038,-0.031,-0.008,17,24
51870,0.489,0.024,1.058,-0.015,-0.008,0,17,23
51914,0.489,0.025,1.058,-0.008,-0.015,0.015,17,23
51958,0.489,0.024,1.057,0.023,0.015,0.023,17,23
52002,0.489,0.025,1.058,-0.015,0,0.015,17,23
52045,0.489,0.026,1.059,0,0.008,0,17,8
52092,0.49,0.025,1.057,-0.015,-0.015,0,17,23
52137,0.489,0.024,1.057,0.031,-0.015,0.008,17,24
52182,0.489,0.024,1.059,0,-0.015,-0.008,17,24
52226,0.489,0.024,1.057,-0.046,0.015,-0.015,17,23
52269,0.489,0.024,1.057,0,-0.015,0.015,17,8
52313,0.49,0.024,1.058,0.008,-0.046,0.015,17,23
52358,0.489,0.024,1.058,0.015,-0.031,-0.015,17,23
52402,0.49,0.024,1.057,-0.008,0,-0.015,17,23
52446,0.49,0.024,1.057,0.008,-0.023,0,17,23
52490,0.49,0.024,1.059,0.023,-0.008,-0.008,17,23
52538,0.489,0.024,1.058,0,0.015,-0.008,17,24
52582,0.49,0.024,1.057,-0.023,0.023,0,17,25
52669,0.489,0.024,1.057,0.008,-0.015,0.008,17,24
52714,0.489,0.025,1.058,-0.008,0,0.008,17,24
52758,0.49,0.026,1.058,-0.031,0.015,-0.008,17,24
52802,0.489,0.025,1.058,0.008,-0.031,0.023,17,24
52847,0.49,0.024,1.057,0,-0.053,0.015,17,24
52891,0.489,0.024,1.059,-0.015,-0.008,-0.023,17,25
52935,0.489,0.024,1.057,0.015,-0.023,-0.038,17,26
52980,0.49,0.025,1.058,0.015,-0.023,0.008,17,22
53026,0.49,0.025,1.059,0.015,-0.008,0,17,8
53070,0.489,0.025,1.057,0.023,0,-0.008,17,22
53115,0.489,0.024,1.057,0.023,-0.015,0.008,17,22
53159,0.489,0.024,1.059,0,-0.008,0.008,17,23
53203,0.489,0.024,1.059,0.015,-0.008,-0.015,17,26
53249,0.49,0.025,1.058,0,-0.015,-0.015,17,23
53293,0.49,0.025,1.058,0.015,-0.008,0.015,17,23
53337,0.49,0.024,1.058,0.015,0,0.015,17,23
53382,0.489,0.026,1.058,0,-0.008,0.008,17,23
53425,0.489,0.025,1.057,0,0,0,16,8
53473,0.489,0.025,1.058,0,0,0.031,17,23
53517,0.49,0.025,1.058,0,0.023,0.015,17,23
53561,0.489,0.025,1.057,-0.008,0.015,0.015,17,23
53606,0.489,0.024,1.058,0.008,-0.015,0.015,17,23
53650,0.489,0.024,1.057,0.053,-0.008,-0.008,17,23
53694,0.489,0.024,1.057,0.008,0.046,0.038,17,23
53739,0.49,0.025,1.058,0.008,0.015,0,17,23
53783,0.49,0.025,1.058,0.046,0.008,-0.008,17,23
53828,0.49,0.025,1.059,0.008,0,0.008,17,23
53872,0.491,0.024,1.058,0.015,0.015,0,17,23
53916,0.489,0.025,1.058,0.015,-0.008,-0.023,17,23
53964,0.489,0.025,1.057,0.023,-0.038,-0.008,17,23
54009,0.49,0.025,1.058,0.023,-0.069,-0.008,17,23
54053,0.489,0.024,1.058,0.008,-0.031,-0.008,17,23
54104,0.49,0.024,1.058,0.015,-0.008,0,17,23
54148,0.49,0.024,1.058,0.053,-0.023,-0.008,17,23
54191,0.489,0.024,1.059,0.015,-0.031,-0.008,17,23
54235,0.49,0.025,1.059,-0.008,-0.023,0,17,23
54278,0.489,0.025,1.058,0.008,-0.031,0.038,17,23
54321,0.489,0.025,1.057,0.008,0,0.008,17,23
54365,0.49,0.024,1.057,0,-0.031,0.038,17,23
54411,0.49,0.027,1.057,0.015,0.008,0.015,17,23
54455,0.49,0.025,1.058,0.046,-0.015,0.008,17,23
54498,0.49,0.025,1.059,0,0,-0.008,16,23
54542,0.49,0.025,1.059,0,0.008,0.008,17,23
54585,0.49,0.025,1.057,-0.023,0,-0.008,17,23
54629,0.49,0.026,1.058,-0.008,-0.023,-0.031,17,23
54672,0.49,0.025,1.059,0.015,-0.015,0.031,17,23
54716,0.49,0.024,1.057,0.023,-0.031,0.008,17,23
54759,0.49,0.025,1.057,-0.008,-0.023,0.008,17,23
54803,0.49,0.024,1.058,0,-0.031,0.008,17,23
54849,0.489,0.024,1.056,0.015,-0.046,0.015,17,23
54936,0.49,0.025,1.056,0,-0.023,0.008,17,23
54980,0.489,0.025,1.057,0.008,-0.031,0,17,26
55023,0.489,0.025,1.058,0.038,-0.008,-0.008,17,26
55066,0.489,0.025,1.058,0.023,0.015,0,17,8
55110,0.49,0.024,1.056,0.008,0,0.008,17,26
55154,0.49,0.025,1.057,-0.015,0,-0.015,17,25
55197,0.49,0.025,1.058,-0.015,-0.031,0,17,25
55241,0.489,0.026,1.058,-0.023,-0.038,0.015,17,25
55285,0.489,0.025,1.058,0.031,-0.023,0,17,25
55332,0.489,0.025,1.058,0,-0.015,0,17,25
55375,0.489,0.024,1.057,0.031,-0.023,0.015,17,24
55419,0.49,0.025,1.057,0.023,-0.046,0.015,17,24
55463,0.49,0.025,1.058,0.015,-0.015,0,17,24
55506,0.489,0.024,1.058,0.008,0.015,-0.023,17,24
55549,0.489,0.024,1.058,0,-0.023,0,17,8
55593,0.489,0.024,1.058,-0.031,-0.015,-0.008,17,24
55638,0.49,0.025,1.058,0.038,-0.038,0.008,17,24
55681,0.491,0.025,1.058,0,-0.015,0.008,17,8
55725,0.489,0.024,1.057,0.015,-0.023,0.023,17,25
55771,0.489,0.025,1.057,-0.008,-0.038,0.023,17,25
55814,0.49,0.026,1.057,0.015,-0.015,0.008,17,8
55858,0.491,0.025,1.057,0.008,0.015,-0.015,17,25
55902,0.491,0.025,1.057,0.015,-0.008,-0.031,17,25
55946,0.49,0.024,1.057,0.015,-0.023,0,17,25
55990,0.489,0.024,1.058,0,0,0.023,17,25
56034,0.49,0.025,1.057,0.008,-0.031,0.031,17,25
56077,0.49,0.024,1.058,0.015,-0.023,0.031,17,25
56121,0.491,0.025,1.059,-0.008,0.008,-0.008,17,25
56165,0.49,0.024,1.058,0.031,-0.015,0,17,25
56208,0.489,0.025,1.058,0.008,-0.015,0.008,17,8
56255,0.489,0.025,1.059,-0.015,-0.038,0,17,26
56299,0.489,0.024,1.058,0,-0.015,-0.008,17,23
56343,0.49,0.024,1.058,-0.008,-0.038,-0.008,17,27
56387,0.49,0.024,1.057,-0.008,-0.023,-0.015,17,26
56431,0.49,0.025,1.058,0.015,-0.015,-0.031,17,26
56474,0.489,0.025,1.059,-0.008,-0.008,-0.031,17,8
56518,0.489,0.024,1.057,0.031,0,0,17,23
56562,0.49,0.025,1.057,-0.008,0.008,0,17,23
56606,0.489,0.025,1.057,-0.008,-0.015,0.008,17,23
56650,0.489,0.025,1.058,0.008,-0.015,0.023,17,23
56697,0.489,0.025,1.059,0.008,-0.008,-0.008,17,23
56741,0.488,0.025,1.057,0,-0.015,0,17,23
56784,0.49,0.025,1.057,0,-0.023,-0.008,17,23
56828,0.489,0.025,1.057,0.008,-0.008,0.008,17,23
56872,0.49,0.024,1.058,0.008,0,0.008,17,23
56916,0.491,0.024,1.058,0,0.015,0.031,17,23
56961,0.49,0.026,1.057,-0.038,0.008,0.023,17,23
57005,0.489,0.024,1.058,0,-0.023,-0.008,17,23
57049,0.49,0.024,1.057,0.038,-0.023,-0.023,17,23
57093,0.489,0.024,1.058,-0.008,-0.023,-0.015,17,23
57183,0.489,0.025,1.058,0,0.008,0.008,17,23
57228,0.489,0.025,1.059,-0.031,-0.008,-0.008,17,23
57272,0.49,0.024,1.058,-0.038,-0.008,-0.015,17,23
57316,0.49,0.024,1.058,-0.015,-0.023,0.008,17,23
57360,0.489,0.025,1.058,-0.031,0,0.015,17,23
57404,0.489,0.025,1.058,-0.031,-0.008,0.015,17,23
57448,0.489,0.024,1.059,0.008,-0.008,0,17,23
57491,0.49,0.024,1.057,0,-0.023,-0.008,17,8
57535,0.489,0.024,1.058,0.031,-0.015,-0.015,17,23
57579,0.49,0.024,1.058,0.008,-0.015,-0.008,17,23
57625,0.489,0.024,1.058,0,-0.008,0.015,17,8
57669,0.49,0.024,1.057,0.038,-0.015,0.008,17,8
57713,0.49,0.024,1.058,0.046,-0.046,0.031,17,23
57757,0.489,0.024,1.059,0.015,-0.076,0.008,17,23
57801,0.489,0.024,1.059,0.038,-0.046,0.008,17,23
57845,0.49,0.025,1.059,0.046,-0.031,-0.015,17,23
57889,0.49,0.024,1.058,0.008,-0.046,-0.008,17,23
57933,0.489,0.023,1.058,0.008,-0.031,-0.023,17,23
57978,0.49,0.025,1.058,-0.046,-0.031,-0.038,17,23
58022,0.49,0.025,1.058,-0.031,-0.015,0.008,17,23
58068,0.49,0.025,1.058,-0.031,-0.015,0.023,17,8
58113,0.491,0.024,1.057,-0.008,0.015,0.031,17,23
58158,0.489,0.025,1.059,0.015,-0.015,0.023,17,23
58202,0.49,0.025,1.058,0.023,-0.038,-0.008,17,23
58246,0.49,0.024,1.059,0.015,-0.015,-0.023,17,23
58290,0.489,0.025,1.057,0.015,-0.008,-0.008,17,23
58334,0.489,0.024,1.058,0.061,-0.015,-0.023,17,23
58379,0.488,0.024,1.058,0.023,-0.053,0.008,17,23
58423,0.489,0.025,1.059,0,-0.031,0.038,17,23
58467,0.489,0.025,1.057,-0.015,-0.046,0.008,17,23
58514,0.489,0.025,1.058,-0.031,-0.008,-0.031,17,23
58559,0.49,0.026,1.059,0,-0.023,-0.023,17,23
58603,0.489,0.024,1.059,-0.023,-0.008,-0.015,17,22
58647,0.488,0.025,1.059,0.023,-0.015,0.015,17,22
58691,0.489,0.025,1.058,0.008,-0.015,-0.008,17,22
58736,0.49,0.024,1.06,0.038,0,0,17,26
58780,0.489,0.024,1.058,0,0.008,0.008,17,25
58825,0.489,0.025,1.059,0.015,-0.031,0.031,17,26
58869,0.489,0.025,1.058,0.015,-0.023,-0.023,17,25
58914,0.49,0.026,1.059,0,-0.031,-0.008,17,25
58961,0.49,0.024,1.057,-0.038,-0.031,0,16,26
59006,0.49,0.024,1.057,-0.008,0,-0.008,17,25
59051,0.49,0.024,1.059,-0.008,-0.023,0.008,17,25
59096,0.49,0.024,1.06,0,-0.015,0.008,17,25
59140,0.489,0.025,1.058,-0.015,-0.031,-0.008,17,25
59185,0.49,0.025,1.058,-0.038,-0.031,-0.008,17,25
59229,0.49,0.024,1.058,0,-0.031,0.008,17,25
59274,0.489,0.025,1.057,0,-0.031,0,17,25
59318,0.49,0.025,1.059,-0.031,-0.015,0.015,17,25
59363,0.49,0.024,1.058,-0.008,-0.053,0.031,17,25
59454,0.49,0.026,1.056,-0.023,-0.038,0.015,17,23
59498,0.49,0.024,1.057,-0.023,-0.023,0,17,23
59543,0.49,0.025,1.057,0.015,-0.015,-0.015,17,26
59588,0.49,0.025,1.057,0.015,-0.023,-0.008,17,26
59632,0.489,0.024,1.056,0.046,0.023,-0.008,17,26
59677,0.489,0.025,1.057,0.031,-0.015,0.008,17,26
59721,0.489,0.025,1.056,0.008,-0.023,0.008,17,26
59766,0.489,0.025,1.058,0.023,-0.031,0.023,17,26
59810,0.489,0.025,1.058,-0.015,0,0.031,17,23
59862,0.49,0.024,1.059,-0.015,-0.008,0.015,17,22
59905,0.49,0.024,1.058,0.015,0,0.023,17,22
59951,0.49,0.025,1.057,0.031,-0.031,0,17,23
59995,0.49,0.024,1.058,0,-0.015,0.008,17,23
60038,0.49,0.025,1.058,-0.015,0.008,0,17,23
60082,0.489,0.024,1.058,0.031,-0.008,0.008,17,23
60125,0.49,0.024,1.057,0.053,-0.008,0.015,17,23
60169,0.49,0.025,1.057,-0.008,-0.015,0.023,17,23
60212,0.49,0.025,1.057,-0.008,-0.008,0.008,17,23
60256,0.489,0.025,1.058,0.031,-0.015,0.015,17,23
60299,0.489,0.025,1.058,0,-0.008,-0.008,17,23
60343,0.49,0.026,1.056,0,-0.023,0.015,17,23
60389,0.489,0.025,1.057,0.015,-0.031,0.008,17,23
60433,0.489,0.024,1.058,0,0,0.015,17,23
60476,0.489,0.024,1.058,0,0,0.008,17,23
60520,0.489,0.023,1.058,0.015,-0.008,0,17,23
60563,0.49,0.025,1.057,0.008,-0.008,0.015,17,23
60607,0.489,0.024,1.058,0.031,0,-0.015,17,23
60650,0.489,0.024,1.057,-0.015,-0.015,0.008,17,23
60694,0.49,0.024,1.058,0,-0.046,0.008,17,23
60737,0.49,0.024,1.058,0.008,-0.023,0.023,17,23
60781,0.489,0.024,1.058,0.031,-0.008,0.008,17,23
60827,0.489,0.024,1.058,0.038,-0.023,0.008,17,23
60871,0.489,0.025,1.057,-0.015,-0.023,0.008,17,23
60915,0.49,0.025,1.057,-0.031,-0.015,0.008,17,23
60958,0.488,0.026,1.059,-0.015,0,-0.008,17,23
61002,0.489,0.025,1.057,0,-0.038,0.023,17,23
61046,0.49,0.025,1.058,-0.008,-0.046,0.015,17,23
61090,0.49,0.025,1.058,0.023,-0.015,0,17,23
61133,0.49,0.025,1.057,-0.038,-0.023,-0.023,17,23
61177,0.49,0.025,1.058,-0.008,-0.023,0,17,23
61221,0.491,0.024,1.057,-0.008,0,0.015,17,23
61267,0.49,0.024,1.057,-0.008,0,0,17,23
61312,0.49,0.025,1.058,-0.008,-0.008,0.031,17,23
61356,0.49,0.025,1.058,0.015,-0.023,-0.008,17,23
61399,0.49,0.025,1.058,0,-0.046,-0.008,17,23
61443,0.489,0.025,1.058,0.015,-0.031,-0.023,17,23
61487,0.489,0.025,1.058,0.008,-0.023,-0.008,17,23
61531,0.49,0.025,1.06,0.008,-0.015,-0.008,17,23
61575,0.491,0.024,1.059,0.008,-0.031,0,17,23
61618,0.49,0.025,1.057,0.023,-0.046,0,17,23
61705,0.49,0.025,1.057,0.015,-0.015,0.008,17,23
61752,0.491,0.024,1.057,0.023,-0.023,0.023,17,23
61796,0.49,0.025,1.058,0.008,-0.031,-0.015,17,23
61840,0.49,0.025,1.058,0,-0.015,-0.023,17,23
61884,0.49,0.025,1.057,0,-0.015,-0.023,17,23
61928,0.489,0.025,1.057,0.008,-0.015,0,17,23
61971,0.489,0.025,1.058,0.015,-0.023,0,17,23
62015,0.489,0.025,1.059,0.023,-0.038,0,17,23
62059,0.49,0.023,1.058,0.008,-0.038,-0.015,17,23
62103,0.49,0.024,1.058,-0.023,-0.038,-0.023,17,23
62147,0.49,0.025,1.059,-0.023,-0.015,0,17,23
62194,0.49,0.024,1.06,0,-0.015,-0.015,17,23
62238,0.49,0.025,1.059,0.015,0,0,17,23
62281,0.491,0.026,1.058,0,0.015,0.008,17,23
62325,0.491,0.027,1.058,-0.008,0,0,17,23
62369,0.491,0.025,1.059,0.015,0,-0.008,17,23
62413,0.49,0.025,1.059,0.023,-0.031,-0.023,17,23
62457,0.49,0.025,1.06,0,0.008,-0.008,16,23
62501,0.49,0.025,1.058,0,-0.023,-0.008,17,23
62545,0.49,0.024,1.058,0.008,-0.023,0.031,17,23
62589,0.489,0.025,1.058,0,0.015,0.038,17,23
62633,0.489,0.025,1.059,-0.023,-0.038,0.008,17,23
62681,0.489,0.025,1.058,0,-0.053,-0.015,17,23
62725,0.489,0.025,1.057,0.015,-0.015,0.015,17,23
62769,0.489,0.025,1.058,0.008,-0.015,-0.008,17,23
62813,0.489,0.025,1.058,0,-0.038,-0.046,17,23
62857,0.489,0.025,1.057,0.015,-0.031,0,17,23
62901,0.49,0.025,1.058,0,-0.046,-0.008,17,23
62945,0.49,0.025,1.057,0.015,-0.008,0.015,17,23
62989,0.489,0.025,1.057,0.023,-0.053,0.023,17,23
63033,0.489,0.025,1.057,0.023,-0.023,0,17,23
63077,0.489,0.025,1.058,-0.008,-0.031,-0.023,17,23
63124,0.489,0.025,1.058,-0.015,-0.023,0.015,17,22
63168,0.49,0.025,1.057,0,-0.015,0.031,17,23
63212,0.489,0.025,1.057,0.031,-0.046,-0.008,17,23
63256,0.489,0.025,1.058,-0.015,-0.046,-0.008,17,23
63300,0.49,0.025,1.059,0.023,-0.053,-0.023,17,23
63345,0.49,0.025,1.058,0,-0.031,0,17,23
63389,0.489,0.025,1.057,0.008,-0.038,-0.008,17,23
63433,0.489,0.024,1.058,0,-0.061,0.015,17,23
63477,0.49,0.024,1.058,0,-0.031,0.038,17,23
63521,0.49,0.025,1.059,0.015,-0.031,-0.015,17,23
63568,0.49,0.025,1.058,0.008,-0.038,-0.023,17,23
63612,0.49,0.025,1.058,0.023,-0.038,0.031,17,23
63656,0.489,0.025,1.057,0.015,0.008,0,17,23
63702,0.489,0.025,1.059,0.023,-0.008,0.008,17,23
63746,0.49,0.025,1.057,0.008,-0.031,0.015,17,23
63790,0.49,0.025,1.058,-0.008,-0.031,-0.008,17,23
63834,0.489,0.025,1.059,-0.008,-0.008,0.008,17,23
63878,0.489,0.024,1.058,-0.031,-0.015,0.023,17,23
63966,0.49,0.024,1.058,0,-0.046,0.046,17,23
64010,0.49,0.025,1.058,-0.008,-0.053,0.008,17,23
64058,0.49,0.025,1.058,0.015,-0.038,0.023,17,23
64102,0.489,0.025,1.059,-0.008,-0.031,0,17,23
64146,0.49,0.025,1.059,0.008,-0.015,0,17,23
64190,0.49,0.025,1.058,-0.008,-0.031,-0.008,17,23
64235,0.489,0.024,1.058,-0.008,-0.023,0.008,17,23
64279,0.49,0.025,1.059,-0.015,-0.046,0,17,23
64323,0.489,0.025,1.057,0.023,-0.038,0.008,17,23
64367,0.489,0.024,1.058,-0.015,0,-0.008,17,23
64412,0.491,0.025,1.058,-0.008,-0.008,0,17,23
64456,0.489,0.025,1.058,0,-0.038,-0.008,17,23
64504,0.489,0.025,1.058,0,-0.008,0,17,23
64548,0.489,0.024,1.057,0.023,-0.023,0.015,17,23
64592,0.489,0.025,1.059,0.008,-0.015,-0.008,17,23
64637,0.49,0.025,1.058,0,-0.015,-0.008,17,23
64681,0.489,0.025,1.057,0.015,-0.023,0.031,17,23
64726,0.489,0.025,1.057,-0.023,-0.023,0.015,17,23
64771,0.489,0.024,1.058,-0.008,-0.031,0.015,17,23
64815,0.49,0.025,1.057,0,0.008,-0.023,17,23
64859,0.489,0.025,1.058,0.038,-0.015,-0.031,17,24
64904,0.488,0.025,1.058,0.023,0.008,0.023,17,24
64952,0.489,0.024,1.059,0.008,-0.031,0.023,17,24
64996,0.49,0.025,1.058,0.031,-0.046,0,17,25
65040,0.489,0.025,1.058,0.038,-0.046,0.038,17,24
65085,0.489,0.024,1.058,0.008,-0.031,0.015,17,24
65129,0.489,0.024,1.057,0,-0.015,0.023,17,23
65174,0.489,0.026,1.057,0,0.008,-0.008,17,23
65218,0.488,0.024,1.058,0.008,-0.015,0,17,24
65263,0.489,0.025,1.057,0.008,-0.046,-0.008,17,23
65307,0.488,0.024,1.057,0.008,-0.038,0.023,17,23
65352,0.49,0.025,1.057,0.015,0,-0.023,17,24
65399,0.49,0.025,1.058,0.008,-0.038,-0.023,17,24
65444,0.489,0.024,1.059,0,-0.031,0,17,24
65488,0.489,0.024,1.057,-0.015,0.008,0.015,17,24
65533,0.49,0.025,1.058,0.008,0.008,0,17,24
65584,0.489,0.024,1.058,0.023,-0.023,0.023,17,23
65627,0.49,0.025,1.056,0.038,-0.023,0.008,17,23
65671,0.49,0.025,1.057,0.008,-0.031,0,17,23
65714,0.49,0.025,1.057,-0.008,-0.008,0.015,17,23
65758,0.49,0.024,1.058,-0.015,-0.031,-0.015,17,23
65801,0.489,0.024,1.058,-0.015,-0.015,0,17,23
65845,0.49,0.025,1.058,0.031,-0.023,0,17,23
65891,0.489,0.024,1.058,0.015,-0.031,-0.015,17,23
65935,0.49,0.024,1.058,-0.008,-0.061,-0.015,17,23
65978,0.49,0.025,1.058,0.023,-0.023,0,17,23
66022,0.49,0.024,1.057,0.015,-0.031,0.023,17,23
66065,0.49,0.024,1.057,0.023,-0.053,0.023,17,23
66109,0.489,0.025,1.057,0.031,-0.023,0.015,17,23
66153,0.49,0.026,1.057,0.008,-0.046,0.008,17,23
66240,0.49,0.025,1.057,0.008,-0.031,0,17,23
66283,0.49,0.024,1.058,0.023,0,-0.015,17,23
66327,0.489,0.024,1.058,0.023,-0.008,0.015,17,23
66373,0.49,0.024,1.059,0.046,-0.023,0.038,17,23
66417,0.49,0.024,1.059,0.038,-0.023,-0.015,17,23
66460,0.49,0.025,1.058,0.023,0,0.008,17,23
66504,0.49,0.024,1.058,0.008,-0.023,0.031,17,23
66548,0.489,0.025,1.057,0.008,-0.015,0.031,17,23
66591,0.49,0.025,1.058,0,-0.053,0.023,17,23
66635,0.49,0.024,1.058,-0.008,-0.015,0.031,17,23
66679,0.489,0.024,1.057,-0.023,-0.015,0.008,17,23
66722,0.49,0.024,1.057,-0.015,0,-0.015,17,23
66766,0.49,0.025,1.058,-0.008,-0.046,0,17,23
66812,0.489,0.025,1.057,-0.008,-0.069,0,17,23
66856,0.49,0.024,1.058,0.008,-0.061,0.008,17,23
66900,0.49,0.024,1.059,0.023,-0.031,-0.008,17,23
66945,0.49,0.025,1.058,0.008,-0.038,0,17,23
66988,0.489,0.024,1.056,0.008,-0.031,-0.015,17,23
67032,0.489,0.025,1.057,-0.008,-0.038,0,17,23
67076,0.49,0.024,1.057,-0.015,-0.015,-0.008,17,23
67120,0.49,0.023,1.057,0.015,-0.015,0.008,17,26
67164,0.489,0.024,1.058,0,-0.015,-0.008,17,26
67207,0.489,0.024,1.059,0.023,-0.023,0.008,17,23
67254,0.491,0.025,1.059,0.038,-0.038,-0.023,17,22
67298,0.489,0.024,1.057,0.008,-0.046,-0.008,17,22
67341,0.489,0.025,1.057,0.015,-0.031,0,17,22
67385,0.489,0.024,1.058,-0.031,-0.008,-0.008,17,23
67429,0.489,0.025,1.057,-0.031,-0.023,-0.015,17,23
67473,0.489,0.025,1.057,0.061,0.008,0,17,23
67517,0.49,0.024,1.058,0.023,-0.038,-0.015,17,23
67561,0.49,0.024,1.057,0.008,-0.038,-0.015,17,23
67604,0.49,0.024,1.059,-0.008,-0.023,0.015,17,23
67648,0.491,0.024,1.059,-0.015,0,0.031,17,23
67695,0.49,0.024,1.059,0.015,-0.031,-0.015,17,23
67739,0.49,0.025,1.059,0,-0.038,0,17,23
67783,0.49,0.025,1.059,-0.008,-0.053,-0.031,17,23
67827,0.489,0.025,1.058,-0.023,-0.046,0,17,23
67871,0.489,0.025,1.059,0.023,-0.031,-0.008,17,23
67915,0.49,0.025,1.059,-0.023,-0.031,0.023,17,23
67958,0.49,0.025,1.059,0.031,-0.046,0.008,17,23
68002,0.489,0.025,1.059,-0.031,-0.046,0,17,23
68046,0.49,0.025,1.058,-0.023,-0.008,0,17,23
68090,0.489,0.025,1.058,0,-0.023,-0.008,17,23
68137,0.489,0.025,1.058,-0.015,-0.015,0.023,17,23
68182,0.49,0.025,1.058,-0.023,-0.046,0.015,17,23
68226,0.49,0.024,1.058,-0.008,-0.015,0.015,17,23
68270,0.489,0.025,1.058,0.008,-0.031,0.008,17,23
68314,0.489,0.025,1.058,0,-0.038,0.008,17,23
68358,0.489,0.025,1.057,-0.008,-0.023,-0.008,17,23
68402,0.49,0.024,1.058,-0.008,0.023,-0.015,17,23
68489,0.489,0.025,1.059,0,-0.046,0.008,17,23
68533,0.489,0.025,1.058,0.008,-0.031,0.008,17,23
68577,0.49,0.025,1.059,-0.031,-0.031,0.023,17,23
68625,0.489,0.024,1.057,-0.008,-0.008,-0.015,17,23
68669,0.49,0.024,1.057,0,-0.031,0,17,24
68713,0.489,0.025,1.058,0.023,-0.015,-0.023,17,23
68757,0.49,0.025,1.058,0.031,0,-0.023,17,24
68801,0.49,0.025,1.059,0.008,-0.031,-0.008,17,24
68845,0.489,0.025,1.057,0.031,-0.038,0,17,24
68889,0.49,0.024,1.057,0.023,0,0,17,23
68933,0.489,0.025,1.057,0.046,-0.023,-0.015,17,24
68977,0.489,0.025,1.057,0.023,-0.023,0,17,24
69021,0.489,0.024,1.059,0.008,-0.069,0,17,24
69068,0.488,0.025,1.058,0.008,-0.023,0.015,17,24
69113,0.488,0.024,1.058,0,-0.053,0.008,17,25
69157,0.489,0.024,1.057,-0.008,-0.046,0.008,17,24
69201,0.49,0.025,1.059,-0.023,-0.023,0,17,24
69245,0.489,0.024,1.059,-0.008,-0.061,-0.015,17,24
69289,0.49,0.024,1.058,0.008,-0.031,0.008,17,24
69335,0.489,0.025,1.057,0.015,-0.023,0.015,17,23
69379,0.489,0.026,1.057,-0.008,-0.031,0.015,17,23
69423,0.489,0.026,1.057,-0.015,-0.008,0,17,24
69467,0.489,0.025,1.057,-0.023,-0.046,-0.008,17,23
69515,0.49,0.025,1.058,0.008,0.008,0,17,24
69559,0.49,0.025,1.057,-0.015,-0.008,0.008,17,24
69603,0.489,0.024,1.058,-0.015,-0.038,0,17,24
69647,0.489,0.025,1.058,0.015,-0.023,-0.008,17,24
69692,0.489,0.026,1.058,-0.023,-0.023,0.038,17,24
69736,0.49,0.025,1.058,0.008,-0.053,0.023,17,23
69780,0.489,0.025,1.057,0.046,-0.015,0.008,17,23
69824,0.489,0.025,1.057,0.023,-0.031,0,17,23
69868,0.489,0.025,1.057,0.008,-0.031,0,17,23
69913,0.489,0.025,1.057,0,-0.023,0,17,23
69957,0.49,0.026,1.057,0.015,-0.008,0.015,17,23
70004,0.49,0.025,1.058,0.008,-0.038,-0.008,17,23
70049,0.49,0.025,1.058,-0.023,-0.046,0.008,17,23
70093,0.489,0.025,1.059,-0.023,-0.015,0.008,17,23
70137,0.488,0.025,1.058,0.015,-0.023,0.015,17,23
70182,0.489,0.024,1.058,-0.023,-0.008,0.015,17,23
70226,0.49,0.025,1.057,-0.015,-0.008,0,17,23
70270,0.489,0.025,1.058,0.031,-0.023,0.015,17,23
70315,0.49,0.025,1.058,0.023,0.008,-0.008,17,23
70360,0.49,0.025,1.059,0.023,0,-0.008,17,23
70404,0.49,0.025,1.058,0,-0.038,0,17,23
70452,0.49,0.025,1.057,0.038,-0.023,-0.008,17,23
70496,0.49,0.025,1.058,0.008,-0.038,0.015,17,23
70540,0.49,0.025,1.057,-0.015,-0.015,0.023,17,23
70585,0.49,0.025,1.059,0,0.008,-0.015,17,23
70629,0.49,0.025,1.057,0,-0.008,0.008,17,23
70673,0.489,0.025,1.058,-0.008,-0.038,0.008,17,23
70761,0.49,0.024,1.058,-0.023,0.008,0,17,22
70806,0.489,0.024,1.057,0,0,0.023,17,23
70850,0.489,0.024,1.057,0.015,0,0.031,17,22
70894,0.489,0.024,1.058,0.053,-0.031,-0.031,17,22
70951,0.489,0.024,1.057,0.015,0,0,17,22
70999,0.489,0.024,1.058,-0.015,-0.023,0.023,17,23
71045,0.489,0.024,1.058,-0.008,-0.046,0.023,17,23
71092,0.489,0.024,1.058,-0.031,-0.031,0.008,17,23
71139,0.49,0.025,1.059,0.015,-0.023,0.008,17,23
71186,0.489,0.024,1.057,-0.008,-0.038,0.015,17,23
71233,0.489,0.024,1.058,0.023,-0.031,-0.015,17,23
71280,0.489,0.025,1.057,0.023,-0.015,-0.008,17,23
71332,0.489,0.025,1.058,0.046,-0.015,0,17,23
71378,0.49,0.024,1.059,0.046,-0.023,-0.015,17,23
71427,0.489,0.025,1.058,0.008,-0.069,0,17,23
71473,0.49,0.025,1.057,-0.015,-0.023,0.015,17,23
71519,0.489,0.025,1.057,0,-0.023,0.023,17,23
71565,0.489,0.024,1.058,-0.008,-0.038,0.023,17,23
71610,0.489,0.024,1.057,-0.015,-0.023,0.031,17,23
71656,0.489,0.025,1.057,0.015,-0.046,-0.023,17,23
71702,0.489,0.025,1.059,-0.015,-0.069,0.015,17,23
71748,0.489,0.024,1.059,0.015,-0.061,-0.015,17,23
71794,0.49,0.025,1.058,0.061,0,0.008,17,23
71840,0.488,0.025,1.059,0.031,-0.008,-0.015,17,23
71888,0.489,0.024,1.06,-0.015,-0.023,0.015,17,23
71934,0.489,0.025,1.059,-0.015,0.015,0,17,23
71981,0.489,0.025,1.06,0.015,-0.031,0.015,17,23
72027,0.489,0.025,1.058,0.046,-0.023,0.031,17,23
72073,0.49,0.025,1.058,0.038,-0.031,0.008,17,23
72119,0.49,0.024,1.059,0.008,-0.031,-0.023,17,23
72165,0.49,0.025,1.059,0.015,-0.008,-0.008,17,23
72211,0.49,0.025,1.058,-0.023,0,0.008,17,23
72257,0.49,0.023,1.057,-0.008,-0.038,0.015,17,23
72303,0.49,0.025,1.058,0,-0.069,-0.008,17,24
72352,0.489,0.024,1.058,0.015,-0.015,0.008,17,24
72398,0.49,0.024,1.057,0.015,-0.008,0.008,17,24
72444,0.488,0.024,1.057,0,-0.031,-0.008,17,24
72491,0.489,0.024,1.057,-0.008,-0.046,0.023,17,25
72537,0.49,0.025,1.058,0,0,0.031,17,25
72583,0.488,0.025,1.058,-0.053,-0.015,0.015,17,25
72629,0.49,0.024,1.058,-0.015,-0.038,0.023,17,24
72675,0.49,0.024,1.057,0,-0.046,0.015,17,24
72721,0.49,0.026,1.057,-0.031,0,-0.023,17,24
72767,0.49,0.025,1.057,0.008,-0.046,-0.015,17,23
72813,0.49,0.024,1.058,0.031,-0.015,0,17,24
72862,0.489,0.025,1.057,0.008,-0.031,-0.008,17,24
72908,0.489,0.025,1.058,-0.015,-0.008,-0.031,17,24
72955,0.488,0.025,1.058,0,-0.015,0.023,17,24
73001,0.49,0.025,1.057,0.031,-0.031,0.008,17,24
73048,0.49,0.025,1.058,-0.008,-0.023,0.015,17,24
73137,0.49,0.025,1.058,0.031,-0.031,-0.023,17,23
73183,0.489,0.024,1.058,0.031,-0.053,-0.015,17,23
73230,0.49,0.024,1.058,-0.008,-0.031,0,17,23
73276,0.489,0.025,1.058,-0.008,-0.038,-0.023,17,23
73322,0.489,0.024,1.058,0.015,-0.031,0.008,17,23
73371,0.489,0.025,1.059,0.038,-0.008,-0.008,17,23
73417,0.489,0.024,1.058,0.008,-0.015,-0.015,17,24
73463,0.49,0.025,1.056,0.015,-0.031,-0.008,17,23
73510,0.489,0.024,1.059,0.015,-0.031,0.008,17,23
73556,0.489,0.025,1.058,0,-0.023,0,17,23
73603,0.49,0.026,1.057,-0.015,-0.038,0.008,17,23
73649,0.489,0.026,1.057,0.008,-0.023,0.023,17,23
73695,0.49,0.026,1.058,0.008,-0.046,0.015,17,23
73741,0.49,0.026,1.058,0.038,-0.053,0.015,17,23
73788,0.489,0.024,1.057,0.023,0,-0.023,17,23
73837,0.489,0.024,1.058,0.031,-0.031,-0.008,17,23
73883,0.49,0.025,1.059,0.015,0.008,0,17,23
73929,0.49,0.025,1.057,0.015,-0.015,-0.023,17,23
73975,0.49,0.025,1.058,0.015,-0.046,0,17,23
74022,0.49,0.024,1.058,-0.008,-0.023,-0.008,17,23
74068,0.49,0.025,1.058,0,-0.008,0.008,17,25
74114,0.49,0.024,1.059,0,0,-0.008,17,8
74161,0.489,0.025,1.059,0,-0.038,-0.008,17,25
74206,0.49,0.024,1.058,0,-0.038,0.015,17,8
74262,0.49,0.025,1.057,0,-0.015,0,17,0
74312,0.49,0.025,1.058,-0.008,-0.038,0,17,28
74369,0.49,0.025,1.057,-0.023,-0.046,-0.008,17,0
74425,0.49,0.024,1.059,0.008,0.015,0.008,17,0
74471,0.489,0.025,1.058,-0.031,0,0.015,17,8
74518,0.489,0.025,1.058,-0.015,0.015,0.008,17,31
74565,0.489,0.025,1.058,0.008,0,0.015,17,33
74612,0.489,0.024,1.058,0.008,0,-0.015,17,37
74659,0.49,0.024,1.058,0.008,-0.008,-0.008,17,36
74706,0.489,0.025,1.057,0,0,0.008,17,39
74763,0.49,0.025,1.057,0.046,-0.023,0,17,0
74823,0.489,0.025,1.058,0.023,-0.015,0.008,17,0
74880,0.489,0.024,1.059,0.046,0,0.008,17,0
74936,0.49,0.025,1.058,0.031,-0.008,0,17,0
74993,0.49,0.025,1.057,0.008,-0.031,0.008,17,0
75049,0.49,0.025,1.059,0.015,-0.053,0,17,0
75099,0.49,0.023,1.057,-0.008,-0.053,-0.015,17,60
75147,0.49,0.024,1.059,0.046,-0.023,-0.023,17,61
75196,0.49,0.025,1.057,0.038,0,0,17,60
75244,0.489,0.025,1.058,0.023,0.008,0.015,17,61
75293,0.49,0.026,1.059,0.008,-0.031,0,17,62
75341,0.489,0.025,1.058,0,-0.031,0,17,63
75394,0.49,0.026,1.057,0.015,-0.023,0.015,17,63
75443,0.49,0.025,1.058,0.008,-0.023,0.015,17,61
75491,0.489,0.025,1.059,0.008,-0.023,0.023,17,63
75540,0.489,0.025,1.058,0.053,0,0.023,17,62
75632,0.49,0.024,1.058,0.008,-0.015,0.008,17,61
75681,0.49,0.025,1.058,-0.031,-0.046,0,17,65
75730,0.489,0.024,1.058,0.015,-0.038,-0.015,17,63
75779,0.49,0.024,1.057,0.023,-0.023,0.023,17,57
75828,0.489,0.024,1.057,0.023,-0.015,0.023,17,61
75876,0.49,0.023,1.059,0.031,-0.015,-0.008,17,59
75936,0.49,0.024,1.058,0.023,-0.015,-0.015,17,0
75985,0.49,0.025,1.058,-0.008,-0.023,0,17,58
76034,0.489,0.024,1.059,0,-0.038,0.023,17,54
76083,0.49,0.024,1.059,0.023,-0.008,0.015,17,62
76131,0.49,0.026,1.057,0.008,-0.015,0.008,17,58
76179,0.49,0.025,1.057,0,-0.008,0.008,17,43
76227,0.49,0.024,1.058,-0.031,-0.053,-0.008,17,55
76276,0.489,0.026,1.059,-0.023,-0.031,0.015,17,57
76325,0.488,0.025,1.058,-0.015,-0.031,0,17,64
76374,0.489,0.025,1.058,0.008,-0.008,0.023,17,58
76426,0.489,0.025,1.058,0,-0.038,0,17,57
76475,0.489,0.024,1.058,0,-0.023,0.015,17,57
76524,0.49,0.024,1.058,0.008,-0.023,-0.015,17,66
76580,0.49,0.025,1.059,-0.015,-0.031,-0.015,17,0
76638,0.489,0.025,1.058,0,-0.023,-0.023,17,0
76687,0.49,0.024,1.058,0.031,-0.008,0.008,17,57
76735,0.49,0.025,1.059,0,-0.031,0.015,17,55
76784,0.49,0.024,1.056,0.031,-0.031,0.015,17,58
76840,0.489,0.025,1.058,0.015,-0.038,0,17,0
76890,0.489,0.024,1.058,-0.008,0,0.031,17,58
76939,0.49,0.024,1.058,0,-0.031,-0.008,17,8
76985,0.49,0.025,1.059,0,-0.046,-0.015,17,8
77031,0.489,0.025,1.058,-0.008,-0.008,0.015,17,8
77077,0.489,0.024,1.057,0,-0.031,0.015,17,8
77126,0.49,0.025,1.057,-0.008,-0.061,0.008,17,65
77175,0.489,0.025,1.057,-0.023,-0.084,0.008,17,65
77224,0.49,0.024,1.059,-0.031,-0.076,0,17,64
77271,0.489,0.025,1.058,-0.023,-0.008,0,17,8
77320,0.49,0.025,1.058,0.015,-0.023,-0.023,17,63
77369,0.49,0.025,1.057,-0.015,-0.015,-0.023,17,63
77421,0.49,0.026,1.058,-0.015,-0.023,0.008,17,64
77470,0.49,0.025,1.057,-0.023,-0.023,-0.015,17,65
77519,0.49,0.024,1.057,0.015,-0.023,-0.008,17,64
77575,0.49,0.025,1.058,0.038,0.008,-0.015,17,64
77630,0.49,0.024,1.057,0.023,-0.031,0,17,0
77678,0.49,0.024,1.059,-0.015,-0.015,0.008,17,58
77726,0.489,0.024,1.059,-0.023,-0.015,-0.031,17,62
77774,0.489,0.024,1.058,-0.046,-0.008,0,17,62
77822,0.489,0.025,1.059,0.008,-0.008,0.031,17,62
77871,0.49,0.025,1.06,-0.015,-0.023,0,17,62
77922,0.489,0.024,1.059,-0.031,-0.023,0.015,17,58
77977,0.49,0.025,1.059,0,0,0.015,17,0
78025,0.49,0.024,1.059,-0.008,0,0,17,63
78073,0.49,0.024,1.058,0.015,-0.023,0.008,17,62
78174,0.489,0.024,1.058,0.038,-0.023,0,17,0
78229,0.49,0.024,1.057,-0.023,-0.008,0.015,17,0
78277,0.489,0.025,1.057,0,0.008,-0.015,17,58
78325,0.489,0.025,1.058,0.023,0,0.015,17,58
78373,0.49,0.025,1.058,0.023,-0.008,0.015,17,58
78422,0.491,0.024,1.057,-0.008,0,0,17,59
78470,0.49,0.025,1.058,0,0.015,-0.015,17,59
78520,0.49,0.025,1.057,0.008,-0.023,0,17,59
78568,0.491,0.025,1.058,0,-0.008,0.008,17,61
78624,0.49,0.024,1.059,0,0,0,17,0
78672,0.489,0.024,1.059,-0.008,0,0.008,16,57
78721,0.49,0.024,1.058,-0.015,0,-0.015,17,58
78769,0.49,0.024,1.057,-0.008,-0.008,-0.008,17,57
78817,0.49,0.025,1.057,-0.008,-0.023,0,17,58
78862,0.49,0.025,1.057,-0.008,-0.008,0.031,17,8
78910,0.49,0.025,1.058,-0.015,-0.023,0.031,17,57
78958,0.489,0.024,1.059,0.015,-0.008,0.038,17,57
79006,0.489,0.024,1.057,0.023,-0.023,0.015,17,8
79054,0.49,0.025,1.056,0.015,-0.031,0.023,17,57
79101,0.489,0.026,1.058,-0.031,-0.031,0,17,57
79150,0.49,0.025,1.058,-0.008,-0.008,0.008,17,57
79198,0.489,0.024,1.058,-0.053,-0.008,-0.031,17,57
79247,0.489,0.024,1.057,-0.015,-0.031,-0.015,17,59
79295,0.489,0.024,1.059,-0.023,-0.023,0.008,17,58
79340,0.489,0.025,1.058,0.008,-0.031,0,17,8
79388,0.49,0.024,1.057,-0.031,-0.031,-0.008,17,57
79433,0.49,0.025,1.057,-0.015,0.023,-0.008,17,8
79493,0.49,0.025,1.057,-0.038,-0.031,-0.008,17,0
79541,0.489,0.025,1.058,-0.008,-0.008,0.015,17,57
79586,0.489,0.025,1.058,-0.015,-0.015,-0.008,17,8
79632,0.49,0.025,1.056,0.015,-0.015,-0.008,17,8
79677,0.489,0.025,1.058,-0.031,-0.046,0.015,17,8
79725,0.49,0.024,1.057,0.015,0.031,0.015,17,57
79773,0.49,0.025,1.058,-0.023,-0.023,0.023,17,57
79830,0.49,0.025,1.057,0.015,-0.038,0.053,17,0
79886,0.49,0.024,1.057,0.015,-0.031,0.008,17,0
79942,0.49,0.025,1.057,-0.008,-0.023,0.015,17,0
80002,0.489,0.025,1.057,0,0.023,-0.015,17,0
80059,0.489,0.025,1.058,-0.008,-0.031,0,17,0
80104,0.489,0.025,1.058,-0.015,-0.015,0,17,8
80149,0.49,0.024,1.057,-0.015,0,-0.008,17,8
80195,0.489,0.025,1.058,-0.015,-0.023,0,17,8
80240,0.49,0.025,1.058,-0.031,-0.038,0,17,8
80286,0.49,0.024,1.058,-0.008,-0.015,-0.008,17,8
80343,0.489,0.025,1.058,0,-0.015,-0.008,17,0
80388,0.489,0.025,1.057,0.015,-0.023,-0.008,17,8
80444,0.49,0.025,1.058,0.015,-0.023,-0.023,17,0
80493,0.489,0.025,1.058,0,-0.015,0.008,17,8
80549,0.49,0.025,1.059,-0.015,-0.031,0,17,0
80598,0.49,0.025,1.059,0.015,-0.008,0.015,17,57
80698,0.49,0.024,1.058,0,-0.031,-0.023,17,0
80754,0.49,0.025,1.057,0,-0.015,0.008,17,0
80811,0.489,0.025,1.058,0.008,-0.015,-0.008,17,0
80868,0.489,0.024,1.057,-0.038,-0.015,0.015,17,0
80924,0.49,0.025,1.058,-0.023,-0.038,0,17,0
80973,0.49,0.025,1.057,-0.023,-0.008,-0.008,17,65
81021,0.49,0.025,1.058,-0.023,-0.023,0,17,57
81070,0.489,0.025,1.058,-0.015,-0.038,0.015,17,57
81122,0.49,0.025,1.058,0.023,-0.031,-0.008,17,58
81170,0.49,0.025,1.057,-0.023,-0.015,0.008,17,58
81218,0.489,0.025,1.057,-0.038,-0.031,0.015,17,58
81266,0.489,0.026,1.057,-0.008,-0.031,0,17,58
81315,0.489,0.026,1.058,0.008,-0.053,-0.008,17,58
81363,0.49,0.024,1.059,-0.015,-0.015,-0.008,17,58
81413,0.489,0.025,1.058,0.015,-0.015,0,17,58
81461,0.489,0.025,1.058,-0.038,-0.015,-0.008,17,57
81509,0.489,0.025,1.059,0.038,0.015,0,17,57
81558,0.489,0.025,1.057,-0.008,-0.008,0.015,17,62
81609,0.489,0.024,1.058,-0.008,-0.015,0,17,59
81658,0.489,0.025,1.058,0.008,-0.038,0.008,17,57
81707,0.49,0.025,1.059,-0.015,-0.023,0.015,17,58
81755,0.489,0.024,1.058,0.008,-0.023,-0.023,17,58
81804,0.489,0.024,1.058,0.038,0.015,-0.015,17,59
81852,0.488,0.025,1.057,0,-0.038,0,17,58
81900,0.489,0.025,1.058,-0.023,-0.031,0.008,17,58
81949,0.49,0.024,1.058,-0.008,-0.015,-0.015,17,58
82006,0.489,0.024,1.058,0.015,-0.038,0.008,17,0
82055,0.489,0.024,1.059,-0.008,-0.008,-0.008,17,58
82107,0.49,0.025,1.058,0.015,0,-0.031,17,58
82155,0.489,0.024,1.058,0.008,0,0.008,17,60
82203,0.49,0.025,1.058,-0.023,-0.015,0.015,17,58
82252,0.489,0.025,1.057,-0.015,-0.008,-0.008,17,58
82301,0.489,0.025,1.059,0.015,-0.015,0,17,60
82350,0.49,0.024,1.057,0.008,-0.015,-0.008,17,59
82399,0.489,0.024,1.057,-0.008,-0.015,0.031,17,58
82456,0.489,0.024,1.056,0.008,-0.023,0,17,58
82503,0.49,0.025,1.058,-0.038,-0.023,0,17,58
82551,0.49,0.024,1.058,0.015,-0.015,0,17,58
82603,0.491,0.025,1.058,0.023,-0.023,0.008,17,58
82650,0.49,0.025,1.058,0.008,-0.038,0,17,58
82706,0.489,0.024,1.058,0.008,-0.008,0,17,0
82754,0.489,0.024,1.057,-0.008,-0.031,0,17,58
82802,0.489,0.025,1.057,0.008,-0.038,0.031,17,57
82850,0.489,0.024,1.057,0.008,-0.031,0.023,17,58
82906,0.489,0.024,1.059,0,0.015,0,17,0
82951,0.489,0.024,1.058,0.008,-0.023,0,17,8
82999,0.489,0.025,1.057,-0.008,-0.015,0,17,58
83047,0.49,0.025,1.059,0.008,-0.031,-0.031,17,58
83098,0.489,0.025,1.058,-0.015,-0.031,-0.023,17,65
83154,0.49,0.025,1.058,0.023,-0.046,0,17,0
83246,0.489,0.025,1.058,0,-0.038,0,17,65
83295,0.489,0.025,1.057,0.008,-0.015,-0.015,17,65
83343,0.489,0.025,1.058,-0.008,-0.008,0,17,65
83391,0.49,0.024,1.058,0.031,-0.023,0.008,17,66
83439,0.489,0.024,1.058,0.008,0,0.008,17,58
83495,0.49,0.025,1.059,-0.038,0,0.015,17,0
83552,0.49,0.025,1.057,0,0,0,17,0
83600,0.49,0.025,1.057,0,0.015,0,17,69
83659,0.489,0.025,1.057,0.023,0.023,-0.023,17,0
83708,0.489,0.024,1.059,0.023,-0.046,-0.023,17,70
83765,0.49,0.024,1.059,0.015,-0.023,-0.008,17,0
83821,0.489,0.025,1.058,0.046,0,0.008,17,0
83869,0.49,0.024,1.058,-0.015,-0.008,-0.015,17,67
83917,0.488,0.024,1.058,-0.015,-0.008,-0.008,17,58
83974,0.489,0.026,1.058,0,-0.008,-0.008,17,0
84030,0.49,0.024,1.058,0.023,-0.046,-0.038,17,0
84076,0.49,0.026,1.057,-0.008,0,0.008,17,8
84131,0.49,0.025,1.058,0.031,0,0,17,0
84188,0.49,0.025,1.058,0.008,0,-0.023,17,0
84247,0.489,0.025,1.059,0.023,-0.038,0.015,17,0
84295,0.489,0.025,1.057,0.046,0.008,0.038,17,58
84343,0.489,0.025,1.057,0.031,-0.015,0.023,17,58
84391,0.489,0.023,1.057,0,-0.023,0.008,17,58
84441,0.489,0.024,1.057,-0.008,-0.015,0,17,64
84489,0.49,0.024,1.058,0.023,-0.008,0.015,17,58
84534,0.49,0.025,1.058,0.023,0.015,-0.023,17,8
84582,0.49,0.024,1.059,0.023,-0.015,0.008,16,58
84630,0.49,0.025,1.059,-0.023,-0.015,-0.015,16,58
84678,0.489,0.024,1.058,0.023,-0.031,0,17,58
84729,0.49,0.024,1.059,0,0,0.015,17,58
84777,0.49,0.023,1.057,-0.023,-0.031,0.031,16,58
84826,0.49,0.024,1.057,0,-0.046,0.008,17,59
84874,0.49,0.023,1.06,0,-0.031,0.008,17,58
84922,0.489,0.025,1.06,0.008,-0.038,-0.031,17,58
84970,0.489,0.024,1.059,-0.023,-0.046,-0.008,17,58
85016,0.489,0.025,1.058,0.023,-0.046,-0.008,17,8
85064,0.489,0.025,1.058,0.038,-0.008,-0.015,17,59
85112,0.489,0.025,1.059,0.008,-0.008,-0.008,17,58
85160,0.489,0.025,1.058,0.015,-0.023,0.015,17,58
85212,0.49,0.025,1.058,0.008,0,0.008,17,58
85260,0.489,0.025,1.058,0.046,-0.023,-0.015,17,59
85309,0.489,0.025,1.058,0.023,-0.008,0.015,17,58
85357,0.489,0.024,1.058,0.015,-0.031,0.008,17,58
85405,0.489,0.025,1.058,0.031,-0.008,0,17,58
85453,0.49,0.024,1.057,0.031,-0.008,0,17,60
85499,0.49,0.025,1.057,-0.008,-0.031,0,17,8
85548,0.489,0.024,1.058,0,-0.031,-0.038,17,58
85596,0.489,0.024,1.058,0.031,0,0,17,58
85644,0.489,0.024,1.058,0.008,-0.008,0.023,17,58
85695,0.49,0.025,1.058,-0.023,-0.046,-0.023,17,58
85787,0.49,0.025,1.059,-0.015,-0.031,-0.008,17,58
85835,0.49,0.025,1.058,0,-0.015,-0.015,17,58
85884,0.49,0.024,1.058,0.008,-0.038,0.015,17,58
85933,0.489,0.024,1.057,0.023,0,0,17,57
85981,0.49,0.025,1.057,-0.008,-0.008,-0.008,17,58
86029,0.49,0.024,1.058,0.008,-0.015,0.031,17,59
86078,0.49,0.025,1.058,-0.008,-0.008,0,17,58
86126,0.489,0.024,1.058,-0.008,-0.015,0,17,58
86174,0.49,0.025,1.057,-0.023,-0.046,0.038,17,58
86223,0.49,0.025,1.058,0,-0.023,0.031,17,8
86272,0.49,0.024,1.059,0.015,0,0.023,17,58
86320,0.489,0.026,1.059,0.008,-0.015,0.031,17,58
86366,0.488,0.024,1.057,0.008,0,0.038,17,8
86411,0.49,0.025,1.058,0,0,0.023,17,8
86459,0.489,0.025,1.059,0.038,-0.008,-0.023,17,56
86508,0.49,0.025,1.059,0.023,-0.031,0.008,17,58
86556,0.489,0.024,1.058,0.015,-0.015,0.023,17,58
86604,0.49,0.024,1.058,0.023,-0.015,0.023,17,58
86653,0.489,0.024,1.058,0.023,-0.023,0.023,17,58
86702,0.49,0.025,1.058,-0.046,-0.015,0,17,61
86751,0.489,0.025,1.057,-0.023,-0.015,0.008,17,8
86797,0.489,0.026,1.057,0.015,-0.031,0.015,17,8
86842,0.489,0.026,1.057,-0.008,-0.023,-0.008,17,8
86888,0.489,0.025,1.058,-0.015,-0.008,0,17,8
86936,0.489,0.026,1.058,-0.008,-0.023,0.008,17,58
86982,0.49,0.025,1.057,0,-0.015,-0.008,17,8
87027,0.49,0.023,1.057,0.008,-0.038,-0.015,17,8
87073,0.489,0.024,1.058,0.023,-0.038,0,17,8
87122,0.49,0.025,1.058,-0.031,-0.015,0.015,17,58
87171,0.489,0.025,1.058,-0.015,-0.015,0,17,58
87220,0.489,0.024,1.058,0.008,-0.069,0.015,17,8
87266,0.489,0.025,1.056,0.031,-0.046,0.023,17,8
87311,0.49,0.025,1.057,0,-0.053,-0.015,17,8
87360,0.49,0.025,1.057,0.023,-0.076,-0.008,17,58
87405,0.49,0.025,1.058,-0.008,-0.015,-0.015,17,8
87451,0.489,0.025,1.059,-0.008,-0.038,-0.015,17,8
87497,0.489,0.025,1.058,0.008,0,-0.008,17,8
87543,0.489,0.026,1.059,0.023,0.015,0.008,17,8
87588,0.49,0.024,1.059,-0.008,-0.008,-0.008,17,8
87638,0.49,0.025,1.058,0.038,-0.008,-0.008,17,58
87690,0.49,0.024,1.058,0.038,0,-0.015,17,58
87738,0.49,0.025,1.057,-0.015,-0.031,0.008,17,58
87787,0.488,0.025,1.057,0,-0.038,0.008,17,58
87835,0.489,0.025,1.058,0.008,-0.031,0.008,17,58
87884,0.49,0.025,1.058,0.015,-0.038,0,17,58
87932,0.49,0.024,1.058,0.015,-0.038,0.008,17,58
87982,0.49,0.025,1.058,-0.023,-0.031,0.008,17,62
88031,0.488,0.025,1.057,-0.015,-0.023,0,17,58
88079,0.489,0.025,1.058,-0.015,-0.046,0.008,17,58
88128,0.488,0.025,1.059,0.023,-0.023,-0.008,17,60
88223,0.489,0.024,1.058,0.046,-0.023,0.031,17,58
88272,0.489,0.025,1.057,0.008,-0.023,0.031,17,62
88322,0.49,0.025,1.059,-0.008,0.008,0.015,17,63
88371,0.49,0.025,1.058,0.031,-0.015,-0.023,17,58
88420,0.49,0.024,1.058,-0.023,-0.008,0.015,17,58
88469,0.49,0.025,1.058,0.008,-0.015,0.008,17,65
88517,0.489,0.025,1.057,-0.015,-0.038,0.008,17,58
88574,0.489,0.024,1.057,0.015,-0.008,0.015,16,0
88624,0.49,0.025,1.058,0,-0.015,-0.015,17,57
88672,0.489,0.024,1.058,0.023,-0.031,0,17,58
88721,0.491,0.024,1.058,-0.015,-0.015,-0.008,17,58
88768,0.491,0.025,1.057,0.031,-0.008,-0.015,17,58
88822,0.489,0.024,1.058,0.023,-0.008,-0.008,17,57
88869,0.489,0.024,1.059,-0.008,-0.023,-0.008,17,58
88918,0.489,0.024,1.058,-0.015,-0.031,0,17,57
88966,0.489,0.024,1.059,-0.023,-0.023,0.023,17,58
89013,0.49,0.025,1.057,0.023,0,0.015,17,58
89061,0.49,0.024,1.058,-0.008,-0.031,0.015,17,58
89109,0.49,0.024,1.058,-0.015,-0.023,0.015,17,58
89157,0.489,0.025,1.058,-0.015,-0.023,0.008,17,58
89202,0.49,0.025,1.058,0.031,-0.031,0,17,8
89252,0.489,0.025,1.057,0.008,-0.031,0.031,17,57
89297,0.489,0.025,1.059,0,-0.015,0.023,17,8
89346,0.489,0.026,1.058,0.015,-0.023,0.015,17,58
89394,0.49,0.026,1.059,0.015,0,0.023,17,58
89441,0.49,0.025,1.059,0,-0.031,-0.008,17,58
89489,0.49,0.025,1.056,-0.008,0,-0.038,17,57
89537,0.489,0.025,1.058,0.015,-0.015,-0.038,17,58
89585,0.49,0.025,1.058,0.031,-0.015,0.008,17,58
89632,0.49,0.025,1.058,0.031,-0.031,0.015,17,57
89680,0.489,0.025,1.059,0,-0.023,0.023,17,56
89732,0.49,0.025,1.057,-0.023,0,-0.008,17,58
89780,0.489,0.024,1.058,0,-0.015,0.015,17,57
89827,0.489,0.024,1.058,-0.023,-0.046,0.008,17,58
89875,0.49,0.025,1.058,0,-0.038,0.015,17,58
89923,0.489,0.025,1.058,0.008,-0.046,-0.015,17,58
89971,0.49,0.026,1.058,-0.015,0,0.008,17,58
90016,0.49,0.026,1.058,-0.053,0.008,-0.008,17,8
90061,0.49,0.025,1.058,0,0.015,-0.038,17,8
90109,0.489,0.025,1.057,0,0,-0.031,16,58
90155,0.49,0.024,1.058,0.015,-0.046,-0.015,17,8
90203,0.489,0.025,1.057,-0.008,-0.038,0,17,8
90251,0.489,0.025,1.059,0.008,0,-0.015,17,58
90299,0.489,0.025,1.057,0,-0.015,-0.008,17,57
90347,0.49,0.024,1.056,0.015,-0.053,0.023,17,58
90395,0.49,0.025,1.057,0.023,0,0.008,17,58
90443,0.488,0.024,1.057,0.008,-0.008,0.008,17,58
90491,0.49,0.024,1.058,-0.008,0,0.015,17,58
90540,0.49,0.025,1.057,-0.031,0.008,-0.008,17,58
90588,0.489,0.024,1.057,-0.008,-0.008,-0.008,17,58
90679,0.49,0.026,1.056,-0.008,-0.008,0.015,17,58
90727,0.489,0.025,1.057,-0.031,0.008,0,17,8
90775,0.49,0.025,1.058,0,-0.015,-0.015,17,58
90820,0.49,0.025,1.059,0.031,-0.038,0,17,8
90866,0.49,0.024,1.058,0,-0.015,0.008,17,8
90911,0.489,0.024,1.057,-0.015,-0.023,-0.008,17,8
90956,0.489,0.024,1.057,0.023,-0.038,0.015,17,8
91001,0.489,0.024,1.056,0.031,-0.015,0.015,17,8
91049,0.49,0.025,1.057,-0.015,-0.015,0,17,58
91098,0.489,0.025,1.057,-0.023,-0.015,0,17,58
91147,0.49,0.025,1.058,0.008,-0.008,0,17,58
91198,0.489,0.024,1.057,0.008,-0.023,0,17,58
91246,0.489,0.026,1.057,0.015,-0.008,-0.008,17,58
91294,0.489,0.026,1.058,0.038,-0.015,-0.023,17,58
91342,0.489,0.025,1.057,0.023,-0.023,-0.008,17,58
91390,0.489,0.024,1.057,0,-0.046,0,17,58
91439,0.489,0.025,1.058,-0.015,-0.038,-0.023,17,62
91487,0.489,0.024,1.058,0,-0.038,0,17,58
91536,0.49,0.024,1.059,0.008,-0.031,0.008,17,58
91581,0.49,0.025,1.058,0.015,-0.053,0.015,17,8
91629,0.49,0.025,1.058,-0.031,-0.008,0.008,17,61
91675,0.489,0.024,1.057,-0.008,-0.023,0.008,17,8
91723,0.489,0.024,1.058,0.031,-0.061,0.031,17,8
91768,0.49,0.025,1.057,0.023,-0.061,0,17,8
91814,0.49,0.024,1.058,-0.015,-0.053,0,17,8
91863,0.489,0.024,1.06,0.015,-0.023,-0.015,17,58
91911,0.489,0.024,1.057,0,-0.046,0.008,17,58
91959,0.49,0.024,1.057,0.015,-0.038,0,17,58
92008,0.489,0.024,1.057,0.031,-0.046,0.008,17,58
92056,0.489,0.024,1.057,0.031,0.008,0.008,17,57
92104,0.49,0.025,1.057,0.023,0.023,0.031,17,61
92152,0.49,0.025,1.058,-0.008,-0.023,-0.008,17,58
92205,0.489,0.025,1.057,-0.008,0.008,-0.023,17,58
92253,0.488,0.025,1.059,0.023,0,0.008,17,58
92301,0.489,0.024,1.057,0.023,-0.031,0.038,17,58
92349,0.489,0.024,1.057,0.015,-0.015,0.038,17,58
92398,0.489,0.025,1.058,0,-0.046,0.015,17,58
92446,0.489,0.024,1.058,0.015,-0.031,0,17,58
92494,0.489,0.024,1.058,0,0,0.031,17,58
92544,0.49,0.025,1.058,-0.053,0.008,0,17,58
92592,0.489,0.025,1.058,-0.038,-0.023,-0.008,17,58
92640,0.49,0.024,1.058,0.008,-0.008,0,17,58
92689,0.49,0.025,1.058,-0.008,-0.023,0.015,17,8
92737,0.489,0.024,1.057,-0.015,-0.008,0.023,17,58
92786,0.49,0.025,1.058,-0.008,-0.023,-0.008,17,58
92834,0.489,0.025,1.057,0.023,0.015,0.023,17,58
92882,0.49,0.025,1.057,-0.008,-0.008,-0.008,17,58
92932,0.489,0.025,1.057,-0.008,-0.023,0,17,58
92980,0.49,0.026,1.057,0.015,-0.046,0,17,58
93028,0.49,0.024,1.058,-0.015,-0.038,-0.015,17,58
93120,0.489,0.024,1.057,-0.015,-0.046,0,17,58
93169,0.489,0.025,1.057,0.023,-0.015,-0.008,17,58
93220,0.489,0.025,1.056,-0.008,-0.008,-0.008,17,58
93270,0.489,0.025,1.058,-0.038,-0.008,-0.015,17,61
93319,0.49,0.025,1.058,0.008,-0.015,-0.015,17,61
93367,0.489,0.024,1.058,0.008,0,0,17,58
93415,0.49,0.024,1.057,0.023,0.015,-0.008,17,58
93464,0.49,0.025,1.057,0.053,-0.038,-0.015,17,58
93512,0.49,0.025,1.057,0.015,-0.008,0,17,58
93561,0.49,0.025,1.057,0.015,-0.008,-0.008,17,57
93609,0.49,0.025,1.058,0,-0.038,0,17,58
93659,0.49,0.025,1.058,0.015,-0.023,0.008,17,63
93711,0.49,0.024,1.058,-0.008,-0.008,-0.023,17,58
93760,0.49,0.025,1.059,-0.008,-0.015,0,17,64
93808,0.489,0.025,1.058,0,-0.015,0.015,17,63
93857,0.489,0.024,1.059,0,-0.023,0,17,58
93905,0.49,0.024,1.058,-0.031,-0.023,-0.015,17,57
93955,0.489,0.024,1.057,-0.015,-0.046,-0.023,17,58
94004,0.489,0.024,1.057,-0.015,-0.031,0,17,58
94052,0.49,0.025,1.057,-0.008,0.008,-0.008,17,58
94101,0.49,0.024,1.058,-0.023,0,0,17,57
94149,0.49,0.025,1.057,0.023,0,0.008,17,56
94201,0.49,0.025,1.057,0.023,-0.038,0,17,56
94249,0.49,0.025,1.058,-0.023,-0.015,0.008,17,57
94299,0.489,0.024,1.057,0.015,-0.015,0.015,17,57
94347,0.49,0.025,1.057,0.008,-0.015,0.023,17,57
94396,0.49,0.026,1.058,0.015,-0.046,-0.023,17,57
94445,0.489,0.025,1.059,0.023,-0.031,0,17,58
94493,0.489,0.025,1.059,0.031,-0.015,-0.015,17,57
94542,0.489,0.025,1.059,-0.008,-0.038,-0.015,17,56
94590,0.49,0.025,1.059,-0.015,-0.053,0,17,56
94640,0.49,0.024,1.058,-0.015,-0.031,0,17,57
94692,0.489,0.025,1.058,0,-0.038,0,17,56
94740,0.489,0.025,1.058,0.008,-0.053,0,17,56
94789,0.49,0.024,1.058,-0.023,-0.038,0,17,56
94838,0.489,0.025,1.058,0.008,-0.038,0.015,17,57
94886,0.489,0.024,1.058,-0.015,0,-0.023,17,55
94936,0.489,0.024,1.058,0.015,-0.038,-0.008,17,55
94984,0.489,0.025,1.059,0.015,-0.023,0,17,56
95038,0.488,0.026,1.058,0.023,-0.015,-0.015,17,58
95086,0.489,0.025,1.059,0.038,-0.008,0,17,56
95133,0.49,0.024,1.058,0.023,-0.046,0.046,17,56
95178,0.49,0.025,1.058,0.046,0.008,0.031,16,8
95229,0.489,0.025,1.057,0.046,-0.008,-0.015,17,56
95277,0.489,0.024,1.057,0.023,0.008,0,17,56
95325,0.49,0.025,1.058,0,-0.031,-0.008,17,56
95372,0.489,0.024,1.058,-0.031,-0.023,0,17,56
95420,0.489,0.025,1.057,0.023,-0.015,-0.015,17,58
95468,0.49,0.025,1.056,-0.008,-0.008,0,17,56
95516,0.49,0.025,1.056,-0.015,-0.023,-0.008,17,58
95607,0.49,0.025,1.058,0,-0.015,0,17,58
95652,0.489,0.024,1.057,0,-0.008,-0.008,17,8
95697,0.489,0.025,1.058,-0.023,-0.038,0.008,17,8
95748,0.49,0.025,1.058,0.008,-0.015,0.031,17,56
95794,0.49,0.025,1.057,0.023,-0.008,0.008,17,8
95839,0.49,0.025,1.057,-0.008,-0.031,0.008,17,8
95886,0.489,0.025,1.058,0.015,-0.031,0.008,17,58
95934,0.489,0.025,1.057,-0.008,-0.031,0.031,17,58
95982,0.49,0.025,1.058,0.031,-0.046,0.015,17,58
96030,0.49,0.025,1.057,-0.008,-0.053,0.023,17,56
96075,0.49,0.024,1.058,0.023,-0.053,0.023,17,8
96120,0.49,0.025,1.058,-0.031,-0.038,-0.008,17,8
96168,0.489,0.025,1.057,-0.015,-0.015,0.008,17,58
96220,0.489,0.024,1.059,0,-0.008,-0.023,17,58
96267,0.49,0.025,1.058,0,-0.015,0.008,17,55
96315,0.489,0.025,1.059,-0.038,0,0.038,17,56
96360,0.489,0.025,1.059,-0.008,-0.008,0,17,8
96408,0.49,0.025,1.061,0.038,-0.008,-0.031,17,58
96453,0.489,0.025,1.06,-0.008,0.015,-0.015,17,8
96498,0.489,0.025,1.059,0,0.015,-0.015,17,8
96543,0.489,0.025,1.058,0,0,-0.008,17,8
96591,0.49,0.026,1.057,-0.031,0,0.015,17,55
96640,0.49,0.026,1.058,-0.008,-0.038,-0.015,17,56
96691,0.49,0.026,1.057,-0.015,-0.023,0.008,17,56
96736,0.489,0.025,1.058,0.008,-0.015,0.008,17,8
96781,0.49,0.024,1.057,0.023,-0.023,-0.031,17,8
96826,0.489,0.025,1.059,0.023,0.008,-0.015,17,8
96872,0.489,0.025,1.057,0.008,-0.031,-0.015,17,8
96919,0.489,0.025,1.056,0.031,0.008,-0.008,17,55
96967,0.49,0.025,1.057,0.023,-0.023,0.015,17,55
97015,0.49,0.024,1.059,0.015,-0.015,0,17,55
97060,0.489,0.024,1.057,0,-0.015,0,17,8
97106,0.49,0.024,1.058,0,-0.023,0.015,17,8
97155,0.49,0.025,1.058,-0.015,-0.023,-0.008,17,8
97203,0.49,0.025,1.058,0.008,-0.023,-0.008,17,55
97248,0.488,0.024,1.059,0,-0.038,-0.015,17,8
97293,0.489,0.024,1.059,-0.015,-0.038,-0.023,17,8
97341,0.489,0.025,1.058,-0.038,-0.015,0.008,17,55
97389,0.489,0.025,1.059,-0.008,-0.031,-0.008,17,56
97435,0.49,0.024,1.059,-0.023,-0.038,-0.008,17,8
97480,0.489,0.024,1.058,-0.015,-0.015,-0.031,17,8
97528,0.489,0.024,1.058,-0.015,-0.015,-0.031,17,55
97573,0.489,0.024,1.058,-0.023,-0.008,-0.031,17,8
97625,0.49,0.026,1.058,0,-0.023,0,17,55
97673,0.489,0.026,1.058,0,-0.053,0,17,56
97721,0.489,0.025,1.058,0.008,-0.031,0,17,55
97769,0.49,0.025,1.057,0,-0.046,0,17,54
97817,0.489,0.025,1.058,-0.008,-0.046,0.015,17,54
97865,0.489,0.024,1.057,0.031,-0.015,-0.023,17,56
97913,0.489,0.025,1.057,0.015,-0.046,-0.038,17,55
98006,0.49,0.025,1.058,-0.023,-0.038,-0.008,17,55
98054,0.49,0.025,1.057,-0.015,-0.031,0.023,17,55
98102,0.489,0.026,1.059,-0.023,-0.008,0.008,17,55
98150,0.489,0.025,1.06,-0.023,-0.023,0.023,17,56
98201,0.489,0.024,1.057,-0.008,-0.038,0.008,17,56
98250,0.489,0.025,1.058,0.015,-0.031,-0.008,17,55
98298,0.49,0.025,1.057,-0.008,-0.015,-0.023,17,56
98347,0.489,0.026,1.059,0.008,0,0.008,17,55
98395,0.489,0.025,1.057,-0.015,-0.023,0.008,17,58
98443,0.489,0.025,1.058,0.008,0.015,0.008,17,56
98491,0.49,0.026,1.058,0.023,-0.031,-0.008,17,56
98539,0.49,0.025,1.058,0.031,0,0,17,56
98588,0.49,0.025,1.056,0.008,-0.031,0,17,57
98636,0.49,0.025,1.057,0.008,-0.023,0.008,17,56
98688,0.49,0.025,1.059,-0.008,-0.008,0.015,17,57
98734,0.489,0.025,1.058,-0.008,-0.008,-0.008,17,8
98779,0.489,0.026,1.057,0.046,-0.008,0.023,17,8
98825,0.49,0.025,1.057,0,-0.023,0.015,17,8
98873,0.49,0.025,1.058,0,-0.038,0.023,17,57
98921,0.49,0.025,1.058,0.008,-0.053,0.031,17,58
98970,0.491,0.025,1.057,0,-0.038,-0.015,17,57
99015,0.49,0.024,1.057,0,-0.031,-0.023,17,8
99063,0.49,0.024,1.057,0,-0.015,-0.008,17,58
99112,0.489,0.025,1.057,-0.031,-0.023,0,17,58
99164,0.489,0.025,1.058,0.015,-0.038,0,17,57
99213,0.489,0.025,1.058,0,-0.038,-0.015,17,55
99261,0.488,0.025,1.058,-0.008,-0.023,0,17,54
99309,0.489,0.025,1.057,-0.023,-0.015,0.008,17,55
99357,0.489,0.024,1.058,-0.015,-0.023,0.023,17,56
99406,0.489,0.026,1.057,-0.015,-0.023,-0.015,17,57
99454,0.49,0.025,1.057,-0.015,-0.008,-0.008,17,57
99504,0.489,0.024,1.057,0,0,0,17,57
99552,0.49,0.025,1.057,0.008,-0.038,0.008,17,58
99598,0.49,0.024,1.058,0.023,-0.023,0.038,17,8
99647,0.49,0.023,1.058,0.015,0,-0.015,17,8
99695,0.489,0.025,1.057,0.008,-0.038,0,17,58
99743,0.49,0.025,1.057,0,0.008,-0.038,17,56
99792,0.49,0.025,1.058,-0.008,-0.023,-0.008,17,57
99841,0.49,0.024,1.058,0.031,-0.015,0,17,56
99890,0.49,0.025,1.058,0,-0.031,0.015,17,56
99938,0.489,0.024,1.057,0.008,0,0.015,17,58
99986,0.49,0.024,1.056,-0.023,-0.015,0.031,17,56
100032,0.489,0.025,1.058,0.008,-0.008,-0.008,17,8
100081,0.488,0.025,1.057,0,0,0.015,17,57
100130,0.49,0.025,1.058,0.008,-0.023,0.023,17,8
100175,0.49,0.024,1.058,0.015,-0.031,0.015,17,8
100225,0.489,0.025,1.058,0.008,-0.031,0.046,17,58
100271,0.489,0.025,1.058,0.015,-0.031,0.015,17,8
100319,0.49,0.026,1.058,0.038,-0.015,0,17,56
100367,0.49,0.025,1.059,0,-0.015,0,17,44
100458,0.488,0.025,1.057,0,0,0,17,44
100506,0.489,0.025,1.057,0.015,-0.008,0.015,17,45
100555,0.49,0.024,1.059,0.023,-0.008,0.023,17,56
100601,0.489,0.025,1.058,0.053,-0.031,0,17,8
100653,0.49,0.025,1.057,-0.008,-0.015,0.015,17,42
100701,0.489,0.025,1.057,0,0,0,17,56
100750,0.49,0.024,1.057,0.008,0.015,-0.008,17,57
100796,0.489,0.025,1.057,0,0.008,0.015,17,8
100844,0.49,0.025,1.057,0,-0.008,0.008,17,58
100893,0.489,0.025,1.058,0.031,0.008,0.038,17,51
100941,0.489,0.026,1.058,0,-0.015,0.015,17,58
100989,0.489,0.025,1.058,0,-0.008,-0.008,16,47
101036,0.489,0.025,1.057,0,-0.008,-0.015,17,8
101082,0.49,0.025,1.057,0.023,-0.023,0,17,8
101131,0.489,0.024,1.058,0.015,0.008,0,17,8
101177,0.49,0.025,1.06,0.023,0.015,-0.015,17,8
101228,0.49,0.026,1.058,0.015,0.008,-0.038,17,8
101273,0.49,0.026,1.058,-0.008,-0.031,0,17,8
101321,0.49,0.026,1.059,0.008,0,0,17,50
101368,0.49,0.024,1.059,0.008,-0.015,0.008,17,58
101415,0.49,0.024,1.058,-0.023,-0.008,0,17,44
101464,0.489,0.025,1.059,-0.015,0,-0.023,17,58
101512,0.489,0.025,1.058,-0.031,-0.015,-0.015,17,58
101560,0.49,0.026,1.058,0,-0.023,0.023,17,58
101607,0.49,0.025,1.059,0.008,-0.008,0.023,17,8
101652,0.491,0.025,1.06,0.031,0,0,17,8
101697,0.489,0.025,1.059,0,0,0.015,17,8
101742,0.489,0.025,1.059,-0.015,0,-0.015,17,8
101787,0.489,0.024,1.057,-0.015,-0.023,-0.023,17,8
101832,0.49,0.025,1.057,-0.023,0.023,0.008,17,8
101877,0.49,0.025,1.057,0,-0.008,-0.008,17,8
101925,0.489,0.025,1.056,-0.008,-0.015,-0.008,17,58
101970,0.489,0.024,1.058,0,-0.038,0,17,8
102019,0.489,0.025,1.059,0,-0.046,0.023,17,58
102067,0.49,0.025,1.058,-0.015,-0.023,-0.008,17,50
102115,0.489,0.025,1.058,-0.008,-0.015,0.008,17,8
102163,0.49,0.025,1.057,0.038,-0.015,0.008,17,58
102208,0.49,0.024,1.058,0.015,-0.053,-0.008,17,8
102253,0.49,0.025,1.057,-0.008,-0.038,0.008,17,8
102298,0.49,0.024,1.057,0.015,-0.015,-0.015,17,8
102343,0.489,0.025,1.056,-0.023,-0.008,-0.015,17,8
102391,0.489,0.025,1.059,-0.015,-0.015,-0.023,17,51
102436,0.49,0.025,1.058,-0.015,-0.031,0.008,17,8
102481,0.489,0.025,1.059,0.008,0.008,0.015,17,8
102530,0.49,0.025,1.057,-0.031,0.015,0,17,56
102581,0.49,0.025,1.058,-0.023,-0.008,0.031,17,58
102626,0.49,0.024,1.057,0.008,-0.031,0,17,8
102674,0.49,0.025,1.059,0,-0.038,0,17,58
102722,0.489,0.025,1.06,0.015,-0.015,-0.015,17,55
102770,0.489,0.025,1.058,-0.023,-0.038,-0.015,17,55
102858,0.49,0.025,1.058,-0.015,-0.046,0.031,17,8
102904,0.488,0.025,1.057,-0.023,-0.023,0.023,17,8
102949,0.489,0.025,1.058,0.023,-0.031,0.008,17,8
102994,0.489,0.025,1.058,0.023,-0.015,0,17,8
103043,0.489,0.025,1.057,0.015,-0.023,0,17,58
103102,0.489,0.025,1.059,-0.023,-0.046,0,17,58
103148,0.489,0.024,1.059,-0.031,-0.023,-0.023,17,8
103195,0.49,0.025,1.059,0,-0.023,0,17,51
103241,0.49,0.024,1.058,-0.015,-0.046,0,17,8
103288,0.489,0.024,1.058,0,-0.038,-0.008,17,51
103336,0.49,0.024,1.057,-0.015,-0.046,0.008,17,56
103383,0.489,0.025,1.058,0.015,-0.031,0.015,17,8
103431,0.489,0.025,1.057,0,0,0,17,51
103478,0.489,0.025,1.057,-0.008,-0.008,0.008,17,51
103524,0.489,0.026,1.058,0,0.015,0.015,17,8
103572,0.489,0.025,1.057,-0.023,0,0.031,17,8
103617,0.489,0.025,1.058,0,0,0.008,17,8
103662,0.489,0.025,1.058,-0.008,-0.008,0.015,17,8
103711,0.49,0.025,1.059,0,-0.015,0,17,58
103759,0.49,0.025,1.059,-0.008,-0.015,0.015,17,57
103808,0.49,0.025,1.057,0.015,0,0.023,17,51
103853,0.489,0.025,1.056,0,-0.031,-0.008,17,8
103901,0.489,0.025,1.057,-0.023,-0.023,-0.023,17,58
103949,0.489,0.025,1.058,0.015,-0.031,0.008,17,58
103998,0.489,0.024,1.057,0,-0.015,-0.008,17,58
104049,0.49,0.025,1.058,-0.023,0,0.008,17,58
104097,0.49,0.025,1.057,0.023,0.008,-0.023,17,50
104142,0.49,0.024,1.058,0.015,-0.008,0.015,17,8
104187,0.488,0.024,1.057,0,0,0.015,17,8
104236,0.489,0.025,1.057,0.015,-0.031,0.031,17,50
104282,0.49,0.024,1.058,0.008,-0.046,0,17,8
104327,0.49,0.025,1.059,0.015,-0.053,0.015,17,8
104375,0.49,0.025,1.058,-0.008,-0.008,0.015,17,58
104421,0.49,0.025,1.058,0.008,0.008,0.015,17,8
104466,0.49,0.025,1.06,-0.015,-0.008,0.008,17,8
104515,0.489,0.025,1.058,0.008,-0.053,0,17,8
104563,0.489,0.025,1.057,-0.031,-0.015,0.015,17,50
104611,0.488,0.025,1.059,-0.015,-0.031,0.015,17,50
104656,0.489,0.025,1.058,0.008,-0.031,0.023,17,8
104706,0.488,0.025,1.058,0.015,0,0.008,17,58
104754,0.488,0.025,1.058,0,0.015,-0.008,17,58
104802,0.49,0.025,1.058,0.015,-0.031,-0.015,17,50
104847,0.489,0.025,1.058,0,-0.046,0.008,17,8
104893,0.489,0.024,1.058,-0.008,-0.023,-0.015,17,8
104941,0.49,0.024,1.059,0.008,0.015,0.023,17,50
104992,0.49,0.025,1.058,0.015,0,0.015,17,50
105040,0.489,0.025,1.057,0.015,-0.023,-0.031,17,58
105089,0.489,0.025,1.056,0.015,0.008,-0.031,17,50
105135,0.49,0.026,1.058,0,0,0.031,17,8
105181,0.489,0.025,1.057,-0.015,0,-0.015,17,8
105270,0.49,0.024,1.057,-0.015,0,-0.015,17,8
105315,0.489,0.025,1.058,0,-0.008,-0.008,17,8
105363,0.489,0.024,1.06,0.008,-0.031,0.015,17,50
105409,0.489,0.025,1.059,0,-0.008,-0.015,17,8
105455,0.489,0.024,1.058,0.008,-0.031,0.015,17,8
105504,0.489,0.025,1.058,0.046,-0.023,0,17,8
105561,0.489,0.025,1.058,0.008,-0.038,-0.015,17,0
105607,0.49,0.024,1.058,-0.008,-0.031,-0.015,17,8
105653,0.489,0.024,1.057,0.015,-0.015,-0.015,17,8
105698,0.49,0.024,1.058,0,-0.008,-0.008,17,8
105744,0.49,0.024,1.058,0,-0.008,0.008,17,8
105790,0.489,0.024,1.059,0.008,-0.023,0.008,17,8
105846,0.49,0.025,1.06,0.023,-0.046,-0.008,17,0
105892,0.489,0.025,1.06,-0.008,-0.031,0.015,17,8
105938,0.49,0.025,1.059,-0.008,-0.031,0.008,17,8
105988,0.49,0.025,1.059,0,-0.031,-0.008,17,8
106034,0.49,0.024,1.058,0,-0.031,0.015,17,8
106090,0.489,0.024,1.057,0.031,0,0.015,17,0
106136,0.491,0.024,1.058,0.008,0,0.031,17,8
106192,0.491,0.025,1.058,0.015,-0.031,0.008,17,0
106250,0.49,0.024,1.058,-0.015,0,0,17,0
106296,0.49,0.025,1.058,0.046,-0.031,0.015,17,8
106343,0.49,0.025,1.058,0,-0.038,-0.015,17,30
106389,0.49,0.025,1.057,0.046,-0.053,0.008,17,8
106435,0.489,0.025,1.058,0.031,-0.061,-0.023,17,8
106485,0.49,0.025,1.059,-0.008,-0.023,0.008,17,28
106531,0.49,0.025,1.057,0,-0.031,0.023,17,8
106588,0.489,0.024,1.058,-0.008,0.008,0.031,17,0
106645,0.49,0.024,1.058,0.015,-0.031,0.015,17,0
106691,0.49,0.024,1.059,-0.008,-0.031,0.015,17,8
106738,0.489,0.025,1.058,-0.008,-0.015,0.008,17,24
106785,0.49,0.026,1.058,0,-0.023,0.023,17,26
106831,0.49,0.025,1.059,0,-0.008,0.008,17,8
106877,0.49,0.025,1.058,0.023,-0.031,0.008,17,8
106924,0.49,0.026,1.058,-0.008,-0.031,0.031,17,8
106983,0.489,0.024,1.059,-0.015,-0.015,0.008,17,0
107030,0.489,0.025,1.058,0.023,-0.023,-0.015,17,8
107086,0.489,0.025,1.058,0.015,0,0.008,17,0
107132,0.489,0.025,1.058,0,0.008,0,17,8
107190,0.49,0.025,1.057,0.015,0.038,0.015,17,0
107236,0.489,0.024,1.058,0.031,-0.023,0,17,8
107299,0.49,0.025,1.058,0.031,-0.015,0.023,17,0
107344,0.489,0.025,1.057,-0.015,-0.031,0,17,8
107390,0.488,0.024,1.059,0.008,-0.008,-0.008,17,30
107437,0.488,0.024,1.057,-0.031,-0.015,0.008,17,28
107482,0.49,0.024,1.058,-0.046,-0.023,0.031,17,8
107525,0.49,0.025,1.058,-0.008,-0.015,0.023,17,8
107571,0.489,0.025,1.059,-0.008,-0.038,0,17,30
107616,0.49,0.024,1.059,0.015,-0.023,0.015,17,8
107661,0.49,0.024,1.059,0.031,-0.015,0.015,17,8
107760,0.489,0.025,1.058,-0.031,-0.023,-0.008,17,0
107816,0.489,0.025,1.058,0.008,-0.031,-0.023,17,0
107862,0.489,0.024,1.058,0.031,0,-0.015,17,8
107907,0.489,0.024,1.059,0.023,-0.031,0.015,17,8
107952,0.49,0.024,1.06,0.031,-0.015,0.015,17,8
107997,0.49,0.025,1.058,0.015,-0.015,0.008,17,8
108056,0.489,0.025,1.057,0.023,-0.008,0.015,17,0
108101,0.49,0.024,1.059,-0.023,0.015,0,17,8
108157,0.49,0.024,1.059,-0.008,-0.015,-0.015,17,0
108214,0.488,0.024,1.058,0,-0.031,0,17,0
108259,0.489,0.025,1.058,0,-0.023,-0.015,17,8
108304,0.49,0.024,1.057,-0.015,-0.038,0.008,16,8
108351,0.489,0.024,1.057,0,-0.038,0,17,37
108396,0.489,0.025,1.058,0.015,-0.046,0.015,17,8
108442,0.49,0.025,1.059,-0.023,0,0.015,16,30
108489,0.49,0.025,1.059,0,-0.031,0.015,17,30
108537,0.49,0.024,1.059,0.008,-0.008,0.015,17,8
108582,0.489,0.025,1.059,0,-0.015,0.015,17,8
108627,0.49,0.025,1.057,-0.015,-0.023,0,17,8
108684,0.49,0.024,1.058,-0.031,-0.038,-0.008,17,0
108740,0.491,0.025,1.058,-0.031,-0.015,0.015,17,0
108796,0.49,0.025,1.059,-0.031,0.008,0,17,0
108843,0.489,0.025,1.057,0.015,-0.008,0,17,8
108888,0.49,0.025,1.057,0.015,-0.038,0.008,17,8
108933,0.49,0.025,1.058,-0.015,-0.023,-0.008,17,8
108989,0.49,0.025,1.059,0,0,-0.008,17,0
109048,0.489,0.025,1.058,-0.031,0,-0.008,17,0
109105,0.49,0.024,1.057,-0.008,0.015,0.008,17,0
109161,0.49,0.024,1.057,0.023,-0.015,0.023,17,0
109217,0.49,0.025,1.058,0.031,-0.008,0,17,0
109274,0.49,0.024,1.059,0.023,-0.015,0,17,0
109331,0.49,0.025,1.058,0.008,-0.015,0.015,17,0
109387,0.489,0.026,1.057,0,-0.023,0.008,17,0
109444,0.489,0.025,1.057,-0.023,-0.053,0.008,17,0
109500,0.489,0.025,1.057,0,-0.031,0.008,17,0
109556,0.49,0.025,1.059,0.015,-0.023,0.015,17,0
109605,0.49,0.024,1.057,0.008,-0.046,0.008,17,8
109662,0.489,0.025,1.057,-0.038,-0.053,0,17,0
109718,0.489,0.024,1.057,0,-0.076,0,17,0
109763,0.489,0.025,1.058,0.015,-0.031,-0.008,17,8
109809,0.489,0.025,1.057,0.015,-0.015,0.015,17,8
109865,0.489,0.026,1.056,-0.015,-0.023,-0.015,17,0
109922,0.489,0.024,1.057,-0.015,-0.031,-0.008,17,0
109968,0.49,0.025,1.057,0.008,-0.038,-0.015,17,8
110014,0.49,0.025,1.06,0.008,-0.031,-0.008,17,30
110071,0.489,0.025,1.059,0.008,-0.023,0.015,17,0
110120,0.49,0.025,1.058,-0.015,-0.046,0,17,30
110167,0.49,0.025,1.057,0.038,-0.015,0.008,17,8
110214,0.489,0.025,1.058,0.008,-0.008,-0.008,17,30
110270,0.489,0.026,1.058,-0.015,-0.038,-0.008,17,0
110360,0.49,0.026,1.058,-0.031,-0.023,0.015,17,30
110406,0.489,0.026,1.057,0.015,-0.015,-0.023,17,8
110451,0.488,0.026,1.059,0.053,-0.015,0.008,17,8
110498,0.489,0.024,1.058,0.008,-0.008,-0.015,17,30
110545,0.49,0.026,1.059,0.015,-0.008,0.015,17,29
110590,0.488,0.024,1.057,-0.023,0.008,0.008,17,8
110640,0.49,0.026,1.059,-0.031,-0.038,-0.008,17,8
110685,0.49,0.024,1.059,-0.023,-0.008,0,17,8
110731,0.49,0.024,1.058,-0.015,-0.008,0,17,8
110776,0.49,0.025,1.059,0.038,-0.038,0.008,17,8
110822,0.49,0.025,1.058,-0.008,-0.053,-0.008,17,8
110869,0.489,0.025,1.058,0.031,-0.008,-0.015,17,31
110914,0.489,0.025,1.056,0.015,-0.008,-0.008,17,8
110961,0.489,0.024,1.057,-0.015,-0.015,0,17,29
111008,0.489,0.025,1.057,0,-0.015,0.015,17,30
111053,0.489,0.025,1.058,0.008,-0.015,0.008,17,8
111104,0.489,0.025,1.058,-0.008,-0.015,0,17,30
111151,0.49,0.025,1.058,0.023,-0.008,-0.008,17,30
111198,0.489,0.025,1.058,0,-0.015,-0.008,17,31
111254,0.49,0.025,1.058,0.008,0,-0.008,17,0
111301,0.49,0.025,1.057,0.031,-0.008,0.015,17,30
111348,0.489,0.025,1.057,-0.023,0.008,0.023,17,30
111395,0.49,0.024,1.058,-0.008,-0.015,-0.015,17,30
111452,0.489,0.024,1.058,0.023,0.008,0.038,17,0
111499,0.49,0.025,1.058,0,0.015,0.023,17,30
111546,0.49,0.024,1.057,0.023,-0.008,0.015,17,30
111606,0.49,0.025,1.057,0.046,-0.023,0.046,17,0
111653,0.49,0.025,1.057,0.008,-0.023,0.008,17,30
111700,0.489,0.024,1.058,0.038,0,0,17,29
111746,0.489,0.025,1.057,0.015,0,-0.008,16,8
111803,0.489,0.024,1.058,0.015,-0.023,0.008,17,0
111850,0.489,0.025,1.058,-0.008,-0.038,0.015,17,30
111897,0.49,0.025,1.058,0,-0.008,0,17,30
111944,0.49,0.025,1.058,0.008,-0.061,0,17,30
111989,0.489,0.025,1.059,-0.015,-0.038,0,17,8
112035,0.49,0.025,1.059,-0.023,-0.015,-0.008,17,8
112086,0.489,0.025,1.058,0.015,0,-0.046,17,30
112133,0.489,0.024,1.058,0.023,-0.008,-0.008,17,30
112179,0.49,0.024,1.058,-0.015,0,0.008,17,8
112226,0.489,0.025,1.059,-0.023,0.008,-0.015,17,29
112273,0.49,0.025,1.059,-0.008,-0.023,0,17,30
112320,0.49,0.024,1.057,0,-0.008,0,17,29
112366,0.49,0.024,1.058,0,-0.008,-0.008,17,8
112411,0.489,0.026,1.058,-0.023,-0.008,0.015,17,8
112459,0.489,0.025,1.059,0.023,-0.015,0,17,31
112506,0.489,0.025,1.057,0.008,-0.008,-0.023,17,30
112566,0.49,0.025,1.057,0.015,-0.008,0.008,17,0
112614,0.489,0.025,1.058,0,-0.046,-0.015,17,31
112661,0.489,0.025,1.058,0.015,-0.015,0.015,17,31
112708,0.489,0.025,1.058,0.031,-0.015,0.015,17,30
112808,0.489,0.025,1.057,0,-0.046,-0.031,17,0
112856,0.49,0.026,1.058,-0.031,-0.023,-0.008,17,30
112903,0.489,0.025,1.059,-0.008,-0.008,0.038,17,30
112960,0.49,0.026,1.059,-0.015,-0.046,-0.008,17,0
113017,0.489,0.025,1.061,0,-0.015,0,17,0
113064,0.489,0.024,1.06,0,0,0,17,30
113125,0.489,0.025,1.058,-0.038,-0.038,0.015,17,0
113182,0.489,0.025,1.058,0.031,-0.038,-0.008,17,0
113229,0.489,0.024,1.059,0.053,-0.031,-0.015,17,30
113276,0.489,0.024,1.057,-0.008,0.023,0.023,17,30
113334,0.489,0.025,1.059,-0.053,-0.023,0.031,17,0
113391,0.49,0.025,1.059,0.008,-0.046,0.008,17,0
113438,0.49,0.025,1.058,0.008,-0.008,-0.008,17,30
113485,0.491,0.025,1.06,0.015,-0.031,0.038,17,30
113531,0.49,0.025,1.058,0.008,-0.031,0,17,8
113577,0.49,0.025,1.057,0.008,-0.023,0,17,8
113627,0.489,0.024,1.057,0.031,-0.023,0,17,8
113674,0.49,0.024,1.058,0.015,0.015,-0.038,17,29
113726,0.49,0.025,1.059,-0.015,0.008,-0.015,17,8
113771,0.49,0.025,1.058,-0.015,0.015,0.023,17,8
113827,0.488,0.026,1.059,0.008,-0.015,-0.015,17,0
113872,0.489,0.025,1.057,0.008,0,0,17,8
113917,0.489,0.024,1.058,-0.023,0.008,0.008,17,8
113964,0.49,0.026,1.058,-0.061,0.015,0.015,17,37
114011,0.49,0.025,1.059,0.008,0.023,-0.008,17,35
114056,0.49,0.025,1.057,-0.015,-0.008,-0.031,17,8
114104,0.489,0.025,1.058,-0.008,0.008,0.015,17,8
114160,0.49,0.024,1.059,-0.015,-0.023,0.008,17,0
114205,0.49,0.024,1.057,-0.008,-0.046,0.023,17,8
114250,0.49,0.024,1.057,0.023,-0.015,0,17,8
114295,0.49,0.025,1.059,0.008,-0.031,0,17,8
114340,0.489,0.024,1.058,0.008,-0.008,-0.015,17,8
114385,0.49,0.025,1.058,-0.008,-0.069,-0.008,17,8
114430,0.49,0.024,1.058,-0.008,-0.046,0,17,8
114487,0.489,0.024,1.058,-0.038,-0.015,0.008,17,0
114543,0.489,0.023,1.058,0,0.008,0,17,0
114591,0.489,0.025,1.059,-0.031,-0.023,0.023,17,8
114637,0.49,0.024,1.06,-0.023,0,0.038,17,31
114684,0.49,0.024,1.058,0.008,-0.031,0.015,17,37
114729,0.49,0.025,1.056,-0.008,-0.038,0,16,8
114786,0.489,0.025,1.057,0,-0.038,0.008,17,0
114831,0.49,0.025,1.059,0,-0.031,-0.008,17,8
114877,0.49,0.025,1.059,-0.031,0.008,0.015,17,8
114922,0.489,0.025,1.058,-0.031,-0.015,-0.015,17,8
114967,0.49,0.025,1.057,-0.023,-0.008,0.008,17,8
115023,0.49,0.024,1.058,0.023,-0.038,-0.015,17,0
115080,0.489,0.024,1.057,0.031,-0.015,0,17,0
115128,0.49,0.025,1.057,-0.008,-0.031,0,17,8
115173,0.49,0.025,1.059,0.008,-0.038,-0.015,17,8
115220,0.49,0.024,1.059,0,-0.053,0.008,17,30
115319,0.49,0.025,1.057,-0.038,-0.008,0,17,0
115376,0.49,0.024,1.059,0.008,-0.031,-0.015,17,0
115422,0.49,0.025,1.057,0.008,0.015,0.031,17,8
115467,0.489,0.025,1.057,-0.023,0,-0.015,17,8
115523,0.489,0.024,1.057,0.008,-0.031,0,17,0
115568,0.489,0.026,1.059,0,-0.038,-0.008,17,8
115614,0.49,0.025,1.057,0.008,-0.031,0,17,8
115662,0.49,0.024,1.059,0.038,-0.046,0,17,8
115707,0.49,0.025,1.058,0.031,-0.046,0.008,17,8
115764,0.489,0.025,1.058,0.023,-0.031,-0.015,17,0
115810,0.489,0.025,1.057,-0.008,-0.031,-0.023,17,8
115855,0.49,0.025,1.057,0.015,-0.031,0,17,8
115900,0.49,0.024,1.058,0,-0.015,-0.023,17,8
115946,0.49,0.025,1.058,0,-0.008,0,17,8
115991,0.49,0.025,1.059,0.008,-0.023,0.015,17,8
116036,0.489,0.025,1.059,0.015,-0.023,-0.015,17,8
116082,0.489,0.025,1.058,0.015,-0.031,0.031,17,8
116130,0.49,0.025,1.058,0.008,-0.015,0.038,17,8
116177,0.489,0.024,1.057,-0.023,-0.008,0.008,17,37
116225,0.49,0.025,1.058,-0.008,-0.023,0,16,35
116272,0.49,0.025,1.058,-0.008,-0.031,-0.008,17,36
116317,0.49,0.025,1.058,0,-0.008,0.008,17,8
116363,0.49,0.025,1.057,0,-0.038,0.008,17,8
116408,0.49,0.025,1.057,0.038,-0.023,0.008,17,8
116455,0.49,0.025,1.057,0.008,-0.023,-0.015,17,35
116502,0.49,0.024,1.057,0.008,-0.015,0.008,17,32
116547,0.49,0.024,1.057,0.038,-0.023,0,17,8
116596,0.489,0.025,1.058,-0.008,-0.008,-0.015,17,8
116653,0.489,0.025,1.059,-0.015,-0.023,0.008,17,0
116698,0.489,0.025,1.057,-0.015,-0.015,0.038,17,8
116744,0.489,0.025,1.058,0,-0.038,0.023,17,8
116800,0.49,0.024,1.058,-0.031,-0.023,-0.008,17,0
116847,0.489,0.026,1.058,-0.023,-0.031,0.008,17,37
116893,0.49,0.025,1.059,0,-0.023,-0.015,17,8
116950,0.49,0.025,1.059,0.023,-0.008,0,17,0
116997,0.49,0.024,1.058,0,-0.023,0.015,17,37
117043,0.489,0.025,1.058,0.023,-0.015,0,17,8
117092,0.489,0.026,1.056,-0.015,0.008,0,17,8
117139,0.489,0.024,1.056,-0.031,-0.008,-0.008,17,36
117186,0.489,0.025,1.057,0.008,0,0.023,16,36
117231,0.489,0.024,1.056,0.031,-0.015,0.023,17,8
117277,0.49,0.023,1.057,0.038,-0.053,0.008,17,8
117324,0.489,0.024,1.059,0.008,-0.031,0.008,17,37
117371,0.49,0.025,1.058,0.031,-0.038,0.015,17,36
117419,0.49,0.026,1.057,0,-0.038,0.023,17,36
117467,0.489,0.023,1.058,0.015,-0.061,0.015,17,37
117514,0.49,0.023,1.059,0,-0.076,0.008,17,36
117573,0.49,0.026,1.059,0.031,-0.008,0.031,17,0
117630,0.488,0.025,1.058,0.008,-0.053,0,17,0
117687,0.49,0.024,1.058,0,-0.053,0.008,17,0
117776,0.491,0.026,1.057,0.008,-0.076,0,17,8
117822,0.489,0.024,1.058,0.008,0.015,-0.015,17,8
117868,0.489,0.024,1.059,0,-0.031,0,17,8
117913,0.489,0.026,1.057,0,-0.023,-0.008,17,8
117959,0.49,0.026,1.058,0.008,-0.031,0,17,8
118016,0.49,0.025,1.058,0.031,-0.015,0.015,17,0
118073,0.489,0.024,1.059,-0.046,-0.061,-0.015,16,0
118133,0.488,0.026,1.058,0.008,0,0.008,17,0
118190,0.49,0.026,1.058,0,-0.031,0,17,0
118247,0.49,0.024,1.057,0.023,0,0.008,17,0
118303,0.49,0.025,1.059,0.015,0,-0.008,17,0
118361,0.49,0.025,1.059,0.015,-0.015,-0.023,17,0
118417,0.49,0.024,1.06,0.015,-0.031,0.015,17,0
118474,0.49,0.024,1.057,0.008,-0.008,-0.015,17,0
118532,0.491,0.026,1.057,-0.046,0,-0.015,17,0
118588,0.488,0.025,1.058,-0.015,-0.069,0,17,0
118645,0.493,0.025,1.058,0,-0.038,0,17,0
118706,0.488,0.024,1.057,-0.008,-0.031,-0.015,17,0
118763,0.491,0.026,1.058,0,-0.031,0,17,0
118819,0.49,0.026,1.057,0.023,-0.008,-0.008,17,0
118865,0.49,0.024,1.059,0.008,-0.046,0.015,17,8
118923,0.491,0.024,1.06,-0.008,-0.008,-0.008,17,0
118979,0.488,0.025,1.059,0,-0.076,-0.038,17,0
119036,0.492,0.023,1.058,-0.015,0.038,-0.008,17,0
119094,0.488,0.023,1.058,0,-0.031,-0.008,17,0
119150,0.491,0.025,1.058,0.015,0.015,0,17,0
119207,0.489,0.025,1.057,0.008,-0.031,0.008,17,0
119268,0.49,0.024,1.056,-0.008,-0.008,0.023,17,0
119325,0.49,0.024,1.057,-0.008,0.008,0,17,0
119383,0.49,0.026,1.056,0.023,0.015,-0.008,17,0
119439,0.49,0.025,1.058,-0.008,-0.015,0.031,17,0
119485,0.49,0.025,1.058,0.008,-0.023,-0.008,17,8
119542,0.489,0.026,1.058,0.015,0.008,-0.023,17,0
119600,0.49,0.024,1.058,-0.008,-0.046,0.015,17,0
119646,0.488,0.024,1.057,0,-0.031,-0.008,17,8
119692,0.49,0.025,1.056,-0.023,-0.046,0,17,8
119738,0.49,0.024,1.058,0.008,0.015,0,17,8
119794,0.489,0.024,1.058,0.046,-0.008,-0.008,17,0
119844,0.49,0.025,1.057,0.015,-0.031,0,17,8
119890,0.49,0.024,1.058,0,-0.038,-0.008,17,8
119937,0.489,0.025,1.058,-0.015,-0.031,0,17,8
119983,0.49,0.025,1.059,0,0.008,-0.008,17,8
120028,0.49,0.023,1.058,0.015,0.023,-0.031,17,8
120074,0.49,0.024,1.057,0,-0.015,-0.023,17,8
120120,0.489,0.024,1.058,-0.015,-0.023,0.023,17,8
120173,0.489,0.025,1.057,0,-0.023,0.008,17,8
120217,0.491,0.026,1.059,-0.023,0.015,-0.008,17,8
120273,0.49,0.024,1.058,-0.023,0,0.008,17,0
120322,0.489,0.025,1.057,0.008,-0.031,-0.023,17,8
120378,0.49,0.025,1.058,-0.023,-0.023,-0.015,17,0
120468,0.49,0.024,1.058,0.015,0.008,0,17,36
120524,0.489,0.026,1.058,-0.015,-0.046,0,17,0
120581,0.49,0.025,1.059,0.008,-0.046,-0.023,17,0
120626,0.49,0.023,1.058,0.015,-0.008,0,17,8
120682,0.49,0.024,1.057,0,-0.015,-0.008,17,0
120727,0.49,0.026,1.058,0.008,-0.023,0.015,17,8
120783,0.491,0.023,1.057,-0.031,-0.031,-0.008,17,0
120828,0.49,0.025,1.057,-0.038,-0.008,0,17,8
120887,0.49,0.026,1.057,0.008,-0.008,-0.008,17,0
120933,0.488,0.024,1.058,-0.038,-0.023,0,17,8
120989,0.49,0.024,1.058,0.015,-0.015,-0.015,17,0
121046,0.49,0.025,1.058,-0.008,0.008,0.023,17,0
121101,0.489,0.025,1.058,-0.023,-0.008,0,17,0
121157,0.489,0.025,1.059,-0.015,-0.038,0.008,17,0
121214,0.49,0.024,1.057,0.015,-0.023,0.008,17,0
121271,0.49,0.025,1.056,0.038,-0.031,0.008,17,0
121327,0.488,0.025,1.058,0.008,-0.061,0.008,17,0
121383,0.49,0.025,1.057,-0.008,-0.015,0,17,0
121442,0.489,0.025,1.058,-0.008,-0.015,-0.008,17,0
121488,0.49,0.025,1.058,-0.038,0,-0.008,17,8
121533,0.489,0.026,1.059,-0.008,-0.008,-0.008,17,8
121578,0.489,0.024,1.058,0,-0.008,-0.031,17,8
121623,0.49,0.024,1.058,0.038,0.015,-0.008,17,8
121669,0.489,0.026,1.058,0,-0.015,-0.008,17,8
121714,0.489,0.025,1.058,0.015,0.015,-0.015,17,8
121759,0.49,0.025,1.058,-0.023,-0.031,0.015,17,8
121804,0.489,0.025,1.058,-0.023,0.031,0.038,17,8
121851,0.49,0.026,1.057,-0.015,0.069,0,17,37
121902,0.489,0.025,1.058,-0.038,0.069,-0.023,17,36
121949,0.49,0.025,1.058,-0.031,0.031,0,17,37
121994,0.489,0.026,1.058,0,-0.008,-0.008,17,8
122039,0.49,0.025,1.058,0.008,0,0,17,8
122095,0.489,0.025,1.059,0,-0.015,0.023,17,0
122140,0.489,0.025,1.058,0,-0.023,0.015,17,8
122196,0.49,0.026,1.06,-0.015,-0.023,0.008,17,0
122254,0.49,0.025,1.057,0.015,-0.015,-0.038,17,0
122310,0.489,0.024,1.059,0,-0.023,-0.015,17,0
122366,0.489,0.026,1.058,0.008,-0.008,-0.015,17,0
122415,0.489,0.025,1.058,-0.008,-0.008,-0.015,17,8
122471,0.489,0.024,1.058,0.008,-0.038,-0.008,17,0
122528,0.489,0.025,1.057,0.023,0,-0.008,17,0
122575,0.489,0.025,1.058,0.015,0.015,0.023,17,34
122620,0.489,0.024,1.057,0,-0.008,-0.008,17,8
122677,0.49,0.024,1.057,0.008,0,0.015,17,0
122733,0.49,0.025,1.057,0,-0.031,0.031,17,0
122779,0.489,0.024,1.057,-0.015,-0.031,0.015,17,8
122824,0.489,0.025,1.057,0.008,-0.008,-0.023,17,8
122869,0.489,0.026,1.058,0.008,-0.023,-0.015,17,8
122930,0.489,0.024,1.058,0.031,-0.023,-0.008,17,0
122976,0.489,0.024,1.059,0.008,-0.023,-0.023,17,29
123065,0.49,0.024,1.059,-0.023,-0.053,0.015,17,8
123111,0.489,0.024,1.059,-0.015,-0.046,-0.031,17,8
123156,0.489,0.025,1.059,0.008,-0.031,0.015,17,8
123212,0.491,0.026,1.059,0.061,-0.038,-0.015,17,0
123258,0.49,0.024,1.059,-0.023,-0.015,-0.038,17,8
123304,0.489,0.025,1.058,0,0.015,-0.008,17,8
123350,0.489,0.025,1.057,-0.008,0.015,0,17,8
123395,0.49,0.025,1.058,-0.008,0.015,-0.008,17,8
123445,0.49,0.024,1.058,0.015,0,-0.031,17,29
123491,0.49,0.024,1.057,-0.015,-0.008,0.008,17,8
123537,0.49,0.024,1.058,0.008,-0.023,-0.008,17,30
123583,0.49,0.024,1.057,-0.023,-0.061,-0.008,17,8
123630,0.49,0.023,1.057,-0.015,-0.038,0.031,17,30
123675,0.489,0.025,1.058,0,-0.031,-0.008,17,8
123731,0.489,0.024,1.059,0,-0.015,-0.015,17,0
123778,0.489,0.024,1.059,0.008,-0.046,0.015,17,8
123834,0.49,0.025,1.06,-0.031,0,-0.008,17,0
123880,0.49,0.026,1.059,-0.023,-0.038,-0.008,17,8
123939,0.49,0.024,1.059,0.015,0,-0.008,17,0
123985,0.489,0.024,1.059,-0.023,-0.023,0,17,8
124042,0.489,0.025,1.058,0.008,-0.008,-0.015,17,0
124099,0.49,0.023,1.058,0.023,-0.015,-0.008,17,0
124145,0.49,0.024,1.059,-0.008,0,0.008,17,8
124190,0.49,0.025,1.057,0.008,-0.008,-0.008,17,8
124237,0.49,0.025,1.059,-0.015,-0.023,-0.008,17,31
124284,0.489,0.024,1.058,-0.053,-0.023,0.038,17,30
124332,0.489,0.024,1.058,-0.015,-0.031,-0.008,17,30
124379,0.489,0.025,1.058,-0.015,-0.015,-0.008,17,30
124429,0.489,0.025,1.057,-0.015,-0.069,0.031,17,30
124476,0.49,0.024,1.058,-0.015,-0.023,-0.008,17,30
124523,0.49,0.025,1.058,-0.015,0.015,-0.015,17,30
124569,0.49,0.025,1.059,-0.023,-0.015,0,17,8
124616,0.489,0.025,1.058,-0.015,-0.023,0.031,17,31
124663,0.489,0.026,1.058,0,-0.046,0.015,17,30
124720,0.489,0.026,1.059,-0.015,-0.046,-0.008,17,0
124766,0.489,0.024,1.058,-0.031,-0.015,-0.008,17,8
124822,0.49,0.024,1.057,0.008,-0.038,0.023,17,0
124868,0.49,0.025,1.057,-0.015,-0.046,0.038,17,8
124917,0.489,0.024,1.057,-0.023,-0.038,0.023,17,8
124963,0.489,0.025,1.057,-0.015,0.008,0.008,17,8
125020,0.49,0.025,1.058,-0.023,-0.008,0,17,0
125077,0.49,0.025,1.058,0,-0.038,0.008,17,0
125123,0.49,0.024,1.058,0.031,-0.031,0,17,8
125169,0.489,0.024,1.059,0.031,-0.015,0.008,17,8
125214,0.489,0.024,1.059,0.015,-0.038,-0.008,17,8
125260,0.49,0.025,1.058,0.008,-0.031,-0.023,17,8
125307,0.489,0.025,1.058,-0.008,-0.008,0.015,17,33
125365,0.489,0.024,1.058,-0.008,0,0.008,17,0
125414,0.488,0.024,1.058,-0.008,-0.008,0.023,17,8
125461,0.489,0.026,1.057,0.031,-0.023,0.015,17,37
125561,0.49,0.025,1.058,0.038,-0.023,-0.008,17,0
125609,0.489,0.025,1.057,0.008,-0.023,-0.008,17,31
125656,0.489,0.025,1.058,-0.023,-0.031,0.008,17,8
125701,0.489,0.026,1.058,-0.053,-0.038,-0.015,17,8
125747,0.49,0.025,1.058,-0.023,-0.015,-0.008,17,8
125793,0.489,0.025,1.059,0.008,0,0.008,16,8
125839,0.489,0.025,1.058,0.038,-0.023,0.008,17,8
125896,0.489,0.026,1.057,0.015,-0.015,-0.015,17,0
125957,0.489,0.026,1.058,0,-0.053,-0.008,17,0
126003,0.49,0.025,1.058,0,0.015,0,17,8
126049,0.49,0.024,1.058,0.023,-0.023,-0.015,17,8
126105,0.49,0.025,1.058,0.015,0,0.008,17,0
126162,0.489,0.025,1.057,0.015,-0.015,-0.023,17,0
126209,0.489,0.025,1.058,0.023,0.008,0.015,17,8
126255,0.489,0.024,1.057,0.015,-0.038,0,17,8
126312,0.488,0.025,1.057,0.023,-0.031,0.008,17,0
126368,0.49,0.025,1.057,0,0,0,17,0
126414,0.489,0.025,1.058,0,-0.031,0,17,8
126464,0.489,0.025,1.058,-0.008,0,-0.023,17,8
126510,0.489,0.025,1.059,0.008,-0.015,0.008,17,8
126556,0.49,0.024,1.059,0,-0.031,-0.008,17,8
126602,0.489,0.024,1.059,0.015,-0.023,0.015,17,8
126654,0.49,0.025,1.057,0,-0.023,0,17,8
126699,0.489,0.025,1.057,-0.023,0.008,0.023,17,8
126744,0.489,0.025,1.058,-0.015,-0.015,0.008,17,8
126789,0.489,0.024,1.059,0,0,-0.015,17,8
126834,0.489,0.025,1.058,-0.008,-0.015,-0.008,17,8
126879,0.49,0.025,1.058,-0.038,-0.023,0.008,17,8
126924,0.489,0.024,1.058,0.008,-0.015,-0.015,17,8
126973,0.488,0.024,1.057,0.023,-0.031,0.015,17,30
127020,0.488,0.025,1.058,-0.031,-0.046,0.015,17,29
127065,0.49,0.024,1.058,-0.015,-0.031,0.031,17,8
127110,0.49,0.025,1.057,-0.031,-0.031,-0.015,17,8
127155,0.49,0.024,1.058,0.008,-0.038,-0.031,17,8
127201,0.489,0.024,1.059,0,-0.008,-0.015,17,8
127246,0.488,0.025,1.059,0.008,-0.031,-0.015,17,8
127291,0.49,0.026,1.059,0.008,-0.008,-0.008,17,8
127336,0.489,0.024,1.058,-0.015,-0.015,-0.015,17,8
127381,0.49,0.024,1.058,-0.015,0,-0.015,17,8
127429,0.489,0.025,1.058,-0.038,-0.038,0,17,8
127474,0.489,0.025,1.057,-0.015,-0.038,-0.008,17,8
127519,0.489,0.025,1.059,-0.015,-0.038,-0.008,17,8
127564,0.489,0.025,1.059,-0.023,-0.053,0,17,8
127610,0.489,0.025,1.058,-0.031,-0.031,-0.031,17,8
127655,0.489,0.025,1.059,0,0,-0.023,17,8
127700,0.489,0.025,1.057,0,-0.023,0.008,17,8
127746,0.489,0.025,1.057,0,-0.031,-0.015,17,8
127791,0.489,0.025,1.057,0.015,-0.046,-0.008,17,8
127836,0.488,0.025,1.058,0,-0.031,-0.008,17,8
127884,0.489,0.025,1.057,-0.008,-0.023,-0.008,17,8
127973,0.489,0.025,1.059,-0.031,0.008,-0.015,17,8
128020,0.489,0.025,1.058,-0.023,-0.008,0.031,17,30
128065,0.489,0.025,1.058,0,-0.008,0.015,17,8
128110,0.488,0.025,1.057,0.008,-0.023,-0.008,17,8
128155,0.489,0.025,1.058,-0.015,-0.008,0,17,8
128202,0.489,0.025,1.058,0.023,-0.008,-0.015,17,30
128259,0.489,0.024,1.059,0.008,-0.008,-0.008,17,0
128315,0.49,0.025,1.058,-0.008,-0.023,-0.023,17,0
128360,0.489,0.025,1.059,0.015,0,-0.031,17,8
128408,0.489,0.025,1.059,0.008,-0.015,-0.015,17,8
128464,0.489,0.026,1.058,0.023,-0.023,-0.008,17,0
128522,0.49,0.024,1.058,0.015,-0.023,0.015,17,0
128568,0.489,0.024,1.059,-0.008,-0.023,-0.008,17,31
128624,0.489,0.025,1.057,0,-0.015,0.008,17,0
128681,0.49,0.024,1.058,-0.031,0,0,17,0
128738,0.489,0.024,1.059,-0.008,0.008,0.015,17,0
128794,0.489,0.025,1.058,0,0,0.015,17,0
128850,0.49,0.025,1.058,0.008,0.015,-0.023,17,0
128907,0.49,0.025,1.057,-0.008,-0.008,0.015,17,0
128957,0.49,0.024,1.057,-0.008,-0.046,-0.023,17,31
129013,0.49,0.024,1.056,0.008,-0.015,-0.008,17,0
129070,0.49,0.024,1.059,0,-0.038,0.008,17,0
129127,0.49,0.024,1.058,-0.023,-0.008,-0.008,17,0
129183,0.489,0.025,1.058,-0.023,0.008,0.038,17,0
129240,0.489,0.026,1.059,0,-0.023,-0.008,17,0
129286,0.489,0.025,1.059,-0.015,-0.015,0,17,8
129331,0.49,0.025,1.057,-0.008,0,0,17,8
129376,0.49,0.024,1.057,-0.023,0.008,0.008,17,8
129422,0.489,0.024,1.058,-0.053,-0.008,0.008,17,8
129470,0.49,0.025,1.058,0,0.015,-0.008,17,8
129515,0.49,0.026,1.058,0.008,0,-0.023,17,8
129561,0.489,0.025,1.059,0.015,-0.023,0.008,17,8
129606,0.489,0.025,1.057,-0.008,-0.008,-0.008,17,8
129652,0.49,0.025,1.057,-0.023,-0.023,0,17,8
129709,0.489,0.025,1.058,0.015,-0.015,-0.023,17,0
129755,0.489,0.026,1.057,-0.015,-0.023,-0.008,17,8
129800,0.488,0.025,1.058,0.031,-0.053,0.008,17,8
129846,0.489,0.025,1.058,0.015,-0.038,0,17,8
129891,0.49,0.025,1.057,-0.015,-0.023,0.008,17,8
129941,0.49,0.024,1.057,0.008,-0.015,-0.015,17,35
129987,0.489,0.024,1.059,-0.015,-0.046,0.015,17,8
130034,0.49,0.024,1.057,0,-0.046,0.008,17,36
130091,0.491,0.025,1.058,-0.008,-0.023,0,17,0
130137,0.49,0.025,1.058,-0.008,-0.023,0.008,17,8
130184,0.489,0.025,1.059,0.008,-0.031,0,17,33
130240,0.489,0.024,1.059,-0.031,-0.031,-0.023,17,0
130286,0.489,0.026,1.058,0.008,-0.046,0.008,17,8
130333,0.49,0.025,1.058,0.008,-0.015,0,17,38
130390,0.49,0.025,1.058,0.015,-0.038,0,17,0
130442,0.49,0.024,1.057,-0.008,-0.046,0.015,17,58
130542,0.49,0.025,1.057,0.015,-0.008,-0.008,17,0
130589,0.49,0.025,1.058,0.008,-0.023,0.008,17,41
130637,0.49,0.025,1.058,0.008,-0.023,0.015,17,40
130694,0.489,0.025,1.057,0.023,-0.008,-0.008,17,0
130740,0.489,0.024,1.057,0.015,-0.015,0,17,8
130796,0.49,0.025,1.058,0,-0.031,-0.008,17,0
130853,0.49,0.026,1.059,0.031,-0.015,-0.008,17,0
130900,0.49,0.024,1.057,0.023,-0.084,0.015,17,43
130949,0.49,0.026,1.057,0,-0.076,-0.008,17,42
131000,0.49,0.025,1.058,-0.008,-0.046,0.015,17,43
131047,0.488,0.025,1.058,-0.015,-0.092,0,17,43
131093,0.491,0.023,1.057,0.015,-0.115,0.023,17,8
131139,0.49,0.023,1.057,0,-0.069,0,17,8
131185,0.49,0.026,1.057,0.015,-0.076,0,17,8
131230,0.49,0.024,1.059,-0.008,-0.008,0.008,16,8
131276,0.489,0.025,1.058,0.008,-0.015,0.015,17,8
131322,0.49,0.024,1.057,0,-0.008,-0.015,17,8
131368,0.491,0.025,1.057,0.015,-0.023,-0.008,17,8
131425,0.489,0.023,1.057,-0.008,-0.053,0.008,17,45
131475,0.491,0.024,1.057,0.015,-0.031,0,17,43
131522,0.489,0.026,1.056,0.023,-0.038,-0.008,17,45
131569,0.49,0.024,1.056,0.015,-0.046,-0.008,17,45
131616,0.49,0.023,1.058,0.023,-0.023,-0.031,17,44
131663,0.49,0.026,1.059,0.046,-0.008,-0.015,17,44
131710,0.49,0.027,1.059,0,0.008,0.038,17,44
131758,0.489,0.024,1.058,-0.015,-0.015,0.015,17,44
131805,0.49,0.023,1.058,0.023,-0.008,0.015,17,44
131852,0.49,0.025,1.058,0.015,-0.031,0.015,17,43
131899,0.49,0.025,1.058,-0.008,-0.015,0.023,17,43
131949,0.49,0.024,1.059,0.015,0.015,0.015,17,43
131994,0.49,0.025,1.059,-0.023,-0.008,0.015,17,8
132041,0.49,0.026,1.057,0.023,-0.023,0.015,17,43
132088,0.49,0.024,1.057,0.008,-0.015,0.008,17,43
132133,0.489,0.023,1.058,0.023,-0.008,0,17,8
132180,0.49,0.024,1.058,0.023,-0.008,-0.023,17,44
132228,0.49,0.026,1.058,0.015,0.015,-0.008,17,46
132276,0.49,0.025,1.057,0.008,-0.015,-0.015,17,45
132323,0.49,0.025,1.058,0.008,0.008,-0.008,17,45
132370,0.489,0.025,1.058,-0.031,-0.015,-0.015,17,45
132429,0.491,0.024,1.059,0.031,-0.015,-0.031,17,0
132476,0.49,0.023,1.058,0.008,-0.008,-0.008,17,45
132525,0.49,0.025,1.058,-0.015,-0.038,0.023,17,56
132572,0.49,0.025,1.058,0.008,-0.008,0.031,17,46
132620,0.488,0.025,1.059,0,-0.046,0.008,17,45
132667,0.491,0.024,1.058,-0.015,-0.015,0.023,17,45
132714,0.49,0.025,1.058,0,0.023,0,17,45
132761,0.49,0.026,1.057,0,-0.008,-0.008,17,45
132809,0.49,0.025,1.058,-0.015,-0.023,0.008,17,45
132856,0.489,0.024,1.057,0,-0.076,-0.015,17,43
132907,0.49,0.024,1.058,-0.023,-0.046,0,17,43
132997,0.49,0.024,1.058,-0.008,-0.015,0.015,17,43
133043,0.49,0.023,1.057,-0.008,-0.031,0,17,8
133090,0.492,0.025,1.058,0.038,0.008,0.015,17,43
133137,0.488,0.026,1.057,0.031,-0.031,-0.008,17,43
133193,0.49,0.024,1.058,-0.023,-0.008,0,17,0
133239,0.488,0.025,1.057,0.031,0.008,-0.031,17,8
133284,0.491,0.025,1.057,0.023,-0.015,-0.008,17,8
133331,0.49,0.025,1.058,0.008,0,-0.015,17,44
