Timestamp(ms),AccelX(g),AccelY(g),AccelZ(g),GyroX(deg/s),GyroY(deg/s),GyroZ(deg/s),DistanceLeft(cm),DistanceRight(cm)
115509,-0.270,0.193,0.936,4.939,-2.351,-0.061,0.0,0.0
115601,-0.265,0.171,0.939,2.405,-0.023,0.809,0.0,0.0
115693,-0.266,0.180,0.932,1.198,0.962,-0.664,0.0,0.0
115785,-0.269,0.160,0.939,5.076,2.992,-2.191,0.0,0.0
115877,-0.278,0.192,0.907,9.328,4.962,-3.786,0.0,0.0
115970,-0.298,0.114,0.927,18.008,9.435,-2.847,0.0,0.0
116062,-0.292,0.085,0.822,39.351,25.893,-14.244,0.0,0.0
116154,-0.385,0.243,0.594,180.908,68.145,-30.985,0.0,0.0
116249,-0.599,0.378,0.579,211.870,75.740,-63.809,0.0,0.0
116342,-0.789,0.842,0.240,184.053,27.099,-52.672,0.0,0.0
116430,-0.653,0.911,0.194,101.573,-11.427,-49.183,0.0,127.0
116516,-0.580,0.671,0.254,75.550,1.832,-67.939,0.0,88.0
116602,-0.832,0.815,0.013,44.298,25.115,-75.282,0.0,83.0
116688,-1.115,0.150,0.217,18.718,-60.931,-56.412,0.0,80.0
116774,-0.783,0.394,-0.264,250.130,-90.206,-0.336,0.0,77.0
116860,-1.235,0.827,-1.113,-250.137,127.191,-117.313,0.0,81.0
116950,-0.868,-1.598,0.121,250.130,-102.824,63.939,0.0,79.0
117036,-1.108,1.912,-1.150,-250.137,100.603,-77.015,0.0,80.0
117122,-0.591,-0.807,-0.148,250.130,-68.794,114.328,0.0,79.0
117210,-1.519,-0.222,-1.211,-250.137,47.855,-113.008,0.0,121.0
117296,0.673,1.284,-1.724,250.130,16.550,136.076,0.0,81.0
117385,-1.339,-2.000,0.534,-250.137,-47.168,-196.351,0.0,123.0
117471,0.628,2.000,-1.403,250.130,164.168,23.359,0.0,83.0
117559,-1.210,-2.000,1.647,-30.244,-113.550,-175.962,0.0,123.0
117646,-1.364,2.000,-1.487,-117.664,149.763,22.718,0.0,84.0
117735,-0.795,-1.881,1.104,250.130,-141.954,-43.634,0.0,86.0
117822,-1.738,1.842,-0.485,-250.137,136.344,36.328,0.0,88.0
117908,-0.199,-0.293,0.331,250.130,-114.786,-14.359,0.0,85.0
117997,-2.000,1.106,-0.792,-250.137,34.313,-40.382,0.0,122.0
118083,0.661,1.244,-0.336,250.130,106.313,54.565,0.0,86.0
118170,-1.533,-0.695,0.583,-130.450,-241.267,-112.260,0.0,98.0
118257,-0.659,1.574,-0.766,-122.748,236.260,35.740,0.0,89.0
118346,-0.650,-1.715,1.355,53.099,-202.595,-116.000,0.0,122.0
118437,-1.540,1.298,-0.137,-155.008,142.443,46.206,0.0,122.0
118524,0.385,0.203,0.412,250.130,-55.275,-7.718,0.0,92.0
118612,-1.968,-0.023,-0.303,-250.137,-59.450,-28.542,0.0,123.0
118701,0.171,1.601,-0.342,163.344,121.656,63.344,0.0,97.0
118789,-0.937,-1.587,1.270,-31.176,-173.053,-135.519,0.0,123.0
118878,-1.228,1.512,-0.545,-171.435,147.580,46.031,0.0,123.0
118966,0.001,-0.385,0.916,250.130,-41.931,-50.588,0.0,121.0
119055,-1.456,0.234,0.209,-250.137,-32.122,-44.427,0.0,122.0
119147,-0.875,0.800,-0.106,-22.084,117.725,31.107,0.0,121.0
119235,-0.603,-0.637,1.051,224.710,-108.397,-35.420,0.0,120.0
119324,-1.580,0.637,0.127,-250.137,19.244,12.115,0.0,121.0
119412,0.055,0.628,0.156,165.359,81.389,43.756,0.0,119.0
119500,-1.071,-0.891,0.968,-2.809,-134.206,-81.344,0.0,120.0
119589,-1.311,0.992,-0.243,-190.695,115.870,35.366,0.0,120.0
119676,-0.177,0.008,0.719,250.130,-14.641,-3.595,0.0,92.0
119764,-1.584,-0.006,0.110,-250.137,-9.038,-10.267,0.0,120.0
119853,-0.289,1.168,0.046,73.130,153.893,46.267,0.0,96.0
119944,-0.654,-1.237,1.006,217.466,-124.076,-78.374,0.0,118.0
120032,-1.771,1.110,-0.243,-250.137,30.015,3.779,0.0,120.0
120121,0.226,0.883,0.005,248.886,78.321,81.649,0.0,118.0
120205,-0.920,-1.551,1.005,-6.748,-128.931,-105.275,116.0,120.0
120293,-1.417,1.654,-0.517,-223.969,97.504,58.137,0.0,122.0
120382,-0.119,0.073,0.621,250.130,-25.977,7.763,0.0,120.0
120466,-1.197,-0.550,0.719,-250.137,-46.496,-74.053,115.0,124.0
120555,-0.278,1.473,-0.299,125.008,117.038,64.145,0.0,121.0
120647,-0.820,-1.613,1.141,223.145,-103.573,-60.092,0.0,123.0
120736,-1.375,0.996,-0.120,-250.137,11.053,-15.206,0.0,124.0
120825,-0.058,1.237,0.031,130.740,119.878,92.611,0.0,123.0
120909,-0.781,-1.848,1.278,137.221,-100.351,-66.015,114.0,126.0
120993,-1.183,1.328,-0.241,-250.137,46.847,-13.382,115.0,128.0
121082,0.219,0.495,0.080,250.130,22.603,89.328,0.0,126.0
121167,-1.198,-2.000,1.116,-243.939,-62.725,-136.847,110.0,135.0
121256,-0.955,2.000,-0.909,-56.496,103.031,82.008,0.0,129.0
121345,-0.647,-0.940,0.719,250.130,-62.473,3.924,113.0,131.0
121428,-1.049,0.115,0.370,-250.137,10.847,-100.886,111.0,135.0
121518,-0.376,1.943,-0.627,210.901,82.344,101.809,0.0,127.0
121603,-1.046,-1.972,1.358,250.130,-115.008,-23.893,112.0,132.0
121692,-1.122,1.590,-0.571,-250.137,87.244,-31.519,0.0,131.0
121781,-0.079,0.318,-0.014,250.130,17.687,86.679,0.0,125.0
121866,-1.187,-2.000,1.031,-250.137,-39.389,-155.313,109.0,136.0
121955,-0.353,2.000,-0.981,155.313,92.794,88.802,0.0,125.0
122042,-0.945,-2.000,1.384,164.275,-91.237,-78.740,110.0,127.0
122131,-1.335,1.912,-0.442,-209.191,69.328,28.496,0.0,126.0
122220,-0.137,-0.207,0.639,250.130,-1.374,16.282,0.0,123.0
122305,-1.026,-0.567,0.732,-250.137,-41.664,-114.924,112.0,126.0
122394,-0.311,2.000,-0.715,144.649,86.244,109.641,0.0,124.0
122478,-0.950,-2.000,1.503,160.496,-103.221,-43.794,113.0,127.0
122567,-1.212,2.000,-0.476,-250.137,68.038,-8.511,0.0,127.0
122657,-0.288,-0.225,0.478,250.130,-3.221,37.069,0.0,125.0
122744,-0.957,-0.570,0.737,-250.137,-25.817,-114.771,113.0,184.0
122838,-0.849,2.000,-0.763,-35.954,96.908,47.435,0.0,126.0
122921,-0.841,-1.775,1.163,250.130,-91.344,-6.573,112.0,127.0
123011,-0.920,1.417,-0.064,-250.137,28.649,-15.153,0.0,128.0
123101,0.005,0.336,0.430,250.130,60.809,59.893,0.0,126.0
123185,-1.417,-1.532,0.952,-115.534,-97.656,-127.489,113.0,128.0
123274,-1.168,2.000,-0.603,-78.794,78.160,87.099,0.0,128.0
123364,-0.582,-1.058,0.750,250.130,-81.405,19.137,0.0,126.0
123448,-1.019,-0.320,0.398,-250.137,23.084,-147.298,111.0,130.0
123541,0.108,2.000,-1.162,250.130,71.855,120.634,0.0,127.0
123625,-1.105,-2.000,1.778,184.153,-87.038,-15.786,111.0,129.0
123715,-0.880,2.000,-0.654,-250.137,86.962,-27.954,0.0,130.0
123804,-0.409,-0.472,0.189,250.130,-25.214,66.733,0.0,127.0
123894,-1.152,-1.082,0.562,-250.137,-12.641,-142.000,0.0,131.0
123983,-0.720,2.000,-1.055,30.359,87.847,56.779,0.0,127.0
124072,-0.998,-1.818,1.136,250.130,-72.038,-25.412,0.0,126.0
124163,-0.991,1.071,-0.190,-250.137,42.084,-66.336,0.0,127.0
124255,0.049,1.116,-0.219,250.130,84.511,93.389,0.0,123.0
124339,-1.152,-1.708,0.899,-198.740,-49.733,-127.527,110.0,126.0
124429,-0.956,1.076,-0.415,128.038,106.344,59.901,0.0,123.0
124518,-0.653,-0.485,0.792,104.504,-86.397,-78.588,0.0,121.0
124608,-1.480,0.676,0.041,-250.137,34.290,-17.221,0.0,122.0
124697,-0.294,0.374,0.284,250.130,42.321,53.718,0.0,120.0
124781,-1.029,-0.692,0.894,-75.405,-95.565,-75.985,115.0,121.0
124871,-1.237,1.225,-0.298,-54.450,73.366,71.168,0.0,121.0
124963,-0.587,-0.442,0.635,245.008,-72.458,-9.702,0.0,120.0
125053,-1.106,0.193,0.441,-250.137,-16.435,-52.672,0.0,122.0
125143,-0.097,1.090,-0.096,250.130,70.351,87.916,0.0,120.0
125228,-1.033,-1.469,1.030,-144.565,-62.756,-97.244,114.0,123.0
125318,-0.632,2.000,-0.488,75.924,65.275,88.405,0.0,122.0
125407,-0.892,-1.383,1.189,112.748,-98.374,-63.221,0.0,123.0
125496,-1.193,2.000,-0.640,-250.137,114.137,29.504,0.0,123.0
125581,-0.961,-1.467,1.057,161.038,-58.634,-47.076,113.0,125.0
125671,-0.954,1.814,-0.395,-52.534,68.840,52.901,0.0,123.0
125759,-0.818,-1.144,1.078,183.870,-75.824,-49.962,116.0,123.0
125849,-1.134,2.000,-0.504,-244.656,94.840,19.191,0.0,124.0
125933,-0.997,-1.295,0.938,223.275,-81.168,-39.458,113.0,125.0
126023,-1.126,1.825,-0.444,-118.252,84.847,66.069,0.0,125.0
126113,-0.798,-1.042,1.025,117.435,-89.809,-65.176,0.0,125.0
126209,-1.016,1.267,-0.029,-119.893,55.084,38.649,0.0,125.0
126297,-0.635,-0.531,0.856,167.802,-56.405,-43.855,0.0,124.0
126386,-0.931,1.023,0.224,-166.313,22.824,35.527,0.0,125.0
126477,-0.345,0.031,0.739,225.435,-9.076,6.840,0.0,124.0
126566,-0.873,0.385,0.417,-250.137,26.603,-21.237,0.0,129.0
126655,-0.415,0.010,0.486,250.130,-25.397,30.176,0.0,126.0
126744,-0.924,0.607,0.316,-250.137,23.893,-6.748,0.0,130.0
126833,-0.456,-0.117,0.710,250.130,-4.252,20.412,0.0,129.0
126922,-0.833,0.591,0.403,-152.183,6.450,-24.115,0.0,129.0
127011,-0.433,0.121,0.467,250.130,-18.824,0.221,0.0,126.0
127099,-0.966,0.466,0.309,-250.137,39.718,-39.565,0.0,129.0
127188,-0.536,-0.458,0.661,250.130,-33.756,16.031,0.0,126.0
127281,-0.835,0.718,0.295,-250.137,16.031,-34.626,0.0,129.0
127370,-0.496,-0.029,0.644,250.130,-2.863,26.160,0.0,127.0
127459,-0.825,0.455,0.301,-250.137,23.802,-19.038,0.0,132.0
127548,-0.447,-0.238,0.619,250.130,-25.824,13.611,0.0,127.0
127637,-0.762,0.695,0.030,-250.137,67.733,-47.954,0.0,131.0
127726,-0.893,-0.865,0.737,250.130,-58.557,-21.649,0.0,127.0
127815,-1.036,1.719,-0.503,-250.137,85.886,9.359,0.0,136.0
127900,-0.844,-1.328,1.067,250.130,-74.397,-20.168,110.0,132.0
127992,-0.783,1.931,-0.359,-182.015,54.725,23.511,0.0,131.0
128076,-0.893,-1.370,1.210,122.321,-49.252,-43.809,111.0,134.0
128166,-0.908,2.000,-0.431,-113.458,81.931,48.580,0.0,132.0
128250,-0.853,-1.381,1.161,233.267,-72.008,-35.603,112.0,131.0
128334,-0.866,1.433,-0.133,-250.137,52.718,-8.893,116.0,130.0
128424,-0.575,-0.207,0.454,250.130,-28.450,53.252,0.0,129.0
128512,-1.020,-1.146,1.075,-205.794,-31.954,-53.809,112.0,185.0
128602,-0.220,2.000,-0.289,-67.939,54.595,54.519,0.0,138.0
128694,-0.843,-0.943,0.856,250.130,-78.840,-0.221,0.0,139.0
128779,-0.890,-0.104,0.462,-250.137,66.214,-58.458,113.0,138.0
128868,-0.255,1.662,-0.113,232.679,1.214,42.130,0.0,130.0
128953,-1.088,-1.932,1.590,49.756,-43.603,-32.366,112.0,135.0
129042,-0.709,1.613,-0.172,-240.053,59.931,-10.076,0.0,133.0
129126,-0.795,-0.172,0.430,250.130,-44.519,17.557,115.0,130.0
129211,-0.955,-0.201,0.604,-250.137,32.481,-54.924,112.0,132.0
129300,-0.245,1.537,-0.182,241.267,1.527,52.412,0.0,131.0
129388,-0.925,-1.636,1.486,112.046,-37.450,-9.198,112.0,131.0
129477,-0.716,2.000,-0.365,-228.130,74.718,-1.817,0.0,129.0
129566,-0.875,-0.578,0.573,250.130,-62.656,30.641,0.0,127.0
129651,-0.903,-0.259,0.423,-250.137,53.786,-54.962,113.0,138.0
129740,-0.369,1.144,-0.174,250.130,-51.221,45.000,0.0,126.0
129827,-1.222,-1.808,1.318,-128.878,-7.718,-49.313,112.0,183.0
129916,-0.401,2.000,-0.744,-7.107,53.664,30.542,0.0,126.0
130001,-1.048,-1.573,1.317,194.886,-48.947,8.504,114.0,132.0
130091,-0.735,2.000,-0.448,-250.137,73.427,-29.000,0.0,127.0
130183,-0.577,-0.345,0.417,250.130,-49.115,27.076,0.0,125.0
130268,-0.906,-0.646,0.291,-250.137,50.832,-90.802,113.0,134.0
130357,-0.361,1.367,-0.284,250.130,-13.290,76.397,0.0,127.0
130441,-1.128,-1.798,1.258,-124.145,-19.405,-42.099,113.0,130.0
130531,-0.712,2.000,-0.378,-91.481,69.374,9.130,0.0,132.0
130615,-0.895,-1.115,0.956,221.901,-55.397,5.435,112.0,130.0
130700,-0.867,0.548,0.245,-250.137,21.519,-32.031,113.0,134.0
130789,-0.576,0.077,0.201,250.130,-55.603,43.573,0.0,130.0
130877,-1.134,-1.646,0.794,-250.137,19.611,-73.473,110.0,136.0
130967,-0.158,2.000,-0.576,250.130,14.275,72.221,0.0,131.0
131051,-1.195,-2.000,1.726,-12.282,-27.435,-22.969,110.0,135.0
131141,-0.732,2.000,-0.670,-191.168,61.779,6.267,0.0,138.0
131226,-0.830,-1.047,0.864,250.130,-38.122,26.916,111.0,135.0
131310,-0.877,0.275,0.185,-250.137,37.702,-51.664,111.0,135.0
131395,-0.507,0.869,0.083,144.031,35.748,62.702,112.0,135.0
131480,-1.086,-1.804,1.374,-34.313,-57.634,-40.809,109.0,136.0
131568,-0.846,1.971,-0.439,-140.435,41.076,17.328,114.0,135.0
131653,-1.052,-1.386,1.062,236.580,-66.580,-13.595,110.0,137.0
131741,-0.855,1.711,-0.369,-250.137,68.275,-22.122,113.0,185.0
131825,-1.086,-0.987,0.573,250.130,-66.557,7.817,111.0,132.0
131910,-0.873,1.370,-0.380,-250.137,82.290,-42.771,112.0,136.0
131995,-0.997,-0.750,0.358,250.130,-65.878,25.290,112.0,133.0
132080,-0.803,0.337,0.077,-250.137,55.305,-65.397,111.0,136.0
132165,-0.569,0.612,-0.124,250.130,-39.412,59.084,113.0,133.0
132253,-1.259,-1.947,1.039,-226.099,-12.008,-53.160,110.0,136.0
132343,-0.344,2.000,-0.431,87.084,19.939,55.244,0.0,132.0
132428,-0.984,-1.624,1.387,91.618,-39.221,-13.885,110.0,138.0
132518,-0.744,1.892,-0.374,-157.863,57.481,-0.977,0.0,134.0
132602,-0.998,-1.014,0.728,250.130,-58.221,-0.817,112.0,131.0
132687,-0.792,1.167,-0.283,-250.137,79.412,-57.580,112.0,134.0
132772,-0.879,-0.622,0.173,250.130,-72.603,35.466,112.0,129.0
132857,-0.758,0.584,-0.079,-250.137,60.427,-72.542,112.0,134.0
132945,-0.880,-0.370,0.075,250.130,-69.435,34.046,113.0,129.0
133030,-0.704,0.703,0.018,-250.137,60.099,-58.450,112.0,135.0
133120,-0.691,-0.310,0.296,250.130,-38.542,26.595,0.0,127.0
133208,-0.897,-0.164,0.362,-250.137,30.260,-83.252,111.0,182.0
133297,-0.493,0.587,-0.063,250.130,-24.267,74.313,0.0,126.0
133382,-0.874,-0.629,0.528,-250.137,10.817,-69.305,111.0,133.0
133472,-0.411,0.911,-0.007,250.130,12.702,65.718,0.0,128.0
133557,-1.061,-1.320,0.978,-216.359,-22.893,-84.298,111.0,137.0
133648,-0.647,1.725,-0.346,91.611,51.458,70.519,0.0,138.0
133735,-0.885,-1.390,1.179,115.420,-64.305,-34.580,112.0,133.0
133821,-1.005,1.566,-0.132,-250.137,53.519,-1.344,114.0,132.0
133906,-0.664,-0.863,0.783,250.130,-63.015,8.321,113.0,134.0
133994,-0.789,0.698,-0.026,-250.137,54.565,-48.924,112.0,190.0
134084,-0.206,0.193,0.268,250.130,-4.511,80.420,0.0,133.0
134172,-1.062,-1.546,0.820,-250.137,-8.489,-113.038,110.0,191.0
134262,-0.233,2.000,-0.748,215.046,56.084,82.756,0.0,134.0
134347,-1.047,-1.896,1.358,73.733,-70.832,-84.458,111.0,135.0
134440,-1.321,2.000,-0.676,-250.137,104.679,9.275,0.0,134.0
134525,-0.995,-1.466,0.761,250.130,-92.863,-7.061,112.0,137.0
134617,-0.925,1.383,-0.088,-250.137,65.099,-17.260,0.0,136.0
134706,-0.351,-0.330,0.124,250.130,-24.107,51.534,0.0,127.0
134791,-0.838,-0.408,-0.067,-250.137,48.695,-110.466,112.0,136.0
134881,-0.081,0.602,-0.211,250.130,31.489,124.649,0.0,131.0
134967,-0.966,-1.656,0.801,-250.137,-9.611,-136.710,110.0,137.0
135057,-0.494,2.000,-0.791,194.916,57.870,86.527,0.0,133.0
135148,-1.082,-2.000,1.455,122.038,-74.824,-51.137,111.0,189.0
135238,-0.921,1.322,-0.116,14.084,35.565,3.031,0.0,127.0
135323,-1.004,-1.118,1.018,-65.588,-37.084,-83.237,114.0,129.0
135412,-1.203,2.000,-0.518,-219.443,91.847,19.977,0.0,127.0
135497,-1.075,-1.982,1.305,250.130,-83.527,-27.237,112.0,129.0
135587,-0.861,2.000,-0.877,-179.015,83.985,35.710,0.0,129.0
135672,-1.027,-2.000,1.650,193.565,-68.458,-18.565,110.0,134.0
135762,-0.173,2.000,-0.808,84.328,51.099,53.191,0.0,127.0
135851,-1.172,-2.000,1.858,4.618,-45.519,-46.817,110.0,137.0
135941,-0.148,2.000,-1.167,168.466,49.847,72.473,0.0,129.0
136026,-1.189,-2.000,1.835,-89.511,-33.641,-62.649,110.0,136.0
136117,-0.505,2.000,-0.961,79.053,48.748,57.443,0.0,132.0
136202,-1.122,-2.000,1.680,49.084,-45.756,-48.107,110.0,136.0
136292,-1.002,2.000,-0.644,-250.137,107.267,31.840,0.0,136.0
136377,-0.946,-1.384,0.724,250.130,-111.275,-6.443,111.0,135.0
136463,-0.652,1.459,-0.315,-250.137,67.779,-19.649,112.0,138.0
136548,-0.886,-1.382,0.828,250.130,-79.481,-9.473,110.0,137.0
136637,-0.845,1.751,-0.513,-250.137,87.565,-39.779,111.0,138.0
136723,-0.558,-0.669,0.608,250.130,-43.450,67.939,110.0,136.0
136808,-0.725,0.328,0.130,-250.137,21.542,-57.305,109.0,140.0
136894,-0.260,0.369,0.185,250.130,7.130,74.511,112.0,139.0
136979,-1.025,-1.311,0.805,-250.137,-4.000,-113.038,109.0,139.0
137070,-0.091,2.000,-0.677,250.130,43.336,61.168,0.0,140.0
137155,-1.245,-2.000,1.902,-50.634,-36.015,-42.443,108.0,139.0
137246,-0.638,2.000,-0.674,-47.565,58.885,38.298,0.0,137.0
137339,-0.943,-1.658,1.011,250.130,-72.176,3.542,110.0,138.0
137428,-0.691,1.341,-0.100,-250.137,50.115,-24.740,0.0,138.0
137518,-0.521,-0.142,0.247,250.130,-41.328,26.412,0.0,132.0
137603,-1.024,-1.206,0.283,-250.137,69.244,-87.000,110.0,138.0
137692,0.009,1.018,-0.477,250.130,-44.023,103.115,0.0,131.0
137777,-0.881,-1.717,0.754,-250.137,28.267,-88.496,111.0,137.0
137869,0.102,1.863,-0.520,250.130,27.267,55.985,0.0,184.0
137953,-1.293,-2.000,1.546,-95.176,-16.954,-91.603,110.0,135.0
138040,-0.958,2.000,-0.349,-154.313,66.145,13.656,115.0,129.0
138124,-1.059,-1.730,1.211,250.130,-90.634,-14.084,111.0,132.0
138214,-1.167,2.000,-0.781,-250.137,73.603,1.145,0.0,133.0
138298,-0.901,-1.338,0.728,250.130,-75.527,29.198,113.0,129.0
138383,-0.778,1.355,-0.583,-250.137,91.427,-50.389,114.0,137.0
138467,-0.643,-0.389,0.156,250.130,-56.565,68.939,114.0,129.0
138552,-1.043,-0.761,0.019,-250.137,65.794,-81.099,110.0,139.0
138641,-0.200,0.827,-0.618,250.130,-68.176,97.412,0.0,130.0
138728,-1.115,-2.000,1.225,-250.137,30.130,-79.076,110.0,137.0
138818,0.031,2.000,-0.497,91.015,81.656,39.191,0.0,137.0
138902,-1.138,-2.000,1.663,250.130,-87.107,-24.565,109.0,137.0
138987,-0.759,2.000,-0.819,-250.137,88.977,-27.985,112.0,137.0
139072,-1.051,-1.343,0.696,250.130,-80.351,15.847,110.0,137.0
139156,-0.831,0.785,-0.140,-250.137,59.626,-47.237,110.0,137.0
139241,-0.608,0.473,0.231,250.130,1.397,59.908,110.0,137.0
139328,-1.186,-1.295,0.775,-250.137,9.794,-25.939,107.0,194.0
139419,-0.206,1.298,-0.244,250.130,-5.374,66.374,111.0,192.0
139507,-1.139,-1.305,0.588,-250.137,44.855,-44.153,106.0,196.0
139591,-0.676,0.026,-0.134,250.130,-54.924,21.092,110.0,130.0
139676,-0.854,0.414,-0.119,-250.137,93.427,-63.122,107.0,141.0
139760,-1.028,-0.622,0.040,250.130,-63.863,10.840,108.0,127.0
139844,-0.893,1.159,-0.521,-250.137,93.496,-45.809,109.0,127.0
139928,-1.008,-1.272,0.837,250.130,-73.076,-16.519,107.0,126.0
140017,-0.904,2.000,-0.861,-219.618,69.023,7.733,0.0,122.0
140100,-1.206,-2.000,1.443,155.466,-53.321,-19.183,107.0,126.0
140192,-0.562,2.000,-0.977,-6.718,37.244,44.031,0.0,121.0
140276,-1.216,-2.000,1.527,-38.969,-19.832,-38.809,107.0,125.0
140365,-0.116,2.000,-1.254,250.130,35.725,49.275,0.0,121.0
140449,-1.245,-2.000,1.360,-211.992,-9.282,-102.099,107.0,127.0
140538,-0.633,2.000,-1.274,250.130,33.588,63.977,0.0,120.0
140621,-1.244,-2.000,1.325,-99.076,-41.084,-73.634,107.0,124.0
140710,-0.166,2.000,-1.195,170.061,63.580,54.076,0.0,120.0
140794,-1.187,-2.000,1.426,-37.885,-56.443,-102.969,108.0,122.0
140884,-0.508,2.000,-1.328,109.267,68.626,38.092,0.0,83.0
140967,-1.182,-2.000,1.469,-138.359,-32.198,-100.626,108.0,122.0
141054,0.086,2.000,-1.702,250.130,77.473,80.099,0.0,81.0
141138,-1.060,-2.000,1.200,-250.137,-47.130,-151.710,107.0,123.0
141225,-0.113,2.000,-1.809,250.130,33.756,114.267,0.0,81.0
141308,-0.987,-1.780,0.592,-250.137,18.015,-101.092,109.0,122.0
141395,-0.008,2.000,-1.209,250.130,68.886,83.008,0.0,82.0
141484,-1.211,-1.925,0.479,-250.137,15.473,-104.695,107.0,196.0
141576,-0.343,2.000,-1.195,250.130,50.351,92.611,0.0,120.0
141663,-1.210,-2.000,1.266,-212.145,-30.313,-117.260,106.0,184.0
141752,-0.723,2.000,-1.420,250.130,26.435,77.672,0.0,121.0
141839,-1.170,-1.997,1.124,-240.397,-10.565,-39.321,106.0,185.0
141927,-0.326,1.529,-0.988,250.130,-34.809,107.740,0.0,87.0
142011,-0.938,-0.657,0.102,-250.137,48.885,-47.237,108.0,128.0
142100,-0.495,0.298,-0.491,250.130,-82.519,114.771,0.0,126.0
142185,-0.948,-0.396,-0.284,-250.137,90.802,-70.015,107.0,141.0
142278,-0.641,0.514,-0.146,250.130,-73.634,89.618,0.0,133.0
142366,-1.031,-1.016,0.169,-250.137,20.954,-37.176,101.0,0.0
142459,-0.594,-0.689,-0.167,250.130,-91.496,60.870,0.0,0.0
142553,-0.734,0.616,-1.240,-250.137,123.695,-89.076,0.0,0.0
142647,-0.934,-0.845,-0.209,250.130,-70.206,47.176,0.0,0.0
142740,-0.873,0.636,-0.663,-250.137,81.863,-38.420,0.0,0.0
142834,-0.493,0.293,-0.052,250.130,-53.244,87.511,0.0,0.0
142911,-0.955,-1.140,0.539,-250.137,37.489,-87.740,43.0,72.0
143004,-0.522,0.273,0.208,250.130,-30.321,70.771,0.0,0.0
143085,-0.953,-2.000,1.022,-250.137,-13.046,-111.771,41.0,71.0
143178,-0.389,0.182,-0.442,250.130,-52.511,73.267,0.0,0.0
143256,-0.701,-1.384,0.281,-250.137,89.626,-157.321,44.0,70.0
143349,-0.807,-0.926,-0.410,250.130,-50.756,-3.916,0.0,0.0
143434,-0.450,-0.453,0.157,-250.137,67.214,-190.450,51.0,0.0
143525,-0.329,0.004,-0.672,250.130,-5.183,73.427,0.0,152.0
143613,-0.616,-1.661,0.922,-250.137,39.374,-186.237,103.0,0.0
143704,-0.010,1.962,-1.105,250.130,49.076,87.718,0.0,147.0
143795,-1.250,-2.000,1.967,-76.710,-51.198,-170.221,106.0,196.0
143886,-0.664,2.000,-0.922,6.237,75.290,29.748,0.0,139.0
143971,-1.046,-2.000,1.537,207.641,-64.527,-81.969,111.0,138.0
144061,-1.268,2.000,-0.455,-238.802,82.740,-7.061,0.0,134.0
144146,-0.997,-1.077,0.711,250.130,-66.267,-4.947,119.0,132.0
144231,-0.931,1.257,-0.810,-250.137,120.718,-62.344,118.0,133.0
144316,-1.083,-1.526,0.273,250.130,-132.221,24.595,119.0,131.0
144406,-0.654,2.000,-1.011,-250.137,110.534,-48.947,0.0,131.0
144495,-0.998,-1.754,0.769,250.130,-90.198,9.687,118.0,132.0
144584,-0.811,1.922,-0.662,-250.137,95.099,-28.252,0.0,131.0
144670,-0.785,-1.236,0.590,250.130,-70.824,46.092,119.0,130.0
144755,-0.661,0.735,0.106,-250.137,41.573,-50.443,120.0,131.0
144848,-0.581,-0.137,0.268,250.130,-40.389,61.115,0.0,183.0
144933,-1.073,-1.612,0.990,-250.137,-10.649,-90.458,119.0,132.0
145024,0.097,1.333,-0.252,250.130,-29.557,78.656,0.0,131.0
145112,-1.181,-2.000,0.631,-250.137,54.908,-81.893,118.0,185.0
145205,0.078,0.759,-0.981,250.130,-74.412,121.191,0.0,129.0
145290,-1.035,-1.601,-0.125,-250.137,109.290,-88.954,118.0,134.0
145380,-0.353,0.268,-0.862,250.130,-102.779,116.725,0.0,131.0
145466,-1.090,-2.000,0.715,-250.137,69.023,-90.756,118.0,133.0
145555,-0.365,1.980,-0.656,250.130,-41.496,80.267,0.0,131.0
145641,-1.086,-2.000,1.897,-129.374,8.580,-39.733,117.0,133.0
145731,0.338,2.000,-0.491,82.160,1.679,23.534,0.0,130.0
145816,-0.974,-2.000,1.885,250.130,-85.527,6.504,120.0,132.0
145906,-0.510,2.000,-0.890,-250.137,102.718,-46.840,0.0,133.0
145999,-0.637,-0.012,-0.311,250.130,-92.511,76.985,0.0,134.0
146085,-1.252,-2.000,1.371,-250.137,42.397,-68.489,118.0,134.0
146176,-0.201,2.000,-0.356,-7.412,28.794,20.244,0.0,133.0
146265,-0.846,-1.455,1.312,250.130,-69.191,17.855,0.0,133.0
146356,-0.695,1.087,-0.053,-250.137,88.809,-28.969,0.0,134.0
146446,-0.852,0.078,0.328,250.130,-71.519,32.015,0.0,135.0
146531,-0.969,-0.521,0.304,-250.137,93.084,-52.656,119.0,139.0
146622,-0.630,0.414,-0.116,250.130,-99.084,59.359,0.0,135.0
146713,-1.330,-2.000,1.516,-250.137,23.366,-62.466,118.0,185.0
146806,0.220,2.000,-0.562,94.237,2.817,47.573,0.0,185.0
146892,-0.893,-2.000,1.496,250.130,-66.908,23.893,119.0,138.0
146982,-0.330,1.997,-0.378,-250.137,94.611,-40.198,0.0,134.0
147073,-0.710,-0.200,0.313,250.130,-76.366,21.916,0.0,133.0
147162,-0.835,-0.229,0.101,-250.137,100.321,-88.725,170.0,134.0
147252,-0.671,0.457,-0.135,250.130,-91.595,68.145,0.0,133.0
147338,-1.041,-2.000,1.024,-250.137,46.595,-66.397,119.0,134.0
147431,-0.181,1.882,-0.139,249.763,-72.603,36.313,0.0,133.0
147521,-0.982,-2.000,1.794,-39.153,-26.038,-27.634,0.0,135.0
147611,0.205,2.000,-0.215,-21.992,38.260,8.626,0.0,133.0
147700,-0.995,-2.000,1.879,224.664,-59.969,7.206,170.0,138.0
147793,0.028,2.000,-0.747,-250.137,103.267,-8.473,0.0,183.0
147884,-0.874,-1.485,0.758,250.130,-73.046,48.374,0.0,134.0
147974,-0.505,1.018,-0.264,-250.137,118.618,-70.489,0.0,132.0
148065,-0.958,0.001,0.068,250.130,-80.389,44.847,0.0,133.0
148153,-0.851,-0.246,-0.004,-250.137,117.427,-87.168,121.0,131.0
148243,-0.631,0.518,-0.330,250.130,-86.221,79.504,0.0,129.0
148333,-1.017,-1.499,0.729,-250.137,52.473,-82.489,0.0,131.0
148423,-0.456,1.401,-0.339,250.130,-75.664,61.947,0.0,128.0
148519,-1.115,-2.000,1.514,-139.115,-2.069,-61.939,0.0,132.0
148609,0.015,2.000,-0.411,8.023,9.885,9.893,0.0,127.0
148697,-0.991,-2.000,1.850,106.328,-33.191,12.435,0.0,129.0
148786,-0.142,2.000,-0.518,-225.359,55.183,-16.298,0.0,130.0
148875,-0.863,-1.488,1.246,250.130,-51.992,33.885,0.0,130.0
148967,-0.621,1.433,-0.326,-250.137,87.305,-55.710,0.0,130.0
149056,-0.705,-0.289,0.446,250.130,-62.542,51.893,0.0,129.0
149145,-0.688,0.714,0.371,-206.534,40.573,-50.939,0.0,129.0
149234,-0.829,-0.411,0.741,250.130,-41.489,29.550,0.0,127.0
149323,-0.673,0.955,-0.363,-250.137,83.313,-66.740,0.0,130.0
149412,-0.766,-0.720,0.400,250.130,-78.870,65.107,0.0,130.0
149501,-0.588,0.948,-0.375,-250.137,93.573,-65.450,0.0,131.0
149591,-0.831,-0.721,0.454,250.130,-72.252,31.588,0.0,131.0
149683,-0.858,1.897,-0.626,-250.137,109.282,-28.130,0.0,131.0
149773,-0.805,-1.499,1.261,250.130,-30.748,42.244,0.0,135.0
149862,-0.362,2.000,-0.617,-137.794,58.962,-7.237,0.0,131.0
149947,-1.089,-1.711,1.087,-250.137,53.779,-23.420,113.0,135.0
150036,-0.357,0.041,-0.421,250.130,-8.733,72.244,0.0,127.0
150128,-0.925,0.343,-0.701,-250.137,142.107,-95.122,0.0,183.0
150212,-0.797,-1.042,0.481,250.130,-17.000,30.496,110.0,125.0
150300,-0.814,2.000,-0.482,-158.603,64.588,-17.290,0.0,123.0
150387,-1.263,-1.588,1.091,55.786,-39.672,-40.008,108.0,123.0
150473,-0.223,1.447,-0.834,250.130,82.702,56.595,0.0,80.0
150562,-1.045,-0.220,-0.023,-250.137,19.435,-94.977,0.0,120.0
150648,-0.538,-0.017,-0.171,250.130,35.214,55.618,0.0,78.0
150737,-1.102,0.107,-0.660,-250.137,70.511,-76.389,0.0,120.0
150824,-0.899,-0.844,0.065,250.130,-90.649,16.885,0.0,92.0
150913,-1.196,1.975,-1.007,-250.137,71.298,-15.046,0.0,117.0
150996,-1.128,-1.947,0.982,155.969,-67.710,-58.817,108.0,119.0
151086,-1.928,2.000,-1.303,-216.740,152.443,82.725,0.0,119.0
151172,-0.734,-1.767,0.935,90.267,-85.969,-83.779,106.0,124.0
151261,-0.958,0.978,-0.319,83.504,60.084,49.870,0.0,121.0
151350,-0.974,-0.532,0.420,230.046,-102.603,-69.901,0.0,119.0
151438,-1.625,1.893,-1.052,-250.137,159.420,21.626,0.0,121.0
151523,-0.891,-1.954,1.223,64.382,-102.389,-102.305,105.0,140.0
151610,-0.398,0.884,-1.207,250.130,-28.771,109.771,0.0,82.0
151699,-0.911,0.546,-0.624,-250.137,85.290,-25.115,0.0,125.0
151788,-0.978,-1.164,0.601,250.130,-46.504,69.886,0.0,128.0
151880,-0.644,2.000,-0.904,-250.137,58.053,26.580,0.0,131.0
151973,-1.125,-1.380,0.972,-203.718,-42.214,8.092,0.0,0.0
152067,-0.692,1.951,-0.513,177.901,-29.939,182.450,0.0,0.0
152160,0.340,-0.484,0.946,-89.534,51.489,-53.458,0.0,0.0
152253,-1.284,0.610,0.586,-72.992,1.832,143.427,0.0,0.0
152341,0.187,0.651,0.050,143.015,32.893,72.221,0.0,104.0
152434,-1.279,0.721,-0.216,-250.137,86.008,-82.344,0.0,0.0
152527,-0.678,-0.854,0.468,250.130,-192.069,-34.656,0.0,0.0
152622,-0.588,2.000,-0.930,-250.137,184.351,-75.244,0.0,0.0
152718,-0.607,-2.000,1.987,144.611,-124.893,-101.221,0.0,0.0
152806,-0.529,2.000,-1.772,89.092,-10.435,87.893,0.0,107.0
152899,0.008,-1.113,0.985,-250.137,25.496,23.290,0.0,0.0
152992,-0.880,1.523,0.157,64.221,-56.817,39.023,0.0,0.0
153077,-0.044,1.157,0.483,-6.344,24.664,-42.450,51.0,0.0
153170,-0.397,0.364,0.981,-206.893,20.603,36.481,0.0,0.0
153264,-0.306,0.523,0.810,-106.183,12.550,34.557,0.0,0.0
153358,-0.391,0.194,0.907,-124.702,-32.359,-1.290,0.0,0.0
153454,-0.324,0.184,0.879,-93.221,-53.313,3.557,0.0,0.0
153539,-0.202,0.042,0.900,-27.405,-48.779,10.092,44.0,0.0
153622,-0.110,-0.058,0.912,-20.924,-30.176,2.878,25.0,0.0
153705,-0.085,-0.061,0.918,-7.840,-7.137,-6.076,23.0,0.0
153789,-0.130,-0.027,0.972,-10.336,6.779,-6.756,23.0,0.0
153872,-0.112,-0.034,0.985,-0.611,9.573,-5.420,25.0,0.0
153957,-0.120,-0.057,1.006,2.435,4.458,-7.191,45.0,0.0
154042,-0.119,-0.034,0.980,4.397,2.275,-11.099,45.0,0.0
154135,-0.131,-0.003,0.964,8.107,5.069,-9.443,0.0,0.0
154231,-0.153,-0.086,0.772,86.405,11.679,-31.496,0.0,0.0
154324,-0.171,0.167,0.385,227.664,56.328,-72.069,0.0,0.0
154419,-0.579,0.275,0.467,250.130,104.473,-124.603,0.0,0.0
154512,-0.785,0.683,0.204,212.153,92.031,-147.557,0.0,0.0
154601,-1.117,0.761,0.057,115.763,62.664,-153.344,0.0,130.0
154688,-1.120,0.344,0.137,88.107,26.603,-97.634,0.0,81.0
154775,-1.079,0.425,0.047,250.130,-24.267,11.756,0.0,73.0
154861,-0.837,1.034,-0.327,32.305,-4.527,10.832,0.0,69.0
154947,-0.888,0.375,-0.085,-100.031,13.412,17.160,0.0,72.0
155036,-0.871,0.296,-0.115,-51.519,9.718,13.252,0.0,74.0
155123,-0.885,0.218,-0.117,-56.305,18.702,-10.069,0.0,75.0
155209,-0.981,0.220,0.017,68.160,0.206,-0.351,0.0,74.0
155295,-0.922,0.516,-0.106,37.511,-3.939,3.275,0.0,73.0
155382,-0.917,0.419,-0.108,-24.733,1.527,-0.786,0.0,73.0
155468,-0.904,0.360,-0.113,-23.191,1.511,0.198,0.0,73.0
155554,-0.927,0.319,-0.075,-4.061,0.000,-0.710,0.0,74.0
155641,-0.928,0.372,-0.094,1.496,-2.153,-1.214,0.0,74.0
155727,-0.907,0.367,-0.092,-7.496,-1.305,0.473,0.0,74.0
155816,-0.931,0.326,-0.063,-0.374,-2.855,1.031,0.0,74.0
155904,-0.922,0.370,-0.074,8.885,-3.000,0.863,0.0,74.0
155990,-0.916,0.391,-0.079,4.191,-1.542,1.878,0.0,74.0
156077,-0.893,0.378,-0.075,-0.718,-2.252,1.679,0.0,74.0
156163,-0.909,0.359,-0.087,1.183,-0.855,2.153,0.0,74.0
156249,-0.916,0.370,-0.067,7.115,-0.908,2.053,0.0,74.0
156336,-0.921,0.382,-0.082,6.053,-0.641,0.214,0.0,73.0
156422,-0.926,0.394,-0.078,2.855,-1.107,0.069,0.0,74.0
156508,-0.905,0.371,-0.061,-4.267,-1.695,0.137,0.0,73.0
156598,-0.902,0.368,-0.063,-4.931,-4.145,1.008,0.0,73.0
156684,-0.928,0.363,-0.075,1.473,-3.412,-6.061,0.0,73.0
156771,-0.900,0.367,-0.068,7.779,-4.053,-8.244,0.0,72.0
156857,-0.927,0.362,-0.085,8.695,-0.588,-11.351,0.0,72.0
156943,-0.910,0.354,-0.058,1.718,3.786,-9.740,0.0,71.0
157030,-0.901,0.367,-0.051,3.099,1.366,-9.153,0.0,71.0
157116,-0.938,0.370,-0.070,-7.405,-0.748,-6.557,0.0,72.0
157202,-0.985,0.319,-0.091,-12.237,-6.176,10.183,0.0,72.0
157289,-0.889,0.331,-0.036,-8.840,-4.969,13.664,0.0,73.0
157379,-0.905,0.323,-0.028,-14.679,1.878,0.031,0.0,74.0
157465,-0.923,0.373,-0.104,-28.298,9.282,-7.641,0.0,75.0
157552,-0.917,0.333,-0.070,-30.885,11.870,-8.282,0.0,76.0
157639,-0.965,0.332,-0.064,-36.573,11.137,1.198,0.0,77.0
157725,-0.936,0.336,-0.050,-31.893,9.389,6.214,0.0,78.0
157812,-0.914,0.338,-0.023,-49.405,6.855,5.573,0.0,80.0
157899,-0.944,0.282,-0.009,-34.153,4.947,11.756,0.0,83.0
157987,-0.935,0.369,-0.030,-21.603,2.298,11.511,0.0,84.0
158074,-0.929,0.310,-0.018,-13.412,1.870,5.710,0.0,85.0
158164,-0.921,0.341,-0.033,-6.305,3.740,2.252,0.0,86.0
158252,-0.905,0.344,-0.008,-6.710,4.122,-4.191,0.0,86.0
158340,-0.935,0.342,-0.022,-2.458,4.015,-7.527,0.0,87.0
158427,-0.865,0.293,0.050,22.573,-3.969,-7.405,0.0,85.0
158514,-0.928,0.405,-0.034,53.008,-2.511,-12.786,0.0,83.0
158601,-0.961,0.389,-0.066,-13.542,0.328,-11.183,0.0,83.0
158689,-0.943,0.301,-0.020,-5.298,-0.366,4.107,0.0,83.0
158776,-0.920,0.343,-0.054,6.733,-2.046,7.084,0.0,84.0
158863,-0.942,0.342,-0.056,-5.221,1.145,4.878,0.0,84.0
158954,-0.934,0.327,-0.046,-4.763,1.427,1.145,0.0,85.0
159041,-0.908,0.328,-0.038,-1.298,-0.084,0.985,0.0,85.0
159128,-0.934,0.346,-0.042,-2.137,0.313,-3.397,0.0,85.0
159215,-0.953,0.335,-0.030,-7.076,1.168,-6.061,0.0,85.0
159303,-0.933,0.332,-0.027,-2.870,-0.763,-2.420,0.0,87.0
159390,-0.913,0.337,-0.039,-0.321,-0.840,-2.824,0.0,86.0
159478,-0.935,0.334,-0.043,-7.954,0.885,-2.779,0.0,86.0
159565,-0.938,0.326,-0.039,-2.412,1.450,-0.473,0.0,85.0
159653,-0.910,0.322,-0.051,-4.664,2.817,0.702,0.0,92.0
159750,-0.932,0.313,-0.039,-2.115,2.840,0.557,0.0,93.0
159836,-0.960,0.311,-0.020,-1.893,1.046,6.214,0.0,93.0
159923,-0.959,0.284,0.006,8.763,-3.275,8.557,0.0,86.0
160010,-0.933,0.313,-0.017,6.580,-2.137,5.252,0.0,92.0
160096,-0.938,0.292,-0.000,9.725,-1.580,3.725,0.0,92.0
160183,-0.952,0.281,0.040,13.939,-4.183,-1.359,0.0,91.0
160277,-0.934,0.345,0.006,20.176,-7.969,3.557,0.0,83.0
160363,-0.935,0.344,-0.017,14.153,-6.061,-1.107,0.0,81.0
160449,-0.928,0.345,-0.022,14.412,-6.519,0.641,0.0,81.0
160538,-0.925,0.341,-0.026,15.473,-6.565,2.794,0.0,80.0
160624,-0.929,0.340,-0.026,20.473,-6.695,1.756,0.0,80.0
160710,-0.935,0.376,-0.026,19.641,-5.954,1.000,0.0,79.0
160796,-0.893,0.382,-0.036,9.176,-5.115,-0.206,0.0,78.0
160882,-0.936,0.357,-0.051,-8.992,-4.649,-12.450,0.0,78.0
160968,-0.953,0.289,-0.022,9.977,-9.084,-3.153,0.0,77.0
161054,-0.913,0.351,-0.047,18.504,-10.282,4.924,0.0,77.0
161140,-0.910,0.328,-0.037,15.595,-8.496,5.092,0.0,76.0
161226,-0.891,0.400,-0.031,6.565,-2.405,-5.099,0.0,75.0
161314,-0.926,0.372,0.071,-6.511,-4.435,-12.672,0.0,74.0
161400,-1.105,0.535,0.172,-38.725,-33.687,25.931,0.0,75.0
161486,-1.057,0.830,0.099,-165.573,-88.053,38.015,0.0,81.0
161575,-1.027,-0.148,0.511,-198.595,-135.015,11.176,0.0,121.0
161665,-0.829,0.366,0.516,-60.786,-151.321,47.427,0.0,124.0
161754,-0.498,0.220,0.653,-79.473,-117.649,57.290,0.0,131.0
161844,-0.359,0.157,0.736,-51.046,-78.397,36.511,0.0,137.0
161933,-0.238,0.120,0.792,-27.305,-38.496,11.863,0.0,137.0
162025,-0.236,0.108,0.869,-6.527,-13.725,-1.298,0.0,138.0
162115,-0.210,0.076,0.930,-1.366,-3.221,-4.191,0.0,138.0
162207,-0.188,0.078,0.968,0.496,-0.122,-5.817,0.0,185.0
162297,-0.230,0.096,0.980,2.908,-0.687,-2.023,0.0,138.0
162386,-0.226,0.073,0.989,-3.336,-2.130,-2.137,0.0,138.0
162476,-0.206,0.050,1.000,-0.618,-3.534,-5.328,0.0,136.0
162566,-0.208,0.108,0.977,-0.557,-3.847,-3.527,0.0,137.0
162658,-0.198,0.079,0.988,-3.908,-1.359,-2.847,0.0,185.0
162747,-0.195,0.067,0.979,-4.214,1.550,-2.870,0.0,136.0
162848,-0.142,0.106,0.900,3.534,4.527,-1.649,0.0,136.0
162940,-0.189,0.106,0.828,23.099,19.076,-13.206,0.0,135.0
163032,-0.208,0.219,0.697,72.191,71.107,-18.328,0.0,127.0
163123,-0.395,0.349,0.527,111.176,111.939,-39.573,0.0,122.0
163214,-0.746,0.724,0.502,48.733,131.405,-63.229,0.0,117.0
163304,-0.906,0.115,0.495,154.809,132.466,-52.695,0.0,113.0
163393,-1.108,0.423,0.218,189.000,74.672,-100.023,0.0,73.0
163481,-1.141,0.495,0.134,51.038,37.336,-69.229,0.0,68.0
163569,-1.122,0.222,0.174,-30.389,14.611,12.198,0.0,68.0
163660,-0.938,0.271,0.123,57.931,-0.679,47.122,0.0,67.0
163748,-0.850,0.377,0.036,42.359,0.519,26.031,0.0,67.0
163836,-0.925,0.357,0.018,-15.748,9.802,0.802,0.0,66.0
163924,-0.939,0.241,0.064,1.954,3.244,-5.023,0.0,66.0
164012,-0.934,0.336,0.012,14.809,2.328,-7.053,0.0,65.0
164100,-0.924,0.337,-0.017,-10.611,6.473,-13.366,0.0,65.0
164188,-0.941,0.296,-0.010,-10.176,5.580,-11.702,0.0,64.0
164276,-0.934,0.319,-0.029,0.092,3.718,-8.466,0.0,64.0
164364,-0.937,0.330,-0.043,-3.580,2.122,-10.244,0.0,64.0
164455,-0.952,0.333,-0.059,-11.763,2.603,-5.458,0.0,65.0
164543,-0.957,0.319,-0.054,-24.481,2.985,3.221,0.0,67.0
164631,-0.949,0.311,-0.054,-27.878,4.565,10.992,0.0,68.0
164719,-0.929,0.296,-0.054,-29.435,4.740,10.969,0.0,71.0
164808,-0.929,0.297,-0.053,-31.374,6.267,8.924,0.0,72.0
164896,-0.945,0.298,-0.060,-27.275,6.603,5.840,0.0,74.0
164985,-0.945,0.299,-0.060,-23.351,7.794,7.374,0.0,76.0
165073,-0.954,0.286,-0.045,-23.763,9.740,7.542,0.0,78.0
165163,-0.933,0.292,-0.025,-24.534,11.763,5.954,0.0,80.0
165255,-0.950,0.288,-0.012,-26.305,11.359,-0.374,0.0,81.0
165344,-0.953,0.241,0.057,-7.489,1.893,-3.275,0.0,82.0
165433,-0.927,0.332,-0.016,-4.603,-0.168,-6.298,0.0,81.0
165522,-0.924,0.290,-0.006,-12.290,1.458,-13.229,0.0,82.0
165611,-0.945,0.296,-0.020,-7.885,0.672,-6.931,0.0,83.0
165700,-0.973,0.283,-0.006,-4.130,-0.092,4.863,0.0,84.0
165789,-0.961,0.295,0.029,-14.359,1.527,1.344,0.0,83.0
165881,-0.988,0.214,0.107,-12.214,0.939,-7.061,0.0,131.0
165977,-0.958,0.246,0.102,-8.527,-4.481,-2.779,0.0,131.0
166066,-0.939,0.263,0.082,-1.374,-3.588,1.496,0.0,87.0
166156,-0.903,0.317,0.041,-15.626,4.786,4.679,0.0,94.0
166247,-0.931,0.281,0.071,-28.824,10.908,-0.130,0.0,131.0
166339,-0.936,0.257,0.063,-35.817,12.206,1.802,0.0,131.0
166431,-0.965,0.281,0.024,-11.771,6.580,9.397,0.0,131.0
166523,-0.936,0.294,-0.004,-17.855,9.046,10.557,0.0,132.0
166616,-0.927,0.284,-0.021,-15.794,12.985,4.290,0.0,132.0
166708,-0.834,0.355,-0.067,-39.878,28.168,-12.038,0.0,131.0
166802,-0.996,0.290,-0.056,-67.969,23.260,-33.740,195.0,132.0
166894,-1.086,0.218,-0.050,-12.214,-3.947,-4.542,195.0,133.0
166981,-1.005,0.280,-0.101,34.580,-16.641,34.603,106.0,133.0
167073,-0.900,0.331,-0.100,8.397,-12.115,30.183,0.0,132.0
167165,-0.851,0.301,-0.039,1.519,-7.740,1.321,0.0,132.0
167258,-0.928,0.295,-0.024,13.122,-9.756,-16.023,0.0,130.0
167350,-0.938,0.343,-0.030,12.863,-3.221,-21.580,0.0,128.0
167437,-0.966,0.318,0.014,2.237,-0.076,-22.626,111.0,127.0
167528,-0.947,0.302,0.022,10.931,-2.931,-6.107,0.0,126.0
167618,-0.941,0.315,0.011,8.588,-2.687,2.893,110.0,126.0
167710,-0.955,0.318,0.002,1.618,0.511,5.679,0.0,126.0
167801,-0.952,0.287,0.024,-9.763,2.298,10.664,0.0,127.0
167894,-0.962,0.274,0.036,-12.038,0.008,9.183,0.0,129.0
167986,-0.946,0.287,0.049,-7.573,-1.092,10.328,0.0,130.0
168078,-0.948,0.248,0.050,-11.290,-2.870,9.000,0.0,131.0
168170,-0.939,0.287,0.033,-6.122,-1.344,-0.031,0.0,131.0
168262,-0.931,0.267,0.050,-9.962,0.756,-5.939,0.0,131.0
168348,-0.937,0.285,0.041,-4.038,-0.405,-9.954,101.0,131.0
168438,-0.941,0.267,0.051,-7.344,-2.183,-7.481,101.0,131.0
168524,-0.948,0.296,0.035,-0.214,-1.137,-1.573,100.0,131.0
