Timestamp(ms),AccelX(g),AccelY(g),AccelZ(g),GyroX(deg/s),GyroY(deg/s),GyroZ(deg/s),DistanceLeft(cm),DistanceRight(cm)
353460,-1.172,-0.899,0.605,-176.779,28.756,-30.725,0.0,129.0
353547,-0.799,0.465,-0.183,250.130,-54.168,40.779,0.0,90.0
353636,-0.794,0.822,-0.281,-250.137,66.206,-70.863,0.0,126.0
353725,-0.998,-0.509,0.568,73.107,-16.954,-0.908,0.0,126.0
353812,-0.808,0.934,-0.259,175.893,-13.008,24.763,0.0,89.0
353901,-0.900,0.314,0.066,-199.069,35.191,-39.740,0.0,125.0
353988,-0.946,-0.197,0.323,217.840,-40.084,16.672,0.0,97.0
354079,-0.927,1.473,-0.530,-250.137,61.053,-25.252,0.0,100.0
354168,-1.008,-0.901,0.753,107.840,-37.221,20.015,0.0,125.0
354256,-0.675,1.906,-0.502,-71.786,21.725,8.237,0.0,125.0
354345,-0.991,-0.821,0.769,25.153,-17.389,10.336,0.0,126.0
354436,-0.626,1.662,-0.455,66.046,-7.122,26.511,0.0,125.0
354525,-1.004,-0.462,0.378,-185.145,31.534,-25.847,0.0,128.0
354614,-0.916,0.297,-0.026,250.130,-35.763,28.634,0.0,126.0
354704,-0.874,0.574,-0.045,-176.664,26.435,-34.321,0.0,126.0
354796,-0.948,-0.172,0.384,132.595,-15.328,0.336,0.0,126.0
354883,-0.657,1.509,-0.342,-38.382,18.557,-7.420,0.0,96.0
354968,-1.175,-0.623,0.454,-191.672,24.153,-22.664,107.0,127.0
355057,-0.881,0.154,-0.144,250.130,-56.954,60.840,0.0,124.0
355146,-0.930,0.892,-0.552,-250.137,92.847,-48.947,0.0,127.0
355236,-0.957,-0.696,0.477,250.130,-66.336,43.328,0.0,127.0
355325,-0.785,1.527,-0.610,-250.137,63.069,-37.008,0.0,128.0
355416,-1.081,-0.914,0.724,227.458,-62.275,20.870,0.0,129.0
355505,-0.562,2.000,-0.711,-153.916,50.435,-19.031,0.0,128.0
355598,-1.083,-0.993,0.756,117.840,-36.244,2.023,0.0,129.0
355686,-0.478,2.000,-0.645,17.687,10.931,-10.718,0.0,90.0
355775,-1.220,-0.846,0.583,-100.153,15.870,-14.611,0.0,127.0
355862,-0.899,0.898,-0.477,250.130,-65.603,48.618,0.0,86.0
355952,-1.004,0.135,-0.107,-250.137,81.405,-74.290,0.0,125.0
356041,-0.991,-0.349,0.275,250.130,-70.824,26.611,0.0,123.0
356128,-0.454,1.645,-0.450,-53.977,22.305,-26.756,0.0,84.0
356218,-1.204,-0.616,0.389,-225.710,25.725,-26.931,0.0,124.0
356308,-0.874,0.539,-0.409,250.130,-64.275,45.214,0.0,84.0
356398,-0.874,0.490,-0.190,-250.137,67.679,-62.664,0.0,122.0
356486,-1.010,-0.350,0.294,240.412,-47.420,28.641,0.0,95.0
356574,-0.907,1.137,-0.406,-230.489,49.649,-22.763,0.0,94.0
356663,-0.938,-0.733,0.635,228.069,-61.954,36.137,0.0,122.0
356750,-0.690,1.847,-0.642,-192.855,65.099,-24.863,0.0,86.0
356840,-1.047,-0.953,0.833,135.702,-57.336,23.069,0.0,124.0
356927,-0.460,2.000,-0.697,-153.557,44.359,-20.397,0.0,88.0
357017,-1.337,-1.247,0.842,38.740,-24.191,15.939,0.0,125.0
357116,-0.235,2.000,-0.693,-103.076,35.786,-2.534,0.0,90.0
357206,-1.260,-1.113,0.855,-9.870,-4.817,25.366,0.0,127.0
357293,-0.088,2.000,-0.482,138.282,-24.733,40.115,0.0,91.0
357382,-1.354,-0.579,0.542,-250.137,25.771,-13.298,0.0,133.0
357471,-0.602,1.595,-0.444,250.130,-97.313,145.924,0.0,136.0
357564,-1.169,0.624,-0.401,-250.137,42.840,71.618,0.0,0.0
357657,-0.724,0.579,0.633,29.214,-142.611,144.450,0.0,0.0
357750,-0.466,0.231,0.724,-141.740,-93.160,113.221,0.0,0.0
357838,-0.201,0.290,0.806,-97.756,-69.534,79.466,54.0,0.0
357918,-0.135,0.074,0.821,-71.466,-36.298,55.588,52.0,114.0
357998,-0.032,0.023,0.885,-34.733,-28.802,22.878,53.0,114.0
358078,0.030,0.083,0.897,-19.939,-12.336,8.679,53.0,115.0
358159,0.090,0.055,0.968,-13.305,-2.450,5.618,58.0,120.0
358239,0.060,0.071,0.983,-9.550,-3.351,1.954,58.0,121.0
358320,0.093,0.122,0.925,1.534,-2.168,-1.908,57.0,119.0
358408,-0.013,0.095,0.947,12.588,-0.748,1.496,0.0,115.0
358497,0.054,0.054,0.946,16.580,2.466,-9.794,0.0,133.0
358589,-0.072,0.033,0.822,52.947,14.542,-16.931,0.0,133.0
358674,-0.206,0.329,0.557,136.420,44.382,-30.710,58.0,0.0
358767,-0.187,0.237,0.568,196.756,102.886,-50.183,0.0,0.0
358860,-0.573,0.692,0.358,250.130,80.687,-137.351,0.0,0.0
358953,-0.733,1.106,0.320,-125.137,52.519,-173.626,0.0,0.0
359047,-0.905,0.290,0.313,250.130,32.458,-113.107,0.0,0.0
359137,-0.890,0.725,0.104,-64.733,18.885,-165.748,0.0,132.0
359224,-1.168,0.221,-0.009,250.130,-8.924,-74.008,0.0,96.0
359316,-1.000,0.455,-0.073,-250.137,40.718,-54.924,0.0,122.0
359403,-0.933,-0.135,0.157,250.130,-34.855,56.282,0.0,91.0
359489,-0.760,1.281,-0.371,-91.740,14.298,14.771,0.0,82.0
359578,-1.131,-0.531,0.398,-78.008,-4.565,10.282,0.0,121.0
359665,-0.714,0.790,-0.334,242.916,-30.435,53.832,0.0,82.0
359754,-0.929,0.320,-0.130,-250.137,40.145,-38.916,0.0,123.0
359841,-0.917,-0.324,0.236,250.130,-41.695,42.244,0.0,95.0
359923,-0.652,1.197,-0.483,77.145,-24.603,20.351,121.0,83.0
360010,-1.084,0.196,-0.140,-221.084,70.656,-50.863,0.0,93.0
360100,-0.983,0.023,0.213,68.420,6.321,5.244,0.0,86.0
360186,-0.665,0.608,-0.000,89.626,-3.763,21.916,0.0,82.0
360273,-0.747,0.555,-0.028,-133.267,46.557,-8.443,0.0,84.0
360363,-0.995,0.493,-0.018,-219.702,38.435,-38.687,0.0,127.0
360446,-1.387,-0.152,0.030,22.069,-83.443,-40.107,104.0,129.0
360536,-0.999,0.239,-0.353,250.130,-40.397,84.275,0.0,128.0
360623,-0.842,0.681,-0.222,36.191,5.191,20.771,0.0,90.0
360710,-0.956,0.353,0.014,-34.763,25.847,-31.824,0.0,88.0
360797,-0.708,0.377,0.072,-50.809,21.527,-47.916,0.0,89.0
360888,-1.189,-0.431,0.393,83.122,-55.916,-15.046,0.0,94.0
360970,-0.491,1.919,-0.814,115.076,21.496,50.298,120.0,81.0
361059,-1.259,-0.504,-0.185,-250.137,77.107,-48.344,0.0,125.0
361146,-0.787,0.078,-0.105,250.130,-65.359,62.542,0.0,86.0
361235,-0.851,1.251,-0.592,-250.137,48.939,-67.679,0.0,124.0
361319,-1.092,-0.665,0.462,-32.351,-0.687,5.542,108.0,127.0
361406,-0.733,0.361,-0.257,250.130,-49.893,56.748,0.0,86.0
361493,-0.696,0.933,-0.318,-148.229,16.008,-33.137,0.0,87.0
361586,-1.157,-0.014,0.115,-164.817,46.565,-22.893,0.0,127.0
361675,-1.100,0.220,0.070,131.450,-12.382,9.260,0.0,126.0
361762,-0.695,0.405,-0.036,70.397,-24.252,28.527,0.0,88.0
361849,-0.639,0.485,-0.065,-45.473,13.740,3.870,0.0,88.0
361938,-0.997,0.375,-0.029,-93.832,22.061,-15.160,0.0,127.0
362029,-1.255,0.314,0.005,-47.206,5.885,-26.321,0.0,128.0
362116,-0.914,-0.256,0.187,250.130,-82.901,65.702,0.0,88.0
362203,-0.250,2.000,-0.770,-100.702,47.641,-5.802,0.0,86.0
362292,-1.532,-1.759,0.673,-250.137,-7.832,-33.076,0.0,131.0
362383,-0.312,2.000,-1.176,250.130,-56.374,100.603,0.0,86.0
362472,-1.499,-1.160,0.348,-250.137,26.756,-38.412,0.0,129.0
362560,-0.290,1.865,-0.778,250.130,-48.695,81.618,0.0,88.0
362650,-1.383,-1.244,0.621,-219.443,23.924,-20.115,0.0,129.0
362738,-0.473,1.409,-0.604,250.130,-53.832,64.534,0.0,91.0
362827,-0.950,-0.559,0.074,-250.137,110.573,-70.855,0.0,130.0
362917,-0.849,0.069,-0.066,250.130,-62.122,17.664,0.0,127.0
363005,-0.661,1.278,-0.463,-233.817,44.840,-82.206,0.0,90.0
363098,-1.137,-0.628,0.495,-23.145,27.878,-38.427,0.0,123.0
363186,-0.941,0.533,-0.235,250.130,-33.595,8.000,0.0,82.0
363273,-0.871,0.509,-0.170,-227.580,41.832,-64.015,0.0,83.0
363362,-1.004,-0.204,0.262,96.328,0.641,3.237,0.0,117.0
363449,-0.868,0.811,-0.330,143.542,-18.603,26.351,0.0,78.0
363538,-0.972,0.139,-0.060,-250.137,35.824,-41.168,0.0,117.0
363625,-0.957,-0.059,0.087,247.748,-46.450,45.450,0.0,81.0
363712,-0.766,1.255,-0.404,7.237,-13.427,35.168,0.0,80.0
363805,-1.049,-0.052,0.007,-250.137,42.847,-3.664,0.0,121.0
363894,-0.917,-0.030,0.116,165.771,-25.076,45.023,0.0,122.0
363981,-0.861,0.635,-0.159,83.344,-13.557,25.359,0.0,85.0
364069,-0.884,0.390,-0.067,-125.290,25.725,-24.939,0.0,88.0
364160,-0.930,0.124,0.148,-63.298,10.634,-35.374,0.0,123.0
364248,-0.945,0.301,0.070,66.886,-7.191,-25.252,0.0,94.0
364335,-0.945,0.442,-0.000,19.603,-6.947,-18.824,0.0,86.0
364423,-0.969,0.352,-0.003,-22.718,4.122,-2.130,0.0,93.0
364511,-0.936,0.310,0.017,-15.618,3.832,16.855,0.0,94.0
364602,-0.922,0.242,0.043,-0.344,-1.718,20.397,0.0,95.0
364690,-0.923,0.281,0.032,3.939,3.244,6.824,0.0,93.0
364777,-0.929,0.317,0.026,-1.305,6.107,-4.137,0.0,93.0
364865,-0.926,0.342,0.031,-3.427,7.137,-9.809,0.0,93.0
364953,-0.972,0.329,0.031,-8.779,3.176,-4.252,0.0,93.0
365041,-0.947,0.311,0.014,1.908,-2.618,10.229,0.0,94.0
365129,-0.938,0.333,0.007,0.183,0.389,2.145,0.0,95.0
365217,-0.932,0.306,0.024,-0.275,0.183,0.977,0.0,96.0
365305,-0.960,0.347,0.007,-1.756,-1.519,2.229,0.0,96.0
365396,-0.909,0.338,0.009,-1.435,4.260,7.733,0.0,96.0
365487,-0.962,0.309,0.075,-88.450,13.863,-10.611,0.0,124.0
365574,-0.850,0.041,-0.183,250.130,-93.366,69.893,0.0,84.0
365662,-0.847,1.190,-0.921,-250.137,111.534,-66.817,0.0,98.0
365752,-0.990,-0.954,0.517,250.130,-73.786,53.863,0.0,127.0
365842,-0.604,1.910,-0.839,-250.137,64.794,-28.679,0.0,128.0
365933,-1.064,-1.087,0.864,143.954,-40.710,33.779,0.0,130.0
366023,-0.329,2.000,-0.680,-58.710,28.336,5.817,0.0,129.0
366114,-1.259,-1.232,0.734,-129.275,11.847,-16.237,0.0,143.0
366208,-0.635,1.361,-0.606,250.130,-32.595,67.725,0.0,132.0
366299,-1.010,-0.133,0.084,-250.137,55.450,-41.023,0.0,145.0
366389,-0.848,0.070,0.011,250.130,-54.489,47.885,0.0,134.0
366480,-0.822,1.065,-0.506,-250.137,66.099,-44.809,0.0,136.0
366571,-0.928,-0.477,0.598,178.985,-34.656,17.450,0.0,146.0
366661,-0.592,1.876,-0.535,-27.924,13.588,-2.328,0.0,135.0
366753,-1.010,-0.453,0.383,-190.740,33.771,-29.740,0.0,148.0
366843,-0.913,0.252,-0.105,250.130,-46.802,19.947,0.0,134.0
366938,-0.765,0.950,-0.281,-166.756,30.641,-47.275,0.0,133.0
367028,-0.974,0.002,0.251,-130.908,31.702,-34.344,0.0,134.0
367119,-0.905,0.298,0.147,162.832,-18.588,0.443,0.0,132.0
367209,-0.922,0.774,-0.062,-40.183,-3.382,5.664,0.0,132.0
367300,-1.080,0.331,0.125,-54.252,1.366,50.618,0.0,135.0
367390,-0.789,0.017,0.197,248.244,-76.313,95.641,0.0,139.0
367482,-0.871,1.288,-1.096,-250.137,123.794,-72.160,0.0,149.0
367574,-1.019,-1.016,0.618,250.130,-92.298,11.992,0.0,148.0
367668,-0.389,2.000,-0.921,-219.962,55.221,-54.542,0.0,0.0
367763,-1.114,-1.037,0.890,7.656,2.351,-16.053,0.0,146.0
367853,-0.780,0.987,-0.672,250.130,-54.366,41.122,0.0,132.0
367944,-0.980,0.105,-0.285,-250.137,96.977,-69.573,0.0,146.0
368035,-0.924,-0.497,0.208,250.130,-76.748,48.832,0.0,135.0
368125,-0.591,2.000,-0.817,-248.076,55.382,-29.748,0.0,133.0
368218,-1.115,-1.202,0.855,-72.015,-20.786,-5.275,0.0,148.0
368308,-0.625,1.358,-0.858,250.130,-32.366,61.107,0.0,135.0
368405,-1.097,-0.722,0.196,-250.137,46.702,-65.267,0.0,148.0
368497,-0.861,0.154,-0.166,250.130,-60.511,40.603,0.0,134.0
368587,-0.790,0.914,-0.456,-250.137,56.038,-60.321,0.0,136.0
368677,-0.975,-0.499,0.583,98.573,-14.504,8.443,0.0,137.0
368766,-0.956,0.897,-0.504,250.130,-40.763,38.351,0.0,134.0
368857,-0.967,0.305,-0.264,-250.137,69.130,-54.145,0.0,136.0
368947,-0.930,-0.435,0.318,250.130,-53.924,34.794,0.0,136.0
369036,-0.579,1.903,-0.574,-57.420,6.237,-7.260,0.0,134.0
369126,-1.063,-0.332,0.238,-250.137,35.718,-38.802,0.0,138.0
369218,-0.892,0.137,0.066,250.130,-32.939,16.244,0.0,134.0
369308,-0.849,0.907,-0.198,48.359,-16.389,-11.397,0.0,132.0
369397,-0.921,0.351,0.029,-124.725,15.802,-28.802,0.0,132.0
369487,-0.882,0.238,0.129,14.351,4.366,-11.015,0.0,131.0
369576,-0.947,0.467,-0.028,-178.046,34.237,-19.840,0.0,132.0
369667,-0.942,-0.559,0.229,250.130,-82.740,39.336,0.0,130.0
369754,-0.497,2.000,-0.886,-214.695,48.466,-24.763,0.0,90.0
369838,-1.236,-1.625,0.772,-227.122,-4.618,-16.687,100.0,135.0
369926,-0.702,0.675,-0.609,250.130,-51.466,80.855,0.0,92.0
370018,-0.889,0.098,-0.232,-250.137,66.397,-61.397,0.0,133.0
370108,-0.913,-0.350,0.272,250.130,-43.015,28.779,0.0,132.0
370197,-0.686,1.830,-0.537,-163.153,30.450,-19.015,0.0,131.0
370282,-1.103,-0.720,0.591,-139.076,10.595,-8.832,101.0,136.0
370371,-0.816,0.289,-0.159,250.130,-52.168,58.191,0.0,132.0
370461,-0.877,1.009,-0.523,-250.137,70.267,-31.992,0.0,135.0
370555,-0.946,-0.588,0.702,132.427,-43.198,38.115,0.0,0.0
370646,-0.449,2.000,-0.657,-7.664,29.954,33.153,0.0,139.0
370742,-1.154,-1.070,0.805,-121.939,-11.672,4.649,0.0,0.0
370835,-0.183,2.000,-0.866,194.870,-0.008,50.267,0.0,0.0
370926,-1.239,-1.307,0.942,-165.008,6.588,-14.366,0.0,153.0
371020,-0.096,2.000,-0.776,178.916,-3.718,52.282,0.0,0.0
371113,-1.248,-1.260,1.019,-81.397,-4.435,8.443,0.0,0.0
371207,0.016,2.000,-0.915,78.550,14.115,38.237,0.0,0.0
371301,-1.238,-1.205,1.036,-23.924,-9.168,12.366,0.0,0.0
371394,-0.022,2.000,-0.853,-28.588,46.282,10.382,0.0,0.0
371485,-1.129,-1.165,1.051,-21.511,-23.519,-8.916,0.0,156.0
371582,-0.170,2.000,-0.847,37.489,45.603,15.359,0.0,0.0
371676,-1.247,-1.450,1.245,16.145,-52.656,-19.969,0.0,0.0
371770,0.039,2.000,-1.057,24.466,22.107,11.214,0.0,0.0
371863,-1.199,-1.316,1.190,-47.351,-16.420,-16.931,0.0,0.0
371957,-0.107,2.000,-1.013,155.809,2.519,49.206,0.0,0.0
372050,-1.334,-1.866,1.014,-198.863,-45.573,-56.290,0.0,0.0
372141,0.060,2.000,-1.490,250.130,-35.916,85.649,0.0,135.0
372235,-1.206,-1.490,0.865,-250.137,17.443,-23.321,0.0,0.0
372329,-0.432,2.000,-0.953,250.130,-54.931,80.366,0.0,0.0
372425,-1.040,-0.668,0.458,-250.137,68.092,-61.069,0.0,0.0
372519,-0.858,0.720,-0.644,250.130,-81.649,64.962,0.0,0.0
372613,-0.796,-0.111,-0.115,-250.137,111.962,-95.130,0.0,0.0
372707,-0.880,-0.108,-0.064,250.130,-94.168,25.817,0.0,0.0
372797,-0.622,1.039,-0.713,-250.137,96.824,-103.130,0.0,139.0
372888,-0.991,-0.588,0.635,180.886,-28.023,-18.229,0.0,145.0
372976,-0.744,1.492,-0.702,250.130,-67.450,3.176,0.0,92.0
373065,-0.928,0.076,-0.186,-250.137,87.069,-93.809,0.0,130.0
373158,-0.973,-0.200,0.182,250.130,-51.740,30.870,0.0,127.0
373245,-0.625,1.569,-0.378,-35.504,-20.557,-6.344,0.0,88.0
373336,-1.163,-0.338,0.281,-158.176,19.656,-4.214,0.0,127.0
373423,-0.777,0.265,-0.117,250.130,-70.985,31.756,0.0,86.0
373511,-0.870,1.016,-0.774,-250.137,91.374,-85.229,0.0,99.0
373599,-1.005,-1.163,0.531,250.130,-93.924,55.160,0.0,98.0
373687,-0.563,2.000,-0.929,-250.137,80.924,-63.603,0.0,87.0
373776,-1.051,-1.287,0.911,250.130,-89.962,29.374,0.0,123.0
373866,-0.617,2.000,-0.735,-250.137,73.099,-39.366,0.0,123.0
373958,-1.023,-0.798,0.535,250.130,-74.313,37.053,0.0,123.0
374048,-0.708,1.518,-0.499,-250.137,69.496,-47.206,0.0,123.0
374135,-1.083,-0.960,0.524,250.130,-85.779,32.427,0.0,87.0
374223,-0.602,2.000,-0.996,-250.137,93.679,-94.305,0.0,85.0
374312,-1.236,-1.363,0.813,250.130,-50.328,11.603,0.0,120.0
374400,-0.528,2.000,-0.750,-196.137,64.672,-53.290,0.0,82.0
374490,-1.243,-0.975,0.711,67.664,-19.771,-9.397,0.0,118.0
374577,-0.535,2.000,-0.606,-52.366,43.450,-19.031,0.0,80.0
374669,-1.342,-0.825,0.625,-32.588,-21.626,2.809,0.0,119.0
374756,-0.446,1.935,-0.675,126.214,-2.992,66.145,0.0,83.0
374846,-1.301,-0.816,0.317,-250.137,26.061,-2.198,0.0,126.0
374934,-0.521,0.989,-0.605,250.130,-66.847,107.863,0.0,90.0
375024,-0.883,0.236,-0.234,-250.137,84.832,-56.275,0.0,131.0
375114,-1.065,0.011,0.319,250.130,-85.931,69.626,0.0,134.0
375208,-0.779,1.467,-0.237,-250.137,8.313,37.901,0.0,0.0
375303,-1.172,-0.946,1.108,194.244,-204.244,106.863,0.0,0.0
375400,-0.458,1.541,-0.204,-250.137,-29.626,106.458,0.0,0.0
375494,-0.390,0.400,0.763,-30.695,-132.756,94.756,0.0,0.0
375588,-0.013,0.138,0.718,-91.374,-79.557,80.962,0.0,0.0
375676,0.164,0.035,0.767,-48.382,-53.008,41.527,0.0,99.0
375771,0.215,-0.011,0.830,-40.015,-12.557,16.977,0.0,0.0
375859,0.155,0.116,0.896,-1.321,-4.725,-10.542,0.0,104.0
375948,0.238,0.063,0.952,0.137,-1.008,5.282,0.0,103.0
376036,0.224,0.056,0.953,9.634,-0.458,-2.618,0.0,101.0
376124,0.195,-0.044,0.873,28.847,3.893,-10.511,0.0,100.0
376216,0.122,0.148,0.621,116.847,52.481,-20.069,0.0,107.0
376310,0.104,0.459,0.428,216.061,158.206,-33.069,0.0,0.0
376404,-0.415,0.928,0.589,-70.153,185.618,-109.107,0.0,0.0
376499,-0.819,0.151,0.819,250.130,12.481,-103.214,0.0,0.0
376593,-0.286,1.804,-0.153,-78.916,87.901,-115.038,0.0,0.0
376687,-1.084,-0.630,1.118,21.374,19.809,-103.634,0.0,0.0
376777,-0.671,2.000,-0.937,250.130,-2.863,3.412,0.0,128.0
376867,-0.954,-0.387,0.209,-250.137,79.237,-94.809,0.0,134.0
376957,-0.959,-0.125,0.105,250.130,-44.947,12.321,0.0,129.0
377052,-0.779,1.518,-0.546,-250.137,39.954,-60.931,0.0,128.0
377136,-1.126,-1.027,0.842,57.015,-18.084,-4.130,105.0,129.0
377225,-0.708,1.462,-0.630,250.130,-21.992,59.244,0.0,96.0
377315,-0.996,0.101,0.016,-250.137,46.275,-30.802,0.0,130.0
377405,-1.054,0.062,0.467,189.817,-55.969,101.443,0.0,132.0
377495,-0.877,0.982,-0.135,235.901,-49.267,196.916,0.0,129.0
377584,-0.308,1.083,-0.145,86.580,33.687,207.847,200.0,96.0
377672,-0.196,0.788,-0.183,-164.908,65.191,46.832,192.0,105.0
377756,-0.074,0.410,-0.188,-250.137,123.244,-142.916,54.0,110.0
377851,-0.872,-1.296,1.240,75.496,-22.351,-168.756,0.0,0.0
377946,-0.113,2.000,-1.346,44.718,35.618,-64.336,0.0,0.0
378032,-0.954,-1.256,0.572,-250.137,107.687,-102.611,57.0,0.0
378123,-0.880,-0.419,-0.250,250.130,-36.298,2.824,0.0,137.0
378213,-0.433,2.000,-1.124,-250.137,74.779,-128.840,0.0,132.0
378298,-1.413,-2.000,1.389,-14.595,31.511,-13.985,102.0,143.0
378386,-0.909,0.677,-0.583,250.130,-65.618,47.710,0.0,89.0
378474,-0.767,1.010,-0.189,-186.481,13.656,-44.779,0.0,88.0
378568,-0.993,-0.157,0.401,-128.588,-4.076,-18.992,0.0,124.0
378658,-0.887,0.230,0.073,212.771,-21.969,29.710,0.0,123.0
378748,-0.906,0.788,-0.154,-158.931,25.198,-6.382,0.0,124.0
378839,-0.969,-0.181,0.360,-109.160,1.145,13.282,0.0,126.0
378927,-0.827,0.182,-0.111,250.130,-27.885,38.565,0.0,87.0
379017,-0.877,0.771,-0.377,-250.137,55.557,-57.573,0.0,125.0
379102,-1.010,-0.503,0.552,-26.809,23.344,-18.031,105.0,127.0
379190,-0.951,0.236,-0.032,250.130,-14.466,2.695,0.0,94.0
379281,-0.848,0.946,-0.201,-34.122,-4.740,-23.489,0.0,83.0
379369,-0.958,0.189,0.085,-155.168,29.374,-22.550,0.0,95.0
379459,-0.954,0.204,0.122,-17.168,9.107,12.282,0.0,123.0
379549,-0.958,0.303,0.042,38.511,-12.534,24.427,0.0,125.0
379640,-0.938,0.425,-0.012,-4.634,-2.031,26.137,0.0,128.0
379730,-0.900,0.241,0.072,-34.504,3.092,14.023,0.0,130.0
379821,-0.950,0.297,0.044,-10.634,3.611,2.580,0.0,131.0
379917,-0.955,0.296,0.060,-3.260,-2.038,-4.351,0.0,131.0
380006,-0.939,0.308,0.054,8.435,-4.832,-2.718,0.0,130.0
380098,-0.915,0.315,0.036,12.786,-1.183,-4.641,0.0,129.0
380187,-0.893,0.411,0.030,0.137,10.763,-23.527,0.0,128.0
380271,-0.962,0.337,0.105,-62.718,15.763,-26.053,106.0,128.0
380355,-1.408,-0.504,0.518,60.000,-84.824,21.252,104.0,128.0
380443,-0.632,0.699,-0.852,250.130,-78.649,144.092,0.0,85.0
380532,-0.897,-0.224,-1.314,-250.137,135.992,-113.023,0.0,130.0
380620,-1.003,-0.058,-1.110,250.130,-141.954,134.153,0.0,93.0
380706,-0.987,-0.333,-0.400,-250.137,97.977,-80.031,0.0,76.0
380803,-0.704,0.352,-0.532,250.130,-113.298,108.145,0.0,0.0
380893,-0.968,-0.321,0.080,-250.137,90.992,-61.626,0.0,134.0
380986,-0.840,0.441,-0.192,250.130,-83.405,66.908,0.0,0.0
381080,-0.685,0.752,-0.050,-250.137,83.748,-44.733,0.0,0.0
381170,-1.173,0.109,0.756,-16.580,22.511,31.687,0.0,143.0
381260,-1.008,-0.158,0.233,250.130,-155.977,87.336,0.0,134.0
381347,-0.346,1.416,-0.664,235.916,-80.046,119.229,0.0,98.0
381437,-0.142,0.640,-0.299,-250.137,109.031,-69.237,0.0,137.0
381532,-1.115,0.468,-0.205,-250.137,153.382,-89.267,0.0,0.0
381619,-0.914,-0.792,0.528,250.130,-136.863,-8.702,0.0,138.0
381713,-0.279,2.000,-1.367,-250.137,154.176,-126.847,0.0,0.0
381798,-1.299,-2.000,2.000,250.130,-69.191,-39.397,105.0,141.0
381887,0.217,2.000,-1.687,45.626,-14.870,44.481,0.0,132.0
381972,-1.680,-2.000,1.848,-89.153,-46.725,-9.221,107.0,139.0
382062,0.411,2.000,-1.039,113.237,-0.908,79.580,0.0,137.0
382150,-1.091,-2.000,1.844,-156.214,-38.313,-30.748,109.0,195.0
382244,-0.819,2.000,0.136,-104.588,-73.649,18.244,0.0,194.0
382341,-0.823,-0.169,0.996,-38.855,-135.908,55.076,0.0,194.0
382434,-0.359,0.372,0.723,-78.863,-128.511,66.832,0.0,196.0
382527,-0.210,-0.021,0.827,-108.214,-110.176,70.076,0.0,200.0
382621,0.017,-0.040,0.796,-55.641,-64.962,48.634,0.0,0.0
382714,0.110,-0.090,0.847,-22.908,-32.756,23.664,0.0,0.0
382809,0.152,-0.108,0.922,-13.107,-11.107,17.046,0.0,0.0
382895,0.150,-0.174,0.912,9.603,5.153,-3.664,62.0,0.0
382980,0.053,-0.364,0.834,108.275,26.374,-24.664,62.0,0.0
383077,0.073,-0.246,0.501,250.130,96.687,-26.038,0.0,0.0
383170,-0.387,1.448,0.156,-250.137,186.069,-170.908,0.0,0.0
383259,-1.084,-0.430,-0.001,250.130,-118.794,-75.847,0.0,110.0
383352,-0.518,1.640,-0.993,-250.137,213.008,-225.847,0.0,0.0
383447,-1.410,-1.369,0.218,250.130,-173.954,25.985,0.0,0.0
383541,-0.392,1.364,-1.110,-250.137,230.069,-153.298,0.0,0.0
383631,-0.737,-0.461,0.075,250.130,-109.359,84.405,0.0,134.0
383724,-0.752,1.700,-0.877,-250.137,109.695,-80.580,0.0,0.0
383815,-0.729,-1.095,0.790,250.130,-84.282,99.710,0.0,139.0
383911,-0.270,2.000,-1.315,-250.137,129.237,-92.122,0.0,0.0
384006,-0.789,-0.995,0.818,250.130,-55.328,19.763,0.0,0.0
384099,-0.405,1.371,-0.364,-202.198,90.366,-71.321,0.0,0.0
384193,-0.954,0.143,0.497,-60.122,44.191,-27.916,0.0,0.0
384287,-0.997,0.604,0.383,-111.702,77.809,4.282,0.0,0.0
384380,-0.981,0.250,0.527,147.198,-52.115,-1.779,0.0,0.0
384475,-0.813,0.624,0.375,-250.137,45.313,11.847,0.0,0.0
384568,-0.874,0.714,0.603,142.176,-120.947,61.183,0.0,0.0
384665,-0.967,0.874,0.529,-243.931,18.260,46.534,0.0,0.0
384758,-0.659,0.434,0.291,233.099,-217.107,114.496,0.0,0.0
384838,-0.768,-0.093,0.378,-250.137,68.038,-1.153,62.0,91.0
384926,0.171,0.204,-0.081,250.130,-239.794,113.359,0.0,90.0
385007,-0.644,-0.254,0.657,-250.137,125.916,-16.847,67.0,106.0
385095,-0.086,0.133,0.472,250.130,-170.351,62.015,0.0,99.0
385176,-0.310,0.184,0.734,-250.137,130.718,-33.794,61.0,100.0
385264,-0.442,-0.617,1.120,250.130,-179.374,17.885,0.0,96.0
385344,0.120,1.211,0.059,-250.137,174.947,-46.725,64.0,95.0
385428,-0.647,-1.233,1.743,113.389,-116.145,-14.237,58.0,109.0
385508,1.060,1.920,-0.026,50.672,22.588,24.916,51.0,96.0
385588,-0.781,-1.056,1.582,-213.603,27.237,-33.733,57.0,110.0
385677,0.793,0.896,0.309,250.130,-80.023,54.130,0.0,98.0
385757,-0.478,-0.394,1.123,-250.137,97.145,-23.260,57.0,101.0
385837,-0.271,-0.276,0.898,250.130,-190.412,25.954,59.0,99.0
385926,0.454,1.290,0.098,-189.160,142.977,-33.084,0.0,100.0
386011,-0.632,-1.298,1.822,30.565,-68.458,-18.626,58.0,0.0
386103,1.250,1.206,0.231,135.076,-15.008,35.267,0.0,109.0
386189,-0.581,-0.748,1.397,-250.137,103.244,-20.191,58.0,0.0
386278,0.505,0.133,0.356,250.130,-142.015,54.366,0.0,102.0
386364,-0.540,-0.166,0.950,-250.137,129.779,-35.206,63.0,0.0
386444,0.390,-0.018,0.570,250.130,-107.618,45.611,48.0,103.0
386530,-0.403,0.354,0.704,-250.137,132.481,-47.023,57.0,0.0
386610,0.056,-0.073,0.315,250.130,-149.626,44.359,48.0,103.0
386696,-0.197,0.473,0.478,-250.137,176.084,-69.290,56.0,0.0
386777,-0.022,-0.063,0.575,250.130,-143.519,50.840,59.0,112.0
386866,-0.318,0.128,0.596,-250.137,159.092,-56.076,58.0,0.0
386948,-0.535,-0.368,0.798,250.130,-210.664,18.908,77.0,111.0
387028,0.317,1.448,-0.109,-250.137,193.763,-49.809,50.0,111.0
387115,-0.865,-1.541,1.889,120.214,-107.305,-30.664,58.0,0.0
387203,0.960,2.000,-0.238,-29.412,78.687,-2.321,0.0,100.0
387292,-0.733,-1.113,1.798,-78.412,29.756,-11.191,0.0,112.0
387373,0.540,0.681,0.319,250.130,-162.664,49.351,50.0,107.0
387452,-0.120,0.364,0.470,-250.137,213.565,-63.244,59.0,108.0
387537,-0.512,-0.990,1.445,250.130,-182.519,-19.305,59.0,106.0
387625,0.436,1.759,-0.119,-246.015,135.351,-33.794,0.0,98.0
387715,-0.602,-1.395,1.776,220.328,-121.038,-23.427,0.0,106.0
387804,0.298,1.685,-0.190,-250.137,148.084,-45.061,0.0,106.0
387885,-0.531,-1.110,1.614,220.229,-111.656,-10.924,58.0,108.0
387965,0.554,1.698,0.052,-59.893,66.557,8.015,60.0,107.0
388051,-0.451,-1.250,1.707,18.725,-42.885,-26.924,60.0,0.0
388146,1.212,2.000,-0.410,99.626,62.023,14.107,0.0,0.0
388235,-0.765,-1.737,1.692,28.840,-0.779,-36.931,57.0,0.0
388329,1.041,2.000,-0.693,67.870,161.336,-60.832,0.0,0.0
388415,-1.010,-2.000,2.000,250.130,-79.198,-58.832,59.0,0.0
388509,-0.354,2.000,-0.598,-250.137,191.405,-123.069,0.0,0.0
388603,-0.041,-0.022,-0.247,250.130,-126.931,78.405,0.0,0.0
388689,-1.562,-2.000,1.978,-250.137,60.634,-33.634,56.0,0.0
388784,0.450,2.000,-1.011,74.359,74.863,23.855,0.0,0.0
388878,-0.856,-1.235,1.291,250.130,-29.924,5.954,0.0,0.0
388972,-0.744,1.133,-0.143,-250.137,136.214,-100.908,0.0,0.0
389070,-0.703,0.699,0.004,250.130,-22.542,8.366,0.0,0.0
389165,-0.962,-0.042,0.499,-201.260,122.046,-68.756,0.0,0.0
389259,-0.869,0.155,0.445,250.130,-94.924,-18.076,0.0,0.0
389353,-0.729,2.000,-0.557,-250.137,38.992,-33.664,0.0,200.0
389447,-1.503,-0.846,1.140,-64.901,-189.214,0.260,0.0,0.0
389541,-0.671,0.204,0.599,-103.336,-205.687,43.267,0.0,0.0
389636,-0.307,0.034,0.616,-93.939,-121.908,46.695,0.0,0.0
389731,-0.152,-0.064,0.682,-34.443,-54.679,15.244,0.0,0.0
389828,-0.074,-0.057,0.786,-1.901,-14.260,-3.137,0.0,0.0
389922,-0.039,-0.059,0.854,-3.359,7.656,-0.122,0.0,0.0
390017,-0.079,-0.027,0.885,22.573,10.435,-8.130,0.0,0.0
390111,-0.108,-0.145,0.714,96.351,32.344,-22.282,0.0,0.0
390205,-0.163,0.092,0.587,51.481,152.641,-22.237,0.0,0.0
390299,-0.793,-0.290,0.686,250.130,185.313,-45.588,0.0,0.0
390390,-1.067,1.658,-0.825,250.130,-56.763,-64.221,0.0,136.0
390481,-1.496,-0.218,0.056,-250.137,159.458,-96.962,0.0,144.0
390572,-0.805,-0.141,-0.163,250.130,-42.863,44.939,0.0,129.0
390666,-0.920,0.401,-0.329,-250.137,88.351,-87.031,0.0,130.0
390756,-0.829,-0.221,0.235,250.130,-55.053,26.893,0.0,127.0
390846,-0.845,1.159,-0.545,-250.137,67.443,-62.588,0.0,128.0
390936,-1.022,-0.863,0.676,250.130,-69.397,3.305,0.0,128.0
391027,-0.620,2.000,-0.893,-221.206,63.427,-24.122,0.0,127.0
391112,-1.136,-1.381,0.910,51.137,-31.168,-12.382,105.0,130.0
391200,-0.563,1.409,-0.793,250.130,-45.076,65.977,0.0,90.0
391297,-1.297,-0.854,0.333,-250.137,34.771,-77.527,0.0,139.0
391387,-0.621,0.853,-0.651,250.130,-54.977,80.786,0.0,88.0
391476,-1.136,-0.204,-0.092,-250.137,63.427,-73.542,0.0,127.0
391563,-0.850,0.101,-0.174,250.130,-65.427,73.244,0.0,90.0
391652,-0.794,0.493,-0.449,-250.137,89.275,-76.863,0.0,127.0
391742,-1.011,-0.725,0.244,250.130,-89.611,54.252,0.0,125.0
391831,-0.666,1.287,-0.578,-250.137,64.511,-57.076,0.0,126.0
391920,-1.105,-1.094,0.811,237.137,-53.420,20.069,0.0,127.0
392009,-0.357,2.000,-0.666,-69.603,35.931,5.031,0.0,125.0
392094,-1.555,-1.468,0.823,-250.137,-20.282,-67.130,107.0,132.0
392186,-0.442,1.450,-0.856,250.130,-83.351,114.710,0.0,126.0
392276,-1.041,-0.311,-0.077,-250.137,101.290,-46.763,0.0,143.0
392367,-0.905,-0.095,-0.066,250.130,-135.847,83.565,0.0,132.0
392457,-0.736,0.916,-0.246,-250.137,80.695,-28.107,0.0,142.0
392550,-0.940,-0.430,0.750,250.130,-108.519,67.160,0.0,0.0
392644,-0.685,1.541,-0.333,-250.137,87.015,15.015,0.0,0.0
392729,-0.945,-0.897,1.160,202.916,-126.244,51.496,67.0,0.0
392823,-0.102,2.000,-0.306,-122.802,44.702,63.626,0.0,0.0
392911,-0.905,-1.380,1.517,-45.252,-108.954,-2.672,63.0,0.0
393006,0.550,1.806,-0.198,229.397,-47.916,88.992,0.0,0.0
393092,-0.915,-0.874,1.185,-250.137,19.687,-44.580,62.0,0.0
393185,0.637,1.254,-0.133,250.130,-85.496,126.481,0.0,0.0
393271,-0.653,-1.164,1.364,-250.137,7.634,-46.718,60.0,0.0
393364,0.672,1.631,0.058,250.130,-18.542,96.229,0.0,0.0
393450,-0.747,-1.693,1.865,-250.137,-12.733,-33.260,60.0,0.0
393543,1.032,2.000,-0.435,250.130,-32.824,113.344,0.0,0.0
393629,-0.763,-2.000,2.000,-143.168,-33.099,-33.420,57.0,0.0
393719,1.025,2.000,-0.720,26.229,64.969,22.214,0.0,94.0
393798,-0.537,-2.000,2.000,102.954,-86.954,-14.061,58.0,94.0
393886,0.823,2.000,-0.270,-76.931,56.298,10.427,0.0,91.0
393965,-0.481,-1.777,1.956,99.504,-97.359,8.649,55.0,95.0
394046,0.104,1.460,0.340,-193.718,-34.618,43.351,58.0,110.0
394131,0.033,-0.936,1.160,-160.695,-50.679,23.328,52.0,0.0
394217,0.393,-0.296,0.721,-22.969,-57.145,15.763,52.0,0.0
394302,0.244,-0.142,0.831,-20.618,-12.092,16.244,57.0,0.0
394390,0.293,-0.401,0.915,-4.695,-12.305,11.443,51.0,0.0
394475,0.321,-0.331,0.858,1.802,-5.023,0.947,52.0,0.0
394561,0.272,-0.335,0.878,-2.939,2.817,-1.641,51.0,0.0
394646,0.247,-0.310,0.860,13.519,-1.137,-7.954,52.0,0.0
394731,0.388,-0.564,0.858,103.374,22.878,-8.389,58.0,0.0
394817,0.366,-0.146,0.643,250.130,169.405,30.450,56.0,0.0
394897,-0.601,0.180,1.357,-135.962,-11.489,-82.710,60.0,98.0
394985,0.221,0.267,0.236,250.130,-146.817,8.763,0.0,94.0
395072,-0.191,0.839,0.005,-250.137,205.466,-129.916,0.0,92.0
395155,0.023,-0.863,0.440,250.130,-132.405,68.588,68.0,91.0
395243,-0.206,0.892,0.043,-250.137,144.450,-107.321,0.0,92.0
395331,-0.094,-0.546,0.506,250.130,-138.847,88.084,0.0,101.0
395419,-0.418,0.246,0.341,-250.137,110.214,-88.122,0.0,91.0
395507,0.455,0.177,0.313,250.130,-96.099,99.427,0.0,103.0
395587,-0.515,-0.405,0.832,-250.137,74.962,-55.076,70.0,92.0
395675,0.277,0.135,0.471,250.130,-119.221,88.351,0.0,92.0
395755,-0.341,-0.094,0.607,-250.137,104.198,-71.840,60.0,96.0
395838,-0.159,-0.392,0.878,250.130,-146.656,61.290,62.0,95.0
395926,0.215,1.412,-0.048,-250.137,130.756,-92.229,0.0,98.0
396006,-0.498,-1.179,1.638,224.802,-106.473,8.573,57.0,98.0
396094,0.977,2.000,-0.259,-9.328,42.771,1.237,0.0,97.0
396174,-0.735,-1.413,1.856,-143.519,-12.618,-24.695,57.0,100.0
396262,0.766,1.072,0.147,250.130,-97.084,75.542,0.0,96.0
396350,-0.102,0.097,0.495,-250.137,147.252,-72.252,0.0,101.0
396431,-0.090,-0.736,0.762,250.130,-148.565,55.198,66.0,97.0
396519,0.422,1.673,-0.224,-250.137,130.511,-98.718,0.0,99.0
396603,-0.309,-1.417,1.482,250.130,-119.908,32.901,57.0,110.0
396691,0.437,2.000,-0.443,-250.137,100.206,-71.794,0.0,96.0
396771,-0.503,-1.434,1.670,250.130,-94.916,25.206,58.0,98.0
396859,0.494,2.000,-0.310,-250.137,107.290,-67.412,0.0,98.0
396939,-0.464,-1.777,1.803,232.893,-86.160,8.931,56.0,99.0
397027,0.335,2.000,-0.154,-162.473,70.718,-30.992,0.0,98.0
397108,-0.432,-1.304,1.613,250.130,-81.176,35.046,60.0,99.0
397188,0.251,2.000,-0.258,-250.137,102.550,-56.183,57.0,99.0
397279,-0.465,-1.488,1.511,250.130,-95.481,38.107,0.0,100.0
397360,0.002,1.590,-0.247,-250.137,110.908,-108.481,58.0,110.0
397446,-0.402,-0.944,1.033,250.130,-104.412,67.374,61.0,0.0
397526,-0.405,1.033,-0.077,-250.137,112.412,-78.649,53.0,98.0
397605,-0.368,-0.409,0.776,250.130,-118.191,73.779,52.0,90.0
397700,0.163,2.000,-0.349,-220.649,133.992,-29.573,0.0,0.0
397794,-0.402,-1.146,1.308,250.130,-155.863,58.893,0.0,0.0
397883,-0.658,0.563,-1.196,-250.137,250.130,-174.901,0.0,106.0
397977,-0.176,1.562,-1.335,250.130,-199.153,165.565,0.0,0.0
398067,-1.404,-2.000,2.000,-250.137,90.382,-67.618,0.0,174.0
398161,1.739,2.000,-1.047,63.359,67.466,38.267,0.0,0.0
398249,-0.812,-2.000,2.000,250.130,-175.168,17.679,0.0,104.0
398343,0.409,1.464,-0.933,-250.137,250.130,-143.160,0.0,184.0
398437,0.675,0.872,-0.592,250.130,-145.504,95.420,0.0,0.0
398523,-1.699,-2.000,2.000,-129.031,-80.840,0.771,51.0,0.0
398617,1.751,2.000,-1.887,250.130,3.153,-41.924,0.0,0.0
398711,-0.303,-1.975,2.000,164.557,-101.076,24.481,0.0,0.0
398795,-1.123,-0.487,-0.376,-250.137,150.771,-119.038,54.0,108.0
398889,2.000,2.000,-1.646,250.130,40.588,92.260,0.0,0.0
398970,-0.784,-2.000,2.000,157.656,-134.954,24.359,54.0,109.0
399065,-0.278,2.000,-0.022,-236.809,99.389,-95.260,0.0,0.0
399159,0.740,0.749,-0.010,250.130,-54.733,70.374,0.0,0.0
399244,-1.203,-2.000,2.000,-68.794,-100.878,-39.534,40.0,0.0
399338,0.108,2.000,-1.202,-250.137,167.122,-124.947,0.0,0.0
399432,-0.584,-0.488,0.937,250.130,-100.702,89.298,0.0,0.0
399529,0.571,2.000,-0.547,-250.137,106.695,-69.092,0.0,0.0
399610,-0.500,-2.000,2.000,250.130,-114.290,-6.435,53.0,110.0
399705,0.197,2.000,-0.649,-137.992,72.557,-66.252,0.0,0.0
399790,-0.774,-2.000,1.994,219.779,-96.481,10.916,48.0,0.0
399876,0.040,2.000,-0.260,-236.824,71.886,-46.076,58.0,0.0
399962,-0.450,-1.174,1.418,250.130,-98.183,37.366,49.0,0.0
400048,-0.212,0.927,0.125,-250.137,62.962,-89.382,58.0,0.0
400142,0.106,-0.128,0.581,250.130,-60.977,62.947,0.0,0.0
400223,-0.637,-0.866,1.227,-250.137,47.351,-53.595,54.0,102.0
400320,0.633,1.024,-0.293,250.130,-53.214,94.298,0.0,0.0
400406,-0.946,-2.000,2.000,-190.740,-15.947,-53.527,53.0,0.0
400500,0.728,2.000,-0.527,64.321,67.298,3.687,0.0,0.0
400586,-0.451,-1.226,1.536,250.130,-98.710,36.664,59.0,0.0
400672,-0.682,1.016,0.032,-250.137,52.496,-76.809,58.0,0.0
400766,0.475,0.726,0.214,250.130,-13.679,62.534,0.0,0.0
400854,-1.143,-0.807,1.569,-45.115,-76.580,-49.847,58.0,0.0
400948,0.012,2.000,-0.785,-179.725,97.740,-95.641,0.0,0.0
401042,-0.820,-1.057,1.496,250.130,-137.237,14.122,0.0,0.0
401139,-0.753,1.229,-0.558,-250.137,135.176,-109.718,0.0,0.0
401234,0.451,0.006,0.136,250.130,-98.359,103.466,0.0,0.0
401320,-1.378,-0.973,1.063,-250.137,27.076,-61.603,58.0,0.0
401415,0.462,2.000,-1.331,181.328,59.504,49.794,0.0,0.0
401509,-0.489,-1.278,1.352,250.130,-129.863,55.214,0.0,0.0
401595,-0.730,0.575,-0.018,-250.137,137.153,-133.756,59.0,0.0
401682,0.476,0.581,-0.033,250.130,-57.588,100.229,59.0,0.0
401776,-1.200,-1.129,1.281,-250.137,-5.931,-72.198,0.0,0.0
401884,-0.621,2.000,-0.551,18.252,58.198,-60.252,0.0,0.0
401976,-0.807,-0.114,0.251,250.130,-122.473,33.817,0.0,116.0
402072,-0.558,1.039,-0.787,-250.137,221.771,-250.137,0.0,0.0
402169,-0.832,-0.758,0.807,250.130,-111.954,40.214,0.0,0.0
402267,-0.621,0.892,-1.138,-250.137,210.244,-157.924,0.0,0.0
402369,-0.778,-0.723,-1.098,250.130,-195.000,99.817,0.0,0.0
402457,-1.428,-0.490,-0.374,-250.137,151.878,-176.626,0.0,65.0
402549,0.009,0.354,-1.157,250.130,-75.221,106.969,0.0,128.0
402644,-1.852,-1.537,0.832,-250.137,57.267,-99.214,0.0,129.0
402734,0.180,2.000,-0.860,250.130,49.130,34.603,0.0,84.0
402820,-2.000,-1.707,0.962,-202.931,-29.160,-110.000,110.0,121.0
402909,0.832,2.000,-1.485,250.130,28.710,57.252,0.0,79.0
402995,-1.641,-1.882,0.857,-194.580,21.405,-22.046,114.0,118.0
403084,0.045,1.999,-0.760,195.886,-43.267,76.962,0.0,82.0
403175,-1.789,-1.218,0.991,-160.985,-36.771,-8.481,0.0,118.0
403264,0.128,2.000,-0.949,250.130,-69.550,65.267,0.0,78.0
403356,-1.704,-1.265,-0.024,-250.137,84.153,-70.389,0.0,120.0
403447,0.344,1.824,-1.257,250.130,-43.740,127.588,0.0,81.0
403539,-2.000,-1.646,0.375,-250.137,-12.618,-50.221,0.0,120.0
403629,-0.113,2.000,-1.083,137.794,-8.305,51.153,0.0,81.0
403720,-1.273,-0.981,0.868,-74.901,19.313,-18.611,0.0,118.0
403809,-0.324,1.896,-0.696,250.130,-16.481,13.962,0.0,77.0
403895,-1.886,-1.774,0.634,-250.137,34.481,-103.420,112.0,118.0
403984,-0.685,0.761,-1.247,250.130,-126.580,120.473,0.0,77.0
404075,-1.332,-0.385,-0.387,-250.137,133.534,-101.084,0.0,116.0
404168,0.066,0.241,-1.365,250.130,-146.267,177.725,0.0,80.0
404254,-1.798,-1.610,-0.646,-250.137,101.412,-94.588,118.0,119.0
404344,0.222,1.065,-1.427,250.130,-38.374,120.145,0.0,84.0
404430,-1.948,-2.000,1.152,-250.137,-45.176,-31.000,112.0,122.0
404520,0.570,2.000,-1.251,250.130,43.870,39.595,0.0,82.0
404612,-1.189,-2.000,1.794,55.076,-102.176,15.359,0.0,122.0
404701,-0.137,2.000,-1.474,-250.137,88.023,-95.573,0.0,83.0
404791,-1.546,-2.000,1.293,250.130,-151.595,21.435,0.0,90.0
404885,-0.789,2.000,-1.730,-250.137,211.893,-189.313,0.0,121.0
404975,-0.142,-0.454,-0.700,250.130,-115.824,136.092,0.0,85.0
405066,-1.875,-1.497,0.251,-250.137,19.611,-59.122,0.0,121.0
405156,-0.981,2.000,-0.764,-158.000,39.969,-35.214,0.0,88.0
405248,-0.786,0.347,0.452,9.481,14.771,14.489,0.0,122.0
405340,-0.968,0.088,0.274,-193.359,-0.473,8.740,0.0,126.0
405430,-1.006,0.343,0.204,-250.137,-4.282,2.290,109.0,187.0
405518,-1.194,0.152,0.347,48.298,-111.733,57.679,58.0,198.0
405606,-0.650,0.859,0.321,-50.267,-85.282,124.435,52.0,0.0
405696,-0.666,0.157,0.737,-86.137,-79.321,105.397,45.0,0.0
405783,-0.459,0.243,0.689,-48.511,-60.794,90.305,41.0,0.0
405870,-0.375,0.181,0.801,-26.443,-42.405,46.718,38.0,0.0
405957,-0.295,0.331,0.784,-17.618,-10.412,22.412,39.0,0.0
406044,-0.330,0.385,0.830,-12.061,8.664,12.573,45.0,0.0
406131,-0.283,0.368,0.862,-0.550,2.702,12.031,40.0,0.0
406215,-0.269,0.355,0.843,5.260,-2.298,5.573,39.0,151.0
406302,-0.298,0.373,0.869,7.153,1.626,-0.351,39.0,0.0
406389,-0.294,0.375,0.876,9.924,1.412,-1.504,40.0,0.0
406479,-0.259,0.379,0.869,12.641,2.252,-6.046,40.0,0.0
406566,-0.314,0.358,0.900,12.580,1.046,-7.443,42.0,0.0
406653,-0.308,0.390,0.902,2.420,-0.099,-2.771,41.0,0.0
406740,-0.285,0.406,0.863,-7.107,4.038,-1.038,41.0,0.0
406828,-0.317,0.437,0.858,-6.038,3.924,-0.153,42.0,0.0
406924,-0.322,0.457,0.850,0.595,-2.183,-0.802,0.0,0.0
407008,-0.292,0.384,0.829,16.153,-4.641,-5.878,44.0,139.0
407095,-0.282,0.315,0.754,26.733,5.435,-22.412,43.0,0.0
