Timestamp(ms),AccelX(g),AccelY(g),AccelZ(g),GyroX(deg/s),GyroY(deg/s),GyroZ(deg/s),DistanceLeft(cm),DistanceRight(cm)
233768,0.028,0.088,1.004,7.588,3.397,-0.817,0.0,0.0
233861,0.008,0.129,0.981,9.687,2.290,-0.733,0.0,0.0
233954,0.007,0.095,1.001,6.969,4.870,-2.550,0.0,0.0
234047,-0.010,0.095,1.013,4.542,6.305,-4.008,0.0,0.0
234140,-0.023,0.125,1.004,-5.664,8.435,-4.710,0.0,0.0
234233,-0.042,0.146,0.928,14.710,11.275,-7.511,0.0,0.0
234327,-0.076,0.007,0.871,132.061,29.313,-17.237,0.0,0.0
234420,-0.128,0.305,0.612,198.458,58.756,-31.809,0.0,0.0
234516,-0.179,0.789,0.229,173.214,146.947,-73.198,0.0,0.0
234609,-0.684,0.768,0.113,-250.137,215.038,-139.252,0.0,0.0
234702,-1.705,-2.000,0.754,250.130,-118.435,-164.893,0.0,0.0
234792,-0.500,2.000,-2.000,-250.137,249.611,-134.183,0.0,134.0
234882,-0.995,-2.000,0.897,250.130,-114.298,99.573,0.0,133.0
234972,-0.667,1.550,-1.957,-250.137,166.145,-124.756,0.0,136.0
235066,-0.450,0.800,-1.573,250.130,-156.061,177.214,0.0,0.0
235156,-1.607,-2.000,1.715,-250.137,10.870,-95.435,0.0,141.0
235253,0.201,2.000,-1.432,-250.137,128.878,-36.481,0.0,0.0
235343,-0.979,-0.484,-0.169,250.130,-190.588,86.496,0.0,140.0
235433,-1.184,-1.755,0.358,-250.137,71.214,-135.901,0.0,142.0
235524,1.002,2.000,-0.838,37.328,-15.031,51.405,0.0,142.0
235615,-1.148,-2.000,1.056,250.130,-160.931,44.427,0.0,145.0
235708,-0.755,0.066,-0.734,-250.137,134.008,-135.908,0.0,189.0
235801,0.952,2.000,-0.819,205.244,-50.985,58.000,0.0,188.0
235894,-1.035,-2.000,1.173,250.130,-124.237,37.275,0.0,187.0
235988,-0.998,-1.919,0.731,-250.137,55.344,-125.496,170.0,186.0
236082,0.116,2.000,-0.445,-212.221,60.672,-24.901,0.0,185.0
236172,-0.851,-0.074,-0.116,250.130,-172.756,91.229,0.0,148.0
236264,-1.097,-2.000,1.282,-250.137,62.603,-59.771,172.0,186.0
236357,0.116,2.000,-0.233,-226.038,69.748,-23.519,0.0,185.0
236449,-0.573,0.101,0.394,250.130,-110.977,56.863,0.0,184.0
236541,-0.753,-1.843,1.133,-250.137,78.481,-44.176,174.0,186.0
236635,0.604,2.000,-0.083,-11.954,45.802,22.344,0.0,184.0
236727,-0.775,-1.201,0.966,250.130,-113.420,63.954,0.0,184.0
236823,-0.529,0.469,0.232,-250.137,113.084,-93.450,0.0,186.0
236916,-0.525,-0.814,0.466,250.130,-160.931,114.397,0.0,188.0
237009,-0.607,1.588,-1.405,-250.137,235.405,-63.763,0.0,189.0
237104,-0.168,-2.000,-1.285,250.130,-195.053,164.473,0.0,0.0
237197,-0.895,-0.976,-1.421,-250.137,172.252,-118.611,0.0,192.0
237291,2.000,2.000,-2.000,250.130,46.901,124.763,0.0,0.0
237384,-1.852,-2.000,2.000,250.130,-194.153,-119.000,0.0,192.0
237478,-0.251,2.000,-2.000,-250.137,250.130,-141.382,0.0,192.0
237576,-0.646,-1.584,-1.636,250.130,-250.137,87.954,0.0,0.0
237669,-1.055,-2.000,-0.391,-250.137,224.374,-160.137,0.0,194.0
237763,2.000,2.000,-2.000,250.130,-16.061,120.656,0.0,0.0
237856,-1.281,-2.000,2.000,-65.076,-136.817,-250.137,0.0,191.0
237949,0.566,2.000,-1.740,-250.137,206.099,20.924,0.0,191.0
238044,-1.621,-2.000,0.948,250.130,-250.137,42.298,0.0,191.0
238137,-0.689,0.964,-2.000,-250.137,250.130,-121.710,0.0,187.0
238231,1.069,-0.780,-2.000,250.130,-230.412,180.344,0.0,0.0
238327,-2.000,-2.000,1.737,-250.137,49.656,-218.420,0.0,194.0
238419,2.000,2.000,-2.000,126.504,161.947,53.160,161.0,0.0
238507,-1.634,-2.000,2.000,230.687,-217.099,-194.137,0.0,87.0
238601,1.213,2.000,-2.000,-250.137,250.130,-41.397,0.0,0.0
238695,-1.373,-2.000,1.900,250.130,-250.137,-22.595,0.0,195.0
238788,-0.626,2.000,-1.621,-250.137,250.130,-130.023,0.0,197.0
238882,1.388,-0.923,-1.667,250.130,-131.305,178.748,0.0,0.0
238977,-1.339,-2.000,1.713,-250.137,0.359,-134.779,0.0,199.0
239068,0.652,2.000,-1.936,20.191,237.504,39.847,0.0,87.0
239162,-1.500,-2.000,2.000,-59.397,-183.802,-42.252,0.0,0.0
239253,1.065,2.000,-1.784,-206.557,250.130,-20.031,37.0,0.0
239346,-1.345,-2.000,2.000,-50.504,-182.275,-139.023,0.0,0.0
239424,2.000,2.000,-2.000,-142.947,250.130,-106.588,36.0,106.0
239517,-1.823,-2.000,2.000,-162.099,-172.695,-198.229,0.0,0.0
239595,2.000,2.000,-2.000,-250.137,250.130,-140.649,35.0,93.0
239679,-2.000,-2.000,2.000,-56.321,-73.450,-37.038,39.0,0.0
239757,2.000,2.000,-2.000,183.275,-30.847,52.481,35.0,101.0
239838,-2.000,-0.885,2.000,-172.550,161.023,40.878,32.0,110.0
239916,2.000,1.478,-1.773,250.130,-250.137,161.374,35.0,100.0
239993,-2.000,-0.835,1.219,-250.137,250.130,-35.603,33.0,96.0
240071,-0.087,-0.483,-2.000,250.130,-250.137,157.977,37.0,93.0
240155,-1.653,-0.843,-0.501,-250.137,250.130,-117.069,37.0,0.0
240233,-1.187,-2.000,-2.000,250.130,-250.137,43.336,36.0,94.0
240317,-1.062,0.397,-2.000,-250.137,250.130,-215.695,38.0,0.0
240410,-1.636,-2.000,-2.000,250.130,-250.137,67.641,0.0,0.0
240506,-2.000,-2.000,0.082,-250.137,177.771,-140.198,0.0,0.0
240590,2.000,2.000,-2.000,250.130,135.779,179.924,38.0,0.0
240684,-1.889,-2.000,2.000,-250.137,-122.794,-199.267,0.0,0.0
240760,2.000,2.000,-2.000,16.809,250.130,41.290,36.0,91.0
240854,-1.456,-2.000,2.000,-250.137,-119.267,-224.687,0.0,0.0
240931,0.675,2.000,-1.629,-250.137,250.130,-81.412,37.0,99.0
241025,-1.143,-2.000,2.000,52.084,-155.924,-115.802,0.0,0.0
241103,0.135,2.000,-1.072,-250.137,250.130,-80.489,36.0,102.0
241200,-0.824,-2.000,1.772,250.130,-209.916,-89.092,0.0,0.0
241293,-0.410,0.800,-0.421,-250.137,250.130,-60.046,0.0,0.0
241380,0.264,-0.696,-0.478,250.130,-129.061,96.557,0.0,93.0
241473,-1.276,-0.802,0.357,-250.137,193.130,-105.237,0.0,0.0
241560,1.718,1.570,-1.143,250.130,-41.603,123.443,0.0,91.0
241653,-1.777,-2.000,2.000,-250.137,32.229,-154.855,0.0,0.0
241737,2.000,2.000,-1.612,172.046,61.305,42.962,40.0,0.0
241821,-1.845,-2.000,2.000,-225.550,6.924,17.031,41.0,0.0
241908,2.000,2.000,-1.952,250.130,-78.969,112.206,40.0,0.0
242001,-2.000,-2.000,2.000,-113.321,46.313,80.389,0.0,0.0
242091,2.000,2.000,-1.691,250.130,85.817,46.931,172.0,147.0
242174,-2.000,-2.000,2.000,-188.481,-33.122,51.954,37.0,0.0
242253,1.353,1.050,-0.385,250.130,-112.084,72.763,35.0,121.0
242337,-0.875,1.136,0.431,-250.137,155.115,77.183,32.0,0.0
242417,0.503,-1.487,0.467,250.130,-187.863,1.412,31.0,125.0
242510,-0.796,2.000,-1.283,-250.137,250.130,-73.183,0.0,0.0
242593,-0.109,-1.426,-0.389,250.130,-250.137,85.282,30.0,0.0
242680,-0.342,0.510,0.180,-250.137,250.130,-69.313,34.0,0.0
242760,-1.549,-0.125,0.049,250.130,-208.427,80.840,33.0,129.0
242844,0.443,-0.220,0.111,-250.137,202.420,22.779,30.0,0.0
242929,-1.385,0.134,0.700,250.130,-7.344,45.763,34.0,0.0
243013,0.864,-1.052,0.325,-250.137,95.886,-120.336,30.0,0.0
243094,-2.000,2.000,0.324,40.427,59.069,-5.046,34.0,152.0
243174,1.333,0.092,-0.108,179.313,-171.412,65.511,36.0,127.0
243259,-2.000,1.378,0.670,-250.137,135.626,-30.557,33.0,0.0
243346,-0.302,-1.075,-0.436,250.130,-250.137,23.336,33.0,0.0
243430,-1.033,1.377,-1.807,-250.137,250.130,-167.901,36.0,0.0
243524,-1.720,-2.000,1.032,250.130,-250.137,-161.092,0.0,0.0
243608,-0.542,1.278,-1.171,-250.137,250.130,-141.282,37.0,0.0
243690,-0.573,-1.426,-1.197,250.130,-250.137,47.969,39.0,149.0
243775,-0.751,1.043,-0.728,-250.137,250.130,-133.595,39.0,0.0
243857,-0.214,-1.570,-0.448,250.130,-250.137,25.176,39.0,148.0
243938,-1.190,1.852,-0.820,-250.137,221.656,-126.962,43.0,145.0
244032,-0.677,-2.000,0.974,250.130,-250.137,-115.145,0.0,143.0
244114,-1.043,1.926,-1.067,-250.137,250.130,-74.824,45.0,142.0
244198,-0.852,-2.000,0.600,250.130,-250.137,-54.718,42.0,0.0
244283,-0.872,2.000,-0.708,-250.137,238.145,-118.229,41.0,0.0
244377,-0.758,-1.451,0.920,250.130,-250.137,-23.458,0.0,0.0
244464,1.073,2.000,-1.454,145.557,-73.489,51.389,172.0,123.0
244544,-1.603,-0.943,0.913,-250.137,240.237,-57.099,44.0,107.0
244626,0.322,0.333,-0.890,250.130,-178.527,102.427,43.0,141.0
244711,-1.079,0.664,-0.377,-250.137,236.489,-35.840,44.0,0.0
244799,0.270,-0.478,-0.533,250.130,-217.122,62.664,44.0,0.0
244884,-1.056,1.162,-0.329,-250.137,199.718,-133.939,44.0,0.0
244970,0.293,-1.538,0.156,250.130,-157.779,-20.252,51.0,0.0
245055,-1.298,0.985,-0.635,-250.137,197.122,-67.977,51.0,0.0
245140,-0.136,-0.918,-1.265,250.130,-250.137,102.779,51.0,0.0
245226,-1.332,0.544,-0.714,-250.137,236.198,-43.771,48.0,0.0
245311,-0.136,-1.052,-0.663,250.130,-193.588,98.092,46.0,0.0
245396,-1.072,1.132,-0.683,-250.137,250.130,-57.664,48.0,0.0
245484,-0.616,-1.406,-0.222,250.130,-250.137,47.725,44.0,0.0
245569,-1.022,1.849,-0.443,-250.137,250.130,-49.557,42.0,0.0
245654,-0.115,-1.222,0.558,250.130,-250.137,17.015,39.0,0.0
245739,-0.836,2.000,-0.417,-250.137,250.130,-20.641,41.0,0.0
245823,-0.714,-2.000,1.761,250.130,-250.137,-114.168,25.0,0.0
245908,0.777,2.000,-0.925,-16.573,250.130,-30.351,45.0,0.0
245992,-0.832,-2.000,2.000,-190.244,-126.107,-133.710,26.0,0.0
246077,2.000,2.000,-1.077,250.130,-11.031,40.359,44.0,0.0
246165,-1.892,-1.032,1.039,-250.137,92.405,-53.557,37.0,0.0
246250,0.548,0.355,-2.000,250.130,-250.137,105.275,40.0,0.0
246334,-1.528,0.401,-0.617,-250.137,250.130,-57.718,37.0,0.0
246419,-0.789,-1.441,-0.997,250.130,-250.137,51.771,36.0,0.0
246504,-0.660,1.153,-0.836,-250.137,250.130,-144.824,38.0,0.0
246589,-0.873,-1.700,-0.013,250.130,-250.137,-6.176,41.0,0.0
246674,-0.410,1.613,-1.536,-250.137,250.130,-162.931,41.0,0.0
246763,-1.035,-2.000,2.000,250.130,-250.137,-158.435,0.0,119.0
246852,-0.137,2.000,-1.662,-250.137,250.130,-99.420,41.0,0.0
246946,-1.159,-2.000,1.998,250.130,-246.908,-94.069,0.0,0.0
247031,-0.257,2.000,-0.945,-250.137,250.130,-110.053,43.0,0.0
247121,-0.924,-2.000,1.315,250.130,-250.137,-71.061,128.0,0.0
247206,-0.053,2.000,-1.205,-250.137,250.130,-128.542,45.0,0.0
247297,-0.989,-2.000,2.000,250.130,-250.137,-75.504,127.0,0.0
247391,0.601,2.000,-1.511,-250.137,250.130,-120.672,0.0,0.0
247485,-0.919,-2.000,2.000,250.130,-250.137,-118.145,0.0,0.0
247570,-0.035,2.000,-1.324,-250.137,250.130,-112.969,45.0,0.0
247662,-0.793,-2.000,2.000,181.214,-209.214,-250.137,0.0,107.0
247756,2.000,2.000,-1.844,-75.840,250.130,12.771,0.0,0.0
247841,-0.767,-2.000,2.000,-206.466,-34.855,-250.137,37.0,0.0
247936,2.000,2.000,-2.000,250.130,34.771,191.992,0.0,0.0
248030,-1.172,-2.000,2.000,-66.603,-105.908,-173.023,0.0,0.0
248124,-0.123,2.000,-1.530,-250.137,222.817,32.305,0.0,0.0
248212,-0.766,-2.000,2.000,250.130,-181.817,-101.382,0.0,99.0
248306,0.374,2.000,-2.000,14.275,166.649,118.550,0.0,0.0
248398,-0.755,-2.000,2.000,28.252,-137.305,-228.489,0.0,104.0
248493,0.220,2.000,-1.113,-250.137,171.053,83.084,0.0,0.0
248581,-1.084,-2.000,2.000,250.130,-212.740,-87.489,0.0,99.0
248669,-0.515,2.000,-2.000,-250.137,240.099,-20.733,166.0,134.0
248764,-0.173,-1.740,1.331,-250.137,1.458,-21.908,0.0,0.0
248854,-0.093,0.944,0.663,-29.588,-75.595,-47.870,124.0,0.0
248948,0.073,-0.318,1.107,-95.740,-3.962,15.992,0.0,0.0
249041,0.015,-0.273,0.993,-73.313,-13.611,18.466,0.0,0.0
249139,0.094,-0.303,0.871,22.855,-22.824,-7.786,0.0,0.0
249233,0.102,-0.240,0.927,7.710,1.702,-14.267,0.0,0.0
249327,0.084,-0.281,0.967,-0.511,2.969,-11.214,0.0,0.0
249421,0.116,-0.239,0.938,4.214,-0.786,-9.969,0.0,0.0
249516,-0.014,-0.535,1.016,54.924,-33.092,-48.550,0.0,0.0
249605,-0.187,-0.422,0.614,250.130,-115.634,-131.092,118.0,0.0
249690,0.812,0.782,-0.284,250.130,120.420,-77.718,37.0,0.0
249784,-0.366,0.872,-0.532,-250.137,250.130,-250.137,0.0,0.0
249878,-1.557,-2.000,-0.080,250.130,-100.886,-138.412,0.0,0.0
249976,-0.252,2.000,-2.000,-250.137,220.817,-250.137,0.0,0.0
250067,-1.058,-2.000,1.268,250.130,-116.511,14.603,0.0,147.0
250159,0.469,2.000,-2.000,-110.756,71.366,-170.542,0.0,136.0
250253,-1.795,-2.000,2.000,-243.366,-38.542,-183.809,0.0,194.0
250347,1.297,2.000,-2.000,250.130,-57.023,89.122,0.0,94.0
250431,-1.881,-2.000,1.584,-250.137,13.542,-151.153,116.0,133.0
250518,1.277,2.000,-2.000,250.130,-17.382,97.145,0.0,91.0
250603,-1.929,-2.000,1.448,-250.137,-46.702,-170.359,117.0,131.0
250693,2.000,2.000,-2.000,250.130,108.053,116.695,0.0,95.0
250778,-1.663,-2.000,2.000,-205.458,-163.756,-180.718,119.0,130.0
250867,0.409,2.000,-1.569,-39.832,230.351,-31.313,0.0,123.0
250955,-0.787,-2.000,2.000,250.130,-238.458,-65.084,0.0,102.0
251044,-0.945,0.826,-2.000,-250.137,250.130,-159.901,0.0,130.0
251133,-1.423,-2.000,-0.850,250.130,-250.137,37.069,0.0,126.0
251223,-1.567,0.219,-2.000,-250.137,250.130,-125.504,0.0,129.0
251311,-0.150,-1.126,-2.000,250.130,-187.542,137.779,0.0,97.0
251399,-1.830,-2.000,0.635,-250.137,75.107,-156.763,121.0,129.0
251488,0.262,2.000,-1.790,93.618,28.786,-26.107,0.0,123.0
251577,-0.647,-1.568,0.973,250.130,-78.962,36.496,0.0,129.0
251666,-0.965,-0.330,0.791,-194.679,-39.206,-23.840,0.0,128.0
251755,-0.909,2.000,-0.543,-75.756,71.641,28.366,0.0,128.0
251845,-0.482,-0.208,0.490,89.107,26.374,44.061,0.0,131.0
251934,-0.704,0.475,0.071,-13.756,66.267,-16.687,0.0,131.0
252024,-0.815,0.657,0.079,106.023,78.916,19.763,0.0,130.0
252114,-1.420,0.007,0.329,-250.137,57.626,2.802,0.0,136.0
252207,-0.821,0.001,-0.310,250.130,-63.458,94.679,0.0,129.0
252294,-0.597,1.985,-0.783,-234.053,50.847,-72.992,0.0,91.0
252384,-1.031,-0.474,0.361,-250.137,88.206,-90.771,0.0,144.0
252474,-1.207,0.021,-0.115,250.130,-75.710,37.305,0.0,129.0
252563,-0.529,2.000,-0.762,-177.359,50.565,-12.053,0.0,129.0
252653,-1.243,-1.390,0.830,-132.229,8.389,-18.481,0.0,143.0
252742,-0.595,0.945,-0.507,250.130,-82.244,43.130,0.0,128.0
252832,-1.327,0.034,-0.549,-250.137,67.084,-65.046,0.0,131.0
252924,-0.911,0.187,-0.235,250.130,-84.771,74.908,0.0,129.0
253012,-0.592,1.741,-0.575,-232.267,69.931,-62.695,0.0,101.0
253096,-0.982,-0.453,0.228,-250.137,33.527,-56.870,103.0,132.0
253180,-0.993,-0.427,0.441,250.130,-34.122,10.458,104.0,131.0
253268,-0.823,0.519,-0.401,250.130,-67.672,38.176,0.0,88.0
253356,-0.816,1.384,-0.623,-250.137,70.145,-69.496,0.0,90.0
253441,-0.996,-0.288,0.092,-250.137,58.023,-44.947,100.0,143.0
253524,-0.958,-0.677,0.447,250.130,-92.542,50.802,98.0,136.0
253612,-0.409,2.000,-1.604,151.489,41.359,115.786,0.0,96.0
253704,-1.306,0.683,-1.270,-250.137,250.130,101.718,0.0,0.0
253797,-1.292,-1.087,0.620,-161.450,-119.519,158.481,0.0,0.0
253885,1.155,2.000,-1.420,61.389,248.901,118.878,193.0,104.0
253965,-1.677,-1.552,0.551,-250.137,-34.351,-9.870,83.0,80.0
254053,0.847,-0.690,-1.044,250.130,-86.198,243.840,177.0,118.0
254136,-0.455,0.128,-1.917,-250.137,250.130,-86.466,80.0,129.0
254219,0.130,-0.818,-0.412,250.130,-111.725,150.702,80.0,125.0
254308,-0.090,0.767,-0.307,-250.137,148.069,-15.763,0.0,131.0
254395,0.002,0.042,0.123,250.130,-74.817,82.939,85.0,131.0
254475,-0.407,0.851,-0.261,-250.137,149.008,-38.542,37.0,132.0
254558,-0.194,-0.870,0.389,250.130,-213.504,65.786,76.0,131.0
254643,-0.188,1.597,-0.297,-250.137,183.176,-128.115,42.0,0.0
254723,-0.143,-0.659,0.539,250.130,-190.817,81.321,36.0,127.0
254813,-0.243,1.590,-0.418,-250.137,198.336,-133.725,0.0,128.0
254894,-0.623,-0.821,0.330,250.130,-250.137,77.336,89.0,89.0
254980,0.326,2.000,-1.187,-250.137,145.695,-62.092,169.0,90.0
255062,-0.644,-1.963,1.283,-127.092,29.725,-129.664,34.0,92.0
255139,-0.488,0.083,-0.475,250.130,-111.458,-30.740,37.0,83.0
255226,-0.021,1.553,-0.255,30.244,-77.198,-204.008,172.0,112.0
255320,-0.801,0.658,0.178,-32.260,15.786,-250.137,0.0,0.0
255414,-1.518,0.726,0.172,-15.794,62.802,-139.359,0.0,0.0
255508,-1.083,0.270,0.294,250.130,-56.931,-64.198,0.0,0.0
255598,-1.031,0.427,-0.519,250.130,-131.145,-20.275,0.0,139.0
255686,-0.265,2.000,-0.768,-116.611,61.618,-94.290,0.0,99.0
255777,-1.086,-0.338,-0.374,-250.137,64.076,-80.481,100.0,0.0
255862,-1.091,-1.532,0.323,250.130,-157.733,-4.160,102.0,142.0
255949,0.079,2.000,-2.000,250.130,11.817,149.168,0.0,85.0
256044,-1.365,-0.191,-1.840,-250.137,121.710,-66.351,0.0,198.0
256129,-1.261,-1.417,-0.013,250.130,-247.359,36.733,110.0,135.0
256223,-0.604,2.000,-1.858,-250.137,129.397,21.443,0.0,0.0
256313,-1.423,-2.000,1.318,250.130,-243.214,19.115,0.0,147.0
256407,-0.640,2.000,-1.109,-250.137,157.221,-6.794,0.0,195.0
256504,-0.758,-1.727,0.607,250.130,-250.137,35.328,0.0,195.0
256598,-0.666,1.938,-0.977,-250.137,250.130,-46.740,0.0,198.0
256692,-0.711,-2.000,0.626,250.130,-250.137,-4.252,0.0,198.0
256786,-0.329,1.205,-0.616,-250.137,250.130,-83.595,0.0,200.0
256879,-0.626,-1.295,-0.194,250.130,-243.031,58.756,0.0,0.0
256973,-0.625,0.184,-0.500,-250.137,224.573,-88.252,0.0,0.0
257068,1.000,0.154,-0.512,250.130,-67.275,92.901,0.0,0.0
257162,-1.418,-1.406,1.306,-250.137,-3.023,-123.153,0.0,199.0
257256,1.433,2.000,-0.668,232.198,133.244,6.176,0.0,0.0
257352,-0.854,-2.000,2.000,43.588,-107.092,-84.427,0.0,200.0
257446,0.524,2.000,-0.520,-123.702,162.412,-20.366,0.0,199.0
257541,-0.936,-2.000,2.000,250.130,-207.389,-63.252,0.0,198.0
257635,-0.239,2.000,-0.624,-250.137,235.290,-112.603,0.0,197.0
257728,-0.555,-1.536,0.546,250.130,-171.641,13.519,0.0,195.0
257822,-0.538,0.738,-0.278,-250.137,162.290,-92.053,0.0,195.0
257915,-0.130,-0.375,-0.113,250.130,-139.351,77.733,0.0,193.0
258010,-0.102,0.613,-0.214,-250.137,156.374,-76.237,0.0,193.0
258116,-0.701,-0.447,0.726,-16.511,158.534,8.519,0.0,197.0
258206,-1.010,0.013,0.495,250.130,155.313,-4.573,0.0,147.0
258296,-1.117,0.334,0.510,151.076,49.687,-52.382,0.0,142.0
258380,-1.303,0.464,0.250,129.076,62.450,-46.878,108.0,128.0
258464,-1.104,0.291,0.398,19.435,39.397,-32.504,108.0,125.0
258547,-1.038,0.238,0.406,8.176,9.153,-3.740,108.0,122.0
258635,-0.938,0.287,0.234,40.634,-12.099,-2.328,0.0,96.0
258723,-1.065,0.259,0.047,0.794,-24.550,19.992,0.0,121.0
258812,-0.967,0.235,0.027,28.053,-14.771,58.282,0.0,123.0
258905,-0.853,0.336,-0.005,30.382,-0.214,52.183,0.0,125.0
258994,-0.878,0.347,0.017,-12.626,14.588,16.756,0.0,125.0
259083,-0.934,0.293,0.088,-18.519,24.427,-8.267,0.0,125.0
259172,-0.954,0.272,0.129,9.237,13.206,-22.855,0.0,124.0
259261,-0.937,0.334,0.093,16.847,7.557,-30.802,0.0,122.0
259349,-0.935,0.333,0.076,5.160,1.626,-36.267,0.0,121.0
259438,-0.784,0.415,0.132,-21.305,14.183,-29.481,0.0,119.0
259522,-0.937,1.091,-0.293,-250.137,69.145,-58.626,108.0,122.0
259618,-1.621,-0.454,-0.051,-250.137,-37.420,-33.221,0.0,0.0
259712,-1.477,-1.464,-0.052,250.130,-250.137,114.855,0.0,200.0
259806,0.627,2.000,-1.005,-199.160,105.214,106.908,0.0,0.0
259899,-1.617,-2.000,1.950,-0.443,-162.901,-87.351,0.0,0.0
259992,0.054,2.000,-1.138,-194.069,105.084,76.710,0.0,0.0
260085,-1.011,-2.000,1.890,250.130,-184.626,-16.740,0.0,0.0
260173,0.272,2.000,-1.906,-250.137,174.924,-75.389,184.0,116.0
260268,-1.224,-2.000,2.000,172.374,-129.084,-34.260,0.0,0.0
260361,-0.044,2.000,-1.844,-250.137,161.886,-82.969,0.0,0.0
260457,-1.035,-1.988,1.353,250.130,-229.687,97.061,0.0,0.0
260550,0.085,1.414,-0.788,-250.137,212.672,-88.061,0.0,0.0
260640,-0.048,-0.661,0.040,250.130,-195.756,94.939,0.0,127.0
260733,-1.029,-0.414,-0.107,-250.137,131.985,-65.695,0.0,0.0
260828,2.000,2.000,-0.602,250.130,62.473,30.313,0.0,0.0
260921,-0.660,-2.000,2.000,250.130,-184.496,6.779,0.0,0.0
261014,-0.632,1.361,-0.809,-250.137,250.130,-108.092,0.0,0.0
261108,-0.470,-0.864,0.126,250.130,-250.137,66.511,0.0,0.0
261197,-1.309,-0.411,0.631,-250.137,155.412,-89.084,0.0,85.0
261292,2.000,2.000,-1.084,250.130,15.344,78.130,0.0,0.0
261379,-0.957,-2.000,2.000,250.130,-236.947,-45.008,0.0,87.0
261472,-0.387,1.953,-1.165,-250.137,250.130,-116.878,0.0,0.0
261566,0.806,0.816,-1.026,250.130,-125.870,106.527,0.0,0.0
261659,-0.659,-1.221,1.212,-184.511,107.534,-36.084,0.0,0.0
261753,-0.632,1.462,0.149,-200.015,158.519,-42.092,0.0,0.0
261847,-0.775,-0.700,0.956,-140.382,70.740,-66.221,0.0,0.0
261943,-0.742,-0.121,0.557,250.130,43.145,-19.076,0.0,0.0
262037,-1.098,-0.010,0.285,250.130,27.832,-45.000,0.0,0.0
262127,-0.901,0.740,-0.059,224.626,62.053,-40.885,0.0,149.0
262217,-1.008,0.473,0.134,-40.420,46.137,-93.595,0.0,135.0
262306,-1.179,0.283,0.186,-52.206,65.290,-50.305,0.0,131.0
262396,-1.083,0.100,0.249,96.046,14.664,-0.229,0.0,126.0
262482,-0.953,0.401,-0.019,250.130,-22.947,-2.519,0.0,80.0
262569,-0.943,0.739,-0.114,43.802,-17.565,4.153,0.0,76.0
262657,-0.833,0.944,-0.365,-229.305,60.458,-3.847,0.0,80.0
262744,-1.142,-0.896,0.619,-207.267,-83.496,1.863,109.0,122.0
262831,-0.636,0.257,-0.737,250.130,-97.191,100.924,0.0,82.0
262920,-0.910,0.495,-0.760,-250.137,92.985,-65.595,0.0,122.0
263009,-0.952,-1.035,0.304,250.130,-142.275,43.885,0.0,122.0
263096,-0.643,2.000,-0.920,-250.137,61.817,-34.382,0.0,89.0
263181,-1.493,-2.000,1.138,-109.595,-81.672,-44.290,112.0,127.0
263269,-0.209,2.000,-1.062,250.130,2.924,80.099,0.0,91.0
263356,-1.064,-0.719,-0.390,-250.137,88.389,-65.130,113.0,182.0
263449,-0.346,-0.236,-0.319,250.130,-36.603,92.328,0.0,127.0
263542,-1.090,-0.266,-0.866,-250.137,112.985,-67.656,0.0,185.0
263632,-0.740,-0.555,-0.353,250.130,-115.634,102.771,0.0,139.0
263723,-0.730,0.633,-0.687,-250.137,114.985,-100.359,0.0,140.0
263814,-0.975,-0.393,-0.140,250.130,-98.427,47.595,0.0,140.0
263902,-1.082,0.261,-0.722,-250.137,119.771,-94.924,108.0,195.0
263993,-0.834,-0.494,-0.240,250.130,-124.840,97.779,0.0,142.0
264086,-0.843,0.064,-0.496,-250.137,97.779,-83.115,0.0,196.0
264180,-0.656,0.583,-0.096,250.130,-164.733,48.069,0.0,142.0
264273,-1.160,0.328,-0.332,-250.137,169.244,-56.779,0.0,192.0
264364,-0.651,0.416,0.153,250.130,-120.557,69.992,0.0,145.0
264458,-1.186,0.841,-0.822,-250.137,153.542,-85.458,0.0,198.0
264552,-1.004,-0.894,0.510,250.130,-137.198,43.061,0.0,197.0
264645,-0.459,2.000,-1.164,-250.137,129.626,-20.534,0.0,0.0
264734,-1.468,-2.000,1.833,191.237,-75.183,-47.023,105.0,198.0
264827,-0.291,2.000,-0.682,-8.366,38.763,36.389,0.0,198.0
264922,-0.777,-2.000,1.915,-62.962,-100.618,-53.931,0.0,196.0
265019,0.957,1.996,-0.668,250.130,-107.817,99.130,0.0,0.0
265112,-1.054,-1.375,0.475,-250.137,58.267,-70.344,0.0,193.0
265206,0.699,1.109,-1.280,250.130,-102.565,132.977,0.0,0.0
265299,-1.380,-2.000,1.624,-250.137,-25.885,-117.595,0.0,193.0
265394,0.775,2.000,-1.476,176.550,53.824,33.000,0.0,0.0
265487,-0.517,-2.000,2.000,120.374,-103.000,-35.992,0.0,192.0
265580,0.132,2.000,-1.307,250.130,12.924,58.137,173.0,0.0
265673,-0.862,-1.276,1.645,-250.122,-21.076,6.519,0.0,195.0
265768,1.189,2.000,-0.747,135.473,60.840,-0.939,172.0,0.0
265863,-1.120,-1.803,1.886,-241.344,1.038,-5.389,0.0,199.0
265957,1.293,2.000,-0.509,250.130,27.489,38.153,0.0,0.0
266051,-1.465,-2.000,1.494,-250.137,65.771,-78.061,0.0,200.0
266141,0.461,1.166,-0.878,250.130,-158.282,103.214,0.0,131.0
266235,-1.134,-0.032,-1.227,-250.137,250.130,-133.351,0.0,0.0
266330,-0.841,-1.362,0.035,250.130,-250.137,10.351,0.0,199.0
266424,-0.756,0.927,-0.680,-250.137,213.992,-78.763,0.0,199.0
266517,0.501,-0.364,-0.851,250.130,-95.939,110.595,0.0,0.0
266614,-1.719,-2.000,0.921,-250.137,20.878,-134.550,0.0,200.0
266708,1.128,2.000,-2.000,176.931,126.405,108.481,0.0,198.0
266803,-0.691,-2.000,1.759,250.130,-159.878,-4.710,0.0,198.0
266897,-0.308,1.640,0.079,-250.137,112.763,-23.962,0.0,0.0
266991,-0.671,-0.620,1.186,-83.198,-37.557,97.168,0.0,0.0
267085,-0.209,0.026,0.771,-172.183,-66.664,31.908,0.0,0.0
267180,-0.235,-0.543,0.958,5.878,-24.656,27.221,0.0,0.0
267264,-0.339,-0.237,1.025,4.008,-21.092,3.534,38.0,0.0
267361,-0.254,-0.156,0.968,13.733,-26.252,12.504,0.0,0.0
267450,-0.203,-0.157,0.916,8.282,-16.275,10.053,0.0,111.0
267539,-0.162,-0.197,0.978,6.359,-3.069,11.847,0.0,110.0
267633,-0.164,-0.216,1.010,1.397,-6.771,6.382,0.0,0.0
267726,-0.138,-0.154,0.961,-1.168,-1.817,3.603,0.0,0.0
267821,-0.099,-0.098,0.926,-6.092,20.046,18.206,0.0,0.0
267915,-0.257,-0.110,0.950,-34.000,43.947,41.878,0.0,0.0
267999,-0.491,0.118,1.099,-62.420,22.534,97.924,24.0,0.0
268093,-0.456,-0.238,1.070,-76.756,-32.542,164.519,0.0,0.0
268190,-0.282,-0.671,0.810,-27.092,-31.588,142.359,0.0,0.0
268274,-0.392,-0.410,0.854,-80.557,-33.649,52.328,10.0,0.0
268368,-0.353,-0.342,0.849,-23.916,-35.664,17.344,0.0,0.0
268451,-0.243,-0.351,0.783,-17.908,-13.252,3.344,8.0,0.0
268534,-0.243,-0.315,0.841,-2.031,-3.198,-1.076,8.0,0.0
268617,-0.314,-0.333,0.849,4.183,-4.176,-15.473,8.0,0.0
268701,-0.241,-0.360,0.861,29.947,3.229,-25.000,10.0,0.0
268795,-0.138,-0.129,0.839,41.366,-33.450,-55.740,0.0,0.0
268879,-0.073,-0.052,0.865,85.359,-43.115,-48.366,16.0,0.0
268966,-0.156,-0.187,0.917,173.130,-65.405,-59.794,14.0,0.0
269061,0.012,0.341,0.883,102.992,-31.473,-56.710,0.0,0.0
269145,0.011,0.395,1.062,101.366,-12.718,-32.519,19.0,0.0
269229,-0.040,0.355,1.020,24.305,10.542,-22.336,19.0,0.0
269323,-0.030,0.545,0.941,6.450,23.382,-5.382,0.0,0.0
269416,-0.013,0.513,0.897,3.473,18.779,2.534,0.0,0.0
269510,-0.060,0.422,0.885,7.611,1.893,3.336,0.0,0.0
269594,-0.063,0.353,0.957,-33.389,-2.122,1.427,16.0,0.0
269693,-0.046,0.369,0.913,-22.252,5.038,2.389,0.0,0.0
269779,-0.089,0.468,0.900,-11.298,6.214,0.626,17.0,0.0
269862,-0.071,0.390,0.915,-3.374,-1.603,1.221,16.0,0.0
269944,-0.056,0.381,0.911,-3.023,-4.962,-2.725,16.0,0.0
270027,-0.049,0.434,0.896,5.351,-6.084,-5.267,16.0,0.0
270110,-0.060,0.404,0.899,17.702,-5.847,-4.344,16.0,0.0
270193,-0.051,0.346,0.960,3.130,-0.267,-3.489,16.0,0.0
270286,-0.064,0.404,0.920,-1.504,4.214,-4.198,0.0,0.0
270380,-0.113,0.285,0.922,9.649,1.214,-13.504,0.0,0.0
270473,-0.143,0.361,0.811,32.947,3.061,-44.290,0.0,0.0
270569,-0.261,-0.168,0.869,91.366,-18.496,-140.634,0.0,0.0
270662,-0.152,0.036,0.461,250.130,80.229,-142.305,0.0,0.0
270755,-1.204,1.470,0.324,-97.908,-19.275,-241.122,0.0,0.0
270849,-1.356,1.646,-2.000,250.130,-187.481,-71.313,0.0,0.0
270934,-0.795,-2.000,0.663,-250.137,40.824,-187.328,46.0,199.0
271023,-0.183,1.893,-2.000,250.130,-98.260,117.718,0.0,128.0
271105,-1.585,-2.000,1.796,-250.137,16.107,-132.886,58.0,136.0
271194,0.085,2.000,-1.073,201.076,-5.389,45.427,0.0,130.0
271286,-1.256,-2.000,1.628,250.130,-95.603,38.985,0.0,134.0
271376,-0.243,2.000,-0.777,-250.137,118.504,-34.901,0.0,132.0
271465,-0.864,-0.468,0.271,250.130,-153.450,107.557,0.0,132.0
271555,-1.020,0.906,-0.754,-250.137,153.710,-59.626,0.0,136.0
271645,-0.491,0.243,0.037,250.130,-147.420,100.809,0.0,135.0
271738,-1.007,1.050,-0.643,-250.137,178.695,-41.725,0.0,190.0
271828,-0.547,-1.123,1.086,250.130,-114.489,9.679,0.0,140.0
271918,-1.013,2.000,-1.114,-250.137,116.412,-90.000,0.0,136.0
272006,-0.706,-2.000,1.802,250.130,-120.733,-15.611,55.0,192.0
272100,0.072,2.000,-1.218,26.130,65.099,23.672,0.0,0.0
272193,-1.305,-2.000,2.000,172.191,-136.031,-42.481,0.0,193.0
272286,-0.474,2.000,-0.939,-250.137,141.679,-86.389,0.0,196.0
272379,-0.295,-1.209,0.475,250.130,-164.450,68.588,0.0,0.0
272473,-1.311,-0.844,0.631,-250.137,43.328,1.466,0.0,195.0
272567,-2.000,1.990,-0.811,250.130,-53.305,20.519,0.0,0.0
272660,0.428,-0.917,1.308,17.443,35.221,-113.969,0.0,0.0
272753,0.292,0.712,-0.213,-146.702,115.573,84.656,0.0,0.0
272849,-2.000,0.506,0.115,-250.137,159.260,-87.435,0.0,0.0
272944,-0.112,1.338,-2.000,250.130,-122.565,175.840,0.0,0.0
273037,-2.000,-2.000,1.168,-250.137,-50.618,-48.191,0.0,0.0
273127,2.000,2.000,-1.875,250.130,-84.252,13.466,0.0,144.0
273221,-0.806,-2.000,2.000,-250.137,-53.779,-106.519,0.0,0.0
273314,-1.291,2.000,-2.000,-162.985,61.107,62.511,0.0,0.0
273409,-1.720,-0.106,0.954,250.130,24.733,-60.824,0.0,0.0
273497,0.051,0.578,0.565,202.893,31.695,33.733,0.0,105.0
273585,-0.246,0.438,0.554,-250.137,120.931,114.870,0.0,107.0
273671,-1.949,1.298,-0.794,250.130,-53.053,67.733,0.0,103.0
273758,-0.799,1.104,0.288,63.618,30.534,-91.420,195.0,103.0
273846,0.491,0.545,0.246,-132.031,172.916,44.916,192.0,107.0
273935,-0.828,-0.864,1.363,130.214,-136.588,-63.313,0.0,106.0
274022,-0.680,2.000,-1.658,-250.137,140.038,50.985,192.0,105.0
274116,-0.593,-1.552,1.473,250.130,-71.176,-63.122,0.0,0.0
274197,0.312,2.000,-1.278,-144.336,157.351,225.832,58.0,112.0
274277,-0.018,-0.759,0.464,-250.137,99.977,156.962,34.0,126.0
274359,-0.746,1.859,-1.435,250.130,10.366,214.947,33.0,98.0
274439,0.182,0.282,0.564,-250.137,167.214,87.168,26.0,130.0
274518,-1.006,-0.238,1.176,250.130,-35.977,-79.412,26.0,128.0
274610,0.123,0.772,0.284,-250.137,131.344,126.962,168.0,0.0
274689,-0.088,-0.418,1.741,250.130,-7.496,-210.504,22.0,101.0
274782,0.376,1.130,0.104,-250.137,75.756,182.000,0.0,0.0
274862,0.216,-0.244,2.000,211.092,13.542,-247.878,22.0,138.0
274949,0.287,0.735,0.503,-250.137,91.298,109.977,166.0,107.0
275032,-0.900,-0.035,1.173,250.130,-27.122,-189.672,23.0,133.0
275126,0.109,0.653,0.730,-250.137,70.779,40.840,0.0,0.0
275206,-1.583,2.000,-1.834,250.130,-24.511,-155.954,26.0,130.0
275284,0.265,0.241,1.879,-240.336,-6.099,126.420,35.0,105.0
275363,-1.622,1.952,0.067,250.130,-32.344,-169.305,35.0,103.0
275442,1.019,-0.538,0.926,-250.137,43.794,9.733,30.0,106.0
275521,0.531,2.000,-0.470,250.130,-39.275,215.817,32.0,104.0
275599,0.392,-0.076,0.690,-80.603,25.389,-203.328,30.0,103.0
275693,0.587,0.274,0.683,-250.137,125.863,25.702,0.0,137.0
275771,-0.798,-0.595,0.556,250.130,-100.115,21.565,23.0,105.0
275858,0.232,2.000,-1.441,244.099,-66.244,-8.641,166.0,102.0
275949,0.575,-1.657,0.880,-250.137,165.840,76.092,0.0,166.0
276029,-0.492,-0.490,-0.290,250.130,-201.321,26.595,26.0,131.0
276111,0.656,2.000,-2.000,-250.137,58.405,24.061,37.0,139.0
276199,0.253,-1.668,1.402,250.130,67.664,161.901,0.0,102.0
276291,1.706,2.000,-0.931,250.130,-176.198,79.412,168.0,0.0
276369,-0.589,-0.079,0.516,-250.137,179.656,131.977,23.0,104.0
276451,-0.862,0.547,0.011,250.130,-107.489,-31.198,21.0,103.0
276530,0.185,1.044,0.608,205.336,-2.107,-83.137,31.0,100.0
276618,1.646,-0.583,0.941,-250.137,92.427,85.214,0.0,104.0
276697,-1.340,1.588,-0.709,250.130,-143.023,3.061,34.0,100.0
276775,-0.105,1.608,-0.373,213.023,17.519,47.763,30.0,102.0
276859,1.158,-0.986,1.249,-94.802,63.321,50.374,22.0,0.0
276943,-1.099,2.000,0.080,17.985,1.427,-192.298,30.0,0.0
277022,2.000,-1.714,0.865,-131.290,-63.840,-16.313,37.0,104.0
277117,-0.733,2.000,-1.753,250.130,13.672,9.244,166.0,0.0
277196,0.308,-2.000,2.000,250.130,3.855,-45.282,24.0,101.0
277280,1.022,1.440,-0.349,-250.137,77.763,76.260,29.0,0.0
277361,-0.630,-0.449,0.553,62.580,50.443,-100.840,21.0,147.0
277453,-0.458,2.000,-1.355,250.130,-96.252,-18.756,165.0,0.0
277531,1.312,-2.000,2.000,-74.496,33.023,11.779,22.0,106.0
277610,-0.253,2.000,0.031,26.412,-59.809,-42.649,24.0,101.0
277689,0.316,0.129,1.425,219.802,-21.901,-9.092,27.0,101.0
277781,1.562,1.009,0.189,67.802,6.023,68.473,166.0,0.0
277862,-0.536,0.396,-0.686,-250.137,43.595,-62.695,24.0,102.0
277951,0.788,-1.459,1.941,148.237,-10.786,-15.198,0.0,103.0
278042,0.693,2.000,-2.000,250.130,-24.687,250.130,151.0,0.0
278121,2.000,-2.000,-0.876,-250.137,156.702,-222.008,21.0,108.0
278200,-2.000,0.294,-0.713,250.130,16.985,246.359,22.0,104.0
278288,2.000,1.452,0.307,-250.137,-60.191,-137.031,0.0,103.0
278367,0.305,0.706,0.524,182.321,1.221,121.359,30.0,103.0
278446,-0.143,0.276,0.746,3.672,-26.588,-164.511,29.0,102.0
278530,-0.845,2.000,-0.721,91.183,-146.015,-177.382,37.0,126.0
278615,0.265,-0.184,0.622,-250.137,36.382,-250.137,39.0,0.0
278695,-0.659,0.189,-1.223,250.130,-74.069,-28.626,49.0,111.0
278790,0.407,1.620,-0.659,-250.137,31.191,-235.305,0.0,0.0
278884,-1.016,-0.932,0.119,250.130,-106.382,-62.511,0.0,0.0
278978,-0.799,1.446,-0.584,-250.137,111.611,-157.084,0.0,0.0
279072,-0.727,-0.847,0.551,250.130,-102.084,29.122,0.0,0.0
279162,-0.342,2.000,-0.869,-239.237,59.359,-120.321,0.0,130.0
279251,-1.527,-2.000,1.406,57.916,-49.634,-80.832,105.0,142.0
279340,-0.388,2.000,-1.476,250.130,38.702,11.252,0.0,88.0
279425,-1.379,-1.320,-0.071,-250.137,19.046,-110.924,108.0,126.0
279512,-1.026,0.190,-0.919,250.130,-103.802,116.015,0.0,86.0
279602,-0.779,1.514,-1.203,-250.137,133.611,-70.588,0.0,121.0
279687,-1.198,-2.000,1.177,67.305,-34.305,2.046,108.0,127.0
279775,-0.682,0.363,-0.647,250.130,-97.832,51.855,0.0,84.0
279864,-1.128,0.521,-1.288,-250.137,129.679,-110.443,0.0,124.0
279953,-0.812,-1.428,0.879,250.130,-69.115,14.084,107.0,129.0
280040,-0.954,0.313,-0.870,250.130,-55.214,73.687,0.0,86.0
280130,-1.010,0.891,-0.936,-250.137,116.901,-62.908,0.0,124.0
280216,-0.948,-1.598,1.072,100.626,-48.191,-2.634,106.0,139.0
280304,-0.750,1.301,-1.143,250.130,-12.237,83.221,0.0,89.0
280389,-1.015,-0.153,-0.387,-250.137,90.565,-47.130,107.0,132.0
280479,-0.812,-0.885,0.476,250.130,-80.580,28.328,0.0,129.0
280569,-0.635,2.000,-1.355,-250.137,90.687,-22.435,0.0,128.0
280665,-0.889,-2.000,1.823,82.534,-83.229,-34.740,0.0,199.0
280763,-1.302,2.000,-1.989,-250.137,153.519,-41.542,0.0,141.0
280848,-1.150,-2.000,0.594,250.130,-169.183,-32.397,106.0,132.0
280937,-1.018,2.000,-1.776,-250.137,108.382,-94.038,0.0,130.0
281021,-0.746,-1.787,0.899,250.130,-95.725,8.824,110.0,133.0
281111,-1.080,2.000,-1.077,-250.137,49.695,-48.550,0.0,129.0
281195,-0.955,-1.680,1.242,142.336,-69.298,69.954,112.0,135.0
281285,-0.216,1.750,-0.658,250.130,-34.260,17.573,0.0,131.0
281373,-1.228,-1.123,0.174,-250.137,82.069,-52.786,111.0,191.0
281474,-0.725,0.304,-0.956,250.130,-110.702,76.557,0.0,132.0
281561,-1.085,-0.137,-0.425,-250.137,126.000,-53.916,112.0,138.0
281649,-1.035,-0.684,0.057,250.130,-101.985,52.504,112.0,135.0
281741,-0.982,1.643,-0.837,-250.137,129.382,-44.046,0.0,135.0
281830,-0.926,-1.557,0.938,250.130,-91.977,17.618,110.0,185.0
281922,-0.518,2.000,-0.540,-192.420,42.779,-16.832,0.0,130.0
282009,-1.119,-1.501,1.199,32.008,-24.275,8.824,109.0,138.0
282101,-0.559,1.631,-0.350,229.344,-6.183,27.084,0.0,132.0
282191,-1.121,-0.609,0.366,-250.137,50.366,-55.901,108.0,139.0
282288,-0.726,-0.042,0.022,250.130,-58.794,40.855,0.0,200.0
282380,-0.893,0.897,-0.494,-250.137,71.786,-67.626,0.0,138.0
282467,-0.956,-0.905,0.656,250.130,-31.191,50.046,106.0,141.0
282558,-0.564,1.961,-0.699,192.107,14.504,21.855,0.0,127.0
282649,-1.126,-0.953,0.469,-250.137,79.489,-33.000,105.0,199.0
282740,-0.916,0.102,-0.083,250.130,-60.565,47.595,0.0,125.0
282832,-0.943,1.363,-0.508,-250.137,63.321,-45.496,0.0,126.0
282923,-1.349,-1.802,1.350,166.809,-96.847,-34.878,107.0,139.0
283013,-0.672,0.704,-0.902,250.130,-178.168,90.298,0.0,94.0
283100,-1.304,-0.033,-1.512,-250.137,132.092,-69.992,115.0,136.0
283188,-0.776,-1.416,0.705,250.130,-122.214,-26.489,115.0,135.0
283280,-0.461,2.000,-1.078,-250.137,90.450,-27.840,0.0,134.0
283370,-1.438,-2.000,2.000,250.130,-145.863,-69.214,121.0,183.0
283463,-0.920,2.000,-1.149,-250.137,170.733,92.183,0.0,137.0
283557,-1.150,-2.000,1.352,250.130,-158.802,-24.305,0.0,181.0
283656,-1.236,1.413,-1.384,-250.137,237.832,-50.489,0.0,184.0
283749,-0.553,-1.462,-1.642,250.130,-198.672,61.908,0.0,140.0
283844,-1.418,-2.000,-0.723,-250.137,170.595,-109.145,0.0,186.0
283936,1.854,2.000,-2.000,250.130,93.519,112.313,0.0,142.0
284032,-1.249,-2.000,1.811,250.130,-232.542,-24.496,0.0,183.0
284127,-2.000,-1.622,-0.087,-250.137,221.595,-103.351,0.0,187.0
284222,0.931,2.000,-0.931,-26.779,57.145,10.878,0.0,184.0
284317,-0.703,-0.339,0.361,250.130,-188.458,34.237,0.0,183.0
284412,-1.272,-2.000,1.754,-9.992,-10.885,7.695,0.0,185.0
284511,-0.992,0.032,0.626,-250.137,84.107,-23.137,0.0,185.0
284606,-0.301,1.122,0.764,-52.626,-18.992,48.336,0.0,187.0
284702,-0.351,-0.540,0.958,-178.687,-94.221,2.099,0.0,195.0
284798,-0.318,-0.115,0.792,-34.130,-99.290,40.435,0.0,0.0
284894,-0.168,-0.456,0.846,-23.534,-58.641,36.427,0.0,0.0
284990,-0.183,-0.404,0.817,-20.313,-18.672,30.031,0.0,0.0
285078,-0.207,-0.472,0.889,-23.733,-7.252,29.450,67.0,0.0
285166,-0.167,-0.445,0.864,-9.870,-14.473,14.992,58.0,0.0
285257,-0.152,-0.445,0.844,7.076,-12.206,4.740,59.0,0.0
285345,-0.156,-0.426,0.868,16.718,-9.656,-2.191,57.0,0.0
285433,-0.132,-0.434,0.888,-0.695,-5.595,-0.031,60.0,0.0
285521,-0.107,-0.401,0.887,2.366,1.092,4.260,71.0,0.0
285618,-0.083,-0.387,0.888,14.206,4.160,0.527,0.0,0.0
285714,-0.193,-0.391,0.802,93.527,-5.504,-13.214,0.0,0.0
285810,-0.340,-0.498,0.435,250.130,-67.580,-55.977,0.0,0.0
285899,0.079,0.480,-1.082,250.130,-52.847,-14.565,179.0,115.0
285990,-0.165,2.000,-0.949,-115.527,51.847,-250.137,0.0,101.0
286090,-1.119,-0.742,0.619,-250.137,188.511,-200.458,0.0,0.0
286183,-1.244,0.020,0.254,250.130,25.893,-62.031,0.0,139.0
286275,-1.006,1.028,-0.181,194.611,-18.137,-46.061,0.0,132.0
286367,-0.955,0.469,-0.003,-94.733,13.519,-37.481,0.0,130.0
286459,-0.929,0.292,0.035,24.221,-0.962,-5.252,0.0,128.0
286550,-0.864,0.513,-0.072,15.527,2.092,3.038,0.0,96.0
286642,-0.950,0.420,-0.040,-61.015,10.420,-0.282,0.0,129.0
286734,-0.975,0.445,-0.077,-68.260,10.015,11.740,0.0,130.0
286829,-0.881,0.224,0.048,85.855,6.427,49.802,0.0,132.0
286922,-0.801,0.587,-0.183,51.237,12.992,45.458,0.0,135.0
287014,-0.890,0.547,-0.230,61.527,8.664,19.252,0.0,138.0
287108,-0.837,0.556,-0.249,-12.550,9.076,-9.282,0.0,141.0
287200,-0.978,0.229,-0.055,-10.557,3.794,-23.122,0.0,141.0
287293,-0.917,0.383,-0.048,36.656,-7.649,0.931,0.0,143.0
287386,-0.930,0.502,-0.210,-110.786,1.916,-12.969,0.0,143.0
287479,-0.859,0.510,-0.018,-52.809,5.763,11.664,0.0,144.0
