Timestamp(ms),AccelX(g),AccelY(g),AccelZ(g),GyroX(deg/s),GyroY(deg/s),GyroZ(deg/s),DistanceLeft(cm),DistanceRight(cm)
157481,-0.226,0.132,0.905,18.137,-3.756,-5.924,45.0,0.0
157565,-0.197,0.146,0.994,13.130,1.000,-18.107,45.0,0.0
157658,-0.363,0.233,0.991,27.244,0.473,-38.847,0.0,0.0
157751,-0.251,0.213,0.932,7.924,-0.809,-48.977,0.0,0.0
157843,-0.321,0.143,0.836,65.344,20.084,-78.229,0.0,0.0
157927,-0.567,0.112,0.518,217.137,64.824,-112.420,51.0,0.0
158020,-0.689,0.369,0.403,199.168,69.237,-115.130,0.0,0.0
158116,-0.737,0.502,0.529,65.313,77.084,-138.786,0.0,0.0
158209,-0.958,0.311,0.493,145.160,65.000,-120.679,0.0,0.0
158300,-1.096,0.282,0.185,227.794,39.656,-98.145,173.0,0.0
158392,-1.113,0.473,-0.073,191.595,-9.840,-45.061,177.0,0.0
158484,-0.977,0.463,0.079,41.969,2.008,-28.519,181.0,0.0
158576,-0.936,0.288,0.119,-10.664,-5.534,7.260,182.0,0.0
158667,-0.887,0.286,0.125,5.145,-1.855,30.649,181.0,0.0
158759,-0.850,0.290,0.115,-15.336,15.008,27.359,179.0,0.0
158852,-0.927,0.305,0.147,-43.885,34.145,14.122,178.0,0.0
158946,-0.996,0.205,0.041,-51.122,14.740,-2.939,176.0,0.0
159038,-1.043,0.197,-0.047,11.122,0.061,10.634,175.0,0.0
159129,-0.821,0.338,-0.131,-33.947,12.450,23.573,173.0,0.0
159221,-0.913,0.267,-0.109,-39.855,11.679,-3.542,172.0,0.0
159312,-0.938,0.302,-0.157,2.672,13.779,-8.076,171.0,0.0
159405,-0.904,0.384,-0.218,-44.122,50.237,-9.145,171.0,0.0
159496,-1.005,0.322,-0.247,-103.130,48.908,-17.779,172.0,0.0
159589,-1.071,0.232,-0.229,-78.382,15.405,-16.046,0.0,0.0
159682,-0.992,0.357,-0.279,-54.924,-6.321,3.740,0.0,0.0
159778,-0.852,0.297,-0.169,-68.229,-12.611,11.122,0.0,0.0
159872,-0.878,0.313,-0.178,-36.305,-16.962,-8.160,0.0,0.0
159965,-0.947,0.333,-0.132,-15.137,-9.145,-25.534,0.0,0.0
160058,-0.887,0.370,0.009,-59.298,28.855,-21.282,0.0,0.0
160150,-1.125,0.431,0.057,-162.863,55.122,-20.359,174.0,0.0
160241,-0.932,0.090,0.162,-114.664,-9.985,27.290,152.0,0.0
160331,-0.898,0.163,0.020,-61.099,-10.519,43.924,144.0,0.0
160420,-0.772,0.234,-0.033,-67.863,14.069,18.115,137.0,0.0
160513,-0.797,0.207,-0.074,-68.031,24.092,-4.763,129.0,0.0
160602,-0.752,0.247,-0.013,-19.405,25.802,-26.832,123.0,0.0
160691,-0.953,0.306,-0.040,-0.672,29.145,-57.397,116.0,0.0
160779,-1.258,0.315,-0.074,13.992,26.481,-51.092,109.0,0.0
160866,-1.216,0.112,-0.146,-24.267,-9.313,52.176,100.0,0.0
160953,-1.084,0.260,-0.078,-31.939,24.176,123.611,90.0,0.0
161040,-0.996,0.155,-0.145,-117.168,20.649,64.321,81.0,0.0
161133,-1.075,-0.041,-0.075,-63.008,-5.168,-1.443,0.0,0.0
161226,-1.193,0.092,-0.137,67.137,-52.351,-32.023,0.0,0.0
161315,-1.112,0.246,-0.115,105.733,-88.794,-74.527,73.0,0.0
161401,-0.874,0.376,0.080,93.450,-63.473,-130.855,75.0,0.0
161488,-0.784,0.370,0.215,-2.420,-10.153,-139.817,77.0,0.0
161574,-0.842,-0.017,0.298,-81.015,-9.618,-95.802,78.0,0.0
161661,-0.902,-0.219,0.278,-20.290,-8.275,6.565,76.0,0.0
161747,-0.791,-0.261,0.265,-20.229,-6.137,40.290,74.0,0.0
161833,-0.860,-0.327,0.221,-16.565,4.947,26.015,72.0,0.0
161920,-0.934,-0.384,0.214,-8.618,9.374,13.740,70.0,0.0
162006,-0.909,-0.390,0.174,25.901,14.450,12.626,71.0,0.0
162095,-0.936,-0.314,0.135,41.153,14.458,-0.214,73.0,0.0
162181,-0.926,-0.283,0.109,61.450,10.145,17.534,76.0,0.0
162268,-0.984,-0.247,0.094,92.725,-2.695,38.527,82.0,0.0
162355,-0.861,-0.081,0.147,126.740,3.809,42.229,88.0,0.0
162442,-0.859,0.115,0.129,113.229,11.771,26.198,97.0,0.0
162531,-1.118,0.266,0.004,123.824,-7.458,-0.458,118.0,0.0
162624,-1.097,0.239,-0.124,165.870,-19.634,5.031,0.0,0.0
162717,-1.047,0.425,-0.198,78.733,-6.168,26.107,0.0,0.0
162813,-0.889,0.251,-0.048,63.221,-20.924,14.023,0.0,0.0
162908,-0.942,0.358,-0.107,121.634,-24.565,1.740,0.0,0.0
163000,-0.993,0.406,-0.075,64.519,-15.527,-14.168,0.0,184.0
163093,-0.962,0.311,-0.007,64.870,-15.008,-19.962,0.0,183.0
163185,-1.028,0.344,-0.022,61.969,-22.214,-27.611,0.0,183.0
163277,-1.183,0.298,0.017,73.061,-30.588,-25.137,0.0,183.0
163371,-0.696,0.213,0.069,84.412,-14.863,20.702,0.0,185.0
163464,-0.950,0.343,-0.014,24.038,-0.847,11.267,0.0,188.0
163557,-0.766,0.227,0.140,21.412,5.275,6.176,0.0,192.0
163653,-0.843,0.336,0.083,1.359,24.511,-12.870,199.0,196.0
163746,-0.917,0.220,0.090,-21.092,18.061,-12.298,197.0,200.0
163840,-1.024,0.204,0.000,64.229,11.779,-0.534,194.0,0.0
163933,-0.839,0.300,-0.134,57.076,14.084,23.351,0.0,0.0
164026,-1.299,0.299,-0.272,32.382,-2.931,29.565,0.0,0.0
164120,-0.909,0.332,-0.215,-20.656,25.557,68.282,0.0,0.0
164213,-0.893,0.239,-0.278,-38.244,-2.275,24.389,0.0,0.0
164306,-0.773,0.163,-0.162,38.107,-6.229,7.115,0.0,0.0
164401,-0.410,0.199,-0.090,76.985,-23.626,29.595,0.0,0.0
164497,-1.740,1.632,-0.772,-97.115,-68.344,-162.580,0.0,0.0
164591,-0.979,-1.003,0.698,-20.130,-186.221,231.519,0.0,0.0
164683,-0.072,-0.114,-0.445,250.130,-58.809,203.611,0.0,186.0
164770,-0.479,0.911,-0.438,52.229,-54.260,-11.725,0.0,74.0
164862,-0.660,0.739,-0.128,-73.893,-87.672,-64.954,0.0,175.0
164955,-0.861,0.631,-0.036,68.366,-105.588,-18.191,0.0,170.0
165047,-0.675,0.637,-0.137,111.221,-97.939,-0.176,0.0,166.0
165124,-0.933,0.909,-0.174,-53.992,-102.214,0.992,44.0,68.0
165209,-1.388,0.573,-0.574,-118.229,-250.137,-11.115,38.0,158.0
165291,-0.608,1.057,-0.091,36.992,-250.137,-47.382,31.0,152.0
165371,0.494,2.000,0.807,-0.053,-125.260,-80.481,37.0,141.0
165458,0.169,1.342,1.290,-100.534,-124.000,-61.023,0.0,69.0
165533,0.469,-0.170,0.801,-156.130,-92.565,-101.427,41.0,36.0
165612,0.204,0.036,0.410,-61.252,59.061,-53.695,48.0,80.0
165696,0.160,0.108,0.421,-209.718,54.496,-88.382,0.0,37.0
165777,0.047,-0.598,0.887,-181.328,25.023,-118.359,51.0,124.0
165861,-0.297,-0.549,0.636,-19.908,-46.305,-69.763,36.0,125.0
165941,0.160,-0.547,0.628,38.221,-90.244,44.679,39.0,123.0
166017,0.419,-0.253,0.947,75.489,17.351,35.450,42.0,36.0
166106,-0.337,-0.046,1.041,29.031,76.023,8.687,0.0,119.0
166190,-0.288,-0.125,1.083,29.359,21.298,44.183,0.0,34.0
166274,-0.399,-0.018,0.808,-42.580,26.336,33.771,0.0,35.0
166359,-0.296,-0.645,1.071,-76.511,0.611,-5.221,0.0,36.0
166443,-0.216,-0.481,0.909,-20.679,4.458,-3.099,0.0,37.0
166528,-0.304,-0.309,0.817,-0.191,8.519,4.046,0.0,36.0
166616,-0.329,-0.452,0.903,9.740,3.817,1.443,0.0,37.0
166700,-0.313,-0.355,0.872,11.198,8.588,-9.168,0.0,36.0
166785,-0.301,-0.287,0.806,1.618,4.122,-7.893,0.0,36.0
166870,-0.354,-0.477,0.951,7.603,2.931,1.153,0.0,36.0
166955,-0.326,-0.220,0.832,15.473,0.489,2.802,0.0,35.0
167038,-0.286,-0.276,0.857,8.557,-1.397,6.542,0.0,35.0
167123,-0.327,-0.391,0.908,10.336,4.519,5.550,0.0,36.0
167208,-0.330,-0.278,0.897,26.931,2.450,-1.092,0.0,35.0
167292,-0.329,-0.135,0.925,9.809,-2.695,2.954,0.0,35.0
167380,-0.317,-0.238,0.900,-18.550,-3.511,3.702,0.0,35.0
167465,-0.337,-0.300,0.885,-14.153,-6.084,0.130,0.0,36.0
167550,-0.327,-0.306,0.897,-4.298,-0.275,-1.863,0.0,36.0
167635,-0.337,-0.251,0.917,-2.336,-1.084,-1.313,0.0,37.0
167719,-0.308,-0.292,0.910,-9.519,-0.802,1.260,0.0,36.0
167804,-0.299,-0.334,0.894,-13.260,-3.656,0.275,0.0,37.0
167889,-0.316,-0.329,0.895,-0.718,-0.939,2.344,0.0,36.0
167974,-0.303,-0.301,0.891,-7.489,-5.985,-0.756,0.0,37.0
168059,-0.295,-0.317,0.877,-17.786,-6.847,0.275,0.0,36.0
168147,-0.328,-0.404,0.888,-11.092,-2.053,-0.275,0.0,36.0
168232,-0.283,-0.350,0.868,3.450,1.725,-1.565,0.0,36.0
168317,-0.298,-0.418,0.900,28.351,11.000,1.000,0.0,37.0
168402,-0.330,-0.239,0.921,33.466,4.779,0.000,0.0,38.0
168493,-0.339,-0.227,0.890,-3.046,-0.466,-0.656,0.0,36.0
168577,-0.315,-0.319,0.911,-3.511,0.977,-0.382,0.0,38.0
168660,-0.330,-0.268,0.894,2.443,1.023,-0.649,0.0,37.0
168744,-0.337,-0.270,0.897,-1.000,-0.382,-0.794,0.0,36.0
168827,-0.321,-0.286,0.896,-6.374,-1.168,-0.985,0.0,38.0
168914,-0.338,-0.301,0.892,-1.679,-1.519,-0.939,0.0,36.0
168998,-0.317,-0.297,0.882,-6.992,-2.802,-2.366,0.0,36.0
169082,-0.317,-0.306,0.898,-0.496,-0.947,-0.740,0.0,37.0
169166,-0.317,-0.317,0.895,-2.893,-1.008,-0.038,0.0,37.0
169250,-0.321,-0.322,0.893,1.366,-0.023,-0.214,0.0,37.0
169334,-0.320,-0.311,0.892,-0.588,-1.244,-0.595,0.0,37.0
169418,-0.312,-0.320,0.892,-4.458,-1.229,-1.046,0.0,37.0
169502,-0.312,-0.315,0.885,-1.779,-0.122,-0.427,0.0,38.0
169586,-0.321,-0.310,0.892,-0.840,-0.237,0.023,0.0,36.0
169673,-0.318,-0.332,0.900,-2.458,-0.771,-0.282,0.0,36.0
169757,-0.318,-0.329,0.885,-1.687,0.107,-0.130,0.0,37.0
169841,-0.314,-0.328,0.873,-0.771,0.359,-0.374,0.0,37.0
169925,-0.313,-0.316,0.905,3.908,0.252,-0.756,0.0,36.0
170009,-0.327,-0.317,0.887,0.733,0.626,0.206,0.0,36.0
170092,-0.319,-0.324,0.890,-0.664,-0.168,-0.099,0.0,36.0
170176,-0.320,-0.324,0.893,0.947,-0.008,-0.160,0.0,36.0
170260,-0.323,-0.325,0.886,0.947,0.389,-0.061,0.0,36.0
170344,-0.330,-0.312,0.894,6.733,-0.382,-0.275,0.0,37.0
170431,-0.323,-0.315,0.892,-0.649,-0.275,-0.076,0.0,37.0
170515,-0.336,-0.313,0.880,5.740,-0.092,-0.214,0.0,36.0
170599,-0.325,-0.299,0.893,4.313,-0.344,-0.466,0.0,36.0
170683,-0.326,-0.293,0.888,2.229,-0.595,-0.191,0.0,38.0
170767,-0.325,-0.302,0.896,3.924,-0.695,-0.198,0.0,37.0
170851,-0.321,-0.283,0.903,2.771,-0.458,-0.359,0.0,36.0
170935,-0.320,-0.287,0.882,0.198,-0.511,-0.344,0.0,36.0
171019,-0.341,-0.278,0.902,1.328,-0.366,-0.672,0.0,36.0
171103,-0.317,-0.293,0.892,-4.328,-0.336,-0.214,0.0,37.0
171190,-0.331,-0.283,0.903,1.664,-0.023,-0.466,0.0,37.0
171275,-0.323,-0.283,0.896,-2.634,0.015,-0.664,0.0,37.0
171359,-0.312,-0.284,0.901,-0.931,0.313,-0.519,0.0,37.0
171443,-0.330,-0.289,0.900,-0.725,0.008,-0.328,0.0,37.0
171527,-0.331,-0.292,0.892,-0.725,0.145,-0.176,0.0,37.0
171611,-0.328,-0.293,0.891,-1.748,0.153,-0.260,0.0,38.0
171695,-0.329,-0.299,0.900,0.344,-0.145,-0.794,0.0,38.0
171780,-0.328,-0.264,0.891,-2.313,-0.656,-0.542,0.0,38.0
171864,-0.324,-0.316,0.901,-0.847,0.328,-0.305,0.0,36.0
171951,-0.329,-0.285,0.885,-0.618,0.130,-0.298,0.0,38.0
172035,-0.331,-0.301,0.889,-0.069,0.008,-0.336,0.0,38.0
172120,-0.326,-0.301,0.885,-0.183,0.092,-0.542,0.0,38.0
172204,-0.333,-0.294,0.894,-0.160,-0.107,-0.550,0.0,38.0
172288,-0.336,-0.302,0.885,-0.183,-0.061,-0.183,0.0,38.0
172372,-0.329,-0.306,0.894,0.076,-0.260,-0.099,0.0,39.0
172456,-0.329,-0.299,0.893,0.527,-0.374,-1.000,0.0,38.0
172540,-0.333,-0.279,0.889,-1.557,-0.809,-0.389,0.0,38.0
172624,-0.325,-0.319,0.896,0.298,-0.137,-0.076,0.0,38.0
172712,-0.337,-0.289,0.900,-0.489,-0.038,-0.206,0.0,38.0
172796,-0.335,-0.302,0.889,0.458,-0.252,-0.275,0.0,38.0
172880,-0.330,-0.300,0.893,-0.260,-0.290,-0.351,0.0,38.0
172964,-0.336,-0.299,0.895,1.084,-0.252,-0.344,0.0,38.0
173049,-0.334,-0.298,0.895,1.756,-0.427,-0.328,0.0,37.0
173133,-0.337,-0.303,0.891,2.435,-0.641,0.015,0.0,37.0
173217,-0.330,-0.290,0.895,4.084,-0.962,-0.198,0.0,36.0
173302,-0.346,-0.280,0.898,5.962,-1.153,-0.023,0.0,38.0
173386,-0.329,-0.290,0.898,-0.565,-1.229,-0.244,0.0,36.0
173473,-0.332,-0.269,0.904,2.733,-2.183,-0.321,0.0,37.0
173558,-0.373,-0.264,0.946,-4.198,-5.550,1.511,0.0,36.0
173642,-0.344,-0.300,0.947,-19.855,-25.099,-0.603,0.0,38.0
173727,-0.260,-0.468,0.976,31.588,-48.985,0.420,0.0,36.0
173802,-0.018,-0.284,0.906,53.557,-32.626,-20.344,38.0,36.0
173877,0.035,-0.299,0.923,62.924,-7.008,-20.061,43.0,33.0
173962,0.016,-0.052,0.951,53.786,26.557,-50.237,0.0,31.0
174047,-0.078,-0.060,1.070,37.878,33.618,-33.634,45.0,0.0
174130,-0.063,-0.001,0.908,13.282,33.550,-12.168,0.0,27.0
174218,-0.219,0.055,0.908,-20.740,40.748,1.244,44.0,0.0
174304,-0.568,-0.046,1.011,-19.244,13.290,13.710,64.0,198.0
174397,-0.634,-0.132,1.036,23.366,-26.031,26.427,0.0,182.0
174474,-0.368,-0.035,0.971,20.702,-32.603,30.168,41.0,65.0
174552,-0.322,0.096,0.905,-10.519,-19.687,22.809,45.0,63.0
174638,-0.366,-0.036,0.927,-14.237,-16.885,26.031,0.0,62.0
174723,-0.186,0.007,0.869,-31.450,-21.450,32.168,0.0,61.0
174809,-0.218,-0.095,0.890,16.366,-26.511,39.534,0.0,60.0
174898,-0.196,0.108,0.925,15.031,-37.183,35.473,0.0,59.0
174988,-0.147,0.115,0.961,11.626,-46.725,22.229,0.0,134.0
175078,0.033,0.104,0.967,-24.046,-26.420,12.611,0.0,134.0
175168,0.115,-0.081,1.000,-29.435,-10.885,30.000,0.0,131.0
175250,0.044,0.038,0.977,3.832,-13.695,30.702,58.0,129.0
175336,0.025,0.034,1.003,16.344,-13.885,29.618,137.0,127.0
175418,0.156,0.031,0.956,-8.153,3.809,37.863,43.0,142.0
175499,0.136,0.083,0.998,-0.977,18.878,33.061,41.0,124.0
175579,0.130,0.119,0.989,3.649,20.969,25.916,40.0,122.0
175663,0.136,0.051,0.928,1.794,34.580,27.260,40.0,121.0
175742,0.100,-0.021,0.879,3.412,53.366,19.412,42.0,121.0
175823,0.104,-0.087,0.968,27.038,99.023,21.504,44.0,120.0
175903,-0.235,0.347,0.962,5.084,135.008,7.237,44.0,120.0
175984,-0.792,0.434,1.094,1.565,115.328,17.969,43.0,121.0
176066,-1.277,0.348,0.934,0.733,94.664,32.863,70.0,125.0
176156,-1.030,0.003,0.773,17.053,77.206,50.695,0.0,131.0
176246,-1.032,0.193,0.412,78.160,110.901,15.527,0.0,136.0
176329,-1.131,0.214,0.200,22.893,93.458,-26.496,55.0,140.0
176414,-0.867,0.044,0.172,58.267,72.015,-34.794,51.0,140.0
176506,-0.697,0.053,0.107,118.863,37.244,-36.168,0.0,159.0
176598,-0.654,0.130,0.074,127.710,28.664,-32.947,0.0,161.0
176690,-0.854,0.245,0.077,83.534,18.969,-39.878,0.0,163.0
176782,-0.989,0.159,0.111,42.634,16.962,-21.092,0.0,163.0
176874,-0.941,0.193,0.068,33.435,16.832,13.252,0.0,165.0
176968,-1.022,0.187,0.057,25.198,3.565,33.534,0.0,0.0
177062,-1.030,0.186,-0.146,-53.718,4.298,-3.809,0.0,0.0
177158,-1.064,0.062,-0.157,16.565,8.527,50.595,0.0,163.0
177250,-0.949,0.224,-0.315,5.901,-14.397,47.740,0.0,165.0
177342,-0.754,0.262,-0.261,-22.366,-10.626,7.489,0.0,165.0
177434,-0.908,0.244,-0.226,0.069,-17.031,-16.916,0.0,166.0
177528,-1.024,0.417,-0.217,12.191,-19.359,-45.740,0.0,0.0
177620,-0.901,0.531,-0.206,-60.924,59.595,7.443,0.0,172.0
177714,-0.960,0.103,-0.237,-108.840,-40.160,77.229,0.0,175.0
177807,0.286,0.872,0.277,77.947,18.664,-130.595,0.0,178.0
177900,-1.804,0.769,-0.645,-250.137,14.641,150.244,0.0,185.0
177997,-0.412,-0.595,0.331,-135.840,-118.450,224.847,0.0,0.0
178092,0.273,0.211,0.100,65.008,42.733,103.740,0.0,0.0
178186,-1.554,0.647,-0.353,118.893,48.420,-244.183,0.0,0.0
178280,-1.277,2.000,-2.000,-228.977,104.664,-111.321,0.0,0.0
178374,-1.810,-0.350,-0.603,-250.137,45.443,94.634,0.0,0.0
178468,0.271,-0.668,0.470,-194.702,-4.305,136.771,0.0,0.0
178554,0.514,0.130,0.481,-94.328,81.931,72.794,61.0,0.0
178640,-1.162,2.000,-0.293,-143.969,87.008,183.511,45.0,0.0
178726,-1.152,0.742,1.080,79.710,39.595,157.321,63.0,0.0
178816,-0.199,0.634,0.413,-7.748,-23.710,140.771,44.0,0.0
178910,-0.438,1.000,0.244,-42.740,46.458,90.931,0.0,0.0
179004,-0.119,0.570,-0.036,9.061,-35.542,111.267,0.0,0.0
179098,0.309,0.859,0.696,177.847,-31.840,58.511,0.0,0.0
179192,-0.277,0.762,0.088,186.328,-54.550,93.015,0.0,0.0
179287,0.531,1.137,-0.180,-114.679,23.885,27.664,0.0,0.0
179381,0.550,0.671,0.091,103.992,15.191,36.893,0.0,0.0
179480,0.496,1.002,-0.014,-44.794,3.420,-46.985,0.0,0.0
179576,0.351,0.842,0.138,21.374,9.649,-40.954,0.0,0.0
179670,0.218,1.018,0.041,-32.252,22.061,-59.481,0.0,0.0
179763,0.164,1.050,0.057,-41.580,27.046,-45.588,0.0,0.0
179856,0.032,1.032,0.204,-26.473,5.031,-47.641,0.0,0.0
179949,0.062,0.888,0.295,9.229,-11.939,-14.397,0.0,0.0
180042,-0.003,1.046,0.218,-76.435,19.573,-20.908,0.0,0.0
180135,-0.063,0.808,0.558,-58.405,10.267,-12.260,0.0,0.0
180229,-0.122,0.815,0.537,23.550,-10.076,-4.656,0.0,0.0
180322,-0.070,0.851,0.453,53.053,-5.198,7.282,0.0,0.0
180415,-0.042,0.990,0.266,51.573,-6.191,10.046,0.0,0.0
180511,-0.070,1.021,0.208,15.008,0.908,4.313,0.0,0.0
180604,0.019,1.006,0.217,-10.580,1.824,0.275,0.0,0.0
180698,0.015,0.973,0.282,-13.336,4.359,1.939,0.0,0.0
180791,0.003,0.958,0.293,0.847,1.901,1.687,0.0,0.0
180884,0.016,0.987,0.261,2.168,-0.275,0.565,0.0,0.0
180977,0.019,0.972,0.271,-1.962,-0.466,-1.153,0.0,0.0
181070,0.020,0.972,0.286,-0.473,-0.321,-1.122,0.0,0.0
181164,0.014,0.974,0.263,-0.595,-0.427,-0.435,0.0,0.0
181257,0.012,0.968,0.281,-1.092,-0.351,-0.595,0.0,0.0
181353,0.010,0.977,0.278,-1.191,-0.160,-0.221,0.0,0.0
181446,0.005,0.966,0.281,0.542,-0.183,0.015,0.0,0.0
181539,-0.006,0.960,0.295,3.000,-0.336,1.176,0.0,0.0
181633,0.026,0.993,0.237,26.924,-3.435,2.985,0.0,0.0
181726,-0.003,0.995,0.201,-8.275,-1.107,-4.313,0.0,0.0
181819,-0.008,0.965,0.274,1.489,-1.847,4.916,0.0,0.0
181912,0.038,0.999,0.202,0.504,-3.206,1.130,0.0,0.0
182005,0.031,0.990,0.220,0.748,1.458,-0.206,0.0,0.0
182098,0.025,0.974,0.247,1.260,0.435,-0.336,0.0,0.0
182195,0.022,0.981,0.240,-3.229,0.427,-1.328,0.0,0.0
182289,0.019,0.984,0.227,0.802,0.084,0.763,0.0,0.0
182382,0.023,0.981,0.234,-0.832,-0.374,-0.641,0.0,0.0
182475,0.025,0.987,0.226,0.863,-0.397,-0.534,0.0,0.0
182568,0.020,0.982,0.228,0.321,0.107,0.061,0.0,0.0
182662,0.024,0.985,0.231,-0.954,-0.290,-0.870,0.0,0.0
182755,0.021,0.985,0.234,0.489,-0.389,-0.557,0.0,0.0
182849,0.028,0.984,0.240,-0.405,-0.198,-1.771,0.0,0.0
182942,0.021,0.986,0.222,0.344,-0.290,-0.008,0.0,0.0
183035,0.021,0.987,0.230,-1.710,-0.267,-0.282,0.0,0.0
183132,0.024,0.984,0.232,0.794,-0.496,-0.779,0.0,0.0
183225,0.018,0.982,0.251,-0.458,-0.298,-0.664,0.0,0.0
183319,0.023,0.990,0.216,-1.076,-0.282,-0.252,0.0,0.0
183412,0.028,0.981,0.235,0.504,-0.481,-0.489,0.0,0.0
183505,0.015,0.988,0.218,-1.466,-0.160,-0.855,0.0,0.0
183600,0.018,0.987,0.237,-0.763,0.000,-0.725,0.0,0.0
183693,0.013,0.983,0.246,-4.542,0.328,-0.252,0.0,0.0
183786,-0.010,1.013,0.201,4.985,-0.168,7.031,0.0,0.0
183879,0.016,1.197,0.234,8.878,-10.321,52.153,0.0,0.0
183976,0.087,1.242,0.289,-69.481,-32.489,95.015,0.0,0.0
184070,0.249,0.903,0.301,-56.504,-39.908,84.725,0.0,0.0
184164,0.426,0.799,0.393,-61.321,-50.473,60.489,0.0,0.0
184257,0.524,0.561,0.486,-28.382,-60.000,55.344,0.0,0.0
184343,0.648,0.748,0.397,-84.748,-62.595,63.183,0.0,61.0
184429,0.679,0.521,0.402,-73.519,-90.550,73.008,0.0,62.0
184515,0.822,0.303,0.233,-72.450,-89.565,57.992,0.0,64.0
184601,0.897,0.240,0.151,-36.702,-69.252,29.603,0.0,66.0
184687,0.966,0.286,0.123,-13.740,-53.435,7.351,0.0,67.0
184776,0.956,0.322,0.045,-8.992,-41.550,10.191,0.0,68.0
184862,1.000,0.207,0.031,-32.382,-38.710,16.282,0.0,69.0
184948,0.989,0.198,-0.011,-24.229,-31.573,18.237,0.0,71.0
185035,1.006,0.093,-0.043,1.435,-21.176,10.046,0.0,71.0
185121,1.011,0.216,-0.091,-18.069,-12.565,-1.702,0.0,71.0
185207,1.000,0.222,-0.107,0.511,-8.046,-5.947,0.0,71.0
185294,0.998,0.222,-0.081,3.634,-3.099,-6.031,0.0,71.0
185380,0.995,0.231,-0.073,-1.534,-3.672,-2.985,0.0,71.0
185466,0.991,0.214,-0.091,-0.824,-1.679,-3.359,0.0,71.0
185556,0.981,0.221,-0.098,0.618,-1.809,-2.809,0.0,70.0
185643,0.982,0.215,-0.086,9.641,-2.229,-1.664,0.0,71.0
185729,0.979,0.236,-0.116,2.420,-0.855,-1.084,0.0,71.0
185816,1.005,0.220,-0.118,9.534,2.763,-2.397,0.0,71.0
185902,1.036,0.144,-0.165,25.145,18.908,1.389,0.0,71.0
185988,0.996,0.065,-0.191,63.260,69.389,-6.092,0.0,69.0
186074,1.001,0.295,-0.191,97.183,113.901,-23.771,0.0,67.0
186161,0.924,0.212,0.027,86.061,137.664,-54.313,0.0,66.0
186248,0.821,0.641,-0.039,46.382,161.634,-89.962,0.0,92.0
186345,0.375,0.995,0.080,10.229,187.863,-86.725,0.0,0.0
186439,0.179,0.394,0.712,-181.008,220.481,-80.595,0.0,0.0
186532,-0.489,0.340,1.326,14.954,87.015,-22.511,0.0,0.0
186627,-0.262,0.680,0.790,32.885,-1.511,-29.351,0.0,0.0
186721,-0.274,0.380,0.938,57.786,16.176,-122.336,0.0,0.0
186815,-0.136,0.980,0.758,3.725,68.824,-76.427,0.0,0.0
186905,-0.549,0.487,0.725,81.794,38.214,-62.916,0.0,148.0
186996,-0.501,0.327,0.927,42.267,56.557,-79.206,0.0,148.0
187079,-0.550,0.640,0.776,32.237,52.702,-95.718,48.0,149.0
187172,-0.722,0.890,0.447,-12.397,51.588,-108.244,0.0,133.0
187264,-1.508,0.098,0.419,-53.237,-45.053,124.344,199.0,157.0
187358,-0.266,0.671,0.815,60.504,-21.977,196.397,0.0,0.0
187452,-0.141,0.788,0.757,-2.550,54.031,103.595,0.0,0.0
187538,-1.044,0.526,0.316,-10.664,13.863,34.817,0.0,57.0
187631,-0.696,0.519,0.269,-64.038,40.679,-45.176,0.0,0.0
187723,-0.403,0.264,0.590,-64.626,49.031,-129.145,164.0,198.0
187815,-0.407,0.305,0.588,-55.450,44.099,-137.847,158.0,198.0
187907,-0.552,0.417,0.297,-63.748,75.198,-71.458,154.0,0.0
188001,-1.212,0.090,0.196,-133.557,80.527,-11.679,149.0,0.0
188092,-1.538,-0.230,0.192,-83.473,77.092,21.344,145.0,0.0
188186,-1.135,-0.770,0.279,17.023,69.702,65.237,0.0,0.0
188277,-1.358,-0.029,-0.004,143.267,2.466,-41.267,141.0,0.0
188367,-1.079,0.646,-0.158,29.489,55.450,-1.878,145.0,0.0
188462,-1.082,-0.485,0.188,44.389,-23.015,10.420,194.0,0.0
188553,-0.795,0.087,-0.158,187.618,6.603,24.794,169.0,172.0
188645,-0.759,0.244,-0.155,-27.145,29.847,-23.450,172.0,0.0
188741,-0.521,-0.489,0.373,57.275,-65.473,17.328,175.0,0.0
188834,-0.651,0.254,0.000,230.168,-6.626,50.359,181.0,0.0
188929,-0.555,0.448,-0.047,74.962,32.786,17.817,0.0,0.0
189023,-0.890,0.361,-0.122,-37.779,61.260,-16.847,0.0,0.0
189117,-1.275,-0.027,-0.217,128.160,-74.870,-2.023,0.0,0.0
189211,-1.098,0.127,-0.439,250.130,7.733,66.084,0.0,0.0
189302,-0.648,0.598,-0.421,83.672,14.740,6.489,165.0,0.0
189394,-0.741,0.156,-0.342,-13.221,-35.718,-31.092,164.0,0.0
189487,-1.045,-0.052,-0.297,182.702,-104.076,-15.237,162.0,0.0
189583,-1.713,-0.019,-0.497,240.534,-75.687,77.305,163.0,0.0
189675,-0.946,0.458,-0.224,166.710,-25.794,40.496,165.0,0.0
189767,-0.489,0.337,-0.021,26.313,-25.924,-31.450,167.0,0.0
189860,-0.821,0.143,-0.069,52.214,-15.153,-9.519,167.0,0.0
189955,-0.326,0.198,-0.039,123.412,16.885,8.160,0.0,0.0
190048,-1.764,1.302,-0.540,-20.870,-45.557,-225.031,199.0,198.0
190138,-0.740,-2.000,0.669,-250.137,-123.641,250.130,114.0,0.0
190232,-0.446,-0.292,-0.423,250.130,-51.092,250.130,0.0,0.0
190329,-0.337,0.464,-0.185,107.985,-107.221,82.863,0.0,198.0
190414,-0.757,0.736,-0.076,90.473,-185.496,28.282,38.0,194.0
190498,-0.632,0.911,-0.406,71.947,-204.695,45.443,32.0,190.0
190583,-0.578,1.002,-0.536,-23.344,-220.611,14.053,33.0,0.0
190678,-0.466,1.602,-0.627,-176.099,-237.763,-41.458,0.0,0.0
190764,-0.090,0.826,1.355,-130.122,-223.321,-19.840,36.0,0.0
190852,1.161,0.798,1.633,-6.069,-162.450,-30.527,0.0,88.0
190930,1.130,-0.053,0.697,-250.137,-84.756,-180.771,46.0,91.0
191024,0.270,-0.572,0.570,-158.160,-27.115,-162.115,0.0,120.0
191123,-0.137,0.009,0.261,-2.244,20.290,-52.687,0.0,193.0
191209,0.193,0.221,0.596,-250.137,40.656,-75.824,62.0,0.0
191293,1.292,-1.429,1.117,-250.137,44.992,-136.573,38.0,0.0
191377,0.279,-0.903,0.746,170.855,53.099,-66.336,68.0,169.0
191454,-0.246,-0.147,0.141,250.130,11.198,-27.519,74.0,37.0
191538,-0.006,0.145,0.272,157.153,-17.817,-23.931,0.0,36.0
191622,0.800,0.335,0.733,-5.305,102.847,-53.656,0.0,36.0
191708,-0.089,0.003,0.637,-194.420,187.214,-125.366,77.0,0.0
191797,-0.747,-0.533,1.671,-87.443,18.336,31.817,77.0,0.0
191884,-0.079,-0.745,1.100,113.901,-47.489,56.206,76.0,0.0
191970,0.085,0.157,0.572,93.908,0.336,6.718,70.0,0.0
192056,-0.115,-0.158,1.068,-94.977,20.664,-15.901,70.0,0.0
192142,-0.156,-0.267,1.041,-3.824,-2.550,6.412,69.0,0.0
192227,-0.089,-0.155,0.925,2.038,-0.702,7.053,68.0,0.0
192313,-0.145,-0.255,0.998,-6.939,1.794,-2.229,68.0,0.0
192399,-0.114,-0.180,0.968,-3.656,-0.374,0.107,69.0,0.0
192485,-0.123,-0.229,0.971,-7.137,0.153,1.427,68.0,0.0
192573,-0.126,-0.215,0.957,-5.504,0.328,-0.420,67.0,0.0
192659,-0.125,-0.227,0.980,-1.634,0.130,0.427,70.0,0.0
192745,-0.126,-0.223,0.966,-0.160,0.122,0.290,68.0,0.0
192831,-0.124,-0.224,0.961,-4.443,-0.107,-0.489,67.0,0.0
192916,-0.139,-0.253,0.972,-0.137,-0.565,-0.748,67.0,0.0
193002,-0.120,-0.216,0.959,-0.588,0.008,-0.863,67.0,0.0
193088,-0.127,-0.233,0.970,-1.427,-0.191,-0.588,68.0,0.0
193174,-0.137,-0.228,0.967,-0.466,0.053,-0.702,68.0,0.0
193260,-0.127,-0.241,0.964,-0.916,-0.008,-1.328,67.0,0.0
193349,-0.128,-0.240,0.975,0.153,0.031,-0.885,68.0,0.0
193435,-0.122,-0.229,0.969,-0.405,-0.153,-0.382,69.0,0.0
193521,-0.135,-0.232,0.970,0.962,-0.229,0.115,68.0,0.0
193607,-0.125,-0.229,0.967,-0.740,-0.115,-0.504,70.0,0.0
193693,-0.131,-0.241,0.960,-0.183,-0.290,-0.405,68.0,0.0
193779,-0.133,-0.236,0.965,-0.511,-0.595,-0.710,69.0,0.0
193865,-0.122,-0.242,0.951,-1.908,0.099,-0.908,70.0,0.0
193951,-0.135,-0.234,0.964,-0.725,-0.824,0.504,69.0,0.0
194037,-0.129,-0.241,0.970,-0.405,0.069,-0.550,68.0,0.0
194125,-0.127,-0.235,0.957,0.397,-0.672,0.092,68.0,0.0
194211,-0.132,-0.245,0.964,0.130,-0.115,-0.221,68.0,0.0
194297,-0.130,-0.241,0.970,-0.519,-0.229,-0.183,67.0,0.0
194383,-0.139,-0.241,0.970,-0.176,-0.267,-0.351,67.0,0.0
194469,-0.124,-0.243,0.955,0.565,-0.351,-0.389,67.0,0.0
194555,-0.129,-0.247,0.962,-0.099,-0.481,-0.176,68.0,0.0
194641,-0.135,-0.240,0.968,0.321,-0.290,-0.718,67.0,0.0
194727,-0.127,-0.245,0.960,0.031,-0.664,-0.099,67.0,0.0
194813,-0.134,-0.248,0.962,0.397,-0.191,-0.351,67.0,0.0
194902,-0.133,-0.240,0.962,-0.809,-0.336,-0.405,67.0,0.0
194988,-0.125,-0.238,0.961,0.282,-0.237,0.153,67.0,0.0
195074,-0.131,-0.239,0.947,-3.634,0.099,0.458,67.0,0.0
195160,-0.119,-0.238,0.935,-7.626,0.901,4.015,68.0,0.0
195246,-0.189,-0.281,0.979,-14.290,-1.260,11.405,67.0,0.0
195333,-0.141,-0.275,1.002,-28.000,0.412,33.511,67.0,0.0
195418,-0.131,-0.301,1.039,-23.511,13.519,11.183,62.0,0.0
195504,-0.097,-0.151,0.984,1.290,22.916,16.924,62.0,0.0
195593,-0.157,-0.019,0.877,-137.504,41.710,19.573,60.0,0.0
195673,-0.239,-0.581,0.911,-114.573,15.336,28.168,58.0,106.0
195753,-0.080,-0.717,0.766,-0.794,-11.160,28.412,56.0,107.0
195833,-0.410,-0.646,0.521,250.130,-31.779,4.634,52.0,107.0
195913,-0.581,-0.082,0.615,210.290,-18.382,58.405,53.0,105.0
195999,-0.375,0.131,0.971,50.740,6.145,49.336,56.0,0.0
196082,-0.455,0.187,1.060,-14.092,39.969,20.511,0.0,26.0
196166,-0.464,-0.029,1.103,-30.023,17.206,21.244,0.0,30.0
196250,-0.475,0.037,0.970,-21.481,11.122,25.206,0.0,29.0
196347,-0.251,0.031,0.910,-7.466,17.954,21.252,0.0,200.0
196435,-0.310,0.192,0.891,-34.244,18.634,16.412,0.0,102.0
196525,-0.283,0.228,0.793,-47.412,18.382,43.466,0.0,105.0
196616,-0.085,0.182,0.750,-62.893,19.183,67.214,0.0,167.0
196702,-0.152,0.253,0.560,-36.412,55.962,77.832,0.0,54.0
196783,-0.380,0.201,0.460,-28.847,79.145,75.214,52.0,121.0
196864,-0.818,0.300,0.432,6.053,137.450,36.061,54.0,120.0
196952,-1.545,0.278,0.385,-71.824,111.221,41.885,191.0,123.0
197033,-1.799,0.156,0.275,-122.221,60.992,74.702,52.0,127.0
197117,-1.471,-0.127,0.527,2.656,-4.916,54.832,46.0,129.0
197207,-1.290,0.266,0.438,112.557,33.885,34.038,184.0,129.0
197296,-1.192,0.359,0.248,-32.840,65.183,7.626,186.0,129.0
197378,-1.044,0.319,0.231,-33.122,29.252,-27.954,60.0,127.0
197459,-0.978,0.386,0.157,63.405,-9.382,-15.183,59.0,128.0
197551,-0.786,0.432,0.141,98.412,-35.908,-9.443,0.0,148.0
197642,-0.639,0.311,0.126,103.260,-24.855,-0.336,0.0,155.0
197734,-0.519,0.358,0.106,71.618,-7.992,29.153,0.0,161.0
197829,-0.630,0.231,0.284,-9.031,-3.809,13.069,0.0,167.0
197921,-0.816,0.238,0.297,10.664,-1.908,15.176,0.0,170.0
198013,-0.773,0.302,0.314,13.252,3.687,0.420,0.0,171.0
198106,-0.771,0.365,0.241,-5.618,27.382,-22.695,0.0,171.0
198198,-0.991,0.381,0.211,-64.031,14.015,-33.962,0.0,171.0
198290,-0.770,0.291,0.427,-24.695,-6.153,-2.763,0.0,170.0
198382,-0.639,0.595,0.272,-28.550,12.115,19.389,0.0,170.0
198474,-0.960,0.717,0.111,-102.389,31.435,5.557,0.0,172.0
198567,-1.137,0.359,0.066,-104.069,-9.069,38.679,0.0,177.0
198664,-0.917,0.431,0.017,-6.267,-28.527,73.176,0.0,185.0
198758,-0.913,0.415,-0.015,-59.206,-25.580,56.641,0.0,0.0
198852,-0.787,0.655,-0.063,-69.550,34.519,50.519,0.0,0.0
198946,-0.831,0.806,0.230,-250.137,43.244,32.198,0.0,0.0
199041,-1.002,0.009,1.110,-144.809,-62.153,36.931,0.0,0.0
199134,-0.628,0.461,0.736,-67.137,-120.542,69.191,185.0,0.0
199226,-0.453,0.262,0.688,-55.168,-96.855,52.229,183.0,0.0
199319,-0.290,0.271,0.710,-50.260,-48.397,29.359,182.0,0.0
199404,-0.244,0.146,0.852,-45.863,-22.275,30.611,37.0,0.0
199500,-0.292,0.129,0.914,-31.534,-8.282,26.252,180.0,0.0
199585,-0.227,0.088,0.915,-28.427,-2.466,32.557,44.0,0.0
199670,-0.206,0.016,0.917,-15.221,7.985,30.740,40.0,0.0
199755,-0.176,0.009,0.938,-9.863,9.962,27.656,42.0,0.0
199840,-0.249,-0.046,0.878,16.359,11.534,17.893,45.0,0.0
199926,-0.244,-0.053,0.773,65.221,28.725,-1.519,47.0,0.0
200018,-0.273,0.162,0.673,122.176,70.183,-31.458,183.0,0.0
200113,-0.634,0.503,0.617,160.420,110.534,-81.756,187.0,0.0
200209,-0.899,0.568,0.240,176.908,137.344,-100.130,191.0,0.0
200304,-1.188,0.368,-0.032,189.153,109.053,-106.824,0.0,0.0
200398,-1.315,0.217,-0.161,230.420,34.603,-112.794,0.0,0.0
200493,-1.062,0.648,-0.242,54.305,-2.351,-28.794,0.0,0.0
200587,-0.853,0.062,-0.052,37.435,-15.809,24.053,0.0,0.0
200681,-0.891,0.106,-0.315,166.435,-44.397,43.977,0.0,0.0
200775,0.031,0.879,-1.653,232.420,-210.275,49.603,0.0,0.0
200869,-0.468,-0.148,0.414,-68.672,-110.710,149.504,196.0,0.0
200964,-0.385,-0.132,0.518,202.687,35.046,-122.794,0.0,0.0
201057,-0.935,1.044,-0.343,159.931,-84.252,-3.542,0.0,127.0
201145,-1.077,0.372,-0.350,131.176,-64.344,27.183,0.0,83.0
201232,-0.727,0.375,-0.111,149.046,-49.137,42.924,0.0,78.0
201319,-0.631,0.702,-0.163,77.061,-2.840,17.344,0.0,75.0
201406,-0.620,0.596,-0.154,-104.198,25.863,-7.542,0.0,72.0
201493,-0.741,0.278,-0.070,-152.000,-23.038,11.221,0.0,71.0
201580,-0.944,0.238,0.062,-31.939,-145.588,16.206,0.0,71.0
201671,-0.717,0.372,0.366,54.366,-208.489,93.496,0.0,148.0
201768,-0.712,1.240,0.893,-23.115,-159.351,99.076,0.0,0.0
201864,-0.400,1.421,1.408,-100.748,-93.870,8.221,0.0,0.0
201955,-0.046,0.611,1.238,-186.649,-90.542,24.634,0.0,147.0
202044,0.092,0.250,1.091,-136.786,-33.710,43.695,118.0,0.0
202133,-0.400,0.183,0.408,-250.137,-79.718,-31.336,102.0,0.0
202227,-0.121,-0.494,0.073,-246.611,-120.359,-74.107,0.0,198.0
202316,0.302,-0.537,-0.086,-92.252,-133.015,-37.550,46.0,153.0
202407,0.505,-0.753,-0.118,-37.740,-122.450,28.344,0.0,162.0
202490,0.877,-0.501,-0.196,-30.038,-105.206,-49.893,29.0,189.0
202575,1.399,-0.461,-0.495,-50.389,-64.763,-104.725,27.0,178.0
202654,1.395,-0.803,-0.153,21.519,-54.137,-82.344,25.0,110.0
202732,1.295,-0.448,0.078,26.878,-8.855,-117.573,28.0,105.0
202812,1.194,-0.367,0.232,11.038,27.496,-144.557,65.0,99.0
202899,0.710,-0.117,0.098,27.725,33.786,-151.977,0.0,87.0
202986,0.784,0.081,0.125,24.405,-10.122,-150.046,0.0,81.0
203072,0.928,0.495,0.086,-29.511,-8.015,-186.939,0.0,83.0
203159,0.649,1.121,-0.123,-68.687,20.496,-147.672,0.0,80.0
203255,0.718,0.987,0.190,-89.305,54.947,-168.130,197.0,0.0
203348,0.243,0.904,0.419,-144.618,63.267,-120.389,199.0,0.0
203442,-0.028,0.795,0.830,-61.221,41.183,-43.458,0.0,0.0
203535,0.114,0.608,0.782,36.237,-7.008,7.260,0.0,0.0
203628,0.225,0.850,0.479,20.061,-4.198,-2.412,0.0,0.0
203721,0.157,0.808,0.602,-20.366,5.000,-11.427,0.0,0.0
203814,0.128,0.776,0.660,4.832,0.626,-4.313,0.0,0.0
203908,0.129,0.814,0.577,3.076,-2.481,2.389,0.0,0.0
204001,0.162,0.805,0.609,7.740,-1.176,2.779,0.0,0.0
204097,0.128,0.755,0.680,31.878,-1.985,3.527,0.0,0.0
204190,0.133,0.828,0.508,22.740,-0.382,-0.359,0.0,0.0
204283,-0.003,0.969,0.438,12.977,-1.412,-14.840,195.0,0.0
204376,0.108,0.906,0.483,3.046,2.458,-7.473,178.0,0.0
204469,0.139,0.900,0.469,-12.534,2.420,-2.802,0.0,0.0
204562,0.095,0.869,0.526,-9.130,1.748,-6.710,0.0,0.0
204656,0.112,0.832,0.546,-19.664,4.359,-5.260,0.0,0.0
204749,0.081,0.808,0.615,-16.580,2.458,1.069,0.0,0.0
204843,0.087,0.810,0.597,-0.977,2.359,1.145,0.0,0.0
204936,0.065,0.830,0.578,-2.695,2.115,1.130,0.0,0.0
205032,0.112,0.875,0.551,-16.611,-2.115,7.504,0.0,0.0
205125,0.146,0.800,0.611,-15.412,-1.710,5.588,0.0,0.0
205219,0.076,0.772,0.676,2.015,-0.740,2.046,0.0,0.0
205313,0.121,0.798,0.610,6.687,-0.366,3.969,0.0,0.0
205406,0.100,0.798,0.611,2.588,0.481,-1.137,0.0,0.0
205499,0.105,0.799,0.610,-0.061,0.008,-1.092,0.0,0.0
205592,0.099,0.795,0.601,-0.214,-0.206,-0.290,0.0,0.0
205685,0.105,0.795,0.602,0.000,-0.221,-0.733,0.0,0.0
205779,0.108,0.795,0.614,0.359,-0.481,-0.420,0.0,0.0
205876,0.100,0.790,0.618,0.954,-0.542,-0.351,0.0,0.0
205969,0.115,0.794,0.603,-0.412,-0.275,-1.023,0.0,0.0
206062,0.093,0.795,0.617,-1.061,0.046,-0.260,0.0,0.0
206155,0.098,0.796,0.619,-1.328,-0.313,-1.076,0.0,0.0
206249,0.105,0.792,0.620,0.122,-0.481,-0.321,0.0,0.0
206343,0.105,0.788,0.624,-0.595,-0.260,-0.427,0.0,0.0
206436,0.110,0.784,0.627,2.069,-0.557,0.885,0.0,0.0
206530,0.013,0.811,0.657,23.771,-22.145,26.779,0.0,0.0
206623,0.308,0.968,0.690,1.206,-65.626,59.954,192.0,0.0
206716,0.316,0.809,0.561,-62.962,-87.435,48.382,0.0,0.0
206814,0.418,0.586,0.608,-28.763,-107.573,45.641,0.0,0.0
206900,0.584,0.586,0.430,-21.847,-118.328,46.565,0.0,73.0
206987,0.744,0.458,0.287,-20.786,-114.565,45.137,0.0,76.0
207071,0.869,0.417,0.157,-30.489,-96.298,30.947,0.0,42.0
207156,0.897,0.365,0.096,-19.252,-78.695,8.481,0.0,42.0
207241,0.925,0.443,0.010,-5.145,-63.809,2.405,0.0,51.0
207326,0.921,0.406,-0.070,-7.328,-51.420,0.947,0.0,50.0
207411,0.956,0.497,-0.231,4.183,-32.244,-1.061,0.0,43.0
207508,0.930,0.449,-0.158,9.153,-16.122,-1.885,0.0,51.0
207595,0.907,0.421,-0.157,0.221,-1.908,2.466,0.0,51.0
207684,0.940,0.400,-0.136,6.779,5.321,0.282,0.0,76.0
207772,0.951,0.371,-0.162,10.046,21.802,-0.336,0.0,51.0
207859,0.923,0.404,-0.165,6.473,49.420,-3.809,0.0,45.0
207948,0.881,0.479,0.035,-3.855,55.267,-1.336,0.0,71.0
208035,0.913,0.443,0.134,6.420,37.748,1.710,0.0,44.0
208132,0.873,0.421,0.156,2.885,30.282,0.221,0.0,0.0
208219,0.898,0.403,0.157,11.847,21.954,-5.473,0.0,57.0
208306,0.881,0.438,0.209,-1.145,18.954,-14.420,0.0,41.0
208397,0.816,0.530,0.282,4.038,-0.740,-11.053,0.0,44.0
208492,0.865,0.492,0.239,3.489,-21.817,-4.458,0.0,0.0
208588,0.867,0.488,0.147,-11.458,-30.412,-5.672,0.0,0.0
208677,0.830,0.518,0.140,0.069,-37.435,3.031,0.0,65.0
208765,0.887,0.468,0.063,-5.885,-47.374,10.939,0.0,72.0
208855,0.923,0.461,-0.099,-4.405,-39.191,6.588,0.0,70.0
208942,0.930,0.447,-0.127,4.153,-21.153,-0.863,0.0,50.0
209030,0.909,0.453,-0.127,5.618,-5.962,-5.198,0.0,50.0
209118,0.894,0.488,-0.109,0.710,2.473,-3.427,0.0,51.0
209210,0.895,0.486,-0.081,3.031,5.053,2.542,0.0,71.0
209298,0.902,0.448,-0.051,0.550,0.099,5.031,0.0,71.0
209386,0.908,0.397,-0.064,9.504,0.634,0.458,0.0,52.0
209475,0.897,0.500,-0.091,4.176,0.855,-4.794,0.0,71.0
209563,0.884,0.500,-0.083,5.847,-4.206,-0.786,0.0,70.0
209652,0.898,0.458,-0.107,3.580,-2.389,3.282,0.0,71.0
209741,0.908,0.438,-0.108,-1.046,3.115,3.504,0.0,71.0
209830,0.895,0.468,-0.100,0.084,3.695,1.153,0.0,72.0
209920,0.898,0.448,-0.063,4.290,-0.466,-0.382,0.0,72.0
210012,0.898,0.425,-0.069,2.481,-4.641,-1.450,0.0,71.0
210100,0.908,0.444,-0.111,5.656,-3.466,-2.740,0.0,71.0
210189,0.901,0.545,-0.168,19.023,-0.733,1.481,0.0,71.0
210278,0.890,0.409,-0.085,4.679,-1.206,2.099,0.0,71.0
210367,0.894,0.442,-0.119,-6.679,-1.664,2.763,0.0,71.0
210456,0.906,0.459,-0.139,-2.641,-0.534,3.710,0.0,71.0
210545,0.904,0.452,-0.129,15.565,0.466,4.618,0.0,72.0
210634,0.894,0.371,-0.093,-3.260,-1.344,1.336,0.0,72.0
210723,0.920,0.451,-0.141,-4.702,-2.695,-0.626,0.0,72.0
210816,0.910,0.433,-0.137,4.763,-1.328,-0.733,0.0,71.0
210905,0.910,0.448,-0.137,0.206,-1.710,-1.794,0.0,71.0
