Timestamp(ms),AccelX(g),AccelY(g),AccelZ(g),GyroX(deg/s),GyroY(deg/s),GyroZ(deg/s),DistanceLeft(cm),DistanceRight(cm)
38046,-0.232,0.147,0.961,4.221,1.588,-1.427,196.0,0.0
38138,-0.231,0.107,0.978,5.519,2.221,-1.695,197.0,0.0
38231,-0.238,0.184,0.952,-5.092,1.069,-2.855,197.0,0.0
38323,-0.241,0.201,0.949,7.733,2.504,0.252,197.0,0.0
38414,-0.242,0.075,0.960,22.374,5.328,-2.221,197.0,183.0
38507,-0.104,-0.064,0.827,92.542,33.779,-21.130,197.0,0.0
38599,-0.315,0.175,0.534,193.145,93.458,-80.863,200.0,0.0
38694,-0.862,0.635,0.271,192.252,80.313,-121.542,0.0,0.0
38785,-0.950,0.663,0.205,71.008,63.305,-123.786,0.0,144.0
38873,-0.971,0.497,0.216,35.229,56.847,-96.511,0.0,138.0
38966,-1.017,0.343,0.210,25.382,43.351,-77.282,0.0,0.0
39059,-1.088,0.297,0.140,31.779,31.702,-56.817,0.0,0.0
39151,-1.065,0.261,0.098,28.603,10.267,-15.916,0.0,0.0
39240,-0.997,0.232,0.088,21.046,-4.763,18.565,0.0,133.0
39329,-0.939,0.271,0.061,7.084,-6.840,19.786,0.0,132.0
39418,-0.949,0.232,0.053,-13.740,-3.840,12.389,0.0,133.0
39511,-0.947,0.215,0.046,-19.916,-0.031,9.198,0.0,133.0
39600,-0.947,0.202,0.051,-13.511,1.221,3.153,0.0,135.0
39689,-0.967,0.220,0.060,-7.183,4.679,-4.977,0.0,135.0
39778,-0.971,0.208,0.062,-13.718,3.328,-8.992,0.0,134.0
39867,-0.958,0.210,0.063,1.626,-1.198,-5.916,0.0,134.0
39960,-0.965,0.231,0.040,0.221,-1.901,-4.809,0.0,0.0
40052,-0.960,0.207,0.052,-1.496,-1.420,1.580,0.0,0.0
40145,-0.965,0.217,0.060,-2.305,-0.008,7.527,0.0,0.0
40239,-0.968,0.213,0.041,-5.786,-1.908,5.092,0.0,0.0
40331,-0.940,0.221,0.061,3.099,-0.763,2.366,0.0,0.0
40427,-0.956,0.211,0.062,-6.519,0.115,-3.618,0.0,0.0
40520,-0.974,0.211,0.061,0.122,-1.137,-1.366,0.0,0.0
40612,-0.958,0.226,0.065,-4.672,-0.260,-1.046,0.0,0.0
40706,-0.958,0.192,0.071,-5.496,-1.260,-1.519,0.0,0.0
40799,-0.969,0.217,0.051,3.649,-2.427,2.748,0.0,0.0
40892,-0.958,0.211,0.076,-7.183,0.656,1.115,0.0,0.0
40984,-0.969,0.200,0.065,-0.221,-0.206,0.382,0.0,0.0
41077,-0.949,0.237,0.080,-0.695,0.450,-0.916,0.0,0.0
41170,-0.963,0.215,0.071,-6.618,-0.305,-2.679,0.0,0.0
41267,-0.969,0.263,0.043,0.092,-0.519,-0.847,0.0,0.0
41359,-0.963,0.230,0.083,-1.595,0.252,0.618,0.0,0.0
41452,-0.952,0.209,0.089,-0.489,0.702,2.038,0.0,0.0
41545,-0.947,0.227,0.073,-6.733,0.099,1.366,0.0,0.0
41637,-0.952,0.231,0.067,-2.115,-0.176,-0.931,0.0,0.0
41731,-0.971,0.222,0.070,2.328,1.115,-0.351,0.0,0.0
41824,-0.944,0.210,0.082,0.580,0.267,-1.122,0.0,0.0
41917,-0.962,0.229,0.075,3.076,-0.618,-1.954,0.0,0.0
42010,-0.959,0.216,0.075,1.649,-0.672,-0.092,0.0,0.0
42102,-0.951,0.226,0.076,0.153,-0.664,-1.687,0.0,0.0
42199,-0.973,0.225,0.058,1.863,-1.015,-0.267,0.0,0.0
42292,-0.957,0.220,0.070,-0.641,-0.382,-0.092,0.0,0.0
42385,-0.959,0.219,0.062,1.038,0.237,-0.473,0.0,0.0
42478,-0.961,0.215,0.054,-1.420,0.214,-0.511,0.0,0.0
42571,-0.952,0.231,0.070,2.672,-0.145,-0.031,0.0,0.0
42663,-0.958,0.208,0.070,-0.061,-0.412,0.168,0.0,0.0
42757,-0.953,0.217,0.060,1.206,-0.160,-0.786,0.0,0.0
42850,-0.958,0.217,0.067,-1.435,0.405,-0.939,0.0,0.0
42943,-0.967,0.222,0.062,2.389,0.565,0.427,0.0,0.0
43039,-0.958,0.221,0.072,-1.031,1.092,2.214,0.0,0.0
43132,-0.961,0.225,0.069,-6.924,3.267,-3.496,0.0,0.0
43226,-0.966,0.214,0.076,1.962,-1.588,1.420,0.0,0.0
43319,-0.952,0.243,0.052,-2.565,-0.786,0.824,0.0,0.0
43412,-0.956,0.227,0.054,-0.573,-0.198,2.061,0.0,0.0
43504,-0.957,0.226,0.049,-6.489,2.756,-1.870,0.0,0.0
43597,-0.958,0.243,0.051,-5.084,4.748,-2.824,0.0,0.0
43692,-0.957,0.230,0.065,-2.412,2.962,-1.168,0.0,0.0
43784,-0.976,0.221,0.046,-2.687,0.115,-1.267,0.0,0.0
43878,-1.043,0.167,0.053,12.718,-3.679,-0.229,0.0,0.0
43974,0.261,0.769,0.201,73.382,82.382,-24.863,0.0,0.0
44067,-1.818,0.023,-0.339,-217.496,-33.954,-111.145,0.0,0.0
44161,-0.889,0.092,0.130,72.092,-28.885,131.771,0.0,0.0
44254,-0.759,0.574,-0.164,-96.695,-35.076,41.244,0.0,0.0
44347,-0.846,0.115,0.121,-58.626,-40.061,25.473,0.0,0.0
44440,-0.594,0.650,-0.043,-23.519,10.336,37.969,198.0,0.0
44533,-0.751,0.595,-0.079,-166.458,64.328,-22.992,191.0,0.0
44621,-1.781,0.264,-0.135,-250.137,25.595,9.130,182.0,121.0
44710,-1.281,-0.017,0.731,-138.656,74.634,43.481,0.0,129.0
44808,-0.008,0.526,0.950,-180.557,84.756,-46.924,0.0,0.0
44892,0.991,0.125,0.186,-217.008,-16.008,4.115,74.0,167.0
44976,-1.921,1.134,-0.548,-15.656,-114.565,181.733,78.0,160.0
45062,-1.873,0.510,-0.157,-116.053,-55.809,250.130,57.0,0.0
45147,-1.215,0.795,0.667,-7.336,-54.550,250.130,58.0,0.0
45232,-0.547,1.057,0.243,68.221,22.817,34.779,61.0,0.0
45318,-0.299,0.711,0.389,-3.145,35.076,95.382,68.0,0.0
45404,0.313,2.000,1.339,-120.985,0.534,149.160,62.0,0.0
45492,0.069,0.668,0.816,47.435,-27.481,166.382,59.0,0.0
45578,0.272,0.884,0.633,-8.031,12.046,17.099,61.0,0.0
45671,-0.575,0.577,0.491,161.031,-10.580,68.092,0.0,0.0
45764,0.357,1.072,-0.015,-7.336,-3.267,72.695,0.0,0.0
45857,0.503,0.501,0.278,26.962,4.626,44.260,0.0,0.0
45949,0.740,0.809,0.175,3.840,-19.466,27.939,179.0,0.0
46032,0.416,0.857,0.073,-6.847,-5.550,20.771,0.0,16.0
46126,0.541,0.928,0.083,-4.382,8.496,6.244,0.0,0.0
46219,0.616,0.800,0.206,-11.840,7.878,12.580,0.0,0.0
46312,0.497,0.924,0.185,-47.809,-7.656,6.221,0.0,0.0
46409,0.563,0.886,0.232,-30.168,20.855,6.053,0.0,0.0
46502,0.461,0.749,0.354,-75.351,31.015,-12.786,0.0,0.0
46596,0.496,0.829,0.392,40.924,31.191,0.985,0.0,0.0
46689,0.378,0.738,0.432,-28.000,39.374,-19.191,0.0,0.0
46783,0.302,0.655,0.545,-13.282,39.137,-31.893,0.0,0.0
46876,0.246,0.683,0.600,-7.275,33.817,-44.176,0.0,0.0
46969,0.196,0.803,0.557,25.679,25.290,-38.344,0.0,0.0
47064,0.097,0.914,0.497,33.038,19.130,-36.802,0.0,0.0
47157,0.031,1.016,0.418,31.809,19.061,-25.626,0.0,0.0
47253,0.033,0.888,0.456,-8.985,5.893,-0.305,0.0,0.0
47347,0.046,0.900,0.440,-18.221,8.382,-4.198,0.0,0.0
47440,0.034,0.871,0.507,-15.382,5.420,-1.031,0.0,0.0
47535,0.020,0.869,0.504,12.260,-2.725,-5.359,0.0,0.0
47629,0.028,0.917,0.435,14.893,-3.176,-2.595,0.0,0.0
47722,0.010,0.927,0.419,0.489,-2.061,-3.489,0.0,0.0
47816,0.020,0.911,0.446,-15.664,0.748,-1.405,0.0,0.0
47910,0.014,0.877,0.487,-12.015,2.542,-0.382,0.0,0.0
48004,0.011,0.885,0.485,0.496,1.618,3.275,0.0,0.0
48101,-0.010,0.885,0.484,-0.649,4.924,5.305,0.0,0.0
48195,0.020,0.889,0.479,0.069,4.901,4.267,0.0,0.0
48288,0.023,0.879,0.502,-6.427,2.145,0.290,0.0,0.0
48382,0.028,0.865,0.502,0.832,0.740,0.359,0.0,0.0
48476,0.017,0.890,0.481,0.282,-0.550,-1.809,0.0,0.0
48570,0.015,0.868,0.508,4.206,-0.725,0.580,0.0,0.0
48663,0.020,0.895,0.467,5.550,-0.847,-1.634,0.0,0.0
48757,0.011,0.888,0.470,0.977,-1.206,-1.611,0.0,0.0
48851,0.014,0.897,0.473,4.191,-1.580,-0.947,0.0,0.0
48945,0.027,0.901,0.463,-2.672,0.168,-1.260,0.0,0.0
49042,0.011,0.886,0.479,-0.740,0.176,-1.229,0.0,0.0
49136,0.009,0.889,0.467,-0.748,-0.252,-1.595,0.0,0.0
49229,0.015,0.894,0.470,-1.443,-0.550,-1.931,0.0,0.0
49329,0.012,0.886,0.476,0.267,-0.931,-1.191,0.0,0.0
49421,0.010,0.892,0.474,0.511,-0.672,-0.550,0.0,0.0
49514,0.010,0.893,0.474,1.756,-0.824,-0.977,0.0,0.0
49606,0.011,0.900,0.473,0.832,-0.672,-1.084,0.0,0.0
49699,0.005,0.895,0.475,-1.023,-0.397,-0.550,0.0,0.0
49792,0.005,0.892,0.473,0.321,-0.573,-0.618,0.0,0.0
49885,0.008,0.890,0.479,-0.198,-0.321,-0.580,0.0,0.0
49980,0.002,0.889,0.478,0.206,-0.374,-0.504,0.0,0.0
50073,0.005,0.894,0.478,-0.366,-0.305,-0.344,0.0,0.0
50166,0.007,0.890,0.484,-0.130,-0.267,-0.458,0.0,0.0
50258,0.005,0.894,0.465,-0.359,-0.344,-0.344,0.0,0.0
50352,0.007,0.899,0.467,-0.115,-0.435,-0.153,0.0,0.0
50445,0.006,0.888,0.469,-0.153,-0.382,-0.672,0.0,0.0
50537,0.010,0.894,0.470,-0.252,-0.214,-0.412,0.0,0.0
50630,0.013,0.896,0.469,0.458,-0.550,-0.229,0.0,0.0
50723,0.005,0.890,0.476,-0.435,-0.382,-0.756,0.0,0.0
50819,0.017,0.896,0.471,0.557,-0.458,-0.267,0.0,0.0
50912,0.007,0.897,0.468,-0.153,-0.336,-0.481,0.0,0.0
51005,0.010,0.892,0.470,0.107,-0.443,-0.313,0.0,0.0
51097,0.009,0.891,0.473,-0.122,-0.237,-0.534,0.0,0.0
51190,0.010,0.892,0.470,-0.008,-0.420,-0.382,0.0,0.0
51283,0.004,0.898,0.475,0.176,-0.534,-0.160,0.0,0.0
51377,0.001,0.892,0.481,-0.069,-0.389,-0.527,0.0,0.0
51469,-0.001,0.891,0.474,0.351,-0.527,-0.313,0.0,0.0
51562,0.004,0.894,0.469,-0.321,-0.137,-0.679,0.0,0.0
51655,0.005,0.893,0.482,0.061,-0.450,-0.069,0.0,0.0
51750,0.008,0.891,0.468,-0.359,-0.344,-0.183,0.0,0.0
51844,0.008,0.889,0.469,-0.275,-0.313,-0.160,0.0,0.0
51937,0.006,0.892,0.471,-0.450,-0.351,-0.550,0.0,0.0
52030,0.004,0.889,0.468,-0.038,-0.565,-0.053,0.0,0.0
52123,0.002,0.893,0.484,-0.145,-0.328,-0.565,0.0,0.0
52216,0.009,0.891,0.475,0.015,-0.321,-0.160,0.0,0.0
52308,0.006,0.892,0.480,0.244,-0.405,-0.366,0.0,0.0
52402,0.003,0.893,0.466,-0.466,-0.366,-0.122,0.0,0.0
52495,0.014,0.891,0.479,-1.130,-0.237,-0.397,0.0,0.0
52591,0.008,0.892,0.472,-0.221,-0.145,-0.168,0.0,0.0
52684,0.006,0.890,0.473,-0.847,-0.298,-0.458,0.0,0.0
52777,0.003,0.890,0.470,0.031,-0.374,-0.275,0.0,0.0
52871,0.011,0.896,0.479,-0.405,-0.290,-0.427,0.0,0.0
52963,0.005,0.885,0.480,0.412,-0.382,-0.260,0.0,0.0
53056,0.008,0.892,0.481,-0.107,-0.351,-0.458,0.0,0.0
53149,0.002,0.894,0.469,-0.237,-0.473,-0.252,0.0,0.0
53242,0.007,0.893,0.470,0.328,-0.496,-0.191,0.0,0.0
53336,0.003,0.888,0.468,0.221,-0.534,-0.420,0.0,0.0
53429,0.010,0.898,0.472,0.008,-0.366,-0.267,0.0,0.0
53525,0.006,0.891,0.481,0.580,-0.580,-0.527,0.0,0.0
53618,0.006,0.895,0.475,-0.244,-0.458,-0.557,0.0,0.0
53711,0.008,0.891,0.471,0.580,-0.435,-0.107,0.0,0.0
53805,0.001,0.894,0.472,-0.099,-0.443,-0.397,0.0,0.0
53898,0.006,0.892,0.476,0.336,-0.412,-0.336,0.0,0.0
53990,0.007,0.886,0.467,-0.046,-0.412,-0.145,0.0,0.0
54083,0.010,0.888,0.475,-0.023,-0.458,-0.496,0.0,0.0
54176,0.003,0.891,0.476,0.198,-0.427,-0.282,0.0,0.0
54269,0.004,0.892,0.480,0.466,-0.527,-0.206,0.0,0.0
54363,0.009,0.890,0.479,-0.260,-0.336,-0.595,0.0,0.0
54459,0.009,0.892,0.476,0.443,-0.282,-0.267,0.0,0.0
54552,0.003,0.889,0.472,-0.076,-0.481,-0.351,0.0,0.0
54645,0.010,0.893,0.469,0.267,-0.313,-0.206,0.0,0.0
54738,0.010,0.897,0.477,-0.198,-0.328,-0.351,0.0,0.0
54832,0.006,0.892,0.482,-0.489,-0.366,-0.427,0.0,0.0
54925,0.001,0.896,0.472,-0.153,-0.221,-0.282,0.0,0.0
55018,0.004,0.894,0.470,-0.626,-0.305,-0.275,0.0,0.0
55111,0.000,0.889,0.476,0.008,-0.412,-0.191,0.0,0.0
55204,0.007,0.889,0.484,-0.267,-0.366,-0.542,0.0,0.0
55301,0.007,0.892,0.477,-0.023,-0.214,-0.115,0.0,0.0
55395,0.007,0.893,0.477,0.061,-0.427,-0.275,0.0,0.0
55488,0.005,0.889,0.480,-0.015,-0.214,-0.389,0.0,0.0
55581,0.004,0.888,0.475,-0.336,-0.313,-0.244,0.0,0.0
55674,0.009,0.889,0.474,-0.443,-0.450,-0.557,0.0,0.0
55768,0.009,0.891,0.482,0.252,-0.427,0.038,0.0,0.0
55861,0.014,0.887,0.480,-0.366,-0.397,-0.328,0.0,0.0
55954,0.009,0.892,0.473,0.237,-0.359,0.038,0.0,0.0
56047,0.008,0.892,0.487,-0.099,-0.435,-0.382,0.0,0.0
56141,0.008,0.891,0.474,0.534,-0.481,-0.099,0.0,0.0
56238,0.006,0.885,0.475,0.405,-0.496,-0.061,0.0,0.0
56331,0.001,0.887,0.486,-0.008,-0.366,-0.344,0.0,0.0
56424,0.002,0.900,0.467,0.137,-0.298,-0.031,0.0,0.0
56517,0.009,0.894,0.468,1.069,-0.305,0.580,0.0,0.0
56611,0.012,0.893,0.470,5.443,-0.817,2.015,0.0,0.0
56705,0.012,0.897,0.459,-1.275,-0.588,-1.458,0.0,0.0
56798,0.022,0.886,0.479,0.267,-0.756,-1.015,0.0,0.0
56892,0.001,0.901,0.458,-1.450,0.099,-0.267,0.0,0.0
56985,0.006,0.886,0.480,0.985,-0.176,0.122,0.0,0.0
57081,0.013,0.883,0.483,0.916,-0.405,0.130,0.0,0.0
57176,0.010,0.886,0.476,-5.794,2.687,1.878,0.0,0.0
57269,0.018,0.898,0.469,-0.359,0.695,1.809,0.0,0.0
57362,0.026,0.884,0.478,-3.588,0.618,0.527,0.0,0.0
57455,0.019,0.875,0.496,5.160,-2.046,-3.977,0.0,0.0
57549,0.035,0.908,0.469,0.679,-2.038,-5.718,0.0,0.0
57643,-0.037,0.856,0.468,-6.977,-0.359,8.397,0.0,0.0
57737,0.025,0.896,0.512,-5.649,7.053,2.641,0.0,0.0
57830,0.051,0.890,0.534,20.611,-7.817,-9.840,0.0,0.0
57915,-0.221,0.821,0.403,-11.084,5.832,0.031,57.0,0.0
58012,-0.055,0.825,0.489,2.626,-2.947,10.191,0.0,0.0
58097,0.065,0.886,0.485,18.527,-11.847,5.924,48.0,0.0
58182,0.068,0.932,0.462,17.107,-8.573,5.435,48.0,0.0
58267,0.022,0.965,0.397,-3.046,-0.092,-7.038,46.0,0.0
58351,0.054,0.946,0.433,-11.046,3.336,-4.901,41.0,0.0
58437,0.053,0.940,0.449,-0.031,0.565,-3.130,60.0,0.0
58522,0.012,0.915,0.450,-16.137,5.130,-7.580,58.0,0.0
58608,0.023,0.839,0.533,-2.939,2.145,-1.840,59.0,0.0
58693,0.025,0.914,0.443,9.763,-0.122,2.580,45.0,0.0
58780,0.009,0.875,0.485,5.084,-0.908,0.229,38.0,0.0
58864,0.032,0.926,0.434,3.168,0.405,-2.473,33.0,0.0
58949,0.015,0.904,0.457,-4.901,-0.061,0.023,30.0,0.0
59032,-0.010,0.810,0.534,-1.450,-0.359,-0.908,26.0,0.0
59116,-0.005,0.833,0.502,-2.855,1.214,0.382,27.0,0.0
59200,-0.053,0.774,0.578,29.252,-3.626,7.290,17.0,0.0
59283,0.050,0.938,0.309,51.496,-6.115,7.458,17.0,0.0
59367,0.057,1.009,0.282,-41.580,4.366,-3.710,20.0,0.0
59450,0.019,0.921,0.394,0.282,-0.489,-1.221,21.0,0.0
59534,-0.034,0.868,0.473,-21.878,1.527,-0.405,22.0,0.0
59621,-0.132,0.826,0.530,-4.954,-4.053,0.450,22.0,0.0
59705,0.113,0.815,0.527,-1.924,-3.328,-1.962,31.0,0.0
59789,0.061,0.944,0.379,3.206,-0.901,-0.870,30.0,0.0
59873,0.056,0.903,0.460,0.733,0.092,-1.099,38.0,0.0
59959,0.091,0.958,0.373,-32.061,2.740,-2.664,50.0,0.0
60042,-0.032,0.857,0.527,-23.832,-2.015,-8.015,17.0,0.0
60126,0.005,0.864,0.511,-10.351,-1.168,-7.511,17.0,0.0
60219,0.127,0.980,0.517,-38.450,-5.939,-40.916,0.0,0.0
60303,-0.099,0.884,0.845,72.015,-28.267,-82.794,16.0,0.0
60389,-0.367,1.309,0.238,116.458,-12.229,-88.336,17.0,0.0
60473,-0.336,1.045,0.204,-3.870,-23.969,-130.618,17.0,0.0
60558,-0.627,0.803,0.090,145.076,-43.542,-141.061,37.0,0.0
60643,-0.907,1.268,0.027,131.313,-98.496,-195.321,39.0,0.0
60727,-1.275,0.688,0.053,153.000,-150.038,-187.878,36.0,0.0
60812,-1.102,0.842,-0.295,212.076,-168.786,-116.870,31.0,0.0
60898,0.071,0.337,0.290,28.145,-80.779,-29.359,38.0,130.0
60977,-0.285,0.030,0.798,115.420,8.847,-106.076,40.0,128.0
61057,-1.220,0.215,0.124,211.115,94.183,-101.634,44.0,124.0
61145,-1.375,0.390,-0.022,95.939,38.336,-135.603,49.0,0.0
61237,-1.101,0.137,-0.078,65.168,31.168,-75.901,191.0,0.0
61327,-0.625,0.218,-0.032,43.855,10.641,-13.313,196.0,156.0
61420,-0.478,0.142,0.031,32.160,-7.969,19.466,198.0,0.0
61513,-0.475,0.074,0.099,42.641,-17.687,53.191,200.0,0.0
61606,-0.540,0.159,0.123,56.847,22.718,54.641,0.0,0.0
61699,-1.255,0.282,-0.071,6.710,22.023,16.244,0.0,0.0
61792,-1.344,0.155,-0.006,67.473,0.244,12.969,0.0,0.0
61885,-0.855,0.368,-0.106,74.321,10.237,34.748,0.0,0.0
61981,-0.766,0.298,-0.064,-25.626,6.573,-4.611,0.0,0.0
62073,-0.919,0.162,-0.054,65.275,-16.771,-22.374,0.0,0.0
62167,-0.975,0.260,-0.184,149.863,-28.756,-14.107,0.0,0.0
62260,-0.974,0.494,-0.247,81.366,-5.473,-24.985,0.0,0.0
62353,-0.967,0.371,-0.146,-46.290,9.870,-32.145,0.0,0.0
62446,-1.016,0.179,-0.056,-40.420,-2.023,4.206,0.0,0.0
62539,-0.996,0.229,-0.093,16.840,-17.542,25.137,0.0,0.0
62632,-1.011,0.279,-0.105,17.099,-23.191,29.626,0.0,0.0
62723,-1.024,0.229,-0.096,13.718,-25.863,33.176,0.0,142.0
62815,-1.110,0.191,-0.143,0.832,-19.435,35.603,0.0,145.0
62904,-0.854,0.175,-0.032,13.802,-2.107,-10.992,0.0,128.0
62995,-0.792,0.100,0.081,15.634,-4.824,-39.374,0.0,152.0
63085,-1.040,0.174,0.039,57.366,-7.824,-26.260,0.0,157.0
63176,-0.882,0.252,0.029,43.863,-10.931,-7.534,0.0,159.0
63269,-0.860,0.279,0.026,2.305,6.603,-12.855,0.0,0.0
63363,-0.762,0.258,0.073,-26.763,25.840,-7.389,0.0,0.0
63452,-1.241,0.181,-0.013,-17.534,2.031,2.748,0.0,143.0
63548,-1.112,0.011,-0.054,46.664,-40.374,77.458,197.0,199.0
63639,-1.053,0.298,-0.175,38.832,-37.840,89.031,0.0,169.0
63731,-0.854,0.138,-0.142,17.351,-39.595,41.832,0.0,173.0
63823,-0.844,0.188,-0.166,69.748,-22.985,1.550,0.0,174.0
63917,-0.967,0.274,-0.165,79.298,-25.427,-47.809,0.0,0.0
64010,-1.049,0.295,-0.112,92.069,-36.985,-79.076,0.0,0.0
64103,-1.034,0.303,-0.079,122.863,-20.504,-78.611,0.0,0.0
64196,-0.966,0.367,-0.080,50.863,-6.802,-63.786,0.0,0.0
64289,-1.017,0.200,-0.009,42.115,-6.824,-20.679,0.0,0.0
64386,-1.003,0.251,0.005,36.382,-9.328,32.053,0.0,0.0
64479,-0.981,0.191,0.187,-19.481,-18.328,49.015,199.0,0.0
64572,-0.885,0.055,0.294,-35.565,-1.473,12.237,0.0,0.0
64665,-0.812,0.115,0.228,24.229,19.763,-21.947,0.0,0.0
64758,-0.964,0.274,0.067,-1.214,23.702,-27.122,0.0,0.0
64851,-0.964,0.150,0.113,-39.802,18.817,2.160,0.0,0.0
64945,-1.119,0.156,0.063,-1.427,7.397,18.748,0.0,0.0
65038,-0.966,0.134,-0.008,13.656,-8.870,45.321,0.0,0.0
65131,-0.984,0.181,-0.132,7.740,-12.939,49.031,0.0,0.0
65227,-1.110,0.117,-0.227,38.802,-36.427,26.847,0.0,0.0
65320,-0.842,0.184,-0.172,93.466,-22.122,18.992,0.0,0.0
65413,-0.995,0.305,-0.225,73.191,-19.305,-27.099,178.0,0.0
65505,-0.987,0.235,-0.135,89.855,-20.405,-43.305,180.0,0.0
65598,-1.032,0.310,-0.136,76.748,-25.466,-53.221,183.0,0.0
65690,-1.001,0.294,-0.077,27.244,-24.038,-52.031,186.0,0.0
65783,-0.948,0.172,0.016,97.298,-8.260,-14.634,188.0,0.0
65875,-0.912,0.459,-0.025,45.282,-1.985,2.176,188.0,0.0
65969,-0.979,0.080,0.164,-26.534,-1.252,12.763,187.0,0.0
66064,-0.912,0.114,0.173,48.656,-4.344,33.626,185.0,0.0
66157,-0.882,0.222,0.123,52.366,-4.351,18.466,184.0,0.0
66249,-0.937,0.239,0.106,27.427,4.947,10.504,184.0,0.0
66341,-0.900,0.228,0.058,8.626,5.084,5.664,183.0,0.0
66435,-1.043,0.244,-0.017,9.359,10.611,7.679,183.0,0.0
66527,-0.965,0.268,-0.046,-9.313,9.542,7.580,183.0,0.0
66619,-0.938,0.261,-0.081,-10.328,-1.076,9.504,182.0,0.0
66711,-0.960,0.229,-0.099,35.847,-14.786,14.344,182.0,0.0
66804,-0.818,0.327,-0.119,29.382,-11.832,5.122,183.0,0.0
66900,-1.004,0.187,-0.013,68.405,-30.511,-17.802,0.0,0.0
66994,-1.137,-0.243,0.176,250.130,-153.763,48.237,0.0,0.0
67088,-1.283,1.132,-0.658,-5.817,-1.130,85.939,0.0,0.0
67181,-0.755,-0.530,0.291,11.305,-73.611,-46.565,0.0,194.0
67274,-0.642,1.173,-0.249,-49.702,133.565,17.542,0.0,193.0
67366,-1.052,-0.790,0.264,166.000,-97.534,42.786,0.0,191.0
67460,-0.495,0.896,-0.259,15.550,26.489,-10.237,0.0,186.0
67552,-0.883,0.182,0.171,46.359,-22.748,-63.573,0.0,180.0
67644,-0.769,0.719,-0.179,90.641,-12.084,-23.275,0.0,174.0
67739,-0.813,0.525,-0.050,10.244,-23.252,-32.038,0.0,169.0
67831,-0.907,0.466,-0.038,27.924,-21.656,-25.458,0.0,165.0
67918,-0.731,0.425,-0.033,-44.084,-27.366,-12.359,0.0,84.0
68008,-0.762,0.289,0.002,-46.527,-73.099,-0.954,0.0,146.0
68099,-0.987,0.324,-0.098,-10.397,-154.191,29.664,0.0,145.0
68185,-2.000,0.929,-0.330,9.908,-250.137,88.099,115.0,146.0
68268,-0.561,0.352,1.289,177.321,-190.740,46.794,0.0,16.0
68347,0.358,0.083,1.685,-169.359,-57.702,-94.618,79.0,68.0
68431,-0.002,-0.192,1.034,14.466,-10.771,40.214,114.0,66.0
68510,0.363,-0.074,0.521,-57.664,-97.130,-77.122,78.0,61.0
68589,0.760,0.003,0.410,5.359,-14.366,-74.710,82.0,56.0
68670,0.400,0.896,0.165,32.504,-4.244,-196.832,132.0,51.0
68754,-0.177,-0.026,1.156,-182.450,-19.023,-79.397,47.0,175.0
68846,-0.448,-0.204,1.114,155.336,64.176,-1.939,0.0,175.0
68940,-0.294,0.304,0.809,8.244,63.969,-19.878,0.0,0.0
69033,-0.244,0.213,0.849,-8.267,34.527,-31.321,0.0,0.0
69128,-0.697,0.323,1.065,-93.954,42.183,-20.489,0.0,0.0
69224,-0.364,-0.059,0.997,49.344,7.733,17.550,0.0,0.0
69307,-0.435,0.215,0.789,-18.290,6.405,1.626,0.0,3.0
69390,-0.395,0.169,0.919,-19.664,-0.771,0.626,0.0,8.0
69472,-0.424,0.100,0.896,1.015,0.466,-1.588,0.0,7.0
69566,-0.429,0.109,0.908,1.611,-0.985,0.611,0.0,0.0
69659,-0.420,0.119,0.943,14.321,-1.458,0.321,0.0,0.0
69742,-0.421,0.173,0.852,11.786,1.519,0.573,0.0,4.0
69835,-0.431,0.173,0.852,-15.595,5.099,0.206,0.0,0.0
69918,-0.419,0.115,0.947,19.649,0.618,-2.672,0.0,7.0
70000,-0.438,0.206,0.796,20.229,-0.679,0.687,0.0,3.0
70086,-0.411,0.138,0.930,-5.389,4.496,-5.000,0.0,5.0
70179,-0.369,0.190,0.915,10.786,1.672,-3.412,0.0,0.0
70274,-0.370,0.408,0.936,23.275,13.435,-14.679,0.0,0.0
70367,-0.412,0.354,0.744,-57.435,10.679,-23.130,0.0,0.0
70453,-0.497,0.037,0.750,-70.130,21.687,-21.534,0.0,51.0
70538,-0.534,-0.277,0.848,-74.252,21.221,-19.176,0.0,51.0
70623,-0.706,-0.301,0.757,-80.206,35.565,-18.718,0.0,52.0
70709,-0.579,-0.463,0.775,-29.015,-4.534,5.458,0.0,50.0
70794,-0.630,-0.351,0.638,-18.534,-39.015,-16.603,0.0,50.0
70883,-0.305,-0.193,0.639,71.458,5.840,-21.954,0.0,50.0
70958,-0.624,-0.059,0.662,65.634,39.664,-4.191,14.0,48.0
71031,-0.696,0.002,0.929,92.076,10.275,10.656,16.0,47.0
71115,-0.625,0.001,0.950,-28.893,-14.687,-5.756,16.0,0.0
71209,-0.585,-0.091,0.888,23.908,3.687,-2.725,0.0,0.0
71292,-0.593,-0.130,0.799,25.122,0.000,0.015,17.0,0.0
71386,-0.590,-0.075,0.824,-14.542,-1.160,-1.885,0.0,0.0
71470,-0.566,-0.096,0.905,4.878,-0.840,1.870,17.0,0.0
71553,-0.569,0.035,0.811,-0.756,1.519,-0.282,16.0,0.0
71650,-0.574,0.005,0.795,-2.611,0.206,-0.748,0.0,0.0
71744,-0.573,-0.019,0.812,3.595,-0.916,-0.069,0.0,0.0
71827,-0.571,-0.041,0.839,-4.427,-0.374,-1.099,17.0,0.0
71911,-0.583,-0.026,0.823,-6.534,-1.359,-2.305,17.0,0.0
71994,-0.577,-0.019,0.798,-2.603,-0.122,-2.237,16.0,0.0
72078,-0.565,-0.044,0.785,-2.382,-0.275,-2.229,16.0,0.0
72161,-0.577,-0.052,0.817,4.641,1.023,-1.137,16.0,0.0
72245,-0.531,-0.024,0.836,7.573,-1.435,-0.397,17.0,0.0
72333,-0.556,0.006,0.789,-10.038,-0.656,-1.534,17.0,0.0
72418,-0.547,-0.089,0.814,-1.092,-0.672,-0.412,16.0,0.0
72511,-0.563,-0.068,0.808,17.588,-0.435,0.634,0.0,0.0
72604,-0.552,-0.042,0.825,6.611,0.038,-0.267,0.0,0.0
72696,-0.561,-0.017,0.828,-9.603,-0.275,-2.115,0.0,0.0
72790,-0.577,-0.023,0.812,-6.389,-0.076,-2.214,0.0,0.0
72883,-0.573,-0.049,0.826,-1.618,-0.092,-1.183,0.0,0.0
72976,-0.563,-0.028,0.828,-0.244,-0.588,0.458,0.0,0.0
73068,-0.560,-0.019,0.826,5.802,-0.183,-0.473,0.0,0.0
73161,-0.560,-0.047,0.816,-1.901,-0.443,-0.611,0.0,0.0
73257,-0.556,-0.020,0.823,0.672,-0.992,0.885,0.0,0.0
73351,-0.565,-0.018,0.812,8.137,-0.023,1.672,0.0,0.0
73443,-0.551,0.022,0.795,-10.771,-1.115,0.573,0.0,0.0
73528,-0.556,-0.066,0.830,-2.275,-0.282,-0.969,0.0,50.0
73612,-0.554,-0.062,0.820,10.260,0.214,0.565,0.0,50.0
73705,-0.566,-0.003,0.820,13.847,0.450,0.863,0.0,0.0
73798,-0.555,-0.024,0.828,1.802,-0.092,-1.153,0.0,0.0
73890,-0.555,-0.002,0.805,-0.985,-0.641,-0.565,0.0,0.0
73984,-0.568,0.002,0.801,4.260,-1.206,0.618,0.0,0.0
74080,-0.549,0.011,0.805,4.748,-1.115,1.618,0.0,0.0
74173,-0.540,0.028,0.814,7.511,0.015,-0.053,0.0,0.0
74265,-0.548,0.023,0.797,1.466,0.015,-0.489,0.0,0.0
74358,-0.564,0.033,0.823,6.221,-0.595,-0.053,0.0,0.0
74451,-0.553,0.031,0.829,-9.702,-0.679,-0.855,0.0,0.0
74545,-0.568,-0.001,0.833,-0.237,-0.076,-1.000,0.0,0.0
74638,-0.564,-0.015,0.821,-0.687,-0.183,-0.550,0.0,0.0
74731,-0.559,0.025,0.822,-10.015,-0.893,-1.763,0.0,0.0
74824,-0.563,0.016,0.828,-2.176,-0.496,-0.603,0.0,0.0
74917,-0.567,-0.008,0.813,6.229,-0.496,-0.351,0.0,0.0
75013,-0.568,-0.009,0.821,0.435,-0.550,0.290,0.0,0.0
75106,-0.567,0.017,0.811,-2.763,0.107,-0.122,0.0,0.0
75199,-0.562,0.019,0.834,2.328,-0.824,-0.664,0.0,0.0
75292,-0.558,0.000,0.820,1.595,-0.168,-0.985,0.0,0.0
75385,-0.570,-0.039,0.835,-0.260,-0.313,-0.519,0.0,0.0
75479,-0.553,0.010,0.815,-2.267,-0.809,0.229,0.0,0.0
75572,-0.574,0.029,0.819,4.038,-0.794,0.649,0.0,0.0
75665,-0.567,0.016,0.821,3.954,-0.160,0.023,0.0,0.0
75758,-0.550,0.011,0.826,1.947,-0.366,0.092,0.0,0.0
75853,-0.553,0.029,0.810,-1.885,-0.588,-0.336,0.0,0.0
75947,-0.552,0.035,0.805,-1.069,-0.122,-0.878,0.0,0.0
76040,-0.561,0.000,0.828,1.626,-0.160,-0.160,0.0,0.0
76133,-0.564,0.003,0.837,6.832,-0.298,0.344,0.0,0.0
76226,-0.555,0.060,0.799,-10.053,-0.496,-1.252,0.0,0.0
76319,-0.565,0.108,0.758,-15.198,-0.443,-0.076,0.0,0.0
76412,-0.559,-0.077,0.859,5.725,-0.015,-0.084,0.0,0.0
76506,-0.556,0.101,0.765,7.023,-0.153,0.389,0.0,0.0
76599,-0.552,0.063,0.788,-9.634,-0.427,-0.313,0.0,0.0
76692,-0.558,-0.087,0.847,1.779,-0.115,-0.969,0.0,0.0
76788,-0.562,-0.011,0.809,-9.725,-0.298,-1.710,0.0,0.0
76881,-0.566,0.052,0.801,-2.924,-0.084,-0.427,0.0,0.0
76975,-0.567,0.011,0.799,3.542,-0.756,-0.168,0.0,0.0
77068,-0.560,-0.060,0.858,1.191,-0.550,-0.489,0.0,0.0
77161,-0.567,-0.012,0.825,-9.756,-0.183,-1.366,0.0,0.0
77254,-0.565,0.004,0.810,-5.863,-0.374,-0.832,0.0,0.0
77348,-0.565,-0.040,0.838,6.504,-0.710,-0.710,0.0,0.0
77442,-0.554,-0.025,0.818,-0.260,-0.870,-0.634,0.0,0.0
77535,-0.557,0.001,0.823,-7.069,-0.817,-0.397,0.0,0.0
77631,-0.556,0.057,0.782,-2.130,-0.298,1.153,0.0,0.0
77724,-0.547,-0.004,0.813,5.328,0.015,0.015,0.0,0.0
77817,-0.556,-0.034,0.821,1.397,-0.519,-0.542,0.0,0.0
77911,-0.551,-0.015,0.816,-3.137,-0.313,0.015,0.0,0.0
78004,-0.566,0.011,0.794,-1.832,-0.260,0.947,0.0,0.0
78097,-0.553,-0.010,0.808,5.076,-0.534,-0.160,0.0,0.0
78191,-0.556,-0.042,0.825,-2.206,-1.015,-1.038,0.0,0.0
78284,-0.555,0.020,0.790,-4.206,-0.427,-0.832,0.0,0.0
78377,-0.561,0.005,0.800,-0.611,-1.214,0.725,0.0,0.0
78474,-0.573,0.042,0.803,6.924,-0.221,0.450,0.0,0.0
78567,-0.535,0.036,0.884,-12.336,3.214,0.130,0.0,0.0
78641,-0.637,0.105,0.993,-80.443,-23.145,10.076,17.0,46.0
78733,-0.626,-0.102,0.865,-36.954,-57.634,30.313,0.0,173.0
78818,-0.527,0.169,0.840,11.420,-90.550,68.771,0.0,49.0
78904,-0.320,0.045,0.897,-52.863,-103.229,55.786,0.0,51.0
78982,-0.141,-0.219,0.933,-44.397,-99.656,47.244,71.0,53.0
79059,-0.062,-0.188,0.885,-24.092,-82.328,41.878,68.0,57.0
79137,0.018,-0.194,0.905,-38.489,-61.733,39.740,66.0,58.0
79218,0.107,-0.321,0.922,-35.122,-51.237,35.214,66.0,63.0
79296,0.171,-0.345,0.904,-25.031,-41.519,28.756,64.0,64.0
79375,0.221,-0.358,0.921,-11.550,-34.206,18.481,64.0,67.0
79458,0.235,-0.333,0.897,-10.954,-28.328,14.580,51.0,159.0
79541,0.259,-0.386,0.890,-9.641,-21.603,11.397,49.0,160.0
79625,0.301,-0.431,0.861,-1.656,-12.756,9.611,51.0,185.0
79709,0.247,-0.365,0.869,-5.878,-5.229,6.053,51.0,186.0
79792,0.312,-0.412,0.879,1.924,-4.656,3.344,48.0,162.0
79875,0.296,-0.396,0.867,1.740,0.740,0.374,48.0,161.0
79962,0.291,-0.428,0.884,2.412,6.702,-3.496,51.0,185.0
80045,0.300,-0.384,0.878,10.611,6.221,-9.550,51.0,160.0
80128,0.268,-0.322,0.905,-4.893,-0.511,-3.771,49.0,160.0
80209,0.398,-0.459,0.879,46.252,11.718,-1.985,50.0,159.0
80288,0.418,-0.390,0.914,57.366,41.496,-16.802,64.0,65.0
80366,0.194,-0.060,0.844,66.534,54.664,-23.015,64.0,61.0
80444,0.248,-0.137,0.956,81.282,52.328,-22.321,67.0,58.0
80522,0.057,-0.051,0.940,19.557,53.084,-35.763,69.0,56.0
80604,-0.018,-0.007,0.951,23.420,62.885,-36.069,126.0,52.0
80692,-0.218,0.060,0.971,22.496,60.168,-30.824,0.0,49.0
80769,-0.357,0.076,0.929,18.496,52.786,-18.153,50.0,48.0
80852,-0.307,0.128,0.904,0.313,61.221,-11.221,0.0,45.0
80934,-0.437,0.143,0.895,-7.366,63.802,-17.061,138.0,42.0
81008,-0.567,0.168,0.872,-2.244,63.931,-18.374,9.0,42.0
81082,-0.518,0.075,0.841,22.496,85.443,-7.794,9.0,41.0
81156,-1.115,0.732,1.196,6.321,41.565,-4.664,9.0,40.0
81229,-0.571,-0.032,0.517,-3.092,94.145,-23.267,11.0,40.0
81303,-0.640,0.036,0.782,58.580,90.702,-38.382,12.0,41.0
81380,-1.089,-0.153,0.812,7.198,105.153,-61.550,11.0,42.0
81454,-0.863,-0.100,0.333,-22.206,99.916,-57.344,10.0,43.0
81528,-0.872,-0.236,0.167,7.824,92.084,-38.092,10.0,43.0
81602,-0.808,-0.229,0.178,-9.420,84.458,-27.466,8.0,45.0
81676,-0.909,0.056,0.026,35.588,78.107,-15.641,9.0,44.0
81753,-1.105,0.043,0.191,-41.878,64.153,-14.565,9.0,96.0
81829,-1.504,-0.544,-0.196,19.916,1.046,9.122,7.0,89.0
81915,-1.420,-0.378,-0.330,85.145,-46.420,72.916,0.0,54.0
82001,-0.982,-0.166,-0.306,37.481,-19.282,86.374,0.0,63.0
82097,-0.695,-0.053,-0.153,-50.954,-4.802,39.351,0.0,174.0
82189,-0.691,-0.111,0.085,-29.550,-4.145,33.427,0.0,160.0
82280,-0.832,0.012,0.101,19.740,-5.969,24.427,0.0,162.0
82372,-0.844,0.084,0.168,23.557,0.198,22.191,0.0,165.0
82464,-0.885,0.146,0.106,7.450,8.832,11.863,0.0,165.0
82556,-0.810,0.236,0.075,-11.344,14.496,-0.046,0.0,167.0
82648,-0.836,0.302,0.029,-42.656,17.412,-12.641,0.0,164.0
82740,-1.066,0.274,0.007,-63.145,0.443,-12.122,0.0,160.0
82834,-1.276,0.424,-0.108,-63.267,-26.290,20.176,0.0,148.0
82925,-1.185,0.333,0.024,-70.802,-66.802,68.947,0.0,149.0
83016,-0.976,0.334,0.143,-62.046,-104.008,87.069,0.0,150.0
83108,-0.740,0.405,0.242,-37.962,-93.000,55.092,0.0,166.0
83201,-0.667,0.401,0.449,-46.695,-68.069,19.977,0.0,169.0
83293,-0.623,0.351,0.595,-38.702,-51.435,5.649,0.0,171.0
83386,-0.579,0.414,0.687,-33.153,-37.160,3.405,0.0,174.0
83470,-0.511,0.318,0.783,-23.763,-32.397,1.466,42.0,176.0
83567,-0.404,0.260,0.862,-17.878,-37.794,0.008,0.0,177.0
83653,-0.424,0.246,0.886,-28.458,-30.954,-1.725,45.0,179.0
83736,-0.393,0.249,0.868,-17.221,-23.954,3.389,45.0,181.0
83819,-0.372,0.222,0.851,-17.969,-16.405,4.481,43.0,183.0
83902,-0.394,0.180,0.869,-4.260,-10.740,2.641,42.0,185.0
83994,-0.372,0.154,0.864,0.527,-4.466,2.153,0.0,187.0
84087,-0.414,0.170,0.882,-14.107,3.290,4.427,0.0,187.0
84179,-0.406,0.120,0.923,-11.588,4.916,3.427,0.0,189.0
84262,-0.386,0.112,0.905,-10.053,-1.069,3.061,44.0,189.0
84346,-0.386,0.113,0.937,-4.641,-3.038,-0.733,41.0,189.0
84432,-0.354,0.133,0.925,-1.679,-1.611,-3.809,42.0,190.0
84515,-0.355,0.135,0.925,1.519,-3.618,-3.992,40.0,190.0
84599,-0.361,0.133,0.911,1.733,-3.664,-2.824,41.0,189.0
84682,-0.348,0.141,0.913,-1.733,0.076,-3.344,43.0,189.0
84765,-0.352,0.138,0.929,2.206,-0.496,-2.153,39.0,188.0
84848,-0.343,0.122,0.935,-3.168,-2.611,-1.420,39.0,189.0
84932,-0.351,0.156,0.907,0.847,-4.122,-0.450,40.0,189.0
85015,-0.351,0.141,0.927,2.550,-2.947,-0.664,40.0,189.0
85098,-0.342,0.118,0.915,7.321,-0.802,-2.427,40.0,188.0
85184,-0.284,0.075,0.745,41.779,8.458,-10.412,38.0,187.0
85276,-0.409,-0.045,0.431,181.229,32.649,-58.618,0.0,182.0
85368,-0.568,0.095,0.255,250.130,250.130,-199.198,0.0,174.0
85459,-1.548,0.445,-0.023,68.939,-43.748,-141.931,0.0,170.0
85547,-0.591,0.500,-0.048,223.481,24.374,16.939,0.0,84.0
85633,-0.706,0.656,-0.069,-18.603,2.641,-34.779,0.0,79.0
85720,-0.881,0.340,0.063,-54.160,10.473,-17.840,0.0,80.0
85813,-1.007,0.254,0.076,1.389,1.252,10.656,0.0,0.0
85898,-0.933,0.316,0.002,-0.191,-6.947,22.069,0.0,68.0
85987,-0.967,0.271,0.018,-1.672,-17.695,26.832,0.0,69.0
86072,-0.898,0.273,0.049,-2.198,-27.328,43.351,0.0,57.0
86156,-0.813,0.381,0.031,-8.198,-33.221,51.168,0.0,52.0
86241,-0.680,0.251,0.120,-41.893,-51.641,78.595,0.0,46.0
86334,-0.548,0.267,0.147,-73.214,-84.618,95.634,0.0,0.0
86411,-0.489,0.142,0.466,-142.145,-188.573,112.282,58.0,57.0
86504,-0.725,1.345,0.996,140.893,-215.916,147.260,0.0,0.0
86597,1.680,1.891,1.771,162.794,-142.336,98.779,0.0,0.0
86680,0.798,1.549,-0.680,82.771,-15.901,25.893,191.0,16.0
86775,0.205,-0.289,-0.117,-202.634,23.496,-24.443,194.0,0.0
86870,0.042,0.500,0.303,-38.130,36.443,-66.511,0.0,0.0
86953,0.649,0.849,0.429,-201.489,55.076,-95.153,0.0,50.0
87031,-0.018,0.924,1.041,-68.977,99.611,-80.275,62.0,50.0
87115,-0.383,0.179,1.698,-58.634,-7.656,6.550,0.0,49.0
87200,0.167,0.455,0.462,121.183,10.427,19.435,0.0,50.0
87285,-0.065,0.748,0.861,-42.443,11.763,-9.870,0.0,49.0
87370,-0.007,0.382,0.896,-11.137,-2.061,5.504,0.0,49.0
87457,-0.043,0.534,0.910,6.115,-2.802,2.992,0.0,49.0
87542,-0.037,0.541,0.801,-5.992,1.198,-0.260,0.0,50.0
87627,-0.035,0.529,0.876,1.794,-1.824,0.183,0.0,50.0
87711,-0.006,0.535,0.839,-5.069,0.382,-1.718,0.0,50.0
87796,-0.055,0.534,0.869,-8.489,2.176,-2.679,0.0,49.0
87881,-0.028,0.496,0.889,-1.626,-0.405,-1.145,0.0,49.0
87965,-0.035,0.501,0.858,3.000,-1.267,0.504,0.0,49.0
88050,-0.036,0.514,0.874,0.809,-1.374,0.443,0.0,49.0
88135,-0.035,0.499,0.872,0.466,0.344,-1.489,0.0,49.0
88220,-0.024,0.512,0.864,0.740,-0.756,0.015,0.0,49.0
88307,-0.030,0.517,0.870,-1.237,-0.847,-0.168,0.0,49.0
88392,-0.030,0.528,0.862,0.885,-0.427,-0.290,0.0,49.0
88477,-0.031,0.510,0.872,0.313,-0.221,-0.351,0.0,49.0
88561,-0.021,0.521,0.861,-3.626,-0.298,0.260,0.0,49.0
88646,-0.040,0.516,0.869,-0.511,-0.176,-0.298,0.0,49.0
88731,-0.026,0.514,0.860,0.107,-0.450,-0.496,0.0,49.0
88816,-0.031,0.507,0.869,1.519,-0.519,-0.092,0.0,49.0
88901,-0.031,0.508,0.870,-1.115,-0.298,-0.176,0.0,49.0
88985,-0.028,0.516,0.856,-0.008,-0.366,-0.145,0.0,49.0
89073,-0.027,0.520,0.864,2.992,-0.565,-0.550,0.0,49.0
89158,-0.037,0.513,0.872,0.527,-0.351,-0.321,0.0,49.0
89243,-0.029,0.514,0.869,-0.939,-0.168,0.008,0.0,49.0
89328,-0.031,0.532,0.844,-0.450,-0.405,-0.267,0.0,49.0
89413,-0.024,0.524,0.870,0.863,-0.397,-0.397,0.0,49.0
89497,-0.025,0.512,0.876,0.786,-0.038,-0.412,0.0,49.0
89582,-0.029,0.513,0.865,-0.794,-0.313,-0.511,0.0,49.0
89667,-0.024,0.513,0.863,0.931,-0.534,-0.137,0.0,49.0
89752,-0.036,0.520,0.857,-1.893,-0.267,-0.511,0.0,49.0
89840,-0.023,0.465,0.910,13.145,0.863,-0.588,0.0,49.0
89925,-0.030,0.591,0.801,-12.267,0.145,-0.015,0.0,50.0
90009,-0.036,0.489,0.882,10.206,-0.687,0.137,0.0,50.0
90094,-0.029,0.518,0.855,-8.015,-0.191,-0.725,0.0,49.0
90179,-0.028,0.538,0.853,5.198,-0.344,-0.389,0.0,50.0
90264,-0.035,0.504,0.876,-4.214,-0.168,-0.305,0.0,50.0
90349,-0.037,0.539,0.842,0.885,-0.420,-0.427,0.0,49.0
90434,-0.030,0.509,0.864,-0.740,-0.344,-0.389,0.0,50.0
90519,-0.031,0.531,0.854,-0.664,-0.435,-0.298,0.0,49.0
90605,-0.028,0.515,0.869,1.115,-0.382,-0.160,0.0,49.0
90702,-0.031,0.509,0.871,0.229,-0.336,-0.229,0.0,49.0
90789,-0.032,0.519,0.865,-1.313,-0.221,-0.412,0.0,49.0
90876,-0.030,0.540,0.849,-0.809,-0.229,-0.313,0.0,50.0
90964,-0.026,0.526,0.853,2.435,-0.519,-0.145,0.0,50.0
91052,-0.031,0.500,0.881,0.855,-0.580,-0.511,0.0,49.0
91139,-0.027,0.532,0.848,-2.260,-0.489,-0.511,0.0,49.0
91227,-0.035,0.524,0.869,2.588,-0.489,-0.160,0.0,49.0
91314,-0.030,0.501,0.871,-1.244,-0.290,-0.252,0.0,49.0
91402,-0.024,0.537,0.856,-1.779,-0.237,-0.313,0.0,50.0
91492,-0.035,0.523,0.859,1.832,-0.466,-0.405,0.0,49.0
91580,-0.030,0.525,0.864,-1.191,-0.458,-0.313,0.0,49.0
91667,-0.029,0.522,0.863,-1.168,-0.458,0.038,0.0,49.0
91754,-0.032,0.519,0.868,0.687,-0.656,-0.176,0.0,50.0
91842,-0.028,0.528,0.863,0.664,-0.298,-0.099,0.0,49.0
91929,-0.034,0.516,0.863,0.229,-0.626,-0.351,0.0,49.0
