Timestamp(ms),AccelX(g),AccelY(g),AccelZ(g),GyroX(deg/s),GyroY(deg/s),GyroZ(deg/s),DistanceLeft(cm),DistanceRight(cm)
217199,-0.186,0.113,0.928,15.588,8.611,-21.344,0.0,134.0
217289,-0.187,0.148,0.804,22.069,21.534,-31.481,0.0,132.0
217378,-0.251,0.133,0.636,89.580,74.710,-73.214,0.0,130.0
217473,-0.772,0.047,0.529,244.740,150.763,-144.840,0.0,0.0
217567,-1.112,0.344,0.104,250.130,121.198,-109.901,0.0,0.0
217657,-1.150,0.977,0.036,250.130,6.313,-119.733,150.0,0.0
217751,-1.051,0.604,0.043,137.817,-16.504,-112.588,0.0,0.0
217848,-1.026,0.517,0.009,-48.672,6.115,-56.328,0.0,0.0
217939,-0.871,0.294,0.152,-54.901,12.053,2.519,154.0,0.0
218032,-0.889,0.383,0.100,-53.511,15.099,26.489,170.0,0.0
218122,-0.965,0.367,0.004,-101.832,16.328,25.489,132.0,0.0
218212,-1.022,0.276,-0.032,-92.847,8.130,27.244,126.0,0.0
218301,-1.099,0.334,-0.119,-79.282,16.198,37.099,119.0,0.0
218391,-0.979,0.297,-0.185,-123.847,29.679,43.374,113.0,0.0
218480,-0.969,-0.003,-0.245,-121.420,10.763,7.962,108.0,0.0
218569,-0.942,-0.213,-0.250,-29.725,6.328,-7.656,107.0,0.0
218661,-0.939,0.086,-0.270,76.046,28.817,3.298,109.0,0.0
218750,-0.928,0.426,-0.181,61.954,28.550,5.557,113.0,0.0
218840,-1.048,0.360,-0.071,-9.550,29.221,22.893,117.0,0.0
218930,-1.663,0.152,0.859,116.397,-65.916,-37.176,122.0,0.0
219020,-0.740,1.095,-0.211,-8.870,17.145,-1.290,126.0,0.0
219110,-0.783,0.557,-0.130,-151.267,23.397,-42.069,126.0,0.0
219200,-0.630,0.653,0.010,-93.008,14.611,-31.588,124.0,0.0
219291,-1.661,0.385,-0.077,-117.053,23.122,-68.313,145.0,0.0
219380,1.196,0.786,-0.932,-149.603,70.603,-18.954,151.0,99.0
219467,-2.000,-0.164,-0.866,-123.290,-20.664,-86.595,0.0,73.0
219552,0.023,0.368,0.627,58.908,-6.290,66.168,0.0,46.0
219644,-0.838,0.599,-0.210,-157.031,49.389,-10.405,0.0,43.0
219728,-0.990,0.238,-0.411,-189.328,-20.374,31.870,0.0,40.0
219812,-0.667,0.096,-0.113,-40.168,-22.802,86.893,0.0,38.0
219896,-0.549,0.348,-0.178,-50.779,9.252,96.992,0.0,36.0
219980,-0.651,0.415,-0.184,-171.603,-1.977,62.061,0.0,39.0
220073,-0.891,0.515,0.132,-164.420,-57.664,109.725,0.0,0.0
220160,-0.364,0.445,0.177,-133.443,-150.626,167.771,28.0,0.0
220243,0.107,1.216,1.110,137.282,-151.198,148.244,32.0,0.0
220316,0.895,2.000,1.425,-154.260,8.580,-25.137,30.0,14.0
220391,0.352,0.244,0.896,-250.137,164.321,-21.733,32.0,40.0
220471,-0.364,-0.668,0.275,-207.718,73.664,-25.786,135.0,45.0
220547,-0.504,-0.059,0.388,-74.893,19.885,4.412,41.0,51.0
220622,-0.521,0.092,0.290,-65.886,-68.183,-67.328,40.0,56.0
220699,-0.095,0.037,0.723,-82.611,-111.916,-175.427,45.0,57.0
220793,0.405,-0.073,1.285,-80.595,-69.603,-182.328,0.0,167.0
220887,0.766,-0.504,1.258,6.710,12.878,-109.962,0.0,190.0
220979,0.200,-0.013,0.889,49.695,111.847,-19.344,0.0,193.0
221067,-0.240,-0.187,0.766,-130.557,1.611,-23.511,0.0,109.0
221156,0.148,-0.919,0.779,-59.779,-89.221,15.740,0.0,114.0
221235,0.416,-0.579,0.650,19.847,-42.298,-8.740,38.0,117.0
221323,0.236,-0.498,0.662,-13.565,4.137,-23.573,0.0,115.0
221402,0.222,-0.596,0.860,26.916,23.099,-37.000,37.0,111.0
221480,0.335,-0.547,1.050,57.229,36.153,-89.588,40.0,106.0
221562,0.189,-0.219,0.910,144.076,63.008,-109.298,45.0,101.0
221645,-0.086,0.159,0.688,153.397,39.580,-70.489,0.0,9.0
221727,0.073,0.610,0.689,68.550,41.557,-53.855,0.0,3.0
221812,0.055,0.261,1.067,-201.099,79.611,-14.626,58.0,0.0
221885,-0.298,-0.668,1.636,150.771,-2.092,36.145,43.0,3.0
221968,-0.135,0.353,0.555,27.840,7.046,-1.519,0.0,5.0
222042,-0.109,0.056,1.187,12.176,0.802,-4.137,53.0,1.0
222115,-0.129,0.142,0.892,-23.878,5.916,-4.313,58.0,1.0
222188,-0.175,0.016,1.061,-23.344,3.115,-9.137,44.0,2.0
222265,-0.152,0.134,1.003,18.557,-2.847,3.458,56.0,1.0
222350,-0.127,0.100,0.990,-0.763,-1.305,1.260,54.0,0.0
222424,-0.143,0.076,0.976,1.321,0.221,-1.000,54.0,5.0
222497,-0.137,0.129,0.989,-4.496,0.802,-1.420,54.0,1.0
222571,-0.127,0.200,0.956,-53.504,-0.519,-0.252,53.0,3.0
222644,-0.139,-0.071,1.022,-26.252,-2.611,2.611,42.0,3.0
222716,-0.132,-0.071,1.016,-18.328,-2.672,-0.099,41.0,2.0
222790,-0.129,-0.042,0.988,0.420,-1.092,1.008,40.0,2.0
222863,-0.129,-0.039,1.001,1.313,-0.405,-0.771,40.0,2.0
222939,-0.136,-0.022,1.000,-3.504,-2.069,-0.756,40.0,3.0
223011,-0.132,-0.011,0.993,-4.565,-2.267,-0.214,41.0,2.0
223085,-0.126,-0.040,0.979,-10.313,-2.802,0.069,41.0,3.0
223158,-0.102,-0.083,0.993,-15.038,-0.153,-3.664,42.0,4.0
223232,-0.129,-0.032,0.969,-0.206,2.603,-0.618,41.0,16.0
223304,-0.137,-0.047,1.007,-13.061,0.481,-0.237,40.0,6.0
223378,-0.137,-0.096,1.004,-18.809,-2.710,2.145,39.0,9.0
223451,-0.120,-0.115,0.992,-17.260,-3.282,2.260,39.0,3.0
223526,-0.123,-0.167,0.996,-17.031,-2.359,0.397,38.0,5.0
223600,-0.114,-0.157,0.978,-7.305,-0.908,-0.107,39.0,5.0
223673,-0.119,-0.172,0.980,4.878,0.420,-0.267,39.0,5.0
223746,-0.121,-0.179,1.002,12.458,0.305,-2.275,40.0,5.0
223819,-0.126,-0.098,0.977,4.374,-0.084,-0.298,39.0,5.0
223892,-0.122,-0.108,0.973,-0.817,-0.565,0.298,39.0,7.0
223966,-0.120,-0.164,0.994,-2.023,-0.557,-0.008,38.0,16.0
224039,-0.118,-0.127,0.993,-5.641,-0.443,-0.893,38.0,6.0
224113,-0.129,-0.137,0.984,2.885,-0.076,-0.321,39.0,16.0
224189,-0.115,-0.121,0.986,5.031,-0.511,0.282,38.0,5.0
224263,-0.130,-0.146,0.996,10.809,0.534,-0.458,39.0,4.0
224335,-0.124,-0.109,0.987,-3.847,-0.611,-0.672,39.0,4.0
224409,-0.125,-0.131,0.987,0.664,0.076,-0.237,39.0,4.0
224482,-0.131,-0.102,0.979,2.824,0.450,0.427,40.0,4.0
224555,-0.121,-0.142,0.996,-2.237,0.031,0.298,40.0,4.0
224628,-0.144,-0.086,0.987,-2.389,-0.153,2.229,39.0,7.0
224702,-0.236,-0.010,1.039,-9.206,-6.916,12.626,38.0,5.0
224776,-0.090,-0.122,1.052,-79.863,-32.076,23.931,38.0,17.0
224863,0.031,-0.219,1.100,5.298,-31.382,57.389,36.0,0.0
224947,0.137,-0.152,1.070,19.351,-22.206,53.534,37.0,0.0
225032,0.326,-0.265,0.864,-1.687,-11.176,44.664,38.0,0.0
225116,0.177,-0.220,0.896,66.214,16.885,15.260,36.0,198.0
225203,0.001,-0.066,1.031,97.290,25.718,12.611,0.0,90.0
225296,-0.542,0.243,0.964,76.847,19.656,-6.656,0.0,189.0
225387,-0.432,0.293,1.094,-16.542,4.519,11.458,0.0,162.0
225475,-0.046,0.203,1.022,-93.015,14.588,-11.099,0.0,89.0
225555,-0.168,0.026,0.838,-114.290,14.008,0.321,55.0,97.0
225639,-0.132,-0.020,0.650,-63.802,27.908,26.244,57.0,105.0
225719,0.048,-0.123,0.735,-71.252,31.992,36.183,57.0,108.0
225811,0.169,-0.244,0.906,-37.893,47.359,52.015,0.0,164.0
225894,-0.069,-0.179,0.722,-31.214,87.863,80.725,45.0,159.0
225977,-0.473,-0.187,0.446,-58.336,105.298,99.542,44.0,156.0
226057,-0.748,-0.276,0.180,-33.725,109.405,134.519,37.0,111.0
226137,-1.247,-0.028,0.017,7.053,143.382,104.267,34.0,108.0
226213,-1.262,-0.075,-0.197,1.229,149.290,60.511,32.0,76.0
226292,-1.413,-0.213,-0.533,131.076,123.198,22.000,34.0,104.0
226378,-1.895,0.484,-0.427,192.870,51.855,-5.000,0.0,99.0
226466,-1.787,0.503,0.069,31.260,34.282,-23.107,0.0,97.0
226544,-1.536,0.123,-0.312,-94.710,-19.405,8.397,17.0,97.0
226632,-0.945,-0.156,-0.237,-90.053,-51.206,46.000,0.0,96.0
226720,-0.904,-0.018,-0.257,52.458,-45.298,13.252,0.0,95.0
226820,-0.715,0.178,-0.183,28.160,-10.351,-10.015,0.0,137.0
226899,-0.709,0.099,-0.093,11.817,19.313,-23.351,50.0,112.0
226988,-0.729,0.119,-0.083,28.420,26.710,-18.740,0.0,110.0
227079,-0.740,0.167,-0.019,30.229,6.275,-13.595,0.0,111.0
227168,-0.828,0.129,0.040,65.298,-2.779,1.191,0.0,112.0
227259,-0.966,0.185,-0.044,55.718,-21.603,25.985,0.0,168.0
227351,-0.879,0.159,0.010,20.863,-34.336,49.626,0.0,169.0
227442,-0.981,0.208,0.007,39.740,-30.885,61.046,0.0,173.0
227534,-0.847,0.275,0.073,35.611,-19.519,45.267,0.0,177.0
227628,-0.834,0.332,0.076,27.603,10.649,11.504,0.0,0.0
227721,-0.841,0.392,0.039,-23.748,20.015,-26.664,0.0,183.0
227811,-0.885,0.354,0.069,-44.924,26.008,-49.519,0.0,145.0
227906,-0.949,0.281,0.061,-49.115,25.336,-55.298,0.0,190.0
227997,-1.180,0.346,-0.017,-38.389,15.321,-38.969,0.0,157.0
228088,-1.094,0.276,-0.118,-94.374,-19.878,13.870,0.0,146.0
228177,-0.994,0.150,-0.243,-70.008,-24.573,51.634,0.0,134.0
228268,-1.041,0.094,-0.335,-49.733,-27.183,38.954,0.0,138.0
228358,-0.875,0.143,-0.149,-12.534,-8.092,54.298,0.0,144.0
228450,-0.869,0.263,-0.134,13.740,-0.695,40.588,0.0,159.0
228541,-0.745,0.326,-0.121,-2.626,23.198,0.275,0.0,161.0
228635,-0.730,0.393,-0.458,-161.710,171.336,-28.160,0.0,162.0
228726,-1.255,-0.882,-0.010,-121.145,-165.840,-74.664,0.0,164.0
228818,-0.494,0.021,-0.701,250.130,-96.397,187.908,0.0,161.0
228912,-0.734,1.359,-0.723,72.298,-5.443,12.931,0.0,0.0
229005,-0.635,0.573,-0.209,-182.870,115.771,-17.901,0.0,0.0
229091,-0.947,1.007,0.171,-176.237,71.504,-26.000,0.0,67.0
229183,-0.619,0.530,0.066,-79.763,36.145,-51.115,0.0,171.0
229275,-0.695,1.168,-0.221,-101.031,112.405,-73.221,0.0,175.0
229369,-0.456,0.420,-0.172,-250.137,162.107,-48.252,0.0,0.0
229457,-0.720,-0.144,0.153,-113.237,49.908,122.458,66.0,0.0
229552,-1.168,1.155,-0.661,34.695,16.901,185.626,0.0,0.0
229645,-1.312,0.839,-0.302,-143.924,22.763,119.122,0.0,0.0
229730,-0.554,-0.087,0.257,-250.137,34.977,-6.084,36.0,0.0
229814,-0.185,0.993,0.174,89.084,20.611,95.191,41.0,0.0
229908,0.465,1.029,0.100,-58.611,4.168,133.969,0.0,0.0
229993,1.822,1.188,-0.379,250.130,-1.802,-59.092,62.0,0.0
230087,0.608,1.009,0.299,65.519,24.756,10.855,0.0,0.0
230183,-0.037,0.850,0.426,31.557,-10.084,20.580,0.0,0.0
230268,0.541,0.899,-0.028,8.290,-17.405,33.718,44.0,0.0
230352,0.316,0.956,-0.057,22.977,-12.641,-10.740,39.0,0.0
230447,0.139,0.992,0.135,-48.580,28.557,-48.679,0.0,0.0
230540,0.021,0.831,0.513,-98.771,30.008,-0.214,0.0,0.0
230633,0.012,0.972,0.408,35.687,-2.618,-2.168,0.0,0.0
230727,0.064,1.056,0.179,79.740,-24.870,-7.176,0.0,0.0
230820,0.021,1.023,0.080,-1.038,-18.626,-6.275,0.0,0.0
230915,0.110,1.008,0.226,-49.466,3.015,-7.374,0.0,0.0
231011,0.053,0.939,0.362,-22.267,-3.672,-13.023,0.0,0.0
231104,-0.042,0.929,0.394,-18.115,-3.527,-6.351,0.0,0.0
231198,0.021,0.929,0.381,6.336,3.588,0.450,0.0,0.0
231291,-0.013,0.967,0.316,11.855,2.397,3.626,0.0,0.0
231386,0.002,0.971,0.322,6.595,2.443,1.931,0.0,0.0
231479,-0.006,0.969,0.302,-3.260,0.366,2.466,0.0,0.0
231572,0.012,0.960,0.312,-1.817,1.275,1.191,0.0,0.0
231666,0.000,0.947,0.323,-0.374,2.305,1.573,0.0,0.0
231759,0.000,0.961,0.319,6.412,3.023,4.328,0.0,0.0
231853,0.022,0.967,0.293,9.458,0.328,1.489,0.0,0.0
231950,0.014,0.971,0.267,3.962,-0.168,-1.573,0.0,0.0
232043,0.001,0.969,0.284,-0.061,0.298,-0.855,0.0,0.0
232136,0.007,0.974,0.288,-0.664,-0.740,-0.305,0.0,0.0
232230,0.007,0.969,0.288,-4.038,-0.771,-0.687,0.0,0.0
232324,0.016,0.960,0.302,-0.985,-0.435,-0.107,0.0,0.0
232418,0.011,0.955,0.292,-0.504,-0.099,-0.664,0.0,0.0
232511,0.011,0.970,0.282,2.351,-0.153,-0.313,0.0,0.0
232605,0.013,0.964,0.292,-0.076,-0.160,-0.214,0.0,0.0
232698,0.009,0.974,0.285,0.076,-0.191,-0.145,0.0,0.0
232795,0.015,0.970,0.286,-0.496,-0.305,-0.328,0.0,0.0
232889,0.010,0.971,0.306,-0.534,-0.412,-0.435,0.0,0.0
232983,0.008,0.967,0.292,-0.321,-0.420,-0.389,0.0,0.0
233076,0.013,0.968,0.283,0.214,-0.397,-0.221,0.0,0.0
233170,0.016,0.969,0.298,0.473,-0.412,-0.405,0.0,0.0
233264,0.012,0.969,0.292,-0.076,-0.405,-0.519,0.0,0.0
233358,0.011,0.974,0.293,0.290,-0.527,-0.282,0.0,0.0
233451,0.010,0.963,0.292,-0.321,-0.389,-0.527,0.0,0.0
233545,0.013,0.968,0.292,0.275,-0.618,-0.481,0.0,0.0
233638,0.011,0.966,0.289,0.351,-0.298,-0.176,0.0,0.0
233736,0.012,0.965,0.295,-0.504,-0.336,-0.588,0.0,0.0
233830,0.011,0.967,0.292,0.336,-0.412,-0.328,0.0,0.0
233923,0.014,0.968,0.290,-0.107,-0.481,-0.427,0.0,0.0
234017,0.018,0.973,0.282,0.038,-0.450,-0.229,0.0,0.0
234110,0.008,0.967,0.299,-0.046,-0.405,-0.458,0.0,0.0
234205,0.014,0.965,0.288,-0.069,-0.412,-0.313,0.0,0.0
234299,0.012,0.971,0.296,0.275,-0.305,-0.267,0.0,0.0
234392,0.011,0.975,0.287,-0.237,-0.344,-0.412,0.0,0.0
234486,0.006,0.961,0.297,0.374,-0.328,-0.282,0.0,0.0
234584,0.011,0.972,0.285,-0.237,-0.351,-0.389,0.0,0.0
234678,0.009,0.970,0.298,0.450,-0.244,-0.198,0.0,0.0
234771,0.016,0.966,0.292,0.344,-0.481,-0.344,0.0,0.0
234865,0.009,0.968,0.293,0.237,-0.481,-0.275,0.0,0.0
234959,0.015,0.966,0.299,0.389,-0.603,-0.267,0.0,0.0
235054,0.013,0.969,0.291,-0.160,-0.275,-0.344,0.0,0.0
235147,0.014,0.962,0.293,0.412,-0.527,-0.298,0.0,0.0
235241,0.015,0.971,0.293,-0.305,-0.282,-0.427,0.0,0.0
235335,0.014,0.967,0.291,-0.382,-0.275,-0.275,0.0,0.0
235429,0.008,0.972,0.291,-0.397,-0.267,-0.366,0.0,0.0
235521,0.012,0.967,0.291,0.107,-0.214,-0.313,0.0,0.0
235615,0.013,0.962,0.292,-0.595,-0.412,-0.496,0.0,0.0
235709,0.016,0.969,0.291,0.099,-0.389,-0.298,0.0,0.0
235803,0.011,0.969,0.297,0.221,-0.328,-0.664,0.0,0.0
235896,0.013,0.965,0.292,0.183,-0.328,-0.130,0.0,0.0
235991,0.012,0.966,0.294,-0.252,-0.351,-0.527,0.0,0.0
236085,0.006,0.970,0.296,-0.344,-0.389,-0.099,0.0,0.0
236179,0.010,0.972,0.283,-0.344,-0.168,-0.573,0.0,0.0
236273,0.008,0.973,0.292,-0.023,-0.420,-0.313,0.0,0.0
236370,0.005,0.965,0.300,-0.542,-0.237,-0.153,0.0,0.0
236465,0.012,0.967,0.295,-0.267,-0.389,-0.412,0.0,0.0
236558,0.014,0.972,0.298,0.130,-0.412,-0.405,0.0,0.0
236652,0.004,0.974,0.299,-0.107,-0.405,-0.275,0.0,0.0
236746,0.013,0.972,0.288,-0.053,-0.237,-0.389,0.0,0.0
236840,0.011,0.967,0.291,-0.542,-0.405,-0.237,0.0,0.0
236935,0.015,0.975,0.292,-0.351,-0.466,-0.443,0.0,0.0
237029,0.011,0.977,0.292,0.908,-0.458,-0.221,0.0,0.0
237123,-0.003,0.961,0.312,6.237,0.794,4.626,0.0,0.0
237220,0.020,0.988,0.275,-3.099,3.885,8.924,0.0,0.0
237315,0.038,0.990,0.302,35.351,-2.397,20.450,0.0,0.0
237409,0.076,1.066,0.139,28.275,-7.794,27.115,0.0,0.0
237503,0.106,1.001,0.136,28.962,-10.588,47.061,0.0,0.0
237597,0.271,1.054,0.001,3.168,13.832,54.084,0.0,0.0
237691,0.328,1.049,0.065,-49.550,29.115,32.893,0.0,0.0
237786,0.306,1.081,-0.080,-38.901,53.214,35.664,0.0,0.0
237880,0.790,1.310,0.268,-56.427,102.336,6.985,0.0,0.0
237974,0.271,0.703,0.301,-45.252,94.679,-0.221,0.0,0.0
238068,0.332,0.384,0.306,-134.092,99.763,-11.748,0.0,0.0
238157,-0.437,0.056,0.837,77.763,61.603,-39.977,0.0,37.0
238252,-0.340,0.774,0.594,95.084,46.397,-30.901,0.0,0.0
238346,-0.234,0.638,0.728,-60.183,24.137,-48.939,0.0,0.0
238440,-0.126,0.742,0.708,17.183,16.168,-2.878,0.0,0.0
238534,-0.174,0.753,0.622,-16.275,12.931,-40.565,0.0,0.0
238635,-0.267,0.882,0.677,17.649,2.389,-83.481,0.0,0.0
238728,-0.516,0.729,0.531,-20.275,-2.695,-73.084,0.0,0.0
238812,-0.476,0.707,0.530,0.267,3.695,-6.588,31.0,0.0
238908,-0.391,0.743,0.449,-20.672,11.496,-12.252,0.0,0.0
238998,-0.525,0.568,0.455,-41.672,25.092,-20.947,146.0,0.0
239088,-0.594,0.368,0.555,-28.214,29.687,4.038,143.0,0.0
239181,-0.589,0.502,0.561,7.916,26.626,8.061,198.0,0.0
239271,-0.521,0.613,0.609,6.481,34.099,-4.939,138.0,0.0
239361,-0.828,0.587,0.591,15.626,27.321,-16.702,135.0,0.0
239451,-0.935,0.702,0.462,-12.870,37.603,-39.191,134.0,0.0
239541,-0.630,0.363,0.599,34.290,16.130,-63.137,135.0,0.0
239631,-0.540,0.597,0.362,18.893,21.267,-69.901,140.0,0.0
239722,-0.745,0.393,0.156,-62.679,34.595,-79.557,134.0,184.0
239811,-0.844,0.052,0.305,-63.321,33.405,-24.901,128.0,187.0
239900,-1.252,0.068,0.314,-20.534,52.702,16.061,125.0,0.0
239981,-1.438,0.172,0.215,18.092,47.099,32.534,123.0,57.0
240069,-1.177,0.199,0.142,9.641,35.473,8.855,122.0,192.0
240158,-1.120,0.100,0.075,42.817,10.183,7.176,122.0,193.0
240247,-1.106,0.262,0.020,39.885,21.267,2.313,123.0,192.0
240336,-1.095,0.198,-0.051,21.947,11.542,3.916,124.0,0.0
240425,-0.984,0.177,-0.084,50.962,12.802,-0.145,128.0,0.0
240520,-0.792,0.269,-0.105,71.924,11.435,-12.565,153.0,0.0
240612,-0.758,0.266,-0.119,68.351,-6.214,-18.260,186.0,0.0
240705,-0.665,0.352,-0.132,35.924,11.084,-9.076,189.0,0.0
240798,-0.874,0.349,-0.152,-29.336,3.458,-24.679,190.0,0.0
240889,-0.831,0.259,-0.073,-34.420,-11.260,-17.389,161.0,0.0
240982,-1.003,0.288,-0.125,-14.992,-20.053,-4.244,160.0,0.0
241073,-0.930,0.275,-0.049,-2.771,-15.145,19.000,159.0,0.0
241164,-0.853,0.261,-0.023,-39.649,-15.595,35.053,156.0,0.0
241257,-0.905,0.274,0.079,-11.679,-0.038,39.153,153.0,0.0
241348,-0.808,0.405,0.044,-40.634,30.855,10.160,150.0,0.0
241439,-0.851,0.186,0.270,-79.695,27.473,-21.603,146.0,0.0
241529,-0.762,0.457,0.179,3.893,28.702,-15.290,143.0,0.0
241619,-1.156,0.530,-0.239,-101.840,38.099,-57.756,139.0,0.0
241710,-1.310,0.104,-0.515,-168.191,-0.046,-24.511,134.0,0.0
241800,-0.940,0.036,-0.236,-83.595,-7.748,30.916,149.0,0.0
241891,-0.823,0.245,-0.290,26.053,16.847,30.221,147.0,0.0
241982,-1.041,0.319,-0.270,-12.809,-7.947,3.489,152.0,0.0
242069,-1.024,0.591,0.365,34.534,-29.290,-28.366,145.0,96.0
242156,-1.519,1.593,-1.251,-250.137,97.183,-79.847,141.0,129.0
242241,-0.633,-0.636,-0.729,-250.137,-168.672,-12.282,0.0,52.0
242318,-0.213,-0.479,0.548,211.931,-56.992,56.221,49.0,53.0
242403,-0.633,0.265,-0.510,250.130,7.260,81.015,0.0,46.0
242488,-1.014,0.730,-0.243,12.344,-2.939,9.809,0.0,43.0
242573,-0.964,0.354,-0.115,-191.328,42.702,50.870,0.0,44.0
242658,-0.871,0.067,-0.006,-144.969,44.710,97.603,0.0,43.0
242745,-0.437,0.127,0.067,-72.244,17.664,118.527,0.0,40.0
242830,-0.438,0.316,0.052,-32.687,-17.840,97.267,0.0,30.0
242923,-0.341,0.295,0.274,-50.595,-53.954,140.702,0.0,0.0
243006,-0.183,1.119,1.089,153.595,-156.031,178.580,0.0,11.0
243090,0.752,2.000,2.000,-250.137,109.176,-11.412,0.0,16.0
243175,0.284,-0.027,1.714,-102.916,-34.000,63.206,0.0,44.0
243260,0.083,-0.327,0.848,-44.870,-50.802,48.214,0.0,50.0
243346,0.058,0.325,0.110,-13.206,-13.420,80.344,0.0,57.0
243431,-0.026,0.201,0.158,-94.595,3.908,17.534,0.0,57.0
243516,-0.115,0.208,0.542,-116.443,19.893,-76.641,131.0,57.0
243597,0.269,-0.181,1.148,-106.557,86.237,-96.053,127.0,56.0
243683,-0.041,0.003,1.218,178.153,204.229,-184.725,0.0,54.0
243759,-2.000,-0.894,2.000,250.130,-39.954,-76.137,63.0,13.0
243842,0.075,1.646,-0.299,-37.359,-10.977,-15.977,0.0,14.0
243928,0.123,0.032,0.061,-250.137,12.687,43.573,0.0,60.0
244009,-0.862,-0.515,0.865,-250.137,-6.573,19.702,117.0,64.0
244091,-0.211,-1.027,0.988,17.939,-21.954,98.443,121.0,65.0
244180,-0.294,-0.331,0.974,112.901,-19.656,-2.695,0.0,61.0
244261,-0.333,0.262,0.913,171.405,-18.641,18.130,121.0,59.0
244347,-0.203,0.490,0.904,120.405,-14.595,11.832,0.0,59.0
244431,-0.145,0.650,0.778,62.298,0.748,8.489,0.0,16.0
244514,-0.256,0.545,0.731,-51.656,0.847,-10.130,0.0,17.0
244600,-0.288,0.282,0.878,-90.046,-2.618,-5.137,0.0,58.0
244685,-0.281,0.085,1.037,-57.985,-0.985,-2.313,0.0,58.0
244771,-0.254,0.123,0.992,24.137,-2.237,2.718,0.0,58.0
244857,-0.235,0.292,0.910,29.168,-3.389,0.366,0.0,58.0
244946,-0.243,0.337,0.918,1.977,-1.107,-0.214,0.0,58.0
245031,-0.252,0.261,0.937,-15.565,0.229,0.130,0.0,58.0
245117,-0.249,0.214,0.944,-9.092,-0.099,0.214,0.0,58.0
245203,-0.244,0.236,0.958,6.527,-0.130,-0.412,0.0,58.0
245289,-0.234,0.267,0.936,2.061,0.878,0.160,0.0,58.0
245374,-0.247,0.239,0.925,-2.374,-0.359,0.771,0.0,58.0
245460,-0.257,0.238,0.938,4.519,-0.489,1.794,0.0,58.0
245547,-0.240,0.280,0.929,3.939,0.595,-0.130,0.0,58.0
245633,-0.241,0.263,0.943,-4.985,0.061,-0.450,0.0,58.0
245722,-0.251,0.243,0.939,0.870,-0.824,0.031,0.0,58.0
245807,-0.254,0.272,0.930,5.695,-0.145,0.137,0.0,58.0
245893,-0.243,0.266,0.939,-3.618,-0.496,-0.405,0.0,58.0
245979,-0.247,0.241,0.938,-0.313,-0.992,-0.405,0.0,58.0
246065,-0.252,0.263,0.934,2.450,-1.053,-0.412,0.0,58.0
246151,-0.240,0.259,0.941,-0.947,-1.191,0.038,0.0,58.0
246237,-0.244,0.254,0.945,0.580,-1.275,-0.198,0.0,58.0
246322,-0.246,0.267,0.937,2.137,-1.611,-0.038,0.0,58.0
246408,-0.240,0.273,0.931,2.176,-0.870,0.160,0.0,58.0
246494,-0.239,0.269,0.922,-0.885,-0.748,-0.214,0.0,58.0
246583,-0.244,0.261,0.944,0.336,-0.870,-0.344,0.0,58.0
246669,-0.235,0.267,0.943,1.656,-0.656,-0.473,0.0,58.0
246755,-0.240,0.273,0.930,0.053,-0.405,-0.237,0.0,58.0
246841,-0.240,0.267,0.940,-0.748,-0.588,-0.275,0.0,59.0
246927,-0.238,0.264,0.933,0.046,-0.580,-0.107,0.0,58.0
247013,-0.233,0.276,0.952,2.229,-0.382,-0.145,0.0,58.0
247099,-0.231,0.274,0.927,-0.496,-0.573,-0.305,0.0,58.0
247185,-0.241,0.267,0.938,-0.160,-0.298,-0.298,0.0,58.0
247271,-0.235,0.274,0.940,0.267,-0.527,-0.305,0.0,58.0
247360,-0.233,0.280,0.934,0.267,-0.542,-0.298,0.0,57.0
247446,-0.236,0.277,0.934,-1.221,0.053,-0.214,0.0,57.0
247532,-0.235,0.268,0.939,0.160,0.298,-0.382,0.0,58.0
247618,-0.242,0.256,0.940,2.405,0.031,-0.580,0.0,58.0
247704,-0.238,0.281,0.931,-0.847,-0.145,-0.534,0.0,58.0
247790,-0.236,0.267,0.944,-1.313,0.344,-0.603,0.0,58.0
247876,-0.241,0.275,0.941,0.870,-0.145,-0.420,0.0,58.0
247962,-0.234,0.271,0.937,0.168,0.000,-0.321,0.0,58.0
248048,-0.239,0.267,0.941,-0.962,0.092,-0.504,0.0,58.0
248137,-0.245,0.268,0.950,0.008,0.176,-0.366,0.0,58.0
248223,-0.238,0.265,0.938,-0.481,-0.817,-0.313,0.0,58.0
248309,-0.242,0.285,0.929,3.076,-0.634,-0.023,0.0,59.0
248395,-0.242,0.271,0.926,-1.824,-0.817,-0.198,0.0,58.0
248482,-0.244,0.269,0.944,1.344,-0.809,-0.344,0.0,58.0
248568,-0.238,0.287,0.928,0.954,-0.893,-0.298,0.0,57.0
248654,-0.239,0.268,0.938,-0.458,-0.626,-0.298,0.0,57.0
248740,-0.241,0.272,0.929,-0.534,-0.618,-0.443,0.0,57.0
248826,-0.233,0.270,0.943,1.023,-0.656,-0.374,0.0,57.0
248915,-0.233,0.266,0.938,0.420,-1.550,-0.221,0.0,57.0
249001,-0.232,0.285,0.933,0.802,-0.244,-0.198,0.0,57.0
249088,-0.230,0.279,0.930,-1.916,-0.618,-0.237,0.0,57.0
249174,-0.237,0.271,0.938,1.053,-0.420,-0.443,0.0,57.0
249261,-0.229,0.284,0.927,0.565,-0.679,-0.511,0.0,57.0
249347,-0.234,0.278,0.936,-0.489,-0.557,-0.382,0.0,57.0
249433,-0.239,0.271,0.941,0.069,-0.435,-0.191,0.0,57.0
249519,-0.238,0.284,0.931,-0.092,0.015,-0.176,0.0,58.0
249605,-0.233,0.274,0.936,-0.046,-0.458,-0.244,0.0,58.0
249700,-0.229,0.287,0.935,2.214,-0.397,-0.122,0.0,58.0
249785,-0.235,0.284,0.937,-1.779,0.214,-0.565,0.0,57.0
249870,-0.236,0.272,0.938,0.115,0.076,-0.519,0.0,57.0
249955,-0.239,0.282,0.924,-0.687,0.038,-0.511,0.0,57.0
250040,-0.235,0.280,0.939,-0.641,0.191,-0.473,0.0,57.0
250125,-0.240,0.284,0.939,-1.374,0.695,-1.359,0.0,57.0
250210,-0.245,0.271,0.926,-4.664,0.710,-0.786,0.0,58.0
250295,-0.235,0.256,0.948,-0.420,0.290,0.069,0.0,58.0
250381,-0.237,0.269,0.941,1.191,-0.916,-0.260,0.0,59.0
250469,-0.247,0.288,0.923,0.382,0.038,-0.267,0.0,58.0
250554,-0.236,0.253,0.943,-1.595,-0.557,-0.229,0.0,58.0
250639,-0.248,0.273,0.937,2.687,-0.733,-0.191,0.0,58.0
250724,-0.244,0.279,0.937,-0.160,-0.634,-0.069,0.0,58.0
250810,-0.228,0.260,0.934,-0.511,-0.656,-0.412,0.0,58.0
250895,-0.243,0.275,0.926,-0.443,-0.405,-0.794,0.0,58.0
250980,-0.245,0.278,0.935,-4.084,-0.168,-0.534,0.0,58.0
251066,-0.244,0.249,0.948,-2.626,-0.420,-0.534,0.0,58.0
251151,-0.249,0.261,0.944,4.702,-1.053,-0.191,0.0,58.0
251239,-0.236,0.282,0.935,-1.000,-0.557,-0.351,0.0,58.0
251324,-0.246,0.260,0.950,-0.550,-0.443,-0.580,0.0,58.0
251410,-0.236,0.275,0.936,1.313,-0.664,-0.168,0.0,59.0
251495,-0.237,0.264,0.935,-0.435,-0.687,-0.435,0.0,58.0
251581,-0.241,0.268,0.930,0.405,-0.519,-0.435,0.0,58.0
251666,-0.242,0.261,0.933,0.450,-0.611,-0.527,0.0,59.0
251751,-0.237,0.266,0.934,-0.168,-0.473,-0.374,0.0,59.0
251837,-0.237,0.270,0.935,-0.122,-0.267,-0.282,0.0,58.0
251922,-0.237,0.273,0.930,2.290,-0.168,-0.298,0.0,59.0
252010,-0.233,0.267,0.940,-0.977,-0.160,-0.420,0.0,58.0
252096,-0.240,0.260,0.936,0.076,0.145,-0.542,0.0,58.0
252181,-0.236,0.311,0.931,-10.847,5.641,0.252,0.0,58.0
252267,-0.249,0.203,0.946,-13.527,0.191,-1.023,0.0,58.0
252352,-0.244,0.198,0.969,8.214,-1.473,-0.130,0.0,58.0
252438,-0.250,0.289,0.935,5.557,0.824,-0.244,0.0,58.0
252523,-0.249,0.228,0.943,-8.008,0.580,-0.817,0.0,58.0
252608,-0.251,0.203,0.945,-0.397,-1.359,-0.481,0.0,58.0
252694,-0.254,0.269,0.933,0.947,1.992,-0.183,0.0,58.0
252779,-0.240,0.239,0.941,-3.481,-0.840,-0.221,0.0,58.0
252862,-0.247,0.215,0.954,5.702,-1.145,-0.305,0.0,58.0
252948,-0.255,0.248,0.932,2.305,-2.084,-0.656,0.0,58.0
253033,-0.242,0.233,0.948,-1.321,-0.855,-0.458,0.0,58.0
253119,-0.257,0.251,0.944,-0.160,0.023,-0.313,0.0,58.0
253204,-0.241,0.244,0.937,1.275,-1.420,-0.557,0.0,58.0
253290,-0.249,0.232,0.943,2.718,-1.435,-0.198,0.0,58.0
253375,-0.237,0.256,0.937,2.115,-1.740,-0.412,0.0,58.0
253461,-0.248,0.259,0.943,0.412,-0.763,-0.336,0.0,58.0
253546,-0.237,0.259,0.932,1.435,-0.847,-0.084,0.0,58.0
253635,-0.247,0.252,0.937,0.962,-0.794,-0.435,0.0,58.0
253720,-0.242,0.240,0.934,-0.756,-0.664,-0.458,0.0,58.0
253806,-0.240,0.252,0.949,1.084,-0.656,-0.145,0.0,58.0
253891,-0.238,0.261,0.932,-0.481,-0.473,-0.389,0.0,58.0
253977,-0.240,0.247,0.945,0.115,-0.344,-0.473,0.0,58.0
254062,-0.243,0.252,0.941,0.229,-0.282,-0.099,0.0,58.0
254148,-0.241,0.250,0.937,-0.305,-0.832,-0.511,0.0,58.0
254233,-0.240,0.261,0.951,0.282,-0.313,-0.206,0.0,58.0
254319,-0.231,0.258,0.960,-2.145,0.916,-0.336,0.0,58.0
254407,-0.256,0.265,0.965,-9.061,6.389,0.298,0.0,58.0
254493,-0.176,0.231,0.961,-6.863,5.145,2.656,0.0,57.0
254578,-0.274,0.324,1.066,-41.443,-17.282,-4.282,0.0,57.0
254660,-0.204,0.241,1.070,-20.588,-26.656,23.000,121.0,57.0
254741,-0.100,0.323,0.914,-74.954,-18.664,24.244,120.0,59.0
254822,-0.067,0.112,0.930,-131.954,1.267,25.336,108.0,62.0
254900,-0.193,-0.042,0.943,-111.145,-16.069,34.695,44.0,67.0
254981,-0.224,-0.204,0.878,-120.092,-25.061,53.046,102.0,74.0
255069,-0.258,-0.507,0.882,-98.214,-33.046,68.214,37.0,199.0
255153,-0.287,-0.377,0.651,-150.771,-34.389,65.046,33.0,0.0
255238,-0.286,-0.895,0.639,-146.382,-37.115,56.313,31.0,0.0
255320,-0.287,-0.807,0.431,-111.634,-29.389,51.771,27.0,167.0
255401,-0.301,-0.869,0.366,-79.824,-24.740,39.053,23.0,166.0
255483,-0.325,-0.910,0.262,-56.519,-25.229,28.527,26.0,166.0
255566,-0.304,-0.901,0.216,-31.305,-20.481,18.573,27.0,167.0
255648,-0.341,-0.905,0.199,-9.924,-14.115,11.397,24.0,168.0
255730,-0.366,-0.885,0.200,-3.710,-7.412,11.168,22.0,168.0
255815,-0.369,-0.911,0.254,-6.664,-1.382,8.802,21.0,169.0
255898,-0.382,-0.890,0.268,4.382,-1.008,5.557,22.0,177.0
255980,-0.365,-0.918,0.306,7.000,-0.992,5.534,21.0,179.0
256063,-0.381,-0.829,0.288,-4.336,-6.366,1.008,22.0,178.0
256146,-0.328,-0.858,0.316,10.611,-6.260,1.702,20.0,177.0
256229,-0.350,-0.892,0.320,-4.985,-0.924,2.420,20.0,0.0
256313,-0.384,-0.874,0.324,19.031,-0.366,3.000,19.0,0.0
256397,-0.477,-1.006,0.256,15.176,-10.443,-10.725,20.0,0.0
256483,-0.391,-0.925,0.171,67.985,8.267,-22.672,22.0,179.0
256566,-0.337,-0.736,0.204,88.626,37.412,-44.198,27.0,189.0
256651,-0.312,-0.603,0.264,146.351,35.282,-51.321,27.0,0.0
256735,-0.262,-0.714,0.575,77.916,57.947,-60.588,29.0,0.0
256829,-0.303,-0.613,0.703,86.336,90.053,-71.931,0.0,0.0
256913,-0.428,-0.678,1.010,228.565,86.427,-71.046,26.0,199.0
256995,-0.635,0.182,0.872,173.198,20.695,-73.985,118.0,62.0
257072,-0.538,0.091,0.969,89.214,-30.939,-32.153,45.0,57.0
257149,-0.401,0.027,0.896,49.840,-32.947,-13.031,49.0,55.0
257229,-0.345,-0.019,0.959,52.771,-22.962,-35.061,52.0,52.0
257315,-0.453,0.155,0.923,137.832,-68.427,-11.389,0.0,50.0
257408,-0.128,0.290,0.722,69.206,-27.649,-21.931,0.0,162.0
257494,-0.178,0.457,0.521,5.656,65.412,-23.435,0.0,50.0
257577,-0.327,0.465,0.675,-93.000,68.565,-41.015,0.0,38.0
257652,-0.432,0.140,0.901,-129.038,70.878,-40.580,17.0,36.0
257726,-0.560,-0.103,0.997,-96.145,50.878,-16.244,9.0,35.0
257800,-0.544,-0.146,1.035,-7.618,21.901,23.092,9.0,34.0
257873,-0.432,0.046,0.917,11.481,9.504,34.076,10.0,33.0
257950,-0.292,0.136,0.902,-12.504,12.908,30.901,12.0,32.0
258025,-0.239,0.055,0.852,19.695,18.053,31.374,16.0,33.0
258103,-0.266,0.097,0.561,172.702,32.664,33.260,12.0,102.0
258191,-0.430,0.516,0.358,116.763,116.466,1.046,0.0,103.0
258280,-1.041,0.397,0.526,-58.084,121.420,-43.405,0.0,103.0
258369,-1.680,0.249,0.290,42.115,105.901,-48.550,0.0,104.0
258457,-1.811,0.346,-0.125,-75.802,58.969,33.244,0.0,105.0
258546,-1.535,-0.157,0.226,-38.908,-30.931,49.229,0.0,105.0
258638,-1.096,0.082,0.045,110.565,6.985,17.924,0.0,104.0
258733,-0.880,0.282,-0.110,116.145,15.153,-64.145,0.0,0.0
258827,-0.670,0.292,-0.093,71.710,25.168,-101.206,0.0,195.0
258919,-0.706,0.187,0.019,45.023,22.702,-88.733,0.0,169.0
259008,-0.790,0.224,0.079,35.214,26.130,-21.954,0.0,105.0
259098,-0.812,0.184,0.250,8.160,-13.176,14.130,0.0,119.0
259187,-0.877,0.148,0.228,11.840,-15.206,47.168,0.0,121.0
259278,-0.952,0.237,0.125,-18.313,5.443,49.435,0.0,129.0
259368,-0.878,0.204,0.096,-83.534,22.580,46.130,0.0,138.0
259466,-0.858,0.182,0.065,-63.794,33.214,37.084,0.0,199.0
259557,-0.911,0.269,-0.168,-64.511,22.496,-16.931,0.0,129.0
259647,-1.116,0.201,-0.309,-54.313,-2.641,-14.725,0.0,127.0
259737,-0.809,0.208,-0.254,-25.939,8.473,25.603,0.0,125.0
259827,-0.824,0.325,-0.298,-24.992,25.313,2.008,0.0,123.0
259917,-0.984,0.255,-0.294,-11.527,19.855,-14.733,0.0,123.0
260007,-1.096,0.205,-0.275,28.878,19.573,19.244,0.0,123.0
260098,-1.018,0.243,-0.262,33.954,12.649,53.710,0.0,124.0
260188,-0.855,0.448,-0.169,4.496,-5.763,24.382,0.0,75.0
260278,-0.925,0.816,-0.163,-140.802,-1.084,-12.565,0.0,125.0
260367,-1.213,0.505,0.119,-210.863,-68.351,-19.214,0.0,110.0
260458,-1.173,0.427,0.333,-107.229,-129.153,87.931,0.0,134.0
260554,-0.634,0.473,0.200,-160.702,-142.771,59.863,0.0,143.0
260645,-0.465,0.116,0.533,-97.290,-97.115,28.672,0.0,152.0
260727,-0.382,0.240,0.641,-19.099,-49.275,15.191,44.0,157.0
260820,-0.375,0.322,0.705,-39.695,-15.901,3.160,0.0,0.0
260905,-0.475,0.246,0.862,-23.183,-6.137,4.588,44.0,0.0
260993,-0.457,0.092,0.941,-28.702,-10.336,2.237,45.0,0.0
261078,-0.328,0.191,0.860,-12.351,-12.664,-1.389,44.0,0.0
261161,-0.399,0.139,0.890,1.489,-1.038,-9.412,42.0,0.0
261246,-0.441,0.147,0.894,2.267,1.901,-12.351,43.0,0.0
261330,-0.371,0.150,0.871,6.069,9.618,-10.321,44.0,0.0
261424,-0.432,0.133,0.863,16.786,8.389,-14.015,0.0,0.0
261515,-0.719,-0.087,0.564,109.076,2.977,-49.985,0.0,162.0
261606,-0.113,0.044,0.033,250.130,30.260,-89.031,0.0,150.0
261696,-0.970,2.000,-0.014,75.710,87.802,-103.359,0.0,141.0
261789,-0.829,0.393,0.411,155.962,91.916,-52.221,0.0,138.0
261874,-0.869,0.593,-0.209,217.000,67.053,-74.649,0.0,58.0
261960,-1.133,0.432,-0.272,96.092,-30.672,-79.443,0.0,74.0
262046,-1.031,0.209,-0.203,97.664,-35.435,-18.084,0.0,68.0
262132,-0.946,0.296,-0.316,64.359,-17.931,25.092,0.0,65.0
262218,-0.847,0.342,-0.256,15.802,-16.771,7.618,0.0,59.0
262303,-0.845,0.314,-0.191,-9.542,-13.107,-6.458,0.0,55.0
262388,-0.772,0.319,-0.118,-44.405,-7.664,-13.298,0.0,51.0
262476,-0.860,0.305,-0.204,-89.947,-12.008,-11.855,0.0,48.0
262561,-0.741,0.251,-0.135,-92.473,-31.695,8.000,0.0,46.0
262646,-0.931,0.316,-0.133,-77.740,-84.046,26.015,0.0,50.0
262731,-1.325,0.302,-0.086,-58.611,-152.137,93.313,0.0,57.0
262825,-1.456,0.406,0.131,-97.702,-179.855,198.443,0.0,0.0
262901,-1.567,0.882,0.374,45.542,-250.137,37.282,34.0,63.0
262985,0.584,1.316,1.447,102.099,-243.359,-29.664,0.0,23.0
263069,0.906,1.214,1.033,-191.305,-69.359,-79.824,0.0,30.0
263162,0.082,0.078,0.024,-250.137,-126.115,-250.137,0.0,0.0
263250,0.294,-0.290,0.188,-1.092,-112.038,40.458,0.0,40.0
263344,0.794,0.253,-0.089,79.809,-80.573,123.611,0.0,0.0
263438,1.256,-0.092,0.654,-170.237,-3.855,-69.809,0.0,0.0
263525,0.571,-0.409,1.106,-90.137,146.389,-145.855,85.0,0.0
263618,-0.184,-0.094,0.963,122.687,169.328,-61.634,0.0,0.0
263712,-0.451,-0.264,1.649,-55.977,-16.382,11.969,0.0,0.0
263805,0.187,0.064,0.795,13.794,-9.786,35.595,0.0,0.0
263892,0.032,-0.188,1.015,-85.672,22.328,-9.489,81.0,0.0
263980,-0.047,-0.378,1.095,0.748,-1.458,-1.153,78.0,0.0
264069,0.038,-0.115,0.948,2.626,-1.405,1.565,78.0,0.0
264156,0.011,-0.162,0.990,0.252,-1.206,2.756,86.0,0.0
264243,0.002,-0.157,0.999,-3.733,0.290,-0.603,81.0,0.0
264330,0.005,-0.162,0.992,0.595,-0.519,-1.137,81.0,0.0
264417,0.011,-0.176,0.992,-1.023,-0.290,-0.275,81.0,0.0
264503,0.017,-0.166,0.993,0.718,-0.366,0.084,79.0,0.0
264590,0.006,-0.173,0.993,-0.008,-0.183,-0.435,80.0,0.0
264677,0.002,-0.164,0.997,-0.573,-0.313,-0.389,81.0,0.0
264764,0.008,-0.168,0.988,0.695,-0.427,-0.336,81.0,0.0
264854,0.000,-0.168,0.991,0.336,-0.443,-0.344,81.0,0.0
264940,0.010,-0.169,0.997,0.504,-0.458,-0.435,81.0,0.0
265027,0.008,-0.170,0.989,0.084,-0.099,-0.412,81.0,0.0
265114,0.009,-0.172,0.998,-0.664,-0.405,-0.473,81.0,0.0
265201,0.009,-0.169,0.986,0.359,-0.534,-0.282,81.0,0.0
265288,0.003,-0.169,0.997,-0.099,-0.382,-0.473,81.0,0.0
265375,0.013,-0.166,0.995,-0.443,-0.374,-0.275,82.0,0.0
265462,0.008,-0.173,1.000,0.603,-0.527,-0.450,81.0,0.0
265549,0.004,-0.178,0.985,0.084,-0.450,-0.366,81.0,0.0
265639,0.012,-0.174,0.993,-0.733,-0.221,-0.420,81.0,0.0
265726,0.004,-0.174,0.998,0.023,-0.260,-0.290,81.0,0.0
265812,0.007,-0.170,0.991,-0.008,-0.298,-0.260,81.0,0.0
265900,0.006,-0.170,0.987,-0.321,-0.328,-0.427,81.0,0.0
265987,0.008,-0.175,0.985,-0.069,-0.435,-0.466,81.0,0.0
266074,0.005,-0.181,0.994,-0.511,-0.328,-0.458,80.0,0.0
266161,0.012,-0.179,0.978,-0.649,-0.191,-0.374,81.0,0.0
266248,-0.078,-0.226,1.079,5.206,-3.710,6.954,81.0,0.0
266335,-0.035,-0.146,1.291,63.374,-20.939,63.878,82.0,0.0
266441,0.344,0.619,0.934,-12.939,27.634,76.214,0.0,0.0
266537,0.063,-0.099,0.850,-189.992,18.069,34.290,0.0,0.0
266626,-0.053,-0.560,0.771,-27.855,-48.359,51.771,55.0,0.0
266714,0.036,0.033,0.500,148.099,-53.145,127.626,53.0,0.0
266798,-0.081,-0.160,0.779,-94.611,-32.779,72.084,51.0,133.0
266885,-0.152,-0.799,1.104,-37.435,-18.496,64.038,42.0,0.0
266973,-0.221,-0.273,1.085,4.115,-13.863,40.000,39.0,0.0
267060,-0.116,-0.480,1.064,-10.634,1.244,46.756,37.0,0.0
267146,-0.073,-0.667,0.982,-47.328,-11.740,33.183,36.0,0.0
267237,-0.040,-0.547,0.951,-28.649,-18.664,22.382,39.0,0.0
267324,-0.024,-0.534,0.922,15.863,-25.504,13.878,38.0,0.0
267411,0.032,-0.313,0.848,14.679,-24.305,11.466,41.0,0.0
267498,0.049,-0.458,0.861,-1.542,-27.664,12.458,41.0,0.0
267586,0.003,-0.427,0.870,-7.756,-21.160,4.550,45.0,0.0
267673,0.001,-0.327,0.807,15.916,-34.771,6.985,42.0,0.0
267761,0.221,-0.509,0.903,-15.023,-17.229,4.649,42.0,0.0
267849,0.124,-0.442,0.918,-10.832,-4.534,-5.977,52.0,0.0
267939,0.152,-0.436,0.870,-4.786,-11.282,-10.221,46.0,0.0
268027,0.256,-0.445,0.825,25.649,6.916,-11.824,49.0,199.0
268115,0.156,-0.381,0.949,-0.977,3.832,-3.603,53.0,197.0
268203,0.211,-0.406,0.907,7.542,-5.183,-4.305,48.0,195.0
268289,0.211,-0.381,0.875,11.038,1.466,-2.954,48.0,170.0
268377,0.172,-0.395,0.950,14.565,1.977,-2.802,49.0,192.0
268464,0.184,-0.341,0.893,11.313,-0.466,-8.573,48.0,191.0
268550,0.181,-0.346,0.925,18.099,0.069,-7.351,48.0,164.0
268631,0.181,-0.330,0.924,13.695,5.626,-10.168,50.0,71.0
268713,0.192,-0.258,0.928,7.855,10.267,-9.908,47.0,68.0
268794,0.224,-0.199,0.915,20.679,10.740,-8.145,49.0,68.0
268874,0.185,-0.221,0.969,27.740,10.779,-5.824,49.0,64.0
268954,0.141,-0.210,0.979,16.588,12.656,-4.786,49.0,63.0
269034,0.146,-0.173,0.968,16.427,15.084,-4.298,49.0,60.0
269114,0.100,-0.159,0.970,17.290,14.504,-3.053,50.0,58.0
269194,0.055,-0.142,0.998,20.939,13.046,-8.336,50.0,57.0
269274,0.037,-0.080,1.004,15.412,15.626,-13.458,50.0,56.0
269353,0.040,-0.061,1.002,17.191,15.901,-6.771,59.0,54.0
269436,-0.004,-0.065,1.050,11.947,15.595,-3.519,51.0,53.0
