Timestamp(ms),AccelX(g),AccelY(g),AccelZ(g),GyroX(deg/s),GyroY(deg/s),GyroZ(deg/s),DistanceLeft(cm),DistanceRight(cm)
98228,-0.953,-0.078,0.062,3.565,-10.405,9.290,0.0,0.0
98321,-0.953,-0.041,0.122,8.321,-7.221,-7.916,0.0,0.0
98415,-0.896,0.288,0.159,-36.122,-1.336,-17.282,0.0,0.0
98508,-1.114,0.303,0.146,-102.565,-50.137,-15.237,0.0,0.0
98601,-1.065,0.440,0.200,-86.977,-73.275,58.931,0.0,0.0
98696,-0.908,0.143,0.400,-124.412,-81.000,46.664,0.0,0.0
98789,-0.699,0.140,0.559,-45.992,-75.351,57.969,0.0,0.0
98878,-0.671,0.286,0.661,-32.695,-48.115,30.580,46.0,0.0
98963,-0.605,0.218,0.752,-19.863,-46.328,21.725,48.0,0.0
99056,-0.480,0.289,0.760,-16.710,-38.489,21.305,193.0,0.0
99149,-0.425,0.261,0.833,-9.977,-28.298,11.328,193.0,0.0
99243,-0.456,0.260,0.841,5.802,-18.412,-1.031,194.0,0.0
99337,-0.451,0.231,0.844,3.351,-10.908,-4.687,0.0,0.0
99431,-0.441,0.242,0.830,8.359,-3.931,-3.641,0.0,0.0
99516,-0.421,0.236,0.773,19.000,5.198,-4.679,41.0,0.0
99601,-0.367,0.100,0.640,64.282,37.969,-26.397,41.0,0.0
99698,-0.440,-0.064,0.415,198.305,113.099,-71.756,0.0,0.0
99791,-1.144,0.296,-0.141,250.130,137.481,-153.198,0.0,0.0
99886,-1.399,0.564,-0.089,160.702,54.366,-148.351,0.0,0.0
99979,-1.183,0.357,-0.031,57.076,23.611,-61.840,0.0,189.0
100073,-0.960,0.388,0.017,32.351,12.290,-16.176,0.0,186.0
100166,-0.937,0.335,0.032,-17.954,2.496,-21.443,0.0,184.0
100259,-1.020,0.172,0.073,1.107,-20.214,17.405,0.0,185.0
100353,-1.016,0.227,0.004,-0.015,-35.519,56.282,0.0,188.0
100447,-0.992,0.205,-0.007,-13.191,-40.191,73.748,0.0,0.0
100549,-0.919,0.240,-0.007,-10.473,-27.237,62.229,0.0,0.0
100642,-0.839,0.267,0.008,-13.252,-5.099,28.168,0.0,0.0
100736,-0.831,0.302,0.008,-28.519,21.580,-17.366,0.0,0.0
100828,-0.896,0.269,0.024,-32.466,35.710,-52.687,0.0,0.0
100921,-1.026,0.234,0.041,-21.687,33.328,-57.160,0.0,0.0
101014,-1.029,0.230,0.053,-12.115,20.481,-31.458,0.0,199.0
101107,-1.004,0.232,0.061,-14.069,3.229,-5.038,0.0,198.0
101200,-1.000,0.212,0.051,-1.466,-11.031,14.985,0.0,199.0
101293,-0.998,0.234,0.020,7.947,-20.115,26.489,0.0,0.0
101389,-0.948,0.248,0.005,5.282,-19.366,27.901,0.0,0.0
101482,-0.924,0.258,-0.006,-0.298,-10.962,17.115,0.0,0.0
101575,-0.898,0.261,0.014,-4.588,1.802,0.191,0.0,0.0
101667,-0.938,0.259,0.041,-7.733,11.115,-14.412,0.0,0.0
101761,-1.014,0.265,0.075,-23.702,15.351,-21.191,0.0,0.0
101854,-0.960,0.227,0.132,-26.420,14.282,-12.206,0.0,0.0
101947,-0.897,0.303,0.105,-65.229,22.542,-11.710,0.0,0.0
102040,-0.897,0.217,0.117,-90.176,19.092,-7.389,0.0,0.0
102133,-0.869,0.222,0.043,-114.458,6.420,9.076,0.0,0.0
102230,-0.984,0.162,-0.008,-75.084,-1.893,22.466,0.0,0.0
102322,-1.011,0.321,-0.149,-51.267,7.855,8.511,0.0,0.0
102415,-1.209,0.295,-0.199,-88.779,14.885,-14.878,190.0,0.0
102507,-0.940,0.124,-0.053,-43.985,11.573,34.435,185.0,0.0
102599,-0.825,0.303,-0.066,-38.137,25.420,37.542,181.0,0.0
102690,-0.904,0.196,-0.008,-44.260,11.969,10.191,177.0,0.0
102782,-0.939,0.192,-0.017,30.534,-4.115,-1.290,174.0,0.0
102875,-0.896,0.294,-0.084,19.939,-10.725,-14.931,172.0,0.0
102966,-0.974,0.271,-0.043,-9.870,-19.427,-25.313,170.0,0.0
103060,-1.035,0.176,0.066,45.878,-20.771,-15.160,167.0,0.0
103151,-1.003,0.845,0.282,-40.321,118.412,-39.176,164.0,0.0
103242,-0.696,-0.201,0.928,-37.534,-70.649,-13.885,159.0,0.0
103333,-0.486,0.658,0.165,207.214,-14.969,39.763,158.0,0.0
103424,-1.041,0.037,0.065,-250.137,-27.656,0.336,152.0,0.0
103514,-0.657,-0.116,0.284,205.855,-48.496,130.061,147.0,0.0
103607,-0.666,1.128,-0.292,45.618,-7.176,41.962,0.0,0.0
103700,-0.992,0.239,0.075,-29.336,35.885,21.527,0.0,0.0
103796,-0.968,0.436,0.117,75.046,8.176,37.756,0.0,0.0
103889,-0.689,0.634,0.225,35.588,-1.740,49.893,0.0,0.0
103983,-0.514,0.654,0.189,80.962,-42.008,27.855,0.0,0.0
104070,-0.320,0.807,0.085,92.924,-45.725,36.824,0.0,89.0
104163,-0.344,1.194,-0.074,55.504,-74.328,53.840,0.0,0.0
104249,-0.484,1.013,-0.224,-82.305,-123.870,44.534,0.0,75.0
104335,-0.489,-0.163,-0.321,-110.252,-35.634,-54.847,0.0,72.0
104421,-1.387,-0.314,2.000,-158.313,-73.679,-1.878,69.0,0.0
104496,-0.510,0.303,0.369,-114.122,-76.321,-14.786,23.0,57.0
104583,-0.604,-0.408,1.571,-53.427,-134.611,17.214,24.0,0.0
104666,-0.387,-0.029,1.593,76.466,-64.145,38.229,31.0,0.0
104750,0.195,0.639,1.645,-122.076,10.313,-53.824,31.0,0.0
104834,-0.046,0.496,-0.140,36.397,78.267,11.015,30.0,0.0
104927,-0.308,1.091,-0.118,67.786,-2.023,75.099,0.0,0.0
105020,-0.148,0.688,1.008,92.786,-5.374,24.145,0.0,0.0
105113,-0.558,-0.707,1.033,164.076,-12.321,2.137,0.0,0.0
105206,-0.722,0.587,-0.762,25.954,-68.702,-249.489,0.0,0.0
105299,-1.135,1.425,-0.364,-43.313,-36.611,-173.504,0.0,0.0
105391,-0.777,0.855,-0.031,-95.206,16.695,-76.237,0.0,0.0
105484,-0.583,0.474,-0.199,-1.023,17.000,-45.679,0.0,198.0
105573,-0.706,0.503,-0.109,25.649,32.519,-86.695,124.0,198.0
105666,-1.063,0.477,-0.147,-25.099,93.893,-98.817,198.0,190.0
105754,-1.038,0.370,-0.007,22.641,16.489,-3.878,130.0,188.0
105840,-1.014,0.380,0.123,-14.191,-17.519,-0.511,75.0,187.0
105921,-0.923,0.419,-0.445,65.565,27.198,-0.969,75.0,102.0
106007,-1.000,-0.014,-0.227,-56.725,4.550,-8.870,74.0,188.0
106095,-0.878,0.516,-0.231,15.756,-11.855,15.115,75.0,187.0
106181,-0.946,0.212,-0.041,3.107,-0.282,-4.824,75.0,187.0
106266,-0.944,0.242,-0.222,5.870,0.565,-11.779,75.0,187.0
106352,-0.952,0.229,-0.203,1.809,-1.809,6.847,74.0,187.0
106438,-0.930,0.350,-0.220,-3.053,-0.206,12.557,75.0,187.0
106523,-0.930,0.269,-0.105,2.412,-3.450,-1.870,75.0,187.0
106609,-0.917,0.316,-0.170,6.611,0.679,-3.069,75.0,188.0
106694,-0.930,0.269,-0.200,3.992,1.344,-1.290,75.0,187.0
106780,-0.926,0.292,-0.220,-2.718,-3.015,4.405,75.0,187.0
106869,-0.916,0.317,-0.161,0.473,-2.893,4.069,75.0,187.0
106954,-0.922,0.334,-0.172,-0.237,0.672,-0.183,75.0,187.0
107040,-0.939,0.276,-0.154,-1.366,1.611,-0.069,75.0,187.0
107125,-0.929,0.291,-0.191,0.061,-2.267,0.901,75.0,187.0
107211,-0.924,0.321,-0.203,1.664,-4.053,-0.015,75.0,187.0
107297,-0.922,0.292,-0.129,-0.031,-1.947,-3.519,75.0,187.0
107383,-0.907,0.368,-0.174,2.885,-1.267,3.214,75.0,187.0
107469,-0.921,0.326,-0.158,-1.519,-0.321,0.870,75.0,187.0
107558,-0.912,0.350,-0.176,-1.557,0.565,-0.779,75.0,187.0
107644,-0.924,0.309,-0.180,-1.374,2.076,-0.290,75.0,187.0
107730,-0.922,0.313,-0.150,-0.969,0.901,-1.473,75.0,187.0
107816,-0.921,0.323,-0.194,-0.786,1.489,2.695,75.0,187.0
107902,-0.931,0.291,-0.158,-1.534,-0.427,1.878,75.0,187.0
107988,-0.917,0.334,-0.175,-1.763,-1.931,0.435,76.0,187.0
108075,-0.921,0.339,-0.160,-0.336,-1.458,-0.053,75.0,187.0
108161,-0.920,0.331,-0.160,-0.809,1.580,-1.275,75.0,187.0
108247,-0.919,0.339,-0.186,0.382,0.015,0.511,75.0,187.0
108336,-0.921,0.330,-0.163,-1.313,-1.435,0.092,75.0,187.0
108422,-0.924,0.332,-0.168,0.634,-0.519,-0.824,75.0,187.0
108508,-0.927,0.319,-0.179,2.031,-0.672,-0.542,75.0,187.0
108594,-0.922,0.306,-0.166,1.626,-0.947,-0.046,75.0,187.0
108680,-0.926,0.309,-0.162,-0.992,0.206,-0.985,76.0,187.0
108766,-0.924,0.305,-0.160,-0.504,0.534,-0.840,75.0,187.0
108852,-0.923,0.326,-0.179,0.153,-1.046,-0.595,76.0,187.0
108938,-0.924,0.320,-0.175,3.588,-0.893,-0.802,75.0,187.0
109024,-0.924,0.315,-0.177,0.771,0.015,-0.221,75.0,187.0
109114,-0.916,0.319,-0.181,0.015,-0.832,-0.084,75.0,187.0
109200,-0.921,0.331,-0.173,0.924,-0.344,0.099,75.0,187.0
109286,-0.922,0.312,-0.161,-0.198,-0.023,-0.855,75.0,187.0
109372,-0.925,0.329,-0.183,-0.099,-1.099,0.275,75.0,187.0
109458,-0.922,0.322,-0.176,1.550,-0.824,-0.107,75.0,187.0
109544,-0.922,0.305,-0.175,0.626,-0.344,-0.534,75.0,187.0
109631,-0.922,0.312,-0.166,0.611,-0.290,0.168,75.0,187.0
109717,-0.923,0.325,-0.180,-1.168,-0.557,-0.634,75.0,187.0
109806,-0.917,0.333,-0.178,-0.374,-0.366,-1.527,76.0,188.0
109892,-0.915,0.340,-0.177,0.641,-0.573,-0.794,76.0,188.0
109979,-0.918,0.337,-0.180,0.870,-0.702,-0.023,76.0,188.0
110065,-0.919,0.321,-0.178,-0.573,-0.962,-0.122,75.0,188.0
110151,-0.929,0.318,-0.174,-0.817,-0.611,-0.931,75.0,188.0
110237,-0.925,0.308,-0.176,0.511,-0.214,-0.626,75.0,188.0
110324,-0.926,0.317,-0.176,0.252,-0.672,-0.305,75.0,188.0
110410,-0.926,0.324,-0.178,0.992,-0.588,-0.229,75.0,187.0
110496,-0.921,0.322,-0.183,0.092,-0.198,-0.305,75.0,188.0
110586,-0.925,0.326,-0.183,0.733,-0.733,-0.435,75.0,188.0
110672,-0.928,0.319,-0.166,0.015,-0.137,-0.076,75.0,188.0
110758,-0.921,0.312,-0.176,-0.061,-0.229,-0.267,75.0,188.0
110845,-0.927,0.308,-0.166,0.351,-0.252,-0.229,76.0,188.0
110931,-0.927,0.310,-0.162,-0.122,-0.389,-0.038,75.0,188.0
111017,-0.926,0.310,-0.167,0.473,-0.305,-0.198,75.0,187.0
111104,-0.926,0.316,-0.177,0.672,-0.618,-0.870,75.0,187.0
111191,-0.919,0.321,-0.169,0.565,-0.664,-0.061,76.0,187.0
111277,-0.920,0.323,-0.177,0.718,-0.786,0.008,75.0,187.0
111367,-0.922,0.312,-0.165,-0.115,-0.534,-0.435,76.0,187.0
111453,-0.919,0.325,-0.175,0.405,-0.557,-0.649,75.0,187.0
111539,-0.921,0.325,-0.182,1.305,-0.718,-0.321,76.0,187.0
111626,-0.925,0.309,-0.175,0.137,-0.595,0.015,75.0,187.0
111712,-0.921,0.312,-0.170,-0.107,-0.366,-0.237,75.0,187.0
111803,-0.921,0.314,-0.175,-0.740,-0.878,-0.366,75.0,187.0
111888,-0.922,0.319,-0.177,-0.008,-0.336,0.275,75.0,187.0
111974,-0.927,0.313,-0.171,1.351,-0.313,-0.420,75.0,187.0
112062,-0.924,0.304,-0.163,-0.160,0.015,-0.313,75.0,187.0
112147,-0.924,0.313,-0.175,-0.115,-0.557,-0.443,75.0,187.0
112233,-0.917,0.321,-0.183,-0.351,-0.962,0.832,75.0,187.0
112318,-0.911,0.340,-0.171,0.115,-0.511,0.092,76.0,187.0
112403,-0.921,0.326,-0.172,0.458,0.023,-1.389,76.0,187.0
112489,-0.925,0.307,-0.174,-0.145,-0.336,-0.611,75.0,187.0
112574,-0.926,0.304,-0.163,-0.267,-0.893,0.458,76.0,187.0
112660,-0.924,0.312,-0.160,0.115,-0.427,-0.580,76.0,187.0
112745,-0.924,0.310,-0.163,0.809,-0.145,-0.641,76.0,187.0
112833,-0.923,0.323,-0.183,0.603,-1.076,-0.191,76.0,187.0
112919,-0.923,0.318,-0.163,1.214,-0.679,-0.336,76.0,187.0
113004,-0.918,0.303,-0.172,-0.061,-0.427,-0.832,76.0,187.0
113090,-0.922,0.318,-0.164,-0.229,-0.504,-0.435,76.0,187.0
113175,-0.924,0.323,-0.180,-0.137,-0.443,-0.412,75.0,187.0
113261,-0.925,0.317,-0.177,0.206,-0.473,-0.328,76.0,187.0
113346,-0.923,0.320,-0.179,0.977,-0.702,0.115,76.0,187.0
113432,-0.922,0.317,-0.163,-0.092,-0.206,-0.450,76.0,187.0
113517,-0.929,0.324,-0.172,-0.160,-0.473,-0.412,76.0,187.0
113605,-0.922,0.312,-0.159,-0.038,-0.153,-0.573,76.0,187.0
113691,-0.926,0.312,-0.172,-0.435,0.038,-0.863,76.0,187.0
113776,-0.925,0.306,-0.169,-0.282,-0.328,-0.053,75.0,187.0
113862,-0.922,0.327,-0.174,0.534,-0.969,-0.443,76.0,187.0
113947,-0.919,0.318,-0.178,0.466,0.023,-0.252,75.0,187.0
114033,-0.922,0.306,-0.168,-0.092,-0.198,-0.008,76.0,187.0
114118,-0.927,0.315,-0.155,-0.695,-0.817,-0.656,75.0,187.0
114204,-0.919,0.332,-0.180,-0.023,0.031,-0.405,75.0,187.0
114292,-0.916,0.341,-0.176,0.260,-0.458,-0.534,75.0,187.0
114378,-0.917,0.334,-0.188,0.122,-0.290,-0.427,75.0,187.0
114464,-0.921,0.335,-0.176,-0.145,0.084,-0.191,76.0,187.0
114549,-0.922,0.326,-0.174,-0.122,-0.092,-0.328,76.0,187.0
114635,-0.928,0.304,-0.173,-0.527,-0.221,-0.084,76.0,187.0
114721,-0.927,0.308,-0.160,-0.855,-0.046,-0.969,75.0,187.0
114806,-0.925,0.309,-0.170,-0.466,-0.641,-1.115,76.0,187.0
114892,-0.923,0.315,-0.179,0.031,-0.389,-0.382,76.0,187.0
114978,-0.926,0.318,-0.166,0.252,-0.008,-0.069,76.0,187.0
115066,-0.920,0.315,-0.175,-0.298,-0.427,-0.527,76.0,187.0
115152,-0.923,0.323,-0.172,-0.267,-0.237,-0.282,76.0,187.0
115238,-0.922,0.316,-0.174,-0.534,-0.092,-0.359,76.0,187.0
115323,-0.925,0.327,-0.167,-0.031,-1.046,-0.931,76.0,187.0
115409,-0.922,0.331,-0.175,0.176,-0.099,-0.359,75.0,187.0
115495,-0.924,0.321,-0.176,0.595,-0.359,0.046,76.0,188.0
115581,-0.923,0.316,-0.179,0.298,-0.328,0.611,75.0,187.0
115666,-0.917,0.313,-0.165,0.496,-0.107,-0.244,75.0,187.0
115756,-0.921,0.325,-0.182,0.542,-0.321,-0.076,75.0,187.0
115842,-0.921,0.323,-0.167,0.275,-0.519,0.137,76.0,187.0
115927,-0.923,0.310,-0.180,-0.214,-0.107,0.214,75.0,187.0
116013,-0.920,0.328,-0.176,-0.046,-0.153,-0.382,76.0,187.0
116099,-0.920,0.316,-0.180,0.275,-0.336,-0.695,75.0,187.0
116185,-0.917,0.323,-0.179,0.298,-0.695,-0.473,75.0,187.0
116271,-0.916,0.321,-0.177,0.221,-0.420,-0.076,75.0,187.0
116356,-0.921,0.312,-0.175,0.412,-0.267,-0.336,75.0,187.0
116442,-0.930,0.318,-0.178,0.191,-0.206,0.137,75.0,187.0
116531,-0.920,0.317,-0.170,0.351,-0.725,-0.565,75.0,187.0
116617,-0.926,0.328,-0.187,0.160,-0.557,-0.076,75.0,187.0
116703,-0.920,0.321,-0.177,-0.031,-0.580,-0.076,75.0,187.0
116789,-0.920,0.312,-0.169,0.092,-0.687,-0.542,75.0,187.0
116874,-0.927,0.308,-0.161,-0.359,-0.443,-0.481,75.0,187.0
116960,-0.926,0.307,-0.171,-0.450,-0.328,-0.244,75.0,187.0
117046,-0.927,0.305,-0.161,0.084,-0.511,-0.573,76.0,187.0
117132,-0.921,0.320,-0.173,0.443,-0.595,-0.344,76.0,187.0
117218,-0.922,0.319,-0.167,0.374,-0.275,-0.038,76.0,187.0
117307,-0.918,0.316,-0.170,0.229,-0.282,-0.313,77.0,187.0
117393,-0.921,0.321,-0.167,-0.099,-0.427,-0.298,76.0,187.0
117479,-0.919,0.320,-0.159,-0.107,-0.420,0.053,76.0,187.0
117564,-0.921,0.324,-0.164,-0.153,-0.405,-0.733,76.0,187.0
117650,-0.924,0.321,-0.181,-0.168,-0.214,-0.435,76.0,187.0
117736,-0.927,0.314,-0.165,-0.176,-0.183,-0.450,76.0,187.0
117822,-0.923,0.313,-0.172,-0.214,-0.244,-0.649,76.0,187.0
117908,-0.924,0.314,-0.171,0.031,-0.450,-0.534,75.0,187.0
117997,-0.917,0.316,-0.172,0.290,-0.351,-0.481,75.0,187.0
118083,-0.921,0.314,-0.171,-0.382,-0.321,-0.145,76.0,187.0
118169,-0.920,0.315,-0.177,-0.725,-0.450,-0.313,75.0,187.0
118255,-0.923,0.315,-0.163,-0.496,-0.336,-0.710,75.0,187.0
118341,-0.921,0.309,-0.172,-0.237,-0.336,-0.534,75.0,187.0
118427,-0.923,0.315,-0.170,0.137,-0.458,-0.397,75.0,187.0
118513,-0.927,0.317,-0.170,-0.038,-0.359,-0.603,75.0,187.0
118599,-0.921,0.317,-0.167,0.084,-0.580,-0.405,75.0,187.0
118685,-0.924,0.312,-0.167,-0.405,-0.214,-0.489,75.0,187.0
118775,-0.926,0.302,-0.163,0.000,-0.656,-0.542,75.0,188.0
118860,-0.924,0.317,-0.163,0.069,-0.527,-0.397,75.0,187.0
118946,-0.918,0.318,-0.175,-0.084,-0.366,-0.115,75.0,187.0
119033,-0.922,0.315,-0.164,0.504,-0.336,-0.260,75.0,187.0
119119,-0.923,0.324,-0.183,0.908,-0.374,-0.237,75.0,187.0
119205,-0.920,0.320,-0.180,0.832,-0.496,0.214,75.0,187.0
119291,-0.923,0.319,-0.173,0.748,-0.634,-0.092,76.0,187.0
119377,-0.925,0.309,-0.174,1.031,-0.069,-0.389,76.0,187.0
119463,-0.924,0.319,-0.172,0.847,-0.344,0.244,75.0,187.0
119553,-0.918,0.327,-0.173,0.718,-0.328,-0.038,75.0,187.0
119639,-0.923,0.322,-0.166,0.229,-0.237,0.000,75.0,187.0
119725,-0.923,0.317,-0.178,0.229,-0.389,-0.244,75.0,187.0
119811,-0.924,0.307,-0.166,0.550,-0.420,-0.107,75.0,187.0
119897,-0.926,0.319,-0.173,0.374,-0.481,-0.061,75.0,187.0
119984,-0.921,0.314,-0.164,0.115,-0.267,-0.122,76.0,187.0
120070,-0.923,0.321,-0.177,0.954,-0.954,0.366,76.0,187.0
120156,-0.916,0.327,-0.170,0.534,-0.229,-0.420,75.0,187.0
120245,-0.922,0.328,-0.172,0.267,0.084,-0.084,76.0,187.0
120331,-0.921,0.325,-0.179,0.176,-0.275,0.076,76.0,187.0
120418,-0.924,0.315,-0.173,-0.244,-0.107,-0.405,75.0,187.0
120504,-0.925,0.323,-0.169,0.046,-0.290,-0.550,76.0,187.0
120590,-0.920,0.323,-0.171,0.214,-0.336,-0.450,76.0,187.0
120676,-0.921,0.316,-0.172,0.313,-0.496,-0.397,75.0,187.0
120762,-0.917,0.330,-0.177,0.061,-0.237,-0.328,75.0,187.0
120849,-0.925,0.325,-0.181,-0.405,-0.336,-0.504,75.0,187.0
120935,-0.922,0.320,-0.173,-0.656,-0.275,-0.107,75.0,187.0
121024,-0.919,0.325,-0.178,0.099,-0.344,-0.351,76.0,187.0
121111,-0.917,0.323,-0.177,0.069,-0.229,-0.260,75.0,187.0
121197,-0.922,0.317,-0.173,-0.214,-0.160,-0.176,75.0,187.0
121283,-0.929,0.313,-0.173,0.176,-0.511,-0.351,76.0,187.0
121369,-0.922,0.314,-0.177,0.450,-0.267,-0.069,75.0,187.0
121456,-0.927,0.319,-0.173,0.550,-0.397,-0.168,75.0,187.0
121542,-0.920,0.317,-0.177,0.282,-0.466,0.130,75.0,187.0
121628,-0.922,0.320,-0.185,0.947,-0.656,0.214,76.0,187.0
121715,-0.919,0.324,-0.182,1.122,-0.382,0.015,75.0,187.0
121804,-0.919,0.330,-0.180,0.115,-0.328,-0.130,75.0,187.0
121891,-0.917,0.332,-0.175,-0.061,-0.489,-0.328,75.0,187.0
121977,-0.923,0.318,-0.175,0.282,-0.603,-0.260,75.0,187.0
122063,-0.913,0.330,-0.188,0.802,-0.603,-0.252,76.0,187.0
122150,-0.919,0.331,-0.182,0.481,-0.473,-0.252,75.0,187.0
122236,-0.917,0.326,-0.172,0.107,-0.427,-0.160,76.0,187.0
122322,-0.920,0.328,-0.179,-0.076,-0.450,-0.458,75.0,187.0
122409,-0.929,0.321,-0.174,0.603,-0.817,-0.305,75.0,187.0
122499,-0.927,0.317,-0.162,0.534,-0.260,-0.290,75.0,187.0
122586,-0.931,0.306,-0.161,0.076,-0.374,-0.611,75.0,187.0
122672,-0.921,0.306,-0.168,0.198,-0.672,-0.221,75.0,187.0
122763,-0.927,0.323,-0.177,0.809,-0.641,-0.275,75.0,187.0
122849,-0.920,0.311,-0.176,0.718,-0.244,-0.099,75.0,187.0
122934,-0.928,0.312,-0.166,0.061,-0.344,-0.305,75.0,187.0
123019,-0.931,0.326,-0.166,0.069,-0.382,-0.718,75.0,187.0
123105,-0.927,0.326,-0.173,-0.328,-0.481,-0.405,75.0,187.0
123190,-0.919,0.329,-0.181,-0.267,-0.313,-0.855,75.0,187.0
123278,-0.921,0.329,-0.175,-0.656,-0.344,-0.756,75.0,187.0
123364,-0.923,0.329,-0.173,-0.679,-0.305,-0.366,76.0,187.0
123449,-0.920,0.327,-0.162,-0.504,-0.221,-0.557,75.0,187.0
123535,-0.923,0.338,-0.175,-0.076,-0.534,-0.557,75.0,187.0
123620,-0.923,0.324,-0.169,0.008,-0.252,-0.221,76.0,187.0
123706,-0.922,0.312,-0.168,-0.374,-0.435,-0.481,75.0,187.0
123791,-0.923,0.323,-0.168,0.038,-0.481,-0.443,75.0,187.0
123877,-0.918,0.326,-0.179,0.679,-0.550,-0.450,75.0,187.0
123962,-0.920,0.325,-0.175,0.435,-0.466,-0.191,75.0,187.0
124051,-0.922,0.335,-0.175,0.420,-0.298,0.076,75.0,187.0
124136,-0.926,0.323,-0.171,0.046,-0.328,-0.344,75.0,187.0
124221,-0.924,0.323,-0.167,0.229,-0.374,-0.351,76.0,187.0
124307,-0.920,0.319,-0.175,0.076,-0.527,-0.168,75.0,187.0
124393,-0.927,0.325,-0.173,0.130,-0.473,-0.298,75.0,187.0
124478,-0.922,0.321,-0.166,0.344,-0.084,-0.115,75.0,187.0
124564,-0.921,0.307,-0.170,1.099,-0.412,0.160,75.0,187.0
124649,-0.926,0.317,-0.173,0.809,-0.504,0.061,75.0,187.0
124737,-0.920,0.317,-0.170,0.649,-0.191,-0.466,75.0,187.0
124823,-0.917,0.327,-0.184,0.649,-0.466,0.000,76.0,187.0
124909,-0.921,0.322,-0.181,0.740,-0.412,0.000,76.0,187.0
124994,-0.919,0.313,-0.163,0.733,-0.397,0.069,75.0,187.0
125080,-0.922,0.319,-0.163,0.496,-0.290,-0.489,75.0,187.0
125165,-0.927,0.315,-0.180,0.221,-0.351,-0.435,75.0,187.0
125251,-0.923,0.319,-0.167,-0.214,-0.550,-0.443,76.0,187.0
125337,-0.920,0.328,-0.175,-0.382,-0.458,-0.664,75.0,187.0
125422,-0.926,0.321,-0.176,0.443,-0.351,-0.672,75.0,187.0
125511,-0.927,0.324,-0.169,0.076,-0.359,-0.183,76.0,187.0
125596,-0.923,0.323,-0.169,0.092,-0.336,-0.214,75.0,187.0
125682,-0.920,0.316,-0.170,-0.046,-0.496,-0.664,75.0,187.0
125768,-0.926,0.322,-0.172,-0.061,-0.435,-0.282,75.0,187.0
125853,-0.917,0.317,-0.169,-0.099,-0.267,-0.122,76.0,187.0
125939,-0.924,0.320,-0.177,-0.389,-0.206,-0.435,75.0,187.0
126024,-0.926,0.315,-0.161,-0.176,-0.321,-0.405,75.0,187.0
126110,-0.924,0.311,-0.157,-0.122,-0.473,-0.282,76.0,187.0
126196,-0.927,0.311,-0.163,0.344,-0.305,-0.206,76.0,187.0
126284,-0.917,0.320,-0.167,0.557,-0.534,-0.237,75.0,187.0
126370,-0.914,0.319,-0.154,0.107,-0.580,-0.298,75.0,187.0
126456,-0.923,0.321,-0.171,-0.267,-0.458,-0.382,75.0,187.0
126542,-0.924,0.330,-0.175,-0.397,-0.603,-0.687,76.0,187.0
126627,-0.918,0.323,-0.175,-0.137,-0.481,-0.679,75.0,187.0
126713,-0.920,0.314,-0.172,0.084,-0.389,-0.282,75.0,187.0
126799,-0.922,0.325,-0.178,-0.076,-0.412,-0.336,75.0,187.0
126885,-0.918,0.327,-0.175,-0.038,-0.405,-0.099,75.0,187.0
126973,-0.923,0.324,-0.177,-0.168,-0.359,-0.351,75.0,187.0
127059,-0.915,0.336,-0.177,-0.084,-0.595,-0.382,75.0,187.0
127145,-0.918,0.330,-0.180,-0.137,-0.076,-0.122,75.0,187.0
127232,-0.917,0.329,-0.182,-0.260,-0.267,-0.130,75.0,187.0
127318,-0.922,0.334,-0.172,-0.626,-0.206,-0.786,76.0,187.0
127403,-0.915,0.321,-0.171,-0.298,-0.206,-0.656,75.0,187.0
127489,-0.919,0.320,-0.167,-0.458,-0.435,-0.679,75.0,187.0
127575,-0.923,0.326,-0.177,-0.603,-0.282,-0.740,75.0,187.0
127661,-0.919,0.315,-0.174,-0.718,-0.389,-0.672,75.0,187.0
127750,-0.928,0.314,-0.165,-0.725,-0.198,-0.634,75.0,187.0
127836,-0.924,0.321,-0.170,-0.519,-0.290,-0.847,75.0,187.0
127921,-0.920,0.320,-0.175,-0.038,-0.542,-0.748,75.0,187.0
128007,-0.920,0.327,-0.176,-0.046,-0.519,-0.473,75.0,187.0
128093,-0.916,0.329,-0.176,0.443,-0.443,-0.420,75.0,187.0
128179,-0.923,0.320,-0.164,-0.008,-0.672,-0.641,76.0,187.0
128265,-0.921,0.331,-0.170,0.084,-0.328,-0.466,75.0,187.0
128351,-0.924,0.326,-0.172,-0.237,-0.229,-0.595,75.0,187.0
128440,-0.921,0.322,-0.173,-0.611,-0.244,-0.527,75.0,187.0
128526,-0.925,0.321,-0.179,0.046,-0.634,-0.260,75.0,187.0
128620,-0.925,0.327,-0.186,0.122,-0.679,-0.130,75.0,187.0
128705,-0.922,0.326,-0.176,-0.015,-0.237,0.130,75.0,187.0
128790,-0.918,0.325,-0.168,0.389,-0.420,-0.206,75.0,187.0
128876,-0.922,0.316,-0.167,0.595,-0.359,-0.282,76.0,187.0
128961,-0.922,0.310,-0.165,0.359,-0.076,0.076,75.0,187.0
129047,-0.923,0.326,-0.167,0.183,-0.557,-0.366,75.0,187.0
129132,-0.918,0.328,-0.183,0.130,-0.473,-0.649,75.0,187.0
129220,-0.916,0.324,-0.173,-0.389,-0.130,-0.023,75.0,187.0
129306,-0.924,0.313,-0.173,-0.183,-0.298,-0.672,76.0,187.0
129391,-0.921,0.322,-0.169,0.168,-0.626,-0.198,75.0,187.0
129477,-0.922,0.322,-0.170,0.481,-0.458,0.160,75.0,187.0
129562,-0.923,0.315,-0.161,0.427,-0.168,0.000,75.0,187.0
129647,-0.926,0.315,-0.165,0.435,-0.366,-0.252,76.0,187.0
129733,-0.920,0.318,-0.170,0.397,-0.260,-0.130,75.0,187.0
129818,-0.922,0.320,-0.170,0.130,-0.458,-0.397,76.0,187.0
129904,-0.920,0.318,-0.164,0.122,-0.282,-0.282,75.0,187.0
129992,-0.929,0.314,-0.167,0.336,-0.397,-0.252,76.0,187.0
130078,-0.920,0.313,-0.163,0.359,-0.458,-0.588,76.0,187.0
130163,-0.920,0.318,-0.174,-0.115,-0.252,-0.160,75.0,187.0
130249,-0.919,0.323,-0.169,0.191,-0.359,-0.084,75.0,187.0
130334,-0.920,0.315,-0.168,0.168,-0.115,-0.267,76.0,187.0
130420,-0.929,0.320,-0.171,0.397,-0.496,-0.481,75.0,187.0
130505,-0.921,0.324,-0.177,0.137,-0.298,-0.092,75.0,187.0
130591,-0.922,0.319,-0.176,0.336,-0.481,-0.649,75.0,187.0
130679,-0.921,0.325,-0.172,0.244,-0.313,-0.565,76.0,187.0
130765,-0.919,0.329,-0.176,0.038,-0.389,-0.771,75.0,187.0
130850,-0.918,0.323,-0.178,-0.107,-0.313,-0.275,75.0,187.0
130936,-0.919,0.317,-0.171,-0.427,-0.046,-0.130,75.0,187.0
131021,-0.922,0.313,-0.165,-0.382,-0.298,-0.611,76.0,187.0
131107,-0.926,0.316,-0.171,-0.198,-0.580,-0.695,75.0,187.0
131192,-0.922,0.326,-0.168,0.061,-0.573,-0.504,76.0,187.0
131278,-0.919,0.327,-0.180,0.137,-0.420,-0.458,75.0,187.0
131363,-0.921,0.327,-0.171,-0.260,-0.290,-0.153,75.0,187.0
131452,-0.920,0.313,-0.171,-0.389,-0.137,-0.374,75.0,187.0
131538,-0.924,0.314,-0.168,-0.053,-0.511,0.092,75.0,187.0
131623,-0.925,0.315,-0.164,0.099,-0.443,-0.588,75.0,187.0
131709,-0.919,0.321,-0.173,-0.008,-0.557,-0.679,75.0,187.0
131794,-0.918,0.325,-0.176,-0.183,-0.260,-0.557,75.0,187.0
131880,-0.925,0.315,-0.167,-0.115,-0.351,-0.366,75.0,187.0
131966,-0.921,0.312,-0.169,-0.458,-0.351,-0.557,75.0,187.0
132051,-0.924,0.319,-0.171,-0.008,-0.511,-0.748,75.0,187.0
132137,-0.922,0.324,-0.178,1.924,-0.969,-0.702,76.0,187.0
132221,-0.928,0.320,-0.180,0.626,-0.122,-0.290,75.0,187.0
132306,-0.928,0.316,-0.156,-0.992,-0.053,-0.802,75.0,187.0
132392,-0.923,0.310,-0.168,0.214,-0.237,-0.824,76.0,187.0
132478,-0.928,0.321,-0.163,-1.786,-0.069,-1.557,75.0,187.0
132564,-0.925,0.324,-0.165,0.992,0.267,-1.183,75.0,187.0
132649,-0.929,0.306,-0.172,-2.863,1.542,-2.962,75.0,187.0
132736,-0.922,0.310,-0.177,-1.840,1.374,-2.298,75.0,187.0
132822,-0.915,0.321,-0.178,-4.084,2.115,-3.649,75.0,187.0
132911,-0.928,0.302,-0.180,5.023,0.634,-2.107,75.0,187.0
132996,-0.933,0.285,-0.186,4.008,-0.344,-1.687,75.0,188.0
133082,-0.936,0.279,-0.177,-0.359,0.061,-1.733,75.0,188.0
133168,-0.919,0.316,-0.196,-1.817,-0.779,0.153,75.0,188.0
133254,-0.927,0.288,-0.186,-4.023,0.153,-2.153,74.0,188.0
133339,-0.927,0.302,-0.180,-0.908,-0.122,-1.779,75.0,188.0
133425,-0.926,0.309,-0.170,-1.061,0.122,-1.122,74.0,188.0
133511,-0.926,0.312,-0.188,1.496,-0.252,-0.969,74.0,188.0
133597,-0.928,0.289,-0.182,0.924,-0.466,-0.229,74.0,188.0
133686,-0.933,0.288,-0.191,0.099,-0.595,-0.244,75.0,188.0
133771,-0.936,0.281,-0.177,-0.855,-0.832,-0.702,75.0,188.0
133857,-0.929,0.310,-0.179,-6.740,0.305,-1.504,75.0,188.0
133943,-0.924,0.299,-0.190,-3.092,0.183,-0.023,75.0,188.0
134029,-0.923,0.307,-0.161,-14.580,3.237,-2.985,75.0,188.0
134115,-0.920,0.339,-0.183,0.527,0.305,1.198,75.0,188.0
134201,-0.925,0.284,-0.175,0.832,1.008,-0.397,74.0,188.0
134286,-0.925,0.307,-0.196,-1.611,-0.466,-0.519,74.0,188.0
134372,-0.925,0.300,-0.174,-0.206,-0.260,-0.237,74.0,188.0
134461,-0.928,0.290,-0.182,-0.550,0.427,-0.542,75.0,188.0
134547,-0.929,0.290,-0.178,-0.748,0.420,-0.458,74.0,188.0
134633,-0.920,0.293,-0.175,-1.015,0.038,-0.863,75.0,188.0
134719,-0.926,0.302,-0.175,0.069,0.198,-0.374,75.0,188.0
134805,-0.930,0.292,-0.189,-1.153,0.977,-1.015,75.0,188.0
134890,-0.933,0.294,-0.188,0.229,0.420,-0.595,75.0,188.0
134976,-0.936,0.294,-0.195,0.374,-0.389,0.038,74.0,188.0
135062,-0.935,0.294,-0.170,-0.809,-0.641,-0.740,75.0,188.0
135151,-0.925,0.302,-0.198,-0.313,-0.275,-0.870,74.0,188.0
135237,-0.927,0.299,-0.183,0.313,-0.412,-0.275,75.0,188.0
135323,-0.926,0.300,-0.180,-0.252,-0.344,-0.290,74.0,188.0
135409,-0.933,0.286,-0.180,0.160,-0.305,-0.092,74.0,188.0
135495,-0.936,0.295,-0.182,0.267,-0.206,-0.359,74.0,188.0
135581,-0.930,0.301,-0.186,0.168,-0.275,-0.260,75.0,188.0
135667,-0.923,0.289,-0.191,0.321,-0.481,-0.092,74.0,188.0
135753,-0.932,0.291,-0.181,-0.504,-0.466,-0.427,75.0,188.0
135839,-0.936,0.302,-0.180,0.008,-0.695,-0.611,75.0,188.0
135928,-0.927,0.309,-0.190,0.305,-0.305,-0.328,75.0,188.0
136014,-0.930,0.289,-0.174,-0.634,-0.145,-0.260,74.0,188.0
136100,-0.935,0.290,-0.186,-0.725,-0.282,-1.137,74.0,188.0
136186,-0.930,0.297,-0.184,-0.687,-0.107,-0.916,74.0,188.0
136272,-0.927,0.300,-0.191,-0.679,-0.611,-1.084,74.0,188.0
136358,-0.926,0.306,-0.187,-0.412,-0.573,-2.985,74.0,188.0
136445,-0.929,0.278,-0.185,-2.397,1.603,-5.092,74.0,188.0
136531,-0.927,0.275,-0.230,1.198,-3.679,-3.756,74.0,188.0
136621,-0.895,0.362,-0.220,-5.870,1.649,-8.115,74.0,188.0
136707,-0.955,0.392,-0.047,-11.458,-0.595,-45.664,73.0,188.0
136793,-2.000,0.448,-0.027,75.176,-35.015,-27.023,72.0,190.0
136882,-1.675,1.027,-0.277,-77.771,-48.145,235.626,121.0,199.0
136976,-1.273,0.315,-0.377,-179.015,-71.580,250.130,0.0,0.0
137070,-0.288,0.165,-0.949,-250.137,-6.855,157.702,0.0,0.0
137156,0.223,-0.942,0.041,-30.237,161.473,63.618,61.0,0.0
137250,-0.039,-0.235,0.617,36.031,136.496,-28.664,0.0,0.0
137335,-1.254,0.089,1.467,89.237,-42.656,21.321,42.0,0.0
137423,-0.752,0.696,0.786,22.969,9.313,-0.695,38.0,0.0
137508,-0.514,0.385,0.687,5.534,14.748,-10.397,39.0,0.0
137593,-0.885,0.369,0.538,14.107,27.389,-19.092,37.0,0.0
137678,-0.902,0.535,0.379,-8.664,30.855,-23.191,37.0,0.0
137764,-0.749,0.209,0.525,13.290,9.756,-1.176,58.0,0.0
137858,-0.656,0.721,0.485,14.679,13.809,2.321,0.0,0.0
137952,-0.680,0.620,0.123,13.695,7.893,-5.214,0.0,0.0
138037,-0.688,0.870,0.065,14.160,22.550,-25.351,44.0,0.0
138122,-0.740,0.589,0.309,-6.351,14.473,-43.359,42.0,0.0
138212,-0.913,0.399,0.246,-22.412,12.511,-28.527,59.0,0.0
138298,-0.871,0.174,0.139,-0.244,-31.740,10.611,62.0,0.0
138382,-0.941,0.208,0.638,26.374,-27.107,29.069,21.0,0.0
138468,-0.735,0.394,0.502,-7.687,-16.038,12.794,58.0,0.0
138552,-0.659,0.793,0.242,28.809,-7.237,48.023,21.0,0.0
138646,-0.732,0.620,0.397,26.214,-7.115,50.939,0.0,0.0
138740,-0.732,0.632,0.335,6.969,24.389,15.466,0.0,0.0
138834,-0.918,0.874,-0.049,47.260,10.656,53.641,0.0,0.0
138929,-0.465,1.306,0.385,23.397,13.244,13.328,0.0,0.0
139018,-0.719,0.736,0.343,-7.466,13.802,-12.626,0.0,57.0
139112,-0.826,0.717,0.349,-6.176,7.351,-17.008,0.0,0.0
139206,-1.669,0.661,0.035,105.618,-18.733,119.870,0.0,0.0
139299,-0.723,0.920,0.141,-86.817,60.779,87.931,183.0,0.0
139394,-0.434,0.666,0.134,-219.092,106.634,-28.702,0.0,0.0
139488,-0.470,0.775,0.508,-106.702,78.183,-0.702,0.0,0.0
139573,-0.411,0.458,0.672,-136.053,13.473,9.847,33.0,0.0
139662,-0.337,0.302,0.645,-155.565,0.046,-9.832,33.0,184.0
139746,-0.566,0.069,0.927,-31.046,14.389,-15.321,36.0,0.0
139832,-0.550,0.326,0.767,-21.321,6.290,6.527,37.0,187.0
139916,-0.469,0.223,0.735,-35.802,9.985,9.740,45.0,188.0
139999,-0.559,0.256,0.746,-31.466,6.527,14.611,42.0,190.0
140092,-0.534,0.329,0.787,-4.084,-6.885,28.031,0.0,189.0
140182,-0.584,0.324,0.875,-37.282,-12.290,24.824,0.0,147.0
140275,-0.568,0.250,0.906,-12.435,-30.519,9.344,0.0,0.0
140368,-0.396,0.216,0.879,-32.053,-37.695,6.534,0.0,0.0
140462,-0.283,0.164,0.855,-27.435,-29.206,0.038,0.0,0.0
140549,-0.320,0.146,0.873,-29.008,-24.901,0.550,37.0,0.0
140633,-0.312,0.158,0.889,-23.450,-22.122,-0.924,39.0,0.0
140717,-0.304,0.150,0.885,-11.947,-20.672,-5.687,38.0,0.0
140802,-0.243,0.119,0.916,2.939,-12.626,-2.756,49.0,0.0
140884,-0.245,0.087,0.950,0.008,-4.924,1.359,27.0,0.0
140968,-0.257,0.065,0.941,4.649,-0.672,-1.435,27.0,0.0
141052,-0.283,0.044,0.772,35.084,1.527,-11.382,48.0,0.0
141137,-0.340,0.070,0.620,149.153,27.069,-39.366,47.0,0.0
141221,-0.596,0.262,0.406,224.031,53.000,-81.282,46.0,0.0
141318,-0.557,0.412,0.405,233.221,68.664,-104.046,0.0,0.0
141411,-1.031,0.733,0.315,204.855,69.641,-165.924,195.0,0.0
141504,-1.144,0.469,0.313,153.069,13.443,-139.939,198.0,0.0
141598,-1.143,0.448,0.154,173.099,-43.008,-115.458,0.0,0.0
141691,-0.787,0.197,-0.105,250.130,-56.374,-38.397,0.0,0.0
141785,-0.832,0.483,-0.309,237.443,-21.168,26.634,0.0,0.0
141878,-0.866,0.609,-0.088,-27.061,20.450,-8.656,0.0,195.0
141971,-0.827,0.212,0.104,-148.115,56.504,-9.405,0.0,0.0
142065,-0.959,0.066,0.163,-46.771,8.115,-0.435,0.0,0.0
142161,-1.096,0.146,0.007,76.534,-30.153,14.275,0.0,0.0
142255,-0.901,0.329,-0.040,68.252,-21.420,38.977,0.0,0.0
142348,-0.842,0.349,-0.031,4.420,-10.115,21.908,0.0,0.0
142441,-0.525,0.285,-0.021,12.962,24.198,-6.840,0.0,0.0
142535,1.142,0.551,0.118,-15.053,144.252,-124.779,0.0,0.0
142628,-1.540,0.872,-0.151,-104.656,-43.779,98.702,0.0,0.0
142722,-0.836,-0.267,0.063,13.969,-111.130,222.771,0.0,0.0
142816,0.058,0.995,-0.140,73.969,53.855,65.267,0.0,0.0
142909,-0.866,1.068,-0.715,-250.137,104.527,-182.076,0.0,0.0
143006,-1.229,0.238,-0.201,-250.137,42.893,-14.947,0.0,0.0
143099,-0.667,0.094,0.216,63.489,-20.191,45.458,0.0,0.0
143193,-0.405,0.845,0.167,-8.023,173.962,36.725,0.0,0.0
143286,-0.271,0.130,0.048,-250.137,93.641,2.885,0.0,0.0
143380,-0.887,1.167,-0.249,77.031,42.542,205.618,0.0,0.0
143473,-1.341,0.679,-0.111,-92.886,59.137,130.282,0.0,0.0
143566,-0.562,1.444,-0.060,39.969,45.557,98.084,0.0,0.0
143661,0.057,0.083,0.189,-0.496,53.679,90.863,0.0,0.0
143754,0.310,1.623,-0.045,-154.115,79.443,106.176,0.0,0.0
143850,-0.557,0.297,0.902,57.679,-51.282,68.366,0.0,0.0
143936,0.549,1.186,-0.240,89.886,-38.336,66.618,59.0,0.0
144029,0.730,1.342,-0.822,77.366,-12.992,33.802,0.0,0.0
144122,0.479,0.714,-0.214,10.458,10.084,20.695,0.0,0.0
144217,0.489,0.863,-0.132,-26.756,6.336,-11.237,0.0,0.0
144310,0.437,0.864,-0.030,-31.061,-1.733,-35.771,0.0,0.0
144404,0.335,0.858,-0.005,-41.023,8.695,-55.344,0.0,0.0
144497,0.229,0.979,-0.046,-25.809,31.695,-93.244,0.0,0.0
144581,-0.282,1.259,0.091,-86.366,14.511,-51.893,26.0,0.0
144662,0.052,0.853,0.401,12.977,-12.794,1.885,26.0,0.0
144756,-0.012,1.030,0.095,36.321,-19.733,-1.740,0.0,0.0
144849,0.039,1.052,0.035,-12.618,1.611,2.290,0.0,0.0
144944,0.066,1.005,0.149,1.840,-1.061,-3.916,0.0,0.0
145037,0.170,1.006,0.110,-3.519,0.527,0.519,0.0,0.0
145130,-0.111,1.006,0.157,-28.176,7.336,-2.450,0.0,0.0
145224,0.037,0.963,0.265,15.206,8.229,11.840,0.0,0.0
145317,0.087,1.023,0.093,9.466,1.779,3.389,0.0,0.0
145411,0.056,0.988,0.173,-6.015,3.313,-2.359,0.0,0.0
145508,0.035,0.989,0.187,-14.809,0.366,-2.023,0.0,0.0
145601,0.036,1.011,0.147,1.145,-0.725,0.466,0.0,0.0
145695,0.042,1.001,0.169,-1.580,-0.267,-0.351,0.0,0.0
145788,0.041,1.000,0.153,1.496,-0.702,-1.267,0.0,0.0
145882,0.036,1.004,0.160,0.511,-0.183,-0.191,0.0,0.0
145976,0.042,1.004,0.150,0.321,-0.916,-1.466,0.0,0.0
146069,0.034,0.998,0.166,0.244,-2.046,-2.710,0.0,0.0
146163,0.029,1.002,0.152,-2.832,-1.420,-2.183,0.0,0.0
146256,0.033,0.994,0.177,-1.809,-0.122,-0.137,0.0,0.0
146354,0.037,0.999,0.165,1.221,-0.725,-1.267,0.0,0.0
146447,0.028,1.001,0.166,-3.847,-0.527,-1.450,0.0,0.0
146541,0.024,1.008,0.153,-1.443,-1.802,0.603,0.0,0.0
146634,-0.020,1.026,0.204,-14.710,-1.580,18.489,0.0,0.0
146728,0.081,1.182,0.124,-14.733,-9.695,68.580,0.0,0.0
146822,0.251,0.844,0.327,-53.992,-20.901,57.305,0.0,0.0
146916,0.259,1.040,0.280,-40.183,-32.573,58.198,0.0,0.0
147010,0.350,0.943,0.464,-60.710,-43.221,70.603,0.0,0.0
147103,0.495,0.729,0.556,-42.832,-97.336,73.855,0.0,0.0
147202,0.696,0.675,0.184,-57.511,-97.481,86.344,0.0,62.0
147291,0.708,0.379,0.123,-71.710,-84.366,73.641,0.0,63.0
147379,0.793,0.434,0.051,-45.824,-74.641,54.588,0.0,65.0
147468,0.953,0.293,0.084,-54.527,-46.389,44.321,0.0,67.0
147556,0.987,0.180,0.101,-36.641,-38.198,35.221,0.0,69.0
147645,0.969,0.172,0.017,-27.252,-38.206,27.565,0.0,72.0
147734,1.082,0.048,-0.058,-34.550,-15.359,12.198,0.0,73.0
147824,1.028,0.130,-0.011,-13.679,-9.565,-2.229,0.0,77.0
147913,1.016,0.163,-0.044,-6.008,-11.649,1.473,0.0,74.0
148005,0.993,0.130,-0.077,-3.160,5.649,-3.565,0.0,73.0
148094,0.980,0.188,-0.019,1.229,2.168,-11.191,0.0,73.0
148184,1.018,0.221,-0.044,3.710,-1.427,-4.977,0.0,73.0
148273,1.023,0.182,-0.037,6.046,-0.481,1.359,0.0,73.0
148362,0.993,0.197,-0.022,-0.656,-2.962,2.504,0.0,73.0
148451,0.975,0.176,-0.038,1.702,-5.687,0.954,0.0,73.0
148540,1.007,0.147,-0.083,13.611,-1.244,-2.588,0.0,73.0
148629,0.969,0.169,-0.048,6.221,4.267,-6.618,0.0,72.0
148718,0.976,0.202,-0.033,-2.260,4.145,-1.351,0.0,73.0
148810,0.991,0.198,-0.043,-1.542,5.214,-0.252,0.0,74.0
148897,0.982,0.206,-0.044,7.534,1.603,-1.969,0.0,47.0
148985,0.998,0.194,-0.028,4.092,3.573,1.588,0.0,48.0
149072,1.045,0.224,-0.044,-1.298,0.107,-2.427,0.0,45.0
149160,0.988,0.219,-0.030,2.885,2.519,-1.221,0.0,46.0
149248,0.978,0.179,0.002,7.557,1.405,-0.634,0.0,47.0
149336,1.001,0.167,-0.004,1.122,-0.908,-1.672,0.0,47.0
149423,0.988,0.156,-0.016,1.153,0.687,0.763,0.0,46.0
149511,0.999,0.223,-0.012,-5.107,1.336,1.473,0.0,46.0
149599,1.013,0.207,-0.023,-0.260,1.008,1.626,0.0,47.0
149689,0.984,0.161,-0.007,6.504,1.053,-2.298,0.0,48.0
149777,1.009,0.091,-0.075,6.473,19.038,-5.313,0.0,47.0
149866,0.935,0.063,-0.089,40.847,70.992,-21.588,0.0,70.0
149955,1.276,0.142,0.116,27.473,98.237,-65.886,0.0,66.0
150043,0.620,0.694,0.181,51.084,92.756,-66.443,0.0,62.0
150132,0.667,0.626,0.426,12.924,62.015,-40.435,0.0,62.0
150221,0.703,0.469,0.478,52.015,40.756,-18.504,0.0,63.0
150318,0.736,0.563,0.311,71.580,54.366,-38.634,0.0,0.0
150414,0.555,0.749,0.443,11.084,58.237,-92.351,0.0,0.0
150514,0.318,0.874,0.539,7.550,34.458,-62.282,0.0,0.0
150610,0.322,0.708,0.479,31.870,34.244,-46.466,0.0,0.0
150707,0.192,0.883,0.401,54.344,48.313,-57.160,0.0,0.0
150803,0.071,1.024,0.500,17.664,32.786,-33.626,0.0,0.0
150900,0.055,0.981,0.419,-7.229,5.672,-17.366,0.0,0.0
150996,0.086,0.963,0.313,7.611,0.481,-12.397,0.0,0.0
151093,0.037,0.956,0.316,0.672,-1.969,-5.916,0.0,0.0
151195,0.010,0.976,0.347,28.252,-1.443,-6.412,0.0,0.0
