Timestamp(ms),AccelX(g),AccelY(g),AccelZ(g),GyroX(deg/s),GyroY(deg/s),GyroZ(deg/s),DistanceLeft(cm),DistanceRight(cm)
25776,-0.207,-0.047,0.912,-9.069,-14.611,4.481,0,75
25827,-0.225,-0.073,0.971,-9.702,9.458,1.053,120,75
25882,-0.283,-0.061,1.037,-7.435,10.496,-0.229,0,76
25938,-0.282,-0.053,1.036,-7.26,2.634,0.931,0,76
25995,-0.283,-0.053,1.038,-7.634,1.924,3.908,0,76
26050,-0.275,-0.071,1.026,-6.557,0.542,5.13,0,75
26106,-0.273,-0.071,1.007,-5.588,-0.351,5.237,0,75
26162,-0.284,-0.078,1.007,-5.771,0.038,5.466,0,75
26221,-0.282,-0.106,0.999,-5.878,-2.817,4.977,0,75
26276,-0.271,-0.112,0.999,-2.748,1.412,2.84,0,75
26333,-0.266,-0.084,1.022,-0.84,1.687,2.519,0,75
26388,-0.264,-0.092,1.028,0.115,-1.405,1.588,0,75
26444,-0.264,-0.097,1.003,0.893,-1.031,-0.802,0,75
26500,-0.276,-0.102,0.991,0.595,0.405,-0.557,0,75
26556,-0.285,-0.087,0.997,-1.618,-0.885,0.557,0,75
26611,-0.27,-0.092,0.999,-2.557,-3.244,0.718,0,75
26668,-0.275,-0.096,1.004,-2.573,0.42,1.26,0,75
26726,-0.28,-0.103,1.021,0.55,-0.878,0.405,0,75
26782,-0.267,-0.1,1.007,3.435,0.534,1.84,0,76
26839,-0.264,-0.09,0.999,3.061,-1.718,1.145,0,76
26884,-0.253,-0.09,0.989,1.099,-0.382,0.336,17,76
26929,-0.272,-0.092,0.995,-0.519,-0.473,-0.382,17,76
26975,-0.256,-0.096,0.987,-0.45,-1.344,-2.023,17,76
27020,-0.285,-0.087,1.017,-0.718,2.672,-0.344,17,75
27076,-0.297,-0.076,1.019,-1.244,0.359,1.038,0,76
27121,-0.274,-0.07,0.994,-2.725,-1.336,1.443,16,75
27169,-0.273,-0.103,1.01,-2.618,-2.55,1.824,16,75
27226,-0.257,-0.088,1,-2.244,-2.16,0.718,0,75
27271,-0.251,-0.076,1.033,-4.252,-4.756,-1.382,16,75
27327,-0.206,-0.131,1.127,1.282,-12.008,-6.55,0,75
27382,-0.192,-0.154,1.129,19.908,-10.206,-19.527,0,76
27428,-0.207,-0.107,1.008,34.679,7.084,-22.832,16,75
27480,-0.318,-0.053,0.972,31.13,18.855,-11.038,119,74
27531,-0.352,-0.005,0.952,15.618,-0.046,-2,119,75
27582,-0.28,0.002,0.894,1.916,-17.107,-1.87,119,75
27636,-0.233,-0.033,0.927,-7.023,-2.611,1.473,120,75
27688,-0.245,-0.055,1.003,-4.832,1.763,-0.573,120,75
27740,-0.233,-0.049,1.016,-1.702,4.672,-1.534,120,74
27791,-0.262,-0.037,1.052,-0.489,5.237,1.069,119,74
27842,-0.233,-0.042,1.046,-0.076,-0.519,0.443,119,74
27893,-0.232,-0.045,1.023,0.038,2.817,-1.298,119,74
27944,-0.249,-0.043,1.022,1.656,1.58,-1.74,119,74
27996,-0.257,-0.05,1.008,1.069,0.947,-1.695,119,74
28047,-0.264,-0.035,1.004,0.229,1.695,-1.573,119,74
28102,-0.263,-0.04,1.012,-0.313,1.924,-0.481,119,74
28153,-0.255,-0.035,1.011,-0.031,0.26,-0.031,119,74
28205,-0.259,-0.044,1.009,-1.229,0.229,0.672,119,74
28256,-0.249,-0.049,1.013,-0.573,0.443,0.069,119,74
28307,-0.256,-0.051,1.014,0.198,-0.832,0.237,119,74
28358,-0.245,-0.037,1.005,0.458,-0.496,0.473,119,74
28452,-0.25,-0.044,1.01,-0.267,-0.756,-0.733,119,74
28504,-0.258,-0.049,0.998,0.504,0.336,-1.183,119,74
28556,-0.263,-0.04,1.011,-1.779,2.038,-0.672,119,74
28610,-0.255,-0.047,0.986,-3.84,-2.481,-2.344,119,74
28661,-0.273,-0.061,1,-6.794,-0.183,-2.099,119,74
28712,-0.292,-0.079,1.019,-7.672,0.901,3.275,119,74
28765,-0.276,-0.073,1.048,-7.328,2.557,12.55,119,75
28820,-0.308,-0.072,1.041,-5.618,0.107,16.924,0,75
28876,-0.172,-0.08,0.986,-0.427,-5.206,2.573,0,75
28933,-0.237,-0.064,1.016,3.198,9.107,-1.84,0,75
28989,-0.287,-0.056,1.036,2.603,-0.458,-3.214,0,75
29041,-0.262,-0.062,0.996,0.481,-3.214,-2.466,120,75
29095,-0.253,-0.067,1.004,-0.092,0,-2.305,120,75
29148,-0.255,-0.06,1.01,0.725,0.809,-3.962,120,75
29199,-0.262,-0.053,1.008,0.878,2.962,-5.092,120,75
29250,-0.294,-0.076,1.015,1.962,0.244,-3.382,119,75
29302,-0.261,-0.072,0.999,2.763,1.298,-2.824,120,75
29353,-0.274,-0.07,1.018,2.412,2.504,-2.481,119,74
29405,-0.254,-0.064,1.022,1.634,-0.183,-3.832,120,74
29457,-0.252,-0.065,1.01,2.107,0.466,-5.275,120,74
29511,-0.272,-0.026,0.994,0.13,0.969,-6.198,120,74
29563,-0.353,0.058,1.002,-9.351,-4.076,-2.42,120,74
29615,-0.415,0.034,1.03,-9.672,-7.962,13.55,120,75
29671,-0.36,0.011,1.001,-11.962,-21.153,31.977,0,76
29727,-0.188,-0.147,1.007,-0.702,-19.16,33.374,0,77
29785,-0.094,-0.203,1.018,9.588,13.168,20.809,0,78
29841,-0.172,-0.186,1.064,6.794,8.916,6.733,0,79
29897,-0.167,-0.118,0.993,-0.832,-5.595,-4.962,0,79
29955,-0.226,-0.057,0.996,-5.206,1.092,-10.786,0,78
30004,-0.28,-0.015,1.016,-1.718,0.008,-10.679,16,78
30055,-0.303,0.001,1.015,1.893,0.473,-6.87,119,77
30107,-0.287,-0.014,1.004,3.611,-0.779,-1.985,118,77
30158,-0.273,-0.038,1.007,2.214,0.588,3.298,118,77
30204,-0.258,-0.059,1.006,1.847,-0.45,4.947,17,77
30251,-0.225,-0.073,0.991,0.481,-1.481,3.527,16,78
30297,-0.217,-0.082,1.007,-2.13,-1.42,0.87,16,78
30343,-0.221,-0.103,1.022,-4.794,-7.26,-2.656,16,78
30394,-0.202,-0.126,1.034,-7.008,-13.336,-7.053,117,78
30449,-0.15,-0.207,1.03,-3.397,-19.71,-14.053,118,78
30501,-0.163,-0.213,1.077,3.626,1.702,-16.992,126,77
30554,-0.164,-0.127,1.055,13.389,-10.122,-27.275,118,75
30606,-0.15,0.009,0.968,12.695,14.015,-29.786,119,75
30652,-0.328,0.07,1.021,12.611,20.687,-23.031,16,74
30703,-0.364,0.088,0.991,11.244,5.366,-12.977,120,74
30755,-0.3,0.043,0.965,8.321,-0.634,-2.328,119,74
30807,-0.271,-0.008,0.972,6.198,4.511,5.435,119,75
30859,-0.241,-0.003,0.992,1.916,8.489,9.366,119,75
30913,-0.271,-0.016,1.018,-5.649,5.832,14.115,119,74
30965,-0.246,-0.057,1.012,-8.649,-1.84,15.863,119,75
31011,-0.206,-0.085,1.015,-10.336,0.298,13.198,16,75
31100,-0.246,-0.085,1.031,-13.252,-0.443,10.458,16,76
31158,-0.226,-0.073,1.014,-13.069,-2.832,7.954,0,76
31214,-0.235,-0.082,1.017,-9.069,-1.023,6.107,0,77
31260,-0.251,-0.085,1.002,-6.916,2.336,5.756,16,77
31316,-0.26,-0.087,1.006,-8.023,0.275,5.74,0,77
31374,-0.228,-0.09,1.014,-8.366,-6.954,2.397,0,77
31433,-0.199,-0.115,1.026,-5.336,-0.015,-2.191,0,76
31491,-0.2,-0.102,1.052,1.008,4.435,-8.115,0,76
31547,-0.249,-0.155,1.075,12.13,-3.519,-18.26,0,76
31604,-0.217,-0.105,0.997,19.198,-0.557,-21.718,0,76
31656,-0.314,-0.066,0.992,12.305,7.191,-8.679,119,75
31703,-0.298,-0.046,0.98,2.824,-7.427,-1.267,16,75
31749,-0.225,-0.062,0.953,-2.099,-9.412,0.053,16,75
31795,-0.221,-0.077,0.971,-2.168,0.885,-0.397,16,75
31840,-0.249,-0.08,1.014,-0.496,2.855,-0.344,16,75
31895,-0.246,-0.066,1.008,-1.13,1.595,0.802,119,75
31947,-0.246,-0.078,1.028,-1.466,-0.466,1.718,119,75
32000,-0.231,-0.096,1.022,-1.405,0.672,1.519,119,75
32052,-0.247,-0.083,1.025,-1.076,2.58,1.916,119,75
32108,-0.243,-0.083,1.018,0.427,-2.145,1.435,0,75
32154,-0.224,-0.074,1,1.237,1.069,1.435,19,75
32200,-0.246,-0.076,1.023,1.26,2.443,1.122,16,75
32246,-0.25,-0.066,1.009,0.733,-0.847,1.374,16,76
32292,-0.243,-0.076,0.992,-0.282,1.435,1.626,16,76
32348,-0.265,-0.092,1.005,-0.664,3.389,3.847,119,75
32411,-0.256,-0.077,1.007,-2.061,1.809,6.664,0,75
32466,-0.243,-0.057,1.007,-4.282,-0.015,6.679,0,76
32523,-0.24,-0.078,1.013,-5.252,-0.466,5.397,0,77
32578,-0.258,-0.079,0.994,-7.115,2.519,5.87,0,77
32634,-0.267,-0.084,1.002,-9.893,-0.878,6.885,0,77
32690,-0.231,-0.1,1.014,-9.87,-8.351,4,0,77
32746,-0.166,-0.141,1.023,-6.573,-7.084,-3.443,0,77
32802,-0.195,-0.131,1.064,6.389,9.389,-12.863,0,76
32857,-0.243,-0.142,1.067,20.053,-4.817,-23.527,127,76
32913,-0.232,-0.072,0.938,18.099,17.992,-11.382,0,75
32964,-0.35,-0.063,0.999,5,13.725,0.176,119,75
33015,-0.313,-0.066,0.972,-1.122,-12.908,-0.191,119,75
33067,-0.232,-0.068,0.942,-3.145,-4.595,0.252,119,75
33117,-0.275,-0.09,1.004,-1.298,6.481,1.137,119,75
33163,-0.277,-0.087,1.021,0.733,2.641,1.16,16,75
33214,-0.265,-0.078,1.009,0.359,2.466,2.466,119,76
33264,-0.257,-0.092,1.017,-0.718,1.664,1.817,119,75
33324,-0.262,-0.084,1.01,-1.336,3.481,1.771,0,76
33375,-0.296,-0.087,1.011,-1.618,0.313,3.649,120,76
33431,-0.278,-0.078,1.002,-2.496,-1.473,4.511,0,76
33486,-0.271,-0.07,0.992,-4.496,-0.58,4.672,0,76
33543,-0.269,-0.087,0.993,-4.168,-2.458,3.687,0,76
33599,-0.276,-0.087,0.999,-3.618,1.107,3.038,0,76
33644,-0.273,-0.099,1.002,-3.183,-1.038,3.122,16,76
33689,-0.27,-0.097,0.993,-3.985,-1.244,3.351,16,76
33788,-0.266,-0.105,1.004,-5.672,-2.832,3.885,0,76
33847,-0.255,-0.112,1.003,-3.26,-2.183,1.855,0,76
33903,-0.262,-0.112,1.012,-2.046,0.076,0.015,0,75
33949,-0.237,-0.111,1.027,-1.71,-7.527,-4.313,16,75
34004,-0.219,-0.109,1.069,1.595,-4.084,-6.527,0,75
34061,-0.24,-0.136,1.097,13.473,-7.496,-13.42,0,76
34113,-0.224,-0.131,1.014,25.237,-6.351,-18.618,126,75
34164,-0.26,-0.076,0.958,25.71,13.847,-12.206,119,74
34215,-0.325,-0.04,0.978,15.832,3.931,-6.466,118,74
34267,-0.285,-0.029,0.953,4.588,-9.267,-3.794,119,74
34321,-0.256,-0.037,0.954,-1.969,-0.038,0.084,118,74
34372,-0.262,-0.054,1.009,-2.305,1.336,0.824,118,74
34423,-0.239,-0.051,1.019,-0.252,0.847,-0.718,119,74
34475,-0.249,-0.058,1.046,1.427,4.031,-0.252,118,74
34526,-0.254,-0.061,1.047,2.366,-0.641,-0.809,118,74
34577,-0.234,-0.057,1.021,2.069,-0.695,-1.702,118,74
34628,-0.244,-0.047,1.005,1.725,0.366,-2.641,118,74
34679,-0.265,-0.052,1,0.771,0.244,-2.122,118,74
34731,-0.265,-0.04,1.009,0.176,-0.603,-0.13,118,74
34785,-0.244,-0.028,1.004,-1.214,-0.084,0.481,118,74
34836,-0.25,-0.038,1,-1.328,1.435,-0.26,118,74
34887,-0.247,-0.047,0.997,-3.687,2.481,-1.481,117,74
34938,-0.282,-0.067,1.016,-7.084,-4.046,0,118,74
34990,-0.273,-0.109,1.035,-6.374,-3.435,11.855,118,75
35041,-0.281,-0.054,1.039,-4.573,4.84,22.832,118,75
35093,-0.222,-0.077,1.038,-2.237,-8.901,10.557,118,75
35144,-0.163,-0.059,0.978,3.153,-1.527,-0.679,119,75
35195,-0.244,-0.049,1.009,2.282,9.107,-4.962,119,75
35250,-0.294,-0.061,1.025,0.954,-1.366,-4.84,119,75
35301,-0.27,-0.055,0.995,0.405,-2.13,-1.634,118,75
35353,-0.259,-0.059,0.994,-0.282,-0.954,-0.466,119,75
35404,-0.239,-0.061,1.006,0.168,-0.366,-1.771,118,75
35456,-0.256,-0.058,1.004,-0.198,0.847,-1.893,119,75
35507,-0.256,-0.065,1.01,-0.954,0.588,-1.183,119,75
35559,-0.248,-0.063,1.014,-0.107,0.183,-1.672,119,75
35610,-0.258,-0.064,1.013,0.298,1.649,-1.885,118,74
35661,-0.263,-0.076,1.021,1.061,0.702,-1.58,118,74
35716,-0.25,-0.055,1.007,1.786,1.145,-1.893,119,74
35767,-0.269,-0.052,1.016,1.244,0.763,-1.153,119,74
35819,-0.263,-0.063,1.014,0.412,-1.107,-1.252,118,74
35870,-0.263,-0.059,1.008,1.519,0.069,-0.42,119,74
35921,-0.254,-0.054,1.007,1.023,-0.786,-1.099,119,74
35973,-0.251,-0.056,0.994,0.603,0.992,-2.748,118,74
36025,-0.26,-0.062,1.005,-0.115,0.847,-3.588,118,74
36076,-0.262,-0.07,1.004,-2.527,-2.084,-3.099,118,74
36127,-0.255,-0.099,0.997,-5.046,-3.229,-0.626,118,74
36183,-0.274,-0.087,1.044,0.046,5.863,4.74,118,74
36234,-0.289,-0.071,1.027,-0.183,-2.893,6.29,119,74
36285,-0.197,-0.068,1.008,-0.023,-4.916,0.626,119,75
36337,-0.241,-0.066,1.008,0.817,3.695,-1.496,119,75
36431,-0.257,-0.073,1.003,0.794,-0.824,-0.672,119,75
36484,-0.254,-0.066,1.004,0.397,-0.099,-0.229,119,74
36535,-0.246,-0.071,1.006,0.634,-0.672,-0.893,119,75
36586,-0.258,-0.064,1.011,0.573,0.702,-1.603,119,75
36638,-0.268,-0.069,1.006,0.45,0.099,-1.473,118,75
36692,-0.252,-0.073,1.005,0.458,0,-1.298,119,75
36745,-0.261,-0.078,1.008,0.099,-0.115,-1.718,119,75
36796,-0.25,-0.061,1.006,0.023,0.435,-1.137,118,75
36847,-0.263,-0.069,1.019,0.069,-0.687,-1.26,118,74
36899,-0.249,-0.067,1.011,0.542,0.893,-1.107,118,75
36951,-0.25,-0.069,1.015,0.962,0.397,-1.412,118,75
37003,-0.26,-0.07,1.027,1.885,-0.641,-2.366,118,74
37054,-0.249,-0.069,1.025,4.099,-1.191,-2.092,118,74
37109,-0.252,-0.056,1.013,3.122,0.542,-2.618,118,74
37160,-0.233,-0.054,0.98,1.298,-1.802,-4.26,118,74
37213,-0.25,-0.065,0.991,-0.756,-1.366,-5.573,119,74
37264,-0.272,-0.019,0.983,-4.634,0.328,-5.412,119,74
37316,-0.346,0.042,0.99,-13.634,-1.947,0.565,119,74
37367,-0.477,0.047,1.055,-11.198,-4.756,21.992,118,75
37420,-0.319,-0.066,1.002,-8.45,-30.542,35.015,118,76
37471,-0.1,-0.211,1.001,0.756,-16.756,28.771,117,78
37523,-0.05,-0.223,1.014,7.58,13.344,13.634,117,80
37579,-0.167,-0.182,1.056,6.664,11.611,-1.061,117,79
37630,-0.208,-0.102,1.021,0.679,1.885,-9.252,117,79
37683,-0.247,-0.061,1.007,-2.122,0.206,-10.954,117,78
37735,-0.264,-0.03,1.004,0.031,1.023,-9.771,117,77
37787,-0.283,-0.027,0.995,2.786,0.672,-6.794,117,76
37838,-0.272,-0.027,0.999,3.313,3.809,-2.702,117,76
37891,-0.281,-0.04,1.021,2.115,2.771,1.153,117,77
37942,-0.247,-0.07,1.006,1.618,1.191,2.611,117,77
37994,-0.235,-0.081,1.027,0.901,2.504,1.351,117,77
38049,-0.239,-0.063,1.025,-1.42,0.534,-0.611,117,77
38100,-0.241,-0.077,1.01,-1.855,-1.252,-0.916,117,78
38148,-0.243,-0.058,1.016,-0.542,-0.45,-1.824,17,77
38199,-0.26,-0.061,1.015,-0.046,0.519,-0.565,117,77
38251,-0.253,-0.049,1.012,0.359,-0.695,0.267,117,77
38303,-0.263,-0.051,1.013,0.618,0.802,1.122,116,77
38354,-0.278,-0.047,1.01,0.901,0.328,3.214,116,78
38407,-0.257,-0.052,0.992,-0.641,-1.771,5.061,116,78
38453,-0.231,-0.087,0.999,-3.771,-5.802,2.321,17,78
38508,-0.212,-0.17,1.033,-6.298,-13.924,-4.206,116,78
38560,-0.171,-0.217,1.067,-3.595,-14.924,-9.626,116,78
38612,-0.138,-0.257,1.077,6.733,-10.176,-19.573,117,76
38665,-0.146,-0.151,1.036,13.519,-8.374,-29.076,118,76
38716,-0.201,0.011,0.988,11.573,14.496,-28.191,118,75
38768,-0.345,0.067,1.004,11.191,20.389,-17.55,119,74
38820,-0.368,0.07,0.971,10.656,3.206,-6.573,119,74
38873,-0.299,0.03,0.914,3.908,2.588,4.519,120,74
38924,-0.303,0.023,0.938,-6.26,10.435,14.771,119,75
38980,-0.306,0.006,0.99,-17.046,5.519,22.901,119,74
39079,-0.203,-0.079,1.082,-12.87,-4.435,21.947,0,77
39126,-0.154,-0.103,1.08,1.641,1.962,11.527,9,77
39188,-0.195,-0.108,1.074,8.656,7.282,4.076,0,78
39239,-0.233,-0.026,1.094,9.847,-1.924,-3.763,118,78
39285,-0.211,-0.036,1.066,16.198,-11.901,-10.74,16,77
39336,-0.22,-0.059,1.005,18.924,-3.557,-9.985,116,78
39387,-0.298,-0.09,1.009,16.107,-5.13,-6.847,116,79
39445,-0.225,-0.071,0.959,10.405,-11.107,-3.916,115,191
39499,-0.227,-0.069,0.974,4.496,-0.634,-2.221,115,80
39550,-0.224,-0.036,0.988,2.206,1.893,-3.565,115,79
39596,-0.223,-0.009,1.001,2.344,1.328,-6.573,16,79
39647,-0.223,0.009,1.009,0.878,3.092,-6.786,116,79
39698,-0.254,0.02,1.023,-1.786,6.42,-4.031,116,78
39750,-0.283,0.001,1.056,-2.389,-2.947,-2.756,116,92
39801,-0.185,0.01,0.966,-4.527,-4.878,-6.794,116,79
39859,-0.27,-0.078,1.087,-5.55,6.641,-1.214,116,178
39910,-0.285,-0.165,1.065,6.931,-4.863,1.466,116,80
39964,-0.194,-0.081,0.985,11.504,4.221,4.817,116,77
40015,-0.229,-0.009,0.991,0.282,-0.145,5,116,77
40067,-0.231,0.006,0.985,-9.305,-9.015,1.679,117,76
40117,-0.198,0.029,0.99,-10.092,-8.695,-5.053,117,76
40168,-0.198,0.01,0.99,-5.092,2.969,-8.618,117,75
40219,-0.244,0.026,1.03,-4.824,7.84,-10.305,117,75
40270,-0.264,-0.016,1.032,-3.962,0.183,-8.366,117,76
40322,-0.241,-0.024,1.025,-3.115,4.45,-4.359,118,75
40376,-0.253,-0.039,1.053,-1.962,0.458,-3.725,117,76
40427,-0.218,-0.044,1.029,0.084,-1.427,-2.962,118,75
40478,-0.225,-0.038,1.021,0.313,3.191,-2.405,118,75
40529,-0.259,-0.051,1.037,0.153,-0.26,-1.908,118,75
40581,-0.236,-0.042,1.012,-0.71,-1.107,-1.198,118,75
40632,-0.246,-0.053,1.022,-0.099,0.344,-0.824,118,75
40683,-0.24,-0.045,1.005,0.206,-2.237,-0.939,118,75
40734,-0.237,-0.044,1.012,0.588,0.473,-0.794,117,75
40785,-0.253,-0.049,1.012,-0.344,-0.969,-1.13,117,76
40840,-0.24,-0.059,1.009,-0.061,-0.13,-0.252,117,76
40891,-0.242,-0.057,1.02,-0.076,0.008,-1.26,117,76
40942,-0.236,-0.052,1.017,-0.252,-1.344,-1.702,117,76
40993,-0.232,-0.044,1.012,-0.817,0.626,-2.588,116,76
41044,-0.235,-0.065,1.015,-1.298,0.313,-2.939,116,76
41096,-0.247,-0.065,1.019,-1.824,1.893,-3.198,116,76
41147,-0.261,-0.074,1.001,-3.26,1.977,-3.397,115,76
41198,-0.263,-0.09,0.993,-5.908,2.26,-2.916,115,76
41249,-0.253,-0.076,0.967,-12.16,2.282,-1.588,115,77
41304,-0.26,-0.072,1,-21.626,5.679,-0.794,116,78
41356,-0.248,-0.094,1.02,-25.107,-0.878,-3.397,116,79
41412,-0.181,-0.108,1.018,-25.595,0.809,-7.168,0,79
41468,-0.178,-0.162,1.026,-22.74,0.145,-8.901,0,78
41525,-0.137,-0.206,1.022,-16.74,-5.359,-9.969,0,78
41571,-0.106,-0.246,1,-10,-5.656,-9.305,16,78
41627,-0.159,-0.226,1,-1.855,9.656,-1.947,0,77
41726,-0.154,-0.184,1.032,4.74,-3.214,12.137,0,75
41772,-0.136,-0.196,0.994,8.542,-7.809,18.076,16,75
41821,-0.152,-0.206,0.987,9.985,10.168,23.458,16,74
41872,-0.225,-0.229,1.024,9.756,7.489,24.298,121,73
41923,-0.195,-0.24,0.966,7.092,5.733,22.519,122,72
41974,-0.211,-0.218,0.958,4.45,14.489,20.092,124,71
42020,-0.211,-0.161,0.922,2.687,11.733,16.427,16,70
42072,-0.238,-0.148,0.881,1.427,17.87,9.405,128,69
42124,-0.303,-0.168,0.87,-3.015,28.443,-5.328,131,65
42175,-0.37,-0.2,0.888,-6.748,38.733,-21.397,134,61
42227,-0.411,-0.192,0.867,-9.901,38.557,-31.145,136,58
42286,-0.471,-0.209,0.854,-13.824,27.183,-42.244,0,56
42337,-0.479,-0.226,0.837,-15.298,34.206,-48.55,139,54
42389,-0.59,-0.268,0.883,-19.176,32.84,-59.763,140,53
42440,-0.652,-0.342,0.913,-20.702,23.496,-69.672,142,53
42492,-0.566,-0.333,0.839,-16.603,32.504,-67.13,144,61
42542,-0.573,-0.328,0.849,-12.916,36.496,-68.511,16,121
42590,-0.518,-0.288,0.802,-9.855,26.374,-66.58,18,120
42646,-0.49,-0.301,0.796,-13.748,27.565,-62.87,146,125
42706,-0.446,-0.343,0.763,-12.58,24.076,-51.763,148,132
42756,-0.432,-0.364,0.721,-13.229,14.718,-36.534,35,124
42814,-0.389,-0.407,0.649,-17.618,1.191,-28.672,148,153
42870,-0.328,-0.421,0.564,-25.382,10.557,-21.443,146,134
42923,-0.372,-0.497,0.624,-29.947,7.565,-22.176,36,153
42975,-0.402,-0.552,0.704,-31.076,-4.748,-21.198,43,159
43026,-0.46,-0.722,0.756,-18.435,-17.969,-13.321,38,154
43077,-0.408,-0.817,0.765,-2.595,-21.489,-11.84,37,149
43129,-0.4,-1.006,0.816,11.832,-26.145,-22.137,59,141
43186,-0.319,-1.096,0.848,29.824,-22.527,-41.13,50,156
43242,-0.349,-1.18,0.902,41.817,-27.763,-70.107,126,157
43294,-0.336,-1.17,0.918,47.275,-37.252,-92.115,34,151
43344,-0.284,-1.179,0.882,50.695,-38.183,-115.481,34,144
43397,-0.228,-1.017,0.937,65.527,-41.649,-136.275,51,144
43447,-0.153,-0.825,0.909,86.824,-52.13,-152.969,53,111
43497,-0.095,-0.6,0.838,102.924,-45.008,-158.809,52,108
43547,-0.116,-0.36,0.784,110.969,-34.71,-150.71,60,107
43597,-0.002,-0.16,0.688,119.87,-26.107,-131.046,39,71
43644,0.167,-0.125,0.578,135.13,-5.443,-106.321,42,64
43692,0.288,-0.167,0.436,152.573,23.023,-82.656,62,58
43740,0.243,0.041,0.337,145.588,54.511,-70.267,61,52
43790,0.142,0.438,0.342,119.802,70.733,-65.748,131,46
43841,-0.031,0.836,0.552,90.87,58.473,-93.573,140,40
43891,-0.135,1.168,0.802,59,11.573,-121.031,129,34
43941,-0.12,1.354,0.834,42.481,-11.969,-109.389,133,30
43995,-0.215,1.279,0.776,45.42,19.649,-56.076,132,27
44039,-0.275,1.15,0.83,66.198,19.519,6.962,38,24
44083,-0.114,1.025,0.728,90,-6.145,41.29,38,23
44133,0.095,0.852,0.502,106.221,-10.672,51.267,136,21
44178,0.198,0.638,0.357,104.046,18.756,49.336,65,21
44222,0.202,0.585,0.333,83.58,45.824,36.588,33,19
44309,0.098,0.644,0.535,25.977,28.267,-15.992,36,16
44351,0.083,0.835,0.528,17.107,28.58,-52.26,18,14
44395,-0.179,1.842,0.727,10.237,43.305,-76.237,29,11
44441,-0.6,1.321,0.765,13.817,50.069,-61.313,30,9
44484,-0.551,0.673,0.691,43.489,30.573,-44.87,28,7
44526,-0.378,0.743,0.55,44.42,26.519,-38.893,30,7
44569,-0.326,0.921,0.439,29.328,36.389,-41.511,28,6
44614,-0.458,1.035,0.483,26.855,26.435,-19.626,57,8
44656,-0.454,1.076,0.371,40.824,7.901,10.29,27,6
44699,-0.321,1.067,0.195,54.802,11.718,37.168,27,7
44742,-0.328,1.058,0.157,44.74,24.405,54.466,26,8
44785,-0.391,1.027,0.111,21.916,8.298,60.954,27,9
44831,-0.305,1.263,-0.036,-2.733,-17.725,87.656,25,10
44874,-0.186,1.375,-0.181,-22.847,-11.458,115.405,28,13
44917,-0.088,1.44,-0.04,-44.656,8.45,144.015,26,16
44961,-0.017,1.243,0.21,-67.053,2.198,162.618,19,20
45015,0.111,0.958,0.389,-68.779,-25.71,156.137,18,0
45068,0.284,0.573,0.594,-48.641,-72.397,127.29,19,0
45121,0.522,0.441,0.467,-38.588,-80.809,94.74,18,0
45175,0.677,0.337,0.39,-38.58,-29.87,87.878,17,0
45224,0.669,0.325,0.468,-24.305,-1.351,105.45,17,137
45280,0.758,0.302,0.412,-3.481,-26.885,105.115,19,173
45332,0.928,0.262,0.273,12.939,-29.45,65.252,17,174
45394,0.939,0.109,0.345,25.26,7.313,-5.771,0,175
45458,0.87,0.455,0.341,22.191,35.557,-57.26,0,0
45522,0.65,0.686,0.409,-1.145,29.237,-50.916,0,0
45579,0.621,0.667,0.451,-6.58,14.053,-40.298,9,0
45632,0.623,0.601,0.499,4.573,25.534,-53.466,16,0
45697,0.62,0.577,0.51,11.405,42.061,-58.267,0,0
45756,0.56,0.723,0.449,10.985,56.779,-76.053,23,0
45812,0.395,0.805,0.517,-6.687,42.481,-48.023,36,0
45865,0.493,0.911,0.493,-10.542,7.435,-39.282,38,0
45920,0.468,1.095,0.52,-21.214,13.496,-38.069,36,0
45978,0.412,1.324,0.549,-33.802,19.008,-33.855,127,0
46038,0.344,0.933,0.564,-38.305,58.053,-26.573,128,0
46094,0.067,0.853,0.76,-32.214,61.366,-16.878,19,0
46146,-0.106,0.688,0.917,-11.656,3.069,0.481,21,0
46202,-0.043,0.552,0.91,14.344,-59.87,11.321,20,0
46256,0.258,0.55,0.642,36.588,-97.183,32.168,37,0
46318,0.443,0.593,0.351,36.779,-59.298,34.374,126,0
46376,0.462,0.772,0.36,6.099,-5.824,14.42,126,0
46436,0.526,1.128,0.488,-12.069,-14.466,9.374,130,0
46498,0.624,0.957,0.401,-15.878,-7.649,4.084,0,0
46554,0.439,0.701,0.522,-14.656,23.664,-1.725,6,0
46617,0.345,0.737,0.653,-26.145,4.405,-0.244,0,0
46672,0.477,0.771,0.662,-24.695,6.824,-1.931,3,0
46725,0.387,0.718,0.722,-7.046,17.176,3.527,3,0
46780,0.355,0.752,0.687,-1.008,-0.351,6.55,4,0
46831,0.452,0.728,0.627,-5.305,-10.153,4.237,4,0
46886,0.513,0.707,0.651,-5.458,-11.389,-11.389,3,0
46981,0.265,0.704,0.875,20.679,-10.527,-37.328,4,0
47036,0.494,0.742,0.558,28.702,-15.473,-28.221,4,0
47079,0.25,0.801,0.567,24.565,36.817,-1.061,6,36
47131,0.136,0.847,0.601,18.427,5.802,13.634,6,0
47186,0.34,0.857,0.455,12.885,-28.16,15.687,4,0
47239,0.468,0.855,0.424,-0.557,-9.038,15.496,4,0
47294,0.469,0.812,0.473,-13.84,5.038,8.779,4,0
47345,0.405,0.767,0.58,-20.573,7.076,5.962,7,0
47400,0.405,0.774,0.616,-18.206,8.969,8.092,4,0
47456,0.392,0.751,0.667,-15.42,0.092,6.237,4,0
47508,0.467,0.742,0.615,-13.779,-4.008,2.015,3,0
47563,0.458,0.726,0.653,-11.168,9.649,1.771,4,0
47616,0.369,0.726,0.703,-3.038,9.679,5.565,3,0
47671,0.387,0.74,0.663,0.359,3.908,7.344,3,0
47722,0.415,0.751,0.613,-0.191,4.084,5.885,3,0
47777,0.451,0.74,0.624,-1.282,-5.947,0.305,3,0
47830,0.486,0.73,0.606,-5.344,0.137,-4.969,3,0
47885,0.407,0.708,0.672,-5.374,7.13,-3.351,4,0
47940,0.387,0.722,0.685,-2.87,-1.824,-2.908,4,0
47995,0.412,0.73,0.688,0.031,-6.931,-4.779,5,0
48058,0.491,0.707,0.677,5.74,-9.595,-12.061,192,0
48114,0.433,0.705,0.751,18.435,-8.557,-28.916,7,0
48165,0.459,0.744,0.6,27.573,2.779,-29.557,4,0
48222,0.255,0.799,0.597,28.42,25.244,-13.45,7,0
48285,0.198,0.845,0.554,21.031,6.489,0.832,0,0
48340,0.317,0.879,0.476,11.748,-15.42,6.916,7,0
48393,0.419,0.855,0.425,-4.42,-4.183,9.344,8,0
48448,0.385,0.822,0.529,-18.527,12.885,12.206,6,0
48503,0.353,0.779,0.634,-18.87,5.176,11.626,4,0
48567,0.404,0.77,0.638,-14.076,-3.145,8.076,194,0
48622,0.398,0.753,0.615,-13.847,5.26,8.695,5,0
48674,0.388,0.741,0.656,-11.58,1.023,7.29,3,0
48730,0.415,0.737,0.667,-8.26,0,7.511,4,0
48782,0.425,0.723,0.658,-4.115,-1.855,4.076,3,0
48837,0.43,0.751,0.632,-1.878,2.42,3.115,3,0
48889,0.395,0.731,0.647,-2.046,3.672,4.511,3,0
48945,0.393,0.732,0.643,-0.84,2.748,5.611,3,0
49000,0.418,0.735,0.634,-2.374,1.664,5.153,3,0
49055,0.425,0.728,0.641,-5.13,0.786,3.26,3,0
49107,0.434,0.724,0.655,-5.557,0.45,0.305,3,0
49163,0.415,0.708,0.684,-3.351,2.084,-1.366,3,0
49215,0.407,0.718,0.69,-0.137,-1.198,-2.046,3,0
49270,0.422,0.721,0.663,1.206,-1.061,-2.489,3,0
49323,0.417,0.723,0.651,0.344,-2.374,-4.313,3,0
49378,0.465,0.716,0.633,0.725,-0.71,-8.244,3,0
49430,0.41,0.692,0.74,9.092,-1.45,-13.924,3,0
49486,0.472,0.699,0.707,20.023,-22.115,-27.611,3,0
49542,0.411,0.77,0.585,22.031,12.55,-19.893,5,0
49605,0.265,0.798,0.606,15.748,18.511,-8.466,195,0
49660,0.287,0.81,0.585,10.473,-8.687,-2.511,6,0
49767,0.37,0.807,0.541,-4.397,4.756,3.534,0,0
49830,0.327,0.802,0.596,-10.824,4.115,7.878,196,0
49887,0.386,0.775,0.615,-10.924,-3.687,8.252,9,0
49939,0.415,0.754,0.638,-10.595,2.214,7.687,4,0
49994,0.391,0.753,0.633,-9.053,4.855,6.198,3,0
50046,0.377,0.749,0.648,-9.282,4.969,6.481,3,0
50102,0.375,0.738,0.67,-8.473,3.328,8.595,3,0
50157,0.403,0.727,0.666,-6.573,-0.168,7.481,3,0
50209,0.422,0.714,0.676,-5.069,-1.16,5.351,3,0
50266,0.434,0.713,0.662,-2.763,-0.565,0.969,3,0
50318,0.41,0.708,0.674,-2.176,1.198,-1.634,3,0
50373,0.397,0.727,0.667,-1.779,2.603,-0.794,3,0
50425,0.372,0.729,0.687,-0.198,2.092,0.863,3,0
50482,0.385,0.732,0.65,-0.405,-1.954,2.931,3,0
50534,0.408,0.716,0.663,-1.603,0.733,3.695,4,0
50589,0.418,0.723,0.666,-2.718,0.321,2.542,3,0
50646,0.414,0.702,0.67,-2.397,0.389,1.344,4,0
50701,0.418,0.708,0.686,-1.374,-0.069,-0.359,5,0
50753,0.41,0.705,0.68,-0.183,0.573,-0.527,4,0
50809,0.401,0.709,0.688,0.794,-0.847,-0.969,4,0
50862,0.42,0.712,0.663,0.481,-1.756,-1.893,4,0
50917,0.411,0.715,0.668,-1.13,-0.389,-2.45,3,0
50970,0.414,0.708,0.678,-1.046,-0.382,-3.206,4,0
51025,0.408,0.683,0.734,2.282,-2.252,-4.748,4,0
51078,0.433,0.674,0.753,12.038,-13.298,-14.954,5,0
51134,0.466,0.713,0.687,20.107,-19.74,-27.267,4,0
51190,0.411,0.741,0.597,23.489,9.824,-21.008,4,0
51254,0.255,0.778,0.636,22.718,16.626,-10.611,195,0
51309,0.281,0.815,0.595,20.13,-9.641,-3.992,6,0
51374,0.389,0.828,0.519,13.198,-10.008,-2.916,0,0
51430,0.377,0.828,0.519,0.16,1.779,-2.527,8,0
51482,0.351,0.837,0.534,-8.58,0.321,-0.924,6,0
51538,0.331,0.824,0.557,-14.519,4.901,3.71,9,0
51602,0.32,0.793,0.617,-16.374,0.832,8.153,194,0
51658,0.364,0.775,0.634,-15.473,2.733,12.374,4,0
51714,0.379,0.757,0.638,-13.321,4.282,13.786,4,0
51770,0.383,0.739,0.667,-11.435,4.206,14.046,3,0
51822,0.403,0.72,0.662,-10.351,1.901,13.168,3,0
51878,0.406,0.716,0.678,-10.489,2.191,10.824,3,0
51931,0.429,0.703,0.687,-6.817,-0.13,6.397,4,0
51987,0.439,0.693,0.71,-3.473,-0.084,1.557,6,0
52050,0.436,0.688,0.704,1.42,-2.779,-3.71,192,0
52107,0.414,0.706,0.675,5.023,0.328,-6.557,6,0
52159,0.37,0.728,0.666,5.527,2.16,-3.603,8,0
52215,0.362,0.744,0.641,3.206,0.382,1.282,3,0
52271,0.391,0.738,0.64,-0.214,-0.16,4.489,3,0
52324,0.4,0.728,0.645,-4.397,1.611,6.191,3,0
52379,0.425,0.707,0.681,-5.031,-0.45,4.534,3,0
52443,0.443,0.694,0.69,-2.71,-1.931,0.908,191,0
52506,0.431,0.7,0.686,-0.534,2.412,-1.687,191,0
52613,0.41,0.711,0.662,-1.275,-1.458,-2.496,191,0
52676,0.425,0.69,0.722,0.969,0.496,-4.176,191,0
52740,0.471,0.66,0.762,14.534,-16.099,-19.481,192,0
52796,0.506,0.716,0.651,23.45,-12.191,-34.679,4,0
52852,0.345,0.771,0.601,23.87,17.489,-24.42,4,0
52916,0.216,0.818,0.612,21.74,15.954,-12.618,195,0
52974,0.267,0.832,0.574,18.84,-13.87,-5.55,6,0
53038,0.363,0.846,0.496,11.824,-12.389,-3.076,0,0
53100,0.342,0.841,0.51,-2.855,7.565,3.221,0,0
53163,0.315,0.835,0.59,-8.267,-0.435,4.733,0,0
53219,0.357,0.803,0.573,-12.519,-0.145,7.084,17,0
53281,0.354,0.799,0.601,-13.87,4.878,8.557,194,0
53337,0.331,0.784,0.626,-15.145,5.931,13.015,4,0
53391,0.359,0.764,0.627,-15.137,3.809,18.038,4,0
53446,0.379,0.727,0.658,-13.427,4.122,17.863,3,0
53498,0.416,0.725,0.68,-9.26,0.115,13.443,3,0
53554,0.443,0.7,0.681,-7.611,3.206,10.443,3,0
53605,0.434,0.711,0.689,-4.985,1.985,5.427,3,0
53660,0.422,0.704,0.704,-3.092,-0.885,1.305,3,0
53711,0.443,0.698,0.682,1.214,-2,-4.107,3,0
53767,0.413,0.708,0.672,2.359,3.244,-5.351,3,0
53819,0.367,0.732,0.673,2.626,-0.29,-2.458,3,0
53874,0.382,0.725,0.647,1.878,-2.282,-0.58,3,0
53928,0.402,0.728,0.649,-0.557,0.397,1.481,3,0
53984,0.398,0.717,0.666,-0.969,-0.931,0.824,3,0
54035,0.426,0.708,0.705,0.985,-3.176,-1.74,3,0
54090,0.449,0.711,0.678,5.29,-3.374,-8.023,3,0
54142,0.397,0.728,0.646,5.687,3.893,-7.115,3,0
54198,0.338,0.764,0.636,2.809,4.237,-2.603,3,0
54249,0.338,0.764,0.62,-1.733,-0.863,3.885,3,0
54304,0.383,0.75,0.628,-7.176,0.366,8.809,3,0
54356,0.416,0.724,0.671,-10.214,0.947,10.038,3,0
54412,0.446,0.698,0.685,-8.916,1.687,7.023,3,0
54466,0.429,0.677,0.704,-5.855,2.473,3,3,0
54522,0.408,0.697,0.7,-3.137,1.069,0.595,9,0
54585,0.421,0.69,0.697,-0.244,-0.679,-1.557,192,0
54647,0.433,0.649,0.754,6.099,-7.107,-8.42,191,0
54703,0.481,0.681,0.745,22.962,-17.84,-31.168,8,0
54755,0.494,0.712,0.629,29.214,-17.565,-36.023,3,0
54810,0.355,0.774,0.566,24.947,19.756,-25.42,5,0
54862,0.198,0.843,0.594,20.305,17.916,-12.611,6,0
54926,0.233,0.853,0.569,17.107,-10.473,-6.42,0,0
54974,0.365,0.847,0.494,6.885,-11.031,-0.802,7,82
55026,0.365,0.844,0.51,-3.344,4.252,3.26,9,0
55090,0.323,0.827,0.562,-8.901,3.351,4.458,0,0
55152,0.357,0.801,0.589,-9.389,-1.985,5.221,0,0
55208,0.349,0.787,0.617,-10.771,6.351,8.13,17,0
55271,0.35,0.783,0.626,-8.466,1.504,8.191,194,0
55327,0.353,0.798,0.567,-12.908,9.985,13.931,4,0
55378,0.32,0.759,0.664,-16.565,6.924,19.45,4,0
55474,0.473,0.698,0.676,-7.214,-2.336,7.786,3,0
55529,0.451,0.69,0.717,-2.763,4.137,0.382,3,0
55584,0.403,0.718,0.682,2.71,1.473,-4.809,3,0
55640,0.367,0.747,0.65,3.656,1.916,-3.916,3,0
55692,0.356,0.745,0.644,2.115,-0.565,-0.763,3,0
55747,0.386,0.747,0.644,-0.397,-2.023,1.092,3,0
55799,0.396,0.733,0.658,-1.702,0.031,1.252,3,0
55855,0.398,0.736,0.659,-1.74,-0.206,0.748,4,0
55907,0.394,0.729,0.665,-1.168,1.168,1.13,4,0
55962,0.386,0.735,0.668,-0.55,0.298,1.565,3,0
56014,0.387,0.733,0.658,-0.634,1.672,2.229,3,0
56069,0.391,0.733,0.668,-1.771,1,3.061,3,0
56125,0.396,0.727,0.661,-1.45,0.221,3.244,3,0
56176,0.398,0.72,0.66,-2.649,2.221,3.542,3,0
56232,0.392,0.721,0.654,-3.618,2.137,4.237,3,0
56284,0.411,0.724,0.663,-4.321,-0.473,3.191,3,0
56340,0.409,0.708,0.679,-5.832,1.13,2.351,3,0
56392,0.427,0.698,0.694,-4.206,-5.137,-2.664,4,0
56448,0.483,0.665,0.697,-0.275,-6.359,-10.588,7,0
56511,0.382,0.69,0.771,8.878,2.969,-14.191,192,0
56566,0.462,0.726,0.685,18.756,-25.847,-23.557,5,0
56622,0.397,0.768,0.577,14.969,8.817,-16.58,4,0
56678,0.277,0.776,0.654,12.527,6.618,-10.099,4,0
56730,0.327,0.798,0.602,10.756,-11.847,-7.145,5,0
56785,0.382,0.792,0.573,5.481,-2.122,-2.832,6,0
56838,0.348,0.793,0.605,1.939,1.374,-0.916,6,0
56894,0.354,0.789,0.614,0.641,-1.504,-0.031,6,0
56946,0.367,0.776,0.618,-1.397,0.206,0.351,6,0
57003,0.366,0.781,0.629,-1.603,-0.328,0.374,6,0
57055,0.36,0.777,0.625,-1.931,0.412,0,6,0
57110,0.367,0.777,0.618,-3.122,2.237,1.786,6,0
57175,0.362,0.773,0.646,-2.542,-1.603,1.588,5,0
57230,0.393,0.762,0.637,-0.977,-1.878,-0.802,5,0
57284,0.38,0.769,0.639,0.878,2.725,-1.725,4,0
57338,0.352,0.779,0.631,2.603,0.496,-1.511,4,0
57394,0.358,0.784,0.635,2,-0.954,-0.977,5,0
57448,0.378,0.784,0.609,0.427,-1.298,-0.718,5,0
57502,0.35,0.777,0.637,-1.023,1.679,-0.45,5,0
57558,0.361,0.774,0.622,-1.321,0.405,1.137,5,0
57612,0.345,0.781,0.614,-3.107,3.718,4.382,4,0
57670,0.348,0.771,0.631,-4.733,1.328,8.489,3,0
57724,0.379,0.761,0.635,-4.939,1.214,9.336,4,0
57779,0.379,0.747,0.635,-5.282,2.878,8.977,3,0
57834,0.393,0.741,0.643,-5.618,3.328,9.366,3,0
57888,0.386,0.743,0.668,-5.802,1.916,8.809,4,0
57943,0.401,0.732,0.659,-6.443,3.42,9.427,3,0
57998,0.417,0.716,0.671,-6.099,0.427,6.473,3,0
58052,0.443,0.702,0.679,-4.069,-2.45,1.183,4,0
58107,0.441,0.7,0.674,-3.305,-1.55,-4.992,5,0
58173,0.442,0.719,0.64,-1.595,4.947,-9.076,192,0