Timestamp(ms),AccelX(g),AccelY(g),AccelZ(g),GyroX(deg/s),GyroY(deg/s),GyroZ(deg/s),DistanceLeft(cm),DistanceRight(cm)
18381,0.067,-0.622,0.752,-19.137,-28.092,10.672,0,63
18425,-0.001,-0.642,0.765,-19.092,-20.481,8.168,7,61
18469,0.058,-0.599,0.692,-19.542,-18.099,8.252,16,57
18513,0.058,-0.517,0.649,-24.634,-7.634,15.122,6,59
18556,-0.064,-0.613,0.714,-26.542,-22.634,19.336,6,58
18612,0.009,-0.61,0.616,-28.534,-27.939,25.473,0,58
18655,-0.032,-0.623,0.615,-37.901,-6.817,34.511,9,43
18702,-0.052,-0.673,0.617,-44.908,-8.748,33.618,8,66
18745,-0.08,-0.758,0.62,-46.786,-18.351,31.16,17,43
18789,-0.019,-0.759,0.558,-50.145,-8.725,33.321,8,44
18842,0.01,-0.761,0.523,-56.931,16.061,35.45,0,43
18886,-0.201,-0.89,0.616,-53.565,9.214,41.885,17,42
18940,-0.17,-0.925,0.524,-56.885,-7.916,37.168,0,44
18983,-0.22,-0.951,0.49,-56.87,9.687,31,17,44
19026,-0.266,-0.959,0.473,-38.893,-10.092,24.473,8,42
19081,-0.178,-0.958,0.396,-32.443,-10.779,15.626,0,45
19138,-0.252,-1.011,0.413,-27.26,-4.985,4.771,0,50
19193,-0.229,-0.946,0.374,-20.168,-6.634,4.527,0,49
19248,-0.255,-0.955,0.375,-17.13,1.221,3.13,0,52
19302,-0.295,-0.947,0.393,-8.626,-8.763,2.458,0,51
19357,-0.248,-0.915,0.362,-3.779,-7.244,0.641,0,52
19411,-0.27,-0.918,0.399,1.611,-10.412,-1.099,0,52
19466,-0.24,-0.903,0.387,3.817,-10.901,1.427,0,49
19521,-0.228,-0.881,0.404,6.015,-9.832,1.313,0,52
19575,-0.216,-0.875,0.384,5.519,-6.267,-2.183,0,51
19633,-0.212,-0.864,0.397,3.435,6.267,-3.336,0,50
19687,-0.229,-0.867,0.429,3.282,4.58,-2.969,0,51
19742,-0.209,-0.859,0.418,1.695,5.809,-3.183,0,50
19796,-0.221,-0.891,0.432,1.061,4.115,-3.374,0,50
19851,-0.196,-0.886,0.402,-0.489,0.29,-4.855,0,51
19906,-0.206,-0.891,0.432,-0.84,5.588,-4.855,0,50
19960,-0.205,-0.883,0.45,-0.122,1.115,-5.45,0,53
20016,-0.19,-0.864,0.45,-0.214,0.496,-4.954,0,53
20070,-0.184,-0.861,0.439,-1.664,0.534,-6.137,0,54
20128,-0.188,-0.859,0.438,-3.962,-1.031,-4.519,0,54
20184,-0.175,-0.866,0.449,-5.931,-2.038,-4.382,0,54
20238,-0.165,-0.896,0.447,-2.985,-2.924,-3.992,0,54
20293,-0.165,-0.874,0.44,-2.298,2.214,0.42,0,54
20348,-0.161,-0.885,0.45,-2.557,-2.908,-0.038,0,55
20403,-0.14,-0.887,0.417,-3.435,-0.412,-0.756,0,55
20458,-0.153,-0.888,0.415,-4.611,0.557,0.511,0,55
20513,-0.14,-0.875,0.41,-2.947,-2.519,1.198,0,55
20568,-0.14,-0.865,0.407,-4.962,4.664,0.58,0,55
20626,-0.165,-0.886,0.432,-4.672,3.634,-0.053,0,55
20680,-0.171,-0.904,0.419,-3.015,-0.557,0.802,179,55
20734,-0.149,-0.901,0.427,-1.58,2.817,1.382,0,55
20790,-0.159,-0.897,0.427,-0.519,0.641,0.756,0,55
20845,-0.148,-0.889,0.416,-0.718,1.702,-0.374,0,55
20900,-0.163,-0.892,0.424,-2.42,3.71,-1.046,0,55
20955,-0.163,-0.899,0.427,-2.916,-0.45,-2.42,0,55
21053,-0.156,-0.889,0.429,-1.901,3.58,-2.58,0,55
21108,-0.157,-0.886,0.43,-2.076,2.191,-3.321,0,54
21163,-0.156,-0.884,0.416,-2.122,3.679,-3.725,0,55
21221,-0.148,-0.886,0.41,-3,10.298,-3.473,0,55
21276,-0.153,-0.895,0.419,-3.725,12.565,-3.298,0,54
21331,-0.175,-0.887,0.415,-4.092,10.046,-3.695,0,51
21386,-0.175,-0.903,0.41,-2.061,2.107,-2.672,0,51
21441,-0.144,-0.893,0.385,-2.336,4.053,-1.695,0,54
21496,-0.129,-0.885,0.376,-4.099,17.443,-1.992,0,51
21551,-0.178,-0.898,0.41,-3.061,11.954,-0.664,0,50
21606,-0.167,-0.892,0.4,-3.916,5.389,-0.74,0,50
21661,-0.165,-0.9,0.394,-4.366,1.496,-0.71,0,49
21719,-0.143,-0.886,0.384,-4.634,5.985,-1.053,0,49
21774,-0.152,-0.902,0.387,-6.206,11.618,-2.023,0,48
21828,-0.175,-0.916,0.425,-6.321,5.687,-2.229,0,49
21883,-0.156,-0.908,0.394,-5.603,-2.618,-0.771,0,49
21938,-0.158,-0.903,0.391,-3.58,-1.985,-0.588,0,49
21993,-0.143,-0.899,0.368,-4.031,1.275,-0.908,0,49
22048,-0.16,-0.911,0.384,-5.634,2.756,-0.641,0,49
22103,-0.166,-0.909,0.375,-3.992,-0.908,1.198,0,48
22158,-0.15,-0.917,0.369,-5.107,-0.84,0.641,0,50
22215,-0.137,-0.908,0.358,-5.603,1.656,0.229,0,49
22270,-0.149,-0.918,0.357,-4.527,3.252,0.481,0,49
22326,-0.143,-0.911,0.356,-3.794,2.863,-0.298,0,49
22380,-0.144,-0.907,0.348,-3.573,5.13,-0.435,0,50
22435,-0.133,-0.915,0.336,-3.153,9.847,-0.634,0,49
22491,-0.148,-0.921,0.344,-3.527,12.137,-0.84,0,50
22545,-0.149,-0.927,0.353,-2.863,9.771,-1.298,0,45
22600,-0.166,-0.921,0.353,-2.008,6.015,-1.206,0,44
22654,-0.148,-0.911,0.344,-2.626,4.733,-3.183,0,43
22712,-0.149,-0.915,0.345,-3.687,8.702,-3.603,0,44
22767,-0.159,-0.915,0.34,-3.756,10.947,-3.45,0,48
22822,-0.153,-0.913,0.339,-3.145,10.038,-2.817,0,48
22877,-0.152,-0.919,0.343,-3.939,10.992,-2.092,0,48
22932,-0.163,-0.932,0.357,-4.702,8.481,-1.573,0,42
22986,-0.165,-0.929,0.35,-3.328,2.58,-1.405,0,43
23042,-0.152,-0.911,0.336,-2.092,-0.786,-1.328,0,44
23096,-0.156,-0.919,0.333,-1.947,1.26,-1.802,0,43
23151,-0.139,-0.914,0.32,-2.542,5.588,-2.198,0,44
23208,-0.145,-0.928,0.323,-2.847,7.298,-1.702,0,45
23264,-0.162,-0.929,0.347,-2.206,3.336,-0.786,0,43
23318,-0.149,-0.924,0.329,-2.366,0.656,-0.145,0,44
23373,-0.145,-0.932,0.316,-2.656,1.725,-1.725,0,45
23428,-0.148,-0.928,0.333,-2.366,1.344,-1.702,0,43
23483,-0.145,-0.921,0.331,-0.328,0.748,-0.519,0,42
23537,-0.141,-0.916,0.313,-0.779,3,-0.779,0,41
23592,-0.152,-0.912,0.322,-0.634,1.656,0.511,0,41
23647,-0.152,-0.917,0.33,-1.489,-1.031,1.176,0,41
23704,-0.146,-0.921,0.325,-2.802,-2.26,-0.122,0,41
23759,-0.133,-0.923,0.331,-2.847,-1.565,-0.656,0,42
23857,-0.133,-0.926,0.325,-2.771,0.969,-1.305,0,42
23912,-0.133,-0.933,0.329,-3.145,-0.504,-0.855,0,42
23966,-0.131,-0.928,0.336,-1.916,-1.725,0.443,0,42
24022,-0.128,-0.924,0.323,-1.916,1.29,0.023,0,42
24076,-0.149,-0.924,0.342,-2.26,1.496,0.412,0,43
24131,-0.142,-0.921,0.34,-2.359,-3.305,0.557,0,41
24185,-0.118,-0.92,0.327,-2.298,-2.153,-0.069,0,42
24244,-0.128,-0.933,0.328,-2.359,0.786,0.023,0,43
24299,-0.128,-0.925,0.331,-2.344,-1.985,0.122,0,41
24353,-0.115,-0.931,0.323,-3.191,-0.878,-1.053,0,42
24409,-0.126,-0.928,0.329,-3.389,-0.542,-2.466,0,43
24464,-0.12,-0.921,0.33,-2.962,-2.718,-1.985,0,43
24518,-0.112,-0.926,0.308,-1.305,-0.664,-0.695,0,41
24573,-0.12,-0.93,0.321,-1.58,2.473,0.13,0,42
24628,-0.125,-0.927,0.32,-1.344,1.29,0.664,0,43
24683,-0.118,-0.932,0.323,-1.649,0.267,0.809,0,41
24741,-0.114,-0.926,0.321,-1.908,0.87,0.389,0,42
24796,-0.117,-0.931,0.327,-2.595,-0.191,-0.435,0,43
24851,-0.113,-0.932,0.323,-1.863,-1.756,-0.718,0,44
24906,-0.115,-0.933,0.315,-1.641,0.58,-0.977,0,42
24961,-0.108,-0.929,0.308,-0.916,2.42,-0.969,0,43
25016,-0.122,-0.924,0.314,-1.069,3.756,-0.221,0,43
25071,-0.112,-0.921,0.318,-2.008,1.252,-0.198,0,45
25126,-0.117,-0.923,0.306,-3.26,1.756,-1.336,0,44
25181,-0.124,-0.931,0.313,-3.656,2.878,-0.771,0,42
25242,-0.112,-0.938,0.31,-3.344,2.405,0.45,0,43
25293,-0.11,-0.932,0.334,-3,2.763,-0.053,0,44
25348,-0.094,-0.935,0.318,-1.244,2.718,-1.115,0,44
25402,-0.094,-0.932,0.317,0.305,5.779,-1.573,0,44
25455,-0.106,-0.938,0.325,0.595,6.885,-1.878,0,44
25509,-0.109,-0.927,0.311,1.008,4.389,-2.084,0,43
25564,-0.118,-0.928,0.308,0.046,6.496,-0.809,0,43
25617,-0.115,-0.921,0.321,0.176,6.718,-0.595,0,44
25671,-0.112,-0.921,0.327,-1.382,6.603,-0.931,0,44
25725,-0.118,-0.937,0.34,-1.55,4.824,-0.786,0,44
25783,-0.106,-0.924,0.338,-1.641,3.748,-0.053,0,44
25836,-0.113,-0.928,0.344,-1.733,2.824,-0.679,0,44
25890,-0.113,-0.932,0.333,-2.244,2.061,-0.878,0,44
25945,-0.113,-0.927,0.324,-1.718,2.153,-0.649,0,43
25999,-0.119,-0.929,0.33,-1.405,1.885,0.534,0,43
26053,-0.11,-0.931,0.324,-1.954,1.656,1.084,0,44
26107,-0.119,-0.926,0.339,-2.885,0.794,1.107,0,44
26161,-0.108,-0.939,0.324,-1.725,-1.374,1.351,0,45
26215,-0.093,-0.926,0.315,-1.382,1.466,2.061,0,44
26272,-0.11,-0.939,0.322,-1.183,1.443,1.863,0,44
26327,-0.103,-0.935,0.314,-1.42,1.267,1.916,0,44
26381,-0.1,-0.928,0.33,-2.504,0.267,0.863,0,44
26435,-0.108,-0.931,0.342,-2.489,-1.107,0.397,0,44
26489,-0.118,-0.922,0.329,-1.542,-0.641,0.458,0,43
26543,-0.125,-0.928,0.33,-1.931,0.58,0.359,0,43
26640,-0.117,-0.921,0.325,-1.565,-2.092,2.565,0,43
26694,-0.119,-0.928,0.318,-2.099,-0.305,3.519,0,43
26748,-0.119,-0.938,0.334,-2.183,-2.336,3.55,0,44
26806,-0.115,-0.937,0.322,-2.229,-2.954,2.725,0,44
26860,-0.103,-0.927,0.323,-1.481,-1.42,3.137,0,42
26914,-0.125,-0.923,0.332,-1.389,-1.252,2.985,0,42
26969,-0.118,-0.921,0.328,-2.374,-2.023,1.893,0,42
27023,-0.127,-0.925,0.337,-3.321,-3.42,2.374,0,44
27079,-0.136,-0.927,0.333,-3.87,-6.573,1.855,0,44
27134,-0.122,-0.921,0.333,-3.954,-5.298,1.802,0,49
27189,-0.134,-0.919,0.337,-4.366,-3.809,1.42,0,49
27243,-0.138,-0.92,0.338,-4.58,-7.008,0.824,0,48
27300,-0.124,-0.929,0.307,-3.733,-6.656,1.87,0,50
27355,-0.136,-0.934,0.328,-3.618,-5.847,3.74,0,44
27410,-0.131,-0.93,0.316,-4,-8.832,4.183,0,44
27464,-0.126,-0.926,0.307,-3.985,-8.412,3.618,0,50
27518,-0.126,-0.932,0.321,-4.412,-7.771,3.405,0,50
27574,-0.124,-0.93,0.316,-3.626,-9.26,3.802,0,50
27628,-0.119,-0.923,0.316,-4.328,-7.137,2.931,0,50
27683,-0.136,-0.935,0.327,-4.649,-9.305,2.305,0,54
27739,-0.12,-0.931,0.31,-4.855,-10.458,2.412,0,54
27796,-0.11,-0.928,0.309,-4.13,-6.176,1.969,0,54
27851,-0.129,-0.934,0.307,-3.786,-5.626,1.817,0,55
27907,-0.129,-0.928,0.305,-3.55,-6.198,2.137,0,50
27961,-0.122,-0.932,0.305,-3.359,-6.504,2.763,0,51
28016,-0.121,-0.935,0.305,-3.412,-4.931,3.351,0,51
28070,-0.124,-0.931,0.312,-4.122,-4.191,2.336,0,51
28126,-0.12,-0.942,0.317,-3.031,-6.435,2.229,0,51
28180,-0.114,-0.929,0.294,-2.756,-2.962,2.618,0,50
28235,-0.125,-0.942,0.304,-2.137,-2.038,1.611,0,51
28290,-0.107,-0.932,0.296,-1.687,-2.74,1.351,0,50
28348,-0.115,-0.935,0.309,-2.718,-0.374,0.695,0,50
28402,-0.11,-0.938,0.298,-2.405,-0.084,0.145,0,50
28457,-0.115,-0.936,0.304,-2.244,1.695,0.733,0,51
28513,-0.131,-0.933,0.307,-2.519,0.908,0.504,0,51
28567,-0.125,-0.935,0.318,-1.786,0.42,-0.053,0,50
28622,-0.131,-0.932,0.31,-1.153,2.015,0.634,0,51
28677,-0.126,-0.935,0.31,-0.809,1.756,0.313,0,51
28732,-0.123,-0.933,0.308,-0.832,2.618,0.855,0,51
28787,-0.125,-0.929,0.319,-1.954,1.313,-0.053,0,51
28845,-0.123,-0.936,0.313,-2.191,-0.221,-0.069,0,50
28900,-0.12,-0.938,0.314,-2.183,1.076,0.145,0,51
28955,-0.117,-0.93,0.301,-2.328,1.779,-0.832,0,50
29009,-0.124,-0.933,0.313,-2.481,1.786,-0.603,0,51
29065,-0.126,-0.931,0.309,-2.573,1.153,-0.924,0,50
29119,-0.125,-0.933,0.307,-2,1.206,-0.42,0,50
29174,-0.132,-0.925,0.304,-1.954,2.573,0.183,0,50
29230,-0.135,-0.931,0.308,-2.153,0.359,0.443,0,50
29284,-0.127,-0.935,0.313,-2.412,-0.725,0.695,0,50
29342,-0.121,-0.935,0.316,-1.557,-2.939,0.504,0,51
29441,-0.115,-0.931,0.312,-0.061,3.863,0.656,0,51
29496,-0.129,-0.941,0.31,-1.191,2.832,0.511,0,50
29550,-0.115,-0.931,0.295,-0.832,0.176,-0.176,0,50
29605,-0.122,-0.94,0.299,-1.191,4.863,0.252,0,50
29661,-0.121,-0.936,0.289,-0.802,5.221,0.107,0,50
29715,-0.122,-0.926,0.303,-2.321,4.863,-0.435,0,50
29770,-0.125,-0.922,0.306,-2.351,4.282,-0.305,0,51
29826,-0.128,-0.931,0.314,-2.16,6.015,0.641,0,53
29884,-0.134,-0.93,0.322,-1.374,5.229,0.664,0,54
29939,-0.123,-0.936,0.315,-1.687,5.931,-0.336,0,50
29995,-0.126,-0.937,0.324,-1.13,3.351,-0.954,0,51
30049,-0.135,-0.933,0.323,-0.687,1.641,-0.076,0,49
30104,-0.131,-0.94,0.335,-0.634,-1.221,-0.672,0,49
30159,-0.122,-0.924,0.323,-1.084,-3.641,-0.618,0,49
30215,-0.122,-0.927,0.33,-1.809,-2.702,-0.618,0,49
30269,-0.135,-0.934,0.324,-2.26,-3.725,-1.473,0,49
30324,-0.116,-0.936,0.313,-2.099,-2.802,-0.611,0,51
30383,-0.123,-0.939,0.323,-2.176,-2.275,0.023,0,50
30438,-0.11,-0.927,0.323,-2.252,-2.992,-0.046,0,50
30493,-0.111,-0.927,0.329,-2.878,-2.901,-0.435,0,50
30548,-0.116,-0.928,0.315,-1.962,-3.435,-0.244,0,51
30604,-0.114,-0.927,0.308,-1.344,-1.412,0.435,0,50
30659,-0.114,-0.934,0.322,-1.053,0.214,0.794,0,51
30714,-0.113,-0.934,0.319,-0.824,-0.939,1.565,0,51
30770,-0.109,-0.932,0.324,-0.588,-2.58,1.695,0,54
30825,-0.108,-0.935,0.323,-0.374,-2.153,1.733,0,51
30883,-0.105,-0.937,0.317,0.061,-1.611,1.458,0,55
30939,-0.107,-0.933,0.323,0.588,-0.336,1.672,0,55
30994,-0.118,-0.932,0.327,-0.824,-0.55,0.695,0,55
31050,-0.11,-0.924,0.329,-1,-3.351,-0.618,0,55
31106,-0.094,-0.93,0.319,-0.672,-0.824,0.069,0,55
31161,-0.106,-0.927,0.327,-0.679,0.359,0.191,0,55
31216,-0.109,-0.918,0.33,-1.29,-1.153,-0.053,0,50
31271,-0.106,-0.918,0.319,-1.672,-0.046,0.435,0,51
31327,-0.111,-0.923,0.326,-1.183,1.641,1.244,0,51
31382,-0.125,-0.934,0.334,-0.145,1.382,2.626,0,51
31440,-0.124,-0.913,0.333,1.29,2.42,7.16,0,55
31497,-0.137,-0.913,0.349,2.13,-0.305,7.687,0,56
31552,-0.129,-0.917,0.342,0.55,2.702,7.58,0,56
31607,-0.136,-0.916,0.354,0.168,-1.374,7.237,0,51
31663,-0.121,-0.91,0.334,-1.618,0.321,6.489,0,51
31718,-0.138,-0.918,0.32,-4.275,-0.206,4.725,0,51
31773,-0.107,-0.942,0.349,-1.679,-0.527,1.351,0,51
31828,-0.099,-0.922,0.343,-0.305,8.74,-0.038,0,51
31884,-0.166,-0.921,0.34,-0.809,8.992,1.137,0,51
31943,-0.156,-0.917,0.341,0.565,3.191,2.092,0,51
31998,-0.175,-0.923,0.357,0.473,3.573,3.977,0,52
32054,-0.148,-0.91,0.384,2.328,2.359,3.573,0,51
32109,-0.16,-0.921,0.324,-2.046,-4.412,3.023,0,51
32164,-0.147,-0.935,0.361,1.412,-1.771,1.87,0,52
32263,-0.158,-0.917,0.344,1.061,-1.504,0.664,0,52
32318,-0.157,-0.919,0.349,2.542,-0.511,0.664,0,51
32378,-0.145,-0.912,0.361,3.42,-2.206,0.366,178,51
32432,-0.186,-0.922,0.409,3.137,-10.641,0.374,177,50
32487,-0.136,-0.896,0.368,5.351,-20.389,-0.374,176,51
32540,-0.142,-0.895,0.374,2.74,-12.588,0.061,177,51
32584,-0.133,-0.904,0.381,2.008,-12.641,-0.71,9,52
32637,-0.127,-0.904,0.39,3.031,-10.313,0.58,176,51
32691,-0.129,-0.909,0.41,4.893,-8.802,1.725,177,53
32745,-0.126,-0.903,0.411,6.504,-7.313,1.305,0,57
32798,-0.123,-0.891,0.418,7.626,-7.611,0.527,176,57
32854,-0.126,-0.886,0.416,5.389,-0.252,1.053,0,57
32898,-0.099,-0.876,0.404,4.626,0.931,-0.55,5,57
32944,-0.108,-0.885,0.412,1.977,12.092,0.16,5,58
32987,-0.135,-0.891,0.435,2.328,12.71,-0.481,5,57
33031,-0.143,-0.891,0.437,2.412,12.275,-0.702,5,53
33074,-0.14,-0.888,0.459,2.634,10.183,-1.802,5,53
33117,-0.15,-0.876,0.458,1.939,8.779,-2.42,5,55
33161,-0.142,-0.883,0.46,1.702,6.015,-3.015,8,57
33204,-0.144,-0.881,0.473,2.595,0.908,-3.214,4,50
33247,-0.114,-0.871,0.432,1.84,4.099,-2.824,4,47
33290,-0.137,-0.883,0.454,1.634,5.725,-2.817,7,48
33346,-0.13,-0.878,0.444,2.191,6.847,-3.137,177,49
33399,-0.119,-0.872,0.442,1.328,8.718,-3.557,178,48
33454,-0.127,-0.878,0.458,-0.931,12.229,-3.931,0,47
33508,-0.14,-0.887,0.467,-1.168,10.985,-4.313,0,48
33562,-0.142,-0.882,0.461,-0.244,8.55,-3.756,0,47
33605,-0.12,-0.873,0.462,0.359,7.26,-3.71,5,48
33648,-0.112,-0.869,0.451,-1.16,9.733,-4.473,6,46
33692,-0.132,-0.876,0.475,-1.74,11.122,-4.267,5,47
33735,-0.12,-0.881,0.465,-0.443,8.336,-4.038,6,45
33781,-0.121,-0.873,0.455,-0.305,10.733,-3.885,6,46
33824,-0.138,-0.875,0.474,0.832,8.947,-3.702,7,46
33867,-0.122,-0.873,0.477,0.718,7.992,-3.466,7,44
33910,-0.121,-0.868,0.484,0.611,6.664,-3.214,6,45
33953,-0.121,-0.886,0.477,0.588,4.947,-3.107,6,45
33996,-0.121,-0.868,0.471,0.252,5.359,-2.611,4,46
34039,-0.128,-0.873,0.478,0.344,2.954,-2.076,4,44
34082,-0.126,-0.868,0.475,0.321,2.267,-1.504,4,44
34125,-0.118,-0.864,0.476,0.366,-0.389,-1.221,4,44
34168,-0.113,-0.873,0.468,0.221,-0.053,-0.847,4,46
34214,-0.125,-0.864,0.479,-0.023,-0.954,0.29,4,46
34257,-0.129,-0.883,0.494,1.321,-5.527,0.794,4,45
34300,-0.104,-0.868,0.461,1.221,-3.519,1.74,4,45
34343,-0.107,-0.865,0.469,0.29,-0.015,2.053,4,44
34386,-0.1,-0.867,0.462,-1.153,2.504,1.313,5,44
34429,-0.117,-0.874,0.478,-1.046,3.046,2.435,4,44
34472,-0.137,-0.871,0.49,-0.45,0.71,3.16,4,44
34525,-0.135,-0.874,0.493,0.275,-1.634,3.672,180,44
34578,-0.133,-0.871,0.497,1.046,-3.145,4.565,180,44
34678,-0.111,-0.865,0.485,0.084,-1.214,5.641,182,46
34733,-0.13,-0.866,0.494,0.542,-7.634,4.756,0,45
34787,-0.117,-0.857,0.482,-1.061,-1.443,4.901,0,45
34841,-0.135,-0.862,0.49,-1.351,-1.229,4.427,0,45
34896,-0.127,-0.866,0.489,-1.557,1.427,3.809,0,45
34951,-0.142,-0.86,0.507,-0.893,2.099,3.748,0,46
35005,-0.14,-0.855,0.498,-1.603,1.267,2.977,0,46
35059,-0.144,-0.863,0.495,-1.473,-0.496,2.015,0,46
35115,-0.158,-0.866,0.508,-1.618,-1.71,1.924,0,46
35172,-0.126,-0.862,0.495,-1.107,-1.611,1.252,0,45
35226,-0.141,-0.857,0.489,-1.71,-1.55,0.733,0,45
35281,-0.14,-0.858,0.503,-1.817,0.313,0.748,0,45
35336,-0.153,-0.859,0.505,-1.389,-2.435,0.771,0,46
35390,-0.142,-0.846,0.487,-2.321,1.534,1.122,0,46
35445,-0.152,-0.84,0.508,-2.786,0.992,1.779,0,47
35500,-0.179,-0.854,0.48,-4.389,-0.679,2.252,0,46
35554,-0.153,-0.869,0.426,-7.351,8.244,2.298,0,45
35617,-0.173,-0.914,0.438,-7.672,8.87,-1.374,0,46
35663,-0.156,-0.938,0.409,-9.527,23.588,-9.748,9,46
35706,-0.191,-0.959,0.427,-7.969,26.824,-16.26,10,46
35760,-0.154,-0.954,0.389,-5.534,26.786,-22.458,185,46
35814,-0.123,-0.95,0.348,-6.855,41.748,-25.786,190,44
35867,-0.125,-0.89,0.372,-3.031,48.282,-22.695,190,44
35920,-0.097,-0.881,0.385,-0.092,47.466,-17.237,189,45
35975,-0.084,-0.94,0.416,0.374,48.145,-21.763,191,44
36028,-0.052,-0.844,0.402,4.916,53.023,-19.237,193,44
36082,-0.124,-0.819,0.439,2.466,55.847,-16.313,0,46
36140,-0.147,-0.82,0.439,-1.573,44.573,-19.824,195,43
36193,-0.118,-0.802,0.391,-4.328,46.519,-18.947,0,40
36247,-0.147,-0.841,0.384,-5.191,62.214,-12.847,0,40
36301,-0.205,-0.871,0.383,2.374,58.29,-3.351,0,39
36355,-0.198,-0.896,0.363,11.924,46.389,6.71,0,37
36409,-0.195,-0.916,0.358,20.053,34.229,15.015,0,36
36462,-0.163,-0.901,0.308,17.168,39.122,17.557,0,36
36515,-0.211,-0.894,0.321,6.977,49.695,13.176,0,35
36570,-0.25,-0.948,0.329,-4.015,55.145,-4.137,0,36
36626,-0.274,-0.92,0.332,-7.908,65.603,-13.092,0,36
36680,-0.409,-1.091,0.368,-8.527,62.893,-33.939,0,36
36733,-0.345,-0.928,0.283,7.267,45.817,-39.84,0,38
36777,-0.298,-0.934,0.164,10.901,81.87,-46.015,16,44
36832,-0.397,-0.984,0.184,8.641,102.046,-57.473,0,50
36886,-0.395,-0.923,0.198,3.359,97.481,-65.847,0,43
36940,-0.398,-1.076,0.252,-8.84,82.886,-79.191,0,45
36995,-0.366,-1.144,0.306,-16.015,44.71,-90.962,0,43
37049,-0.226,-1.276,0.194,-18.893,22,-102.901,0,40
37106,-0.056,-1.137,0.143,-16.458,44.107,-108.656,0,40
37153,-0.048,-0.725,0.34,-28.489,88.656,-101.893,90,39
37201,0.015,-0.446,0.528,-43.214,63.962,-66.359,90,42
37252,0.051,-0.5,0.67,-50.962,10.008,-53.595,126,45
37302,0.227,-0.56,0.474,-59.16,-34.992,-48.397,130,44
37394,0.471,-0.7,0.198,-55.969,-39.603,-8.336,114,45
37443,0.455,-0.721,0.096,-45.076,-44.115,-4.565,115,39
37493,0.519,-0.624,-0.081,-36.687,-40.443,1.092,133,37
37547,0.522,-0.609,-0.329,-42.733,-11.29,12.008,127,38
37597,0.502,-0.727,-0.457,-56.053,-8.443,12.046,134,35
37646,0.449,-0.912,-0.572,-72.733,5.267,14.718,119,35
37695,0.3,-1.135,-0.448,-69.313,16,18.863,121,35
37748,0.239,-1.164,-0.423,-53.366,12.107,19.267,0,31
37801,0.22,-0.98,-0.284,-44.397,21.42,30.878,0,27
37855,0.225,-0.913,-0.292,-37.344,15.573,22.87,0,25
37908,0.277,-0.875,-0.342,-31.351,16.374,16.863,0,23
37961,0.262,-0.856,-0.242,-21.565,39.84,19.061,0,26
38019,0.279,-0.939,-0.242,-15.206,5.893,14.038,0,31
38072,0.42,-1.42,-0.028,21.198,29.87,51.55,0,29
38125,-0.027,-0.991,-0.269,37.435,24.969,57.282,0,29
38177,0.123,-0.711,-0.286,22.198,-41.321,43.344,162,47
38228,0.107,-0.865,-0.195,22.489,-48.275,16.496,158,22
38282,0.156,-0.977,-0.415,10.985,-21.038,16.542,0,22
38328,0.112,-0.953,-0.279,3.603,-7.435,4.26,72,22
38370,0.076,-0.918,-0.29,3.198,4.382,-0.168,16,22
38413,-0.001,-0.911,-0.244,5.969,2.305,-2.664,15,22
38463,0.077,-0.965,-0.306,8.489,-4.931,-2.656,108,23
38514,0.116,-0.988,-0.372,10.366,3.878,-3.092,164,25
38557,0.199,-0.907,-0.318,14.588,-6.885,-8.069,15,30
38608,0.225,-0.959,-0.35,20.672,10.687,-5.061,164,26
38651,0.033,-1.012,-0.26,33.298,-5.962,-2.313,14,26
38695,0.171,-0.993,-0.285,51.618,-15.511,-0.649,14,50
38738,0.155,-0.972,-0.193,77.71,-1.84,4.008,12,28
38781,-0.007,-0.982,-0.061,103.641,6.511,20.458,17,24
38823,0.002,-0.976,-0.045,115.763,-24.038,25.511,12,25
38870,0.167,-0.968,-0.08,116.855,-20.275,17.58,12,23
38913,0.22,-0.903,0.021,110.473,3.863,8.947,12,22
38955,0.033,-0.865,0.2,112.71,19.336,16.13,12,21
38996,-0.099,-0.873,0.398,125.542,-11.298,16.298,12,22
39040,0.119,-0.71,0.441,136.122,-27.756,11.45,13,22
39083,0.198,-0.688,0.513,126.824,6.618,14.672,14,23
39124,0.079,-0.535,0.812,128.275,36.092,3.458,13,21
39168,-0.014,-0.626,0.693,120.71,-1.359,46.366,16,21
39213,-0.081,-0.531,0.978,115.427,-3.489,39.153,14,21
39256,0.085,-0.432,0.899,117.824,-24.183,30.275,16,22
39299,-0.057,-0.587,1.006,115.351,-9.573,11.992,16,22
39342,0.079,-0.339,0.901,114.374,17.794,19.382,16,22
39385,-0.057,-0.341,0.981,94.344,55.351,20.237,17,22
39438,-0.242,-0.375,1.122,84.137,26.901,18.252,0,26
39491,-0.147,-0.322,0.972,77.618,2.718,7.321,0,27
39534,-0.14,-0.271,1.05,48.901,16.229,-2.573,19,26
39580,-0.15,-0.305,1.067,38.359,-2.832,-4.053,58,24
39636,0,-0.194,0.956,34.16,6.305,-5.641,0,24
39682,-0.106,-0.155,1.107,18.198,10.863,-3.046,50,30
39727,-0.102,-0.133,1.042,14.855,-9.595,-0.153,51,23
39815,-0.063,-0.099,1.243,14.069,22.626,1.023,48,23
39859,-0.21,-0.03,0.995,16.573,27.023,8.618,52,22
39904,-0.282,-0.055,0.943,5.008,17.863,7.153,48,22
39949,-0.256,-0.104,1.091,1.046,-10.618,-2.366,49,22
39994,-0.106,-0.067,1.099,8.55,-17.511,-4.176,51,22
40039,-0.134,0.006,1,9.168,4.679,1.412,57,22
40086,-0.195,0.029,1.03,-1.885,-1.588,-0.855,48,22
40131,-0.127,0.031,1.038,-8.58,-12.931,-5.366,46,22
40175,-0.105,-0.042,0.98,-15.824,1.298,-4.962,48,22
40220,-0.177,-0.109,1.043,-22.786,-3,-5.534,50,22
40274,-0.155,-0.138,1.059,-22.153,-4.359,-2.763,0,23
40318,-0.131,-0.109,1.033,-13.969,-8.992,0.328,46,22
40364,-0.145,-0.106,1.047,-9.878,-8.061,3.802,45,25
40408,-0.104,-0.123,1.018,-10.603,-12.992,4.206,44,22
40453,-0.104,-0.129,1.034,-14.55,-15.191,1.87,44,23
40501,-0.057,-0.123,1.031,-17.466,-11.389,-0.313,44,23
40546,-0.055,-0.17,1.024,-15.542,-4.153,-1.542,43,25
40590,-0.079,-0.185,1.046,-9.832,0.16,-1.756,44,25
40635,-0.092,-0.159,1.043,-2.374,3.191,-1.099,45,24
40680,-0.108,-0.135,1.051,1.649,-0.985,-1.061,49,24
40725,-0.068,-0.128,1.011,-1.916,-1.328,-1.298,46,24
40769,-0.052,-0.153,1.013,-6.344,-3.397,0.45,46,23
40814,-0.053,-0.159,1.015,-7.588,4.168,2.969,46,23
40859,-0.093,-0.184,1.045,-3.809,3.008,4.321,51,23
40907,-0.067,-0.182,1.013,-0.878,3.756,3.534,45,23
40952,-0.093,-0.194,1.052,0.252,3.137,2.817,46,25
40996,-0.08,-0.156,1.006,1.382,6.74,2.71,46,24
41041,-0.117,-0.145,1.051,0.466,4.916,2.427,48,23
41086,-0.075,-0.152,1.022,-0.656,-0.351,0.458,45,24
41132,-0.1,-0.148,1.04,-1.168,5.176,0.855,48,24
41176,-0.099,-0.149,1.029,-0.695,4.198,0.008,48,23
41221,-0.102,-0.142,1.032,-1.511,1.153,-0.092,51,23
41275,-0.098,-0.143,1.01,-3.664,4.405,0.305,0,26
41323,-0.126,-0.166,1.052,-4.634,1.061,0.733,44,25
41368,-0.091,-0.158,1.017,-3.298,2.863,0.527,45,25
41413,-0.126,-0.167,1.05,-2.008,0.908,-0.015,51,25
41458,-0.105,-0.163,1.02,-2.298,-0.382,-0.885,51,24
41503,-0.091,-0.161,1.023,-2.672,0.878,-1.443,51,25
41548,-0.108,-0.166,1.03,-3.489,0.435,-1.924,51,24
41593,-0.094,-0.161,1.022,-3.168,0.847,-3.053,51,22
41636,-0.097,-0.152,1.027,-4.031,3.191,-3.061,16,22
41680,-0.105,-0.161,1.036,-3.947,1.107,-2.206,16,22
41729,-0.1,-0.16,1.023,-4.985,3.084,-2.115,46,23
41774,-0.109,-0.156,1.037,-5.053,2.42,-2.397,47,24
41824,-0.096,-0.183,1.018,-3.885,0.74,-2.74,47,23
41868,-0.107,-0.171,1.029,-3.542,4.84,-2.015,47,23
41912,-0.118,-0.179,1.038,-2.42,2.443,-1.504,47,23
41956,-0.112,-0.17,1.028,-2.489,2.099,-1.634,47,24
42000,-0.115,-0.169,1.026,-2.626,1.672,-0.931,47,23
42043,-0.109,-0.171,1.023,-2.214,0.855,-0.519,47,23
42130,-0.104,-0.172,1.028,-2.328,3.504,-0.176,47,22
42177,-0.103,-0.17,1.013,-1.756,1.244,-0.389,47,22
42221,-0.125,-0.175,1.037,-2.069,1.573,-0.046,47,22
42265,-0.101,-0.18,1.024,-1.718,1.061,-0.061,47,24
42309,-0.12,-0.175,1.027,-1.473,1.664,0.435,47,24
42353,-0.113,-0.178,1.026,-1.924,0.282,-0.046,48,23
42397,-0.099,-0.173,1.025,-2.282,1.802,0.351,48,22
42441,-0.125,-0.175,1.03,-1.794,0.321,0.321,48,22
42485,-0.103,-0.172,1.023,-1.153,2.16,0.359,48,22
42529,-0.119,-0.176,1.033,-0.794,0.42,0.458,47,22
42576,-0.111,-0.176,1.023,-1.901,0.931,0.481,47,22
42620,-0.115,-0.174,1.025,-2.107,0.588,0.58,47,22
42664,-0.103,-0.179,1.024,-1.771,0.626,0.557,47,22
42708,-0.113,-0.181,1.017,-1.504,1.374,-0.023,47,22
42753,-0.112,-0.172,1.028,-1.695,1.405,0.26,47,22
42797,-0.117,-0.18,1.024,-2.061,0.656,0.351,47,22
42841,-0.115,-0.177,1.035,-2.099,-0.382,0.45,47,22
42885,-0.105,-0.184,1.034,-2.038,0.855,0.351,48,22
42929,-0.116,-0.176,1.032,-1.458,0.099,0.168,48,22
42976,-0.105,-0.17,1.025,-1.649,1.809,0.511,47,22
43020,-0.115,-0.179,1.023,-1.863,1.412,0.29,47,22
43064,-0.109,-0.178,1.026,-2.092,0.565,0.206,47,22
43108,-0.1,-0.173,1.028,-1.908,1.405,0.244,47,22
43152,-0.116,-0.182,1.023,-1.809,0.718,0.13,47,22
43196,-0.107,-0.182,1.031,-1.649,1.122,0.366,47,22
43240,-0.107,-0.174,1.025,-1.092,1.389,0.824,47,22
43284,-0.113,-0.178,1.022,-1.534,1.634,0.626,47,22
43328,-0.113,-0.165,1.036,-1.786,1.305,0.908,46,22
43375,-0.123,-0.175,1.024,-2.038,1.084,0.359,46,22
43419,-0.106,-0.17,1.03,-1.656,0.412,-0.084,46,22
43463,-0.122,-0.173,1.027,-1.901,1.191,0.412,46,22
43507,-0.111,-0.172,1.027,-1.954,0.023,0.328,46,22
43551,-0.103,-0.171,1.027,-2.244,2.099,0.443,46,22
43595,-0.122,-0.168,1.025,-1.634,-0.13,0.198,46,22
43639,-0.111,-0.168,1.022,-2.595,1.405,0.344,46,22
43683,-0.117,-0.174,1.024,-1.962,0.679,0.267,46,22
43728,-0.114,-0.18,1.025,-1.855,0.695,0.16,46,23
43772,-0.092,-0.169,1.018,-2.023,1.588,0.351,46,22
43820,-0.112,-0.178,1.032,-2.397,1.237,0.374,46,22
43864,-0.12,-0.172,1.028,-1.924,1.115,0.466,46,22
43908,-0.114,-0.181,1.029,-1.947,1.931,0.382,45,22
43952,-0.103,-0.174,1.02,-1.832,0.344,0.466,45,22
43996,-0.118,-0.174,1.015,-2.137,2.397,0.672,46,22
44040,-0.122,-0.168,1.033,-2.412,0.191,0.26,46,22
44085,-0.106,-0.171,1.021,-2.611,1.649,0.298,45,22
44129,-0.125,-0.186,1.025,-2.26,0.74,0.214,46,22
44173,-0.122,-0.176,1.016,-1.779,1.618,0.084,46,22
44220,-0.119,-0.173,1.026,-2.137,0.878,0.305,46,22
44264,-0.112,-0.181,1.022,-2.435,0.023,0.275,46,22
44308,-0.109,-0.184,1.026,-2.359,0.534,0.145,45,22
44396,-0.112,-0.17,1.017,-2.099,1.55,0.221,46,22
44440,-0.12,-0.188,1.026,-1.672,0.473,0.183,45,22
44484,-0.113,-0.174,1.024,-2.061,1.634,0.328,45,22
44528,-0.114,-0.178,1.027,-2.061,-0.252,0.473,46,22
44572,-0.111,-0.172,1.026,-2.489,1.221,0,46,22
44617,-0.124,-0.183,1.035,-1.847,0.672,0.107,46,22
44664,-0.101,-0.175,1.015,-1.679,1.969,0.588,45,22
44708,-0.119,-0.176,1.032,-1.718,1.084,0.344,45,22
44752,-0.108,-0.177,1.017,-2.557,2.321,0.55,45,22
44797,-0.126,-0.181,1.043,-1.725,0.794,0.42,45,22
44841,-0.108,-0.173,1.02,-1.344,0.992,0.336,45,22
44886,-0.12,-0.18,1.028,-1.29,1.137,0.405,45,22
44930,-0.117,-0.169,1.018,-1.87,0.817,0.397,45,22
44975,-0.113,-0.177,1.023,-1.962,0.611,0.29,45,22
45019,-0.106,-0.174,1.032,-1.565,0.817,0.389,45,22
45066,-0.123,-0.178,1.027,-1.687,0.74,0.496,45,22
45110,-0.112,-0.174,1.019,-2.16,0.565,0.45,45,22
45155,-0.126,-0.181,1.025,-2.351,1.137,0.29,45,22
45199,-0.106,-0.174,1.014,-2.015,0.069,0.359,45,22
45243,-0.115,-0.177,1.038,-2.153,0.71,0.542,45,22
45288,-0.108,-0.183,1.018,-1.977,0.473,0.321,45,22
45332,-0.115,-0.179,1.029,-1.71,0.878,0.359,45,22
45376,-0.114,-0.181,1.023,-1.557,1.359,0.702,45,22
45421,-0.114,-0.168,1.024,-1.656,1.466,0.656,45,22
45468,-0.12,-0.173,1.027,-1.718,1.611,0.489,45,23
45513,-0.105,-0.178,1.026,-1.977,1.26,0.588,45,23
45557,-0.121,-0.181,1.022,-1.237,-0.321,0.412,45,22
45601,-0.106,-0.172,1.019,-1.565,2.466,0.687,45,22
45646,-0.124,-0.178,1.026,-1.969,0.45,0.252,45,23
45690,-0.112,-0.178,1.02,-1.748,1.031,0.427,45,23
45735,-0.119,-0.175,1.024,-1.481,1.099,0.351,45,23
45779,-0.102,-0.167,1.017,-1.618,0.45,0.412,45,23
45825,-0.124,-0.18,1.03,-1.893,0.878,0.55,45,23
45872,-0.117,-0.175,1.02,-1.71,1.305,0.366,45,23
45917,-0.112,-0.178,1.02,-1.916,1.336,0.298,45,23
45961,-0.121,-0.17,1.024,-2.069,0.649,0.405,45,23
46006,-0.114,-0.173,1.026,-2.16,0.26,0.374,45,23
46050,-0.122,-0.175,1.032,-2.183,1.351,0.267,45,23
46095,-0.109,-0.174,1.017,-2.053,0.298,0.183,45,23
46139,-0.114,-0.179,1.032,-1.878,1.664,0.565,45,23
46184,-0.114,-0.177,1.023,-1.626,0.641,0.481,45,23
46228,-0.129,-0.172,1.04,-2.13,1.107,0.771,45,23
46276,-0.098,-0.182,1.022,-1.863,0.511,0.458,45,22
46320,-0.126,-0.184,1.035,-1.26,0.763,0.405,45,23
46365,-0.109,-0.167,1.023,-1.901,1.931,0.336,45,23
46410,-0.114,-0.184,1.026,-1.939,0.611,0.466,45,23
46454,-0.116,-0.172,1.016,-2.115,0.763,0.489,45,25
46499,-0.119,-0.173,1.028,-1.649,0.595,0.534,45,23
46543,-0.118,-0.176,1.013,-1.817,0.985,0.275,45,23
46588,-0.122,-0.178,1.032,-1.832,1.397,0.58,45,23
46676,-0.114,-0.175,1.026,-2.183,1.443,0.527,45,24
46720,-0.125,-0.177,1.018,-1.977,0.573,0.588,17,25
46768,-0.121,-0.179,1.008,-1.954,1.351,0.336,45,23
46813,-0.115,-0.175,1.023,-1.863,0.29,0.183,45,25
46857,-0.112,-0.167,1.021,-1.947,1.702,0.366,45,23
46900,-0.117,-0.175,1.024,-1.916,0.55,0.191,17,25
46944,-0.117,-0.177,1.032,-1.756,0.42,0.71,17,23
46988,-0.112,-0.17,1.021,-2.069,1.397,0.321,45,23
47033,-0.126,-0.175,1.023,-1.832,0.885,0.397,45,24
47078,-0.105,-0.18,1.031,-1.893,0.802,0.595,45,24
47122,-0.113,-0.178,1.012,-1.588,1.198,0.328,45,24
47170,-0.117,-0.171,1.023,-1.664,0.695,0.534,45,23
47215,-0.112,-0.174,1.024,-2.145,1.191,0.267,45,24
47260,-0.11,-0.184,1.015,-1.473,0.809,0.267,45,24
47305,-0.123,-0.172,1.028,-1.87,0.916,0.305,45,24
47349,-0.114,-0.171,1.021,-1.908,0.374,0.313,45,24
47394,-0.115,-0.18,1.022,-1.84,1.458,0.725,45,25
47439,-0.111,-0.185,1.018,-1.855,0.771,0.13,45,24
47484,-0.121,-0.178,1.028,-2,1.115,0.817,45,24
47528,-0.114,-0.177,1.026,-2.244,1.198,0.504,45,24
47578,-0.118,-0.176,1.027,-2.237,0.855,0.412,45,24
47628,-0.113,-0.179,1.025,-2.229,1.092,0.359,45,24
47672,-0.117,-0.18,1.028,-1.954,1.099,0.519,45,24
47715,-0.114,-0.176,1.019,-2.13,0.275,0.374,45,24
47759,-0.122,-0.178,1.023,-2.023,1.725,0.519,45,24
47803,-0.116,-0.179,1.027,-2.015,0.313,0.298,45,23
47847,-0.118,-0.175,1.021,-2.328,1.107,0.298,45,25
47891,-0.104,-0.177,1.021,-1.695,0.42,0.771,45,24
47935,-0.114,-0.177,1.023,-2.412,1.443,0.359,45,24
47989,-0.118,-0.182,1.027,-2.397,0.748,0.58,45,24
48035,-0.118,-0.178,1.021,-2.42,0.504,0.489,45,23
48082,-0.116,-0.179,1.022,-1.603,0.198,0.412,45,23
48129,-0.121,-0.184,1.02,-2.122,1.275,0.435,45,23
48175,-0.123,-0.183,1.023,-2.481,0.26,0.023,45,23
48221,-0.112,-0.173,1.02,-1.947,0.656,0.198,45,23
48267,-0.118,-0.18,1.031,-2.053,0.794,0.763,45,22
48313,-0.115,-0.178,1.019,-1.962,-0.466,0.26,45,22
48360,-0.121,-0.183,1.028,-1.87,1.458,0.45,45,22
48409,-0.111,-0.179,1.027,-1.878,0.847,-0.053,45,22
48455,-0.112,-0.179,1.022,-2.351,0.565,0.412,45,22
48499,-0.12,-0.177,1.022,-2.198,0.664,0.443,16,22
48544,-0.108,-0.186,1.031,-1.954,0.573,0.328,16,22
48589,-0.112,-0.184,1.021,-2.053,1.275,0.214,16,22
48633,-0.121,-0.187,1.034,-2.099,0.947,0.565,16,22
48678,-0.098,-0.174,1.029,-2.183,0.893,0.557,16,22
48722,-0.115,-0.189,1.04,-2.252,0.809,0.298,16,22
48768,-0.106,-0.186,1.009,-1.687,0.496,0.183,16,22
48815,-0.113,-0.184,1.033,-1.992,2.069,0.542,16,22
48860,-0.121,-0.171,1.02,-1.786,0.344,0.275,16,22
48905,-0.121,-0.189,1.025,-2.275,2.069,0.313,16,22