Timestamp(ms),AccelX(g),AccelY(g),AccelZ(g),GyroX(deg/s),GyroY(deg/s),GyroZ(deg/s),DistanceLeft(cm),DistanceRight(cm)
48376,-0.948,0.190,0.252,-8.038,22.649,55.901,0.0,122.0
48432,-1.197,0.251,0.190,-16.718,4.176,73.695,0.0,128.0
48488,-1.214,0.018,0.076,-6.366,-43.641,110.038,0.0,136.0
48545,-1.116,0.099,0.054,48.023,-49.695,155.954,0.0,144.0
48604,-1.113,0.518,-0.066,-16.076,-39.817,159.427,0.0,168.0
48657,-1.125,0.275,-0.075,-89.176,-18.740,127.336,0.0,73.0
48720,-1.018,0.325,-0.035,-92.595,-12.076,116.412,0.0,0.0
48784,-0.933,0.219,0.029,-75.595,-33.191,79.878,0.0,0.0
48844,-0.803,0.271,0.116,-21.664,-28.733,70.435,0.0,0.0
48904,-0.795,0.295,0.157,1.481,-30.305,41.641,0.0,0.0
48964,-0.933,0.441,0.086,-2.389,-17.053,0.214,0.0,0.0
49025,-0.937,0.332,0.126,-25.244,-2.122,-34.046,0.0,0.0
49085,-1.142,0.220,0.049,-12.061,11.405,-70.466,0.0,0.0
49144,-0.922,0.161,0.016,46.489,19.672,-83.015,0.0,0.0
49201,-0.896,0.182,0.022,71.267,28.389,-97.725,0.0,122.0
49256,-1.029,0.165,0.034,80.031,26.763,-110.573,0.0,117.0
49314,-0.983,0.236,0.040,112.886,23.634,-111.573,0.0,113.0
49370,-0.875,0.434,-0.017,114.832,22.656,-107.382,0.0,113.0
49425,-0.931,0.361,0.060,85.511,28.824,-99.893,0.0,113.0
49480,-0.910,0.343,0.129,45.824,37.366,-85.359,0.0,116.0
49541,-0.927,0.339,0.203,15.328,30.733,-72.374,0.0,0.0
49601,-1.036,0.319,0.234,23.832,25.962,-52.076,0.0,0.0
49661,-1.059,0.383,0.139,22.863,14.931,-6.580,0.0,0.0
49718,-1.485,0.458,-0.001,-28.267,4.389,46.092,0.0,133.0
49775,-1.338,0.161,-0.023,-57.260,-40.168,142.649,0.0,144.0
49839,-1.390,0.213,-0.133,-62.153,-51.611,219.496,0.0,0.0
49896,-1.175,0.334,-0.177,-107.817,-43.924,216.794,0.0,157.0
49956,-0.832,0.284,-0.096,-143.886,-38.000,172.756,0.0,0.0
50017,-0.701,0.274,-0.054,-127.420,-30.626,105.489,0.0,0.0
50078,-0.716,0.225,-0.002,-80.504,-21.557,45.351,0.0,0.0
50138,-0.802,0.233,-0.010,-37.901,-9.542,8.985,0.0,0.0
50193,-0.987,0.306,0.008,-15.069,11.718,-32.336,104.0,0.0
50253,-1.052,0.219,0.040,-10.107,22.473,-57.977,0.0,0.0
50314,-1.139,0.170,0.073,50.802,48.557,-100.687,0.0,0.0
50377,-1.024,0.283,0.065,62.389,80.420,-116.267,0.0,0.0
50438,-1.217,0.229,0.068,13.954,67.977,-137.931,0.0,0.0
50498,-1.049,0.039,0.184,53.191,50.962,-123.321,0.0,0.0
50558,-0.890,0.219,0.105,90.634,59.298,-104.611,0.0,0.0
50619,-0.848,0.392,0.094,12.870,41.282,-96.099,0.0,0.0
50679,-0.939,0.230,0.230,-15.061,35.031,-66.298,0.0,0.0
50740,-1.081,0.237,0.232,-0.634,18.000,-38.214,0.0,0.0
50800,-1.059,0.278,0.178,-2.458,-3.389,-5.382,0.0,0.0
50850,-1.191,0.368,0.119,-13.290,-12.252,35.893,18.0,0.0
50904,-1.595,0.320,-0.082,-53.221,-41.023,61.489,16.0,0.0
50953,-1.556,0.058,-0.189,-47.092,-80.817,138.771,16.0,0.0
51013,-1.388,0.177,-0.296,-63.931,-79.847,218.824,199.0,0.0
51073,-1.006,0.303,-0.219,-127.305,-62.870,219.702,165.0,0.0
51130,-0.773,0.241,-0.083,-138.534,-53.618,169.893,158.0,0.0
51184,-0.615,0.196,-0.022,-91.550,-47.473,104.130,151.0,125.0
51237,-0.630,0.244,0.014,-43.099,-26.450,54.038,147.0,127.0
51333,-0.931,0.316,-0.005,-8.718,16.611,-28.595,138.0,126.0
51388,-0.997,0.225,0.051,-4.122,31.740,-58.527,135.0,104.0
51438,-1.248,0.107,0.063,52.237,43.443,-88.710,132.0,94.0
51494,-1.012,0.147,-0.004,136.710,80.809,-110.168,131.0,0.0
51548,-1.191,0.465,-0.112,88.130,88.191,-116.115,131.0,140.0
51602,-1.304,0.267,-0.024,37.939,51.221,-133.321,131.0,140.0
51658,-0.967,-0.005,0.276,134.664,56.786,-110.382,132.0,0.0
51719,-0.918,0.404,-0.035,47.481,55.863,-92.794,0.0,0.0
51780,-0.748,0.228,0.169,16.588,40.939,-65.870,0.0,0.0
51841,-1.047,0.350,0.120,67.153,33.290,-5.580,0.0,0.0
51904,-1.152,0.464,0.166,40.733,-1.794,60.473,0.0,0.0
51964,-1.460,0.430,0.066,40.611,-36.107,131.565,0.0,0.0
52025,-1.456,0.583,-0.176,36.084,-60.115,198.237,0.0,0.0
52080,-1.097,0.666,-0.253,-90.557,-55.397,209.214,0.0,103.0
52131,-0.793,0.460,0.004,-116.198,-47.992,167.985,163.0,55.0
52180,-0.684,0.480,-0.009,-64.031,-39.130,138.687,156.0,50.0
52230,-0.455,0.462,0.033,-84.038,-38.420,108.992,152.0,51.0
52279,-0.494,0.410,0.050,-85.237,-45.511,50.748,149.0,40.0
52330,-0.543,0.276,0.169,-34.695,-38.702,3.382,148.0,31.0
52380,-0.731,0.295,0.125,24.893,-30.221,-24.916,0.0,33.0
52431,-0.842,0.428,0.073,58.252,-15.046,-52.382,0.0,35.0
52483,-0.903,0.503,0.002,31.832,4.779,-101.359,0.0,35.0
52535,-1.249,0.360,-0.004,7.160,28.725,-134.817,0.0,36.0
52586,-1.184,0.177,-0.029,46.916,44.527,-147.053,0.0,37.0
52637,-1.218,0.216,-0.082,68.489,54.580,-131.412,0.0,41.0
52695,-1.314,0.271,-0.082,88.168,49.565,-133.740,145.0,0.0
52753,-1.143,0.211,-0.052,118.137,47.420,-120.053,146.0,0.0
52816,-0.878,0.331,-0.018,115.557,47.962,-99.656,0.0,0.0
52878,-0.806,0.320,0.027,81.992,35.977,-77.573,0.0,0.0
52938,-0.825,0.386,0.050,60.382,40.595,-66.763,0.0,0.0
52999,-1.060,0.319,0.077,45.565,35.878,-56.626,0.0,0.0
53054,-1.064,0.276,0.134,54.893,27.336,-18.885,97.0,0.0
53114,-1.209,0.205,0.166,66.733,7.405,47.267,0.0,0.0
53171,-1.406,0.139,0.062,50.443,-35.557,133.321,125.0,0.0
53227,-1.705,-0.067,0.095,42.275,-82.031,250.130,113.0,0.0
53273,-1.731,0.238,-0.041,11.290,-102.160,250.130,104.0,49.0
53323,-1.201,0.273,0.030,-59.443,-114.298,250.130,100.0,57.0
53377,-0.748,0.134,0.131,-70.763,-113.107,194.000,177.0,77.0
53425,-0.456,0.118,0.177,-32.221,-99.252,117.244,99.0,83.0
53477,-0.372,0.198,0.122,-3.893,-89.168,46.718,168.0,87.0
53531,-0.386,0.233,0.136,26.450,-74.267,-30.305,0.0,90.0
53584,-0.541,0.321,0.128,64.710,-47.221,-101.443,169.0,97.0
53633,-0.816,0.408,0.059,80.992,-24.504,-156.656,93.0,90.0
53682,-1.139,0.323,-0.005,95.511,-13.985,-193.840,95.0,87.0
53735,-1.297,0.233,-0.066,153.672,-5.008,-228.168,0.0,73.0
53790,-1.420,0.286,-0.173,169.000,13.695,-192.450,159.0,81.0
53841,-1.518,0.424,-0.245,105.672,11.145,-177.313,94.0,142.0
53893,-1.283,0.185,-0.098,84.237,3.405,-139.840,96.0,137.0
53944,-0.962,0.153,-0.053,157.420,14.046,-91.954,99.0,134.0
53996,-0.765,0.298,-0.091,170.771,2.351,-53.557,101.0,134.0
54093,-0.681,0.413,-0.064,129.527,12.947,-47.275,103.0,189.0
54149,-0.750,0.317,-0.058,111.565,27.489,-36.031,103.0,0.0
54204,-1.011,0.278,-0.093,117.794,43.527,-4.183,101.0,0.0
54261,-1.297,0.371,-0.007,95.939,55.198,35.870,63.0,0.0
54317,-1.482,-0.112,0.141,68.267,-1.702,138.267,57.0,0.0
54368,-1.685,0.020,0.199,116.099,-14.069,250.130,79.0,137.0
54417,-1.677,0.313,0.110,62.244,-54.557,250.130,71.0,130.0
54474,-1.179,0.221,0.177,-19.443,-106.847,225.962,130.0,0.0
54528,-0.811,0.052,0.158,26.947,-131.664,146.450,129.0,142.0
54582,-0.517,0.137,0.017,103.573,-131.931,67.137,179.0,97.0
54631,-0.549,0.243,-0.172,131.305,-133.397,-0.176,93.0,97.0
54685,-0.581,0.325,-0.231,138.076,-133.008,-69.496,131.0,97.0
54736,-0.609,0.331,-0.219,129.015,-136.817,-116.802,138.0,97.0
54784,-0.704,0.339,-0.198,132.779,-136.137,-136.053,56.0,93.0
54838,-1.232,0.477,-0.223,171.420,-128.092,-157.008,0.0,87.0
54884,-1.410,0.470,-0.181,243.534,-98.969,-190.252,59.0,81.0
54930,-1.276,0.606,-0.214,250.130,-56.656,-180.290,65.0,77.0
54983,-1.177,0.700,-0.243,194.466,-16.603,-199.290,0.0,59.0
55040,-1.005,0.571,-0.128,77.511,8.641,-195.168,0.0,52.0
55092,-0.767,0.198,0.173,40.458,17.527,-145.527,0.0,50.0
55147,-0.923,0.271,0.173,94.237,21.916,-91.603,0.0,46.0
55199,-1.000,0.412,0.125,98.023,17.863,-69.191,0.0,43.0
55251,-0.972,0.437,0.112,65.168,25.023,-44.321,0.0,44.0
55304,-1.147,0.410,0.081,26.511,33.504,-0.214,0.0,49.0
55356,-1.222,0.352,0.083,-18.191,29.695,63.672,196.0,51.0
55412,-1.302,0.254,0.106,-75.916,9.771,141.588,156.0,60.0
55463,-1.338,0.162,0.089,-115.099,-22.870,197.878,177.0,69.0
55516,-1.378,0.230,-0.038,-126.672,-53.038,217.954,170.0,83.0
55569,-1.477,-0.962,-0.314,-250.137,-86.603,60.840,159.0,65.0
55614,-0.852,-0.080,0.197,-14.634,-74.160,128.420,78.0,65.0
55673,-0.813,0.220,0.009,61.275,-58.748,142.420,0.0,185.0
55733,-0.665,0.631,-0.151,-20.366,-39.748,89.443,0.0,0.0
55793,-0.677,0.369,-0.027,-83.458,-18.817,25.977,0.0,0.0
55853,-0.766,0.302,0.080,-31.840,17.221,-14.092,0.0,183.0
55905,-0.881,0.378,0.096,-13.221,34.420,-42.817,0.0,78.0
55962,-1.045,0.378,0.245,-2.779,61.481,-77.183,0.0,77.0
56015,-0.930,0.307,0.276,-44.397,55.550,-77.924,0.0,81.0
56071,-1.184,0.242,0.323,-59.695,50.634,-103.626,0.0,81.0
56125,-1.216,0.167,0.306,-43.122,34.168,-106.061,0.0,82.0
56172,-1.036,0.245,0.238,-49.107,15.046,-96.618,97.0,81.0
56218,-0.899,0.270,0.169,-71.427,6.015,-90.168,94.0,73.0
56265,-0.782,0.240,0.211,-86.153,-0.924,-75.618,90.0,76.0
56313,-0.782,0.310,0.129,-93.282,-1.397,-62.870,87.0,99.0
56364,-0.833,0.337,0.115,-109.290,-2.130,-53.221,82.0,164.0
56416,-0.886,0.424,0.021,-100.015,-4.977,-24.718,76.0,168.0
56463,-0.847,0.409,-0.039,-84.466,-8.817,25.679,75.0,104.0
56517,-1.279,0.531,-0.402,-61.802,0.412,74.466,66.0,183.0
56578,-1.400,0.581,-0.776,-250.137,-6.145,117.069,0.0,196.0
56627,-1.388,0.058,-0.412,-220.275,-16.954,155.649,128.0,82.0
56676,-1.246,0.056,-0.260,-90.565,-5.824,198.298,120.0,90.0
56769,-1.052,0.408,-0.199,-50.153,-6.634,168.443,107.0,108.0
56816,-0.907,0.389,-0.108,-107.916,-21.969,111.748,134.0,44.0
56864,-0.903,0.203,-0.005,-104.802,-19.076,67.969,131.0,54.0
56911,-0.986,0.193,0.023,-66.458,-12.656,38.061,130.0,50.0
56963,-1.102,0.215,0.000,-35.252,-10.809,1.038,130.0,53.0
57008,-1.120,0.254,0.005,10.878,7.802,-45.878,94.0,54.0
57051,-0.973,0.284,-0.028,17.450,24.771,-77.511,68.0,30.0
57094,-1.038,0.281,-0.067,0.107,26.595,-98.878,69.0,29.0
57138,-1.116,0.117,-0.018,9.756,18.122,-96.198,68.0,52.0
57181,-1.109,0.057,0.024,66.260,8.290,-82.710,72.0,27.0
57225,-0.974,0.139,0.020,123.137,8.565,-73.931,73.0,50.0
57270,-0.791,0.274,-0.012,142.626,9.275,-77.931,92.0,49.0
57316,-0.704,0.396,-0.031,114.618,14.962,-93.198,98.0,49.0
57378,-0.767,0.507,-0.035,43.458,25.557,-116.282,0.0,47.0
57430,-0.932,0.260,0.201,30.626,23.069,-112.450,0.0,48.0
57481,-1.086,0.358,0.205,58.756,27.321,-84.893,0.0,51.0
57540,-1.209,0.450,0.168,38.046,10.557,-54.344,0.0,125.0
57591,-1.305,0.487,0.073,3.191,10.076,-6.718,0.0,52.0
57647,-1.310,0.490,-0.036,-34.908,1.878,28.107,0.0,57.0
57699,-1.118,0.348,-0.069,-100.427,-25.466,91.771,0.0,60.0
57755,-1.202,0.255,-0.101,-109.191,-32.298,130.664,0.0,66.0
57807,-1.133,0.283,-0.161,-111.099,-43.527,153.237,0.0,72.0
57864,-1.026,0.208,-0.125,-123.878,-55.924,156.832,0.0,80.0
57921,-0.933,0.157,-0.069,-98.412,-60.588,142.550,0.0,88.0
57975,-0.918,0.167,-0.010,-45.557,-54.099,119.038,0.0,95.0
58030,-0.832,0.222,-0.002,-20.855,-42.733,92.137,0.0,103.0
58086,-0.888,0.333,0.030,-16.229,-19.206,30.985,0.0,134.0
58141,-1.086,0.211,0.092,4.878,-0.221,-33.710,0.0,110.0
58196,-0.856,0.137,0.147,73.565,22.382,-93.962,0.0,111.0
58251,-0.950,0.258,0.057,82.824,48.046,-103.214,0.0,112.0
58309,-1.130,0.226,0.042,53.084,31.344,-131.244,0.0,111.0
58364,-0.935,0.146,0.076,92.969,27.634,-138.893,0.0,110.0
58419,-0.840,0.318,0.032,117.786,48.542,-144.214,0.0,110.0
58474,-0.937,0.431,-0.053,44.405,44.427,-149.435,0.0,110.0
58529,-0.998,0.299,0.067,-4.557,49.916,-132.275,0.0,111.0
58585,-1.076,0.241,0.098,-5.847,49.656,-86.603,0.0,114.0
58640,-1.139,0.257,0.150,-5.076,33.878,-36.115,0.0,117.0
58695,-1.173,0.253,0.186,5.053,21.489,17.107,0.0,120.0
58752,-1.425,0.232,0.087,-5.366,-14.534,60.206,0.0,126.0
58800,-1.333,0.002,0.085,17.099,-68.802,164.901,17.0,129.0
58859,-1.460,0.075,-0.020,27.855,-77.786,226.397,0.0,183.0
58918,-1.258,0.318,-0.074,-37.420,-75.656,239.382,0.0,195.0
58971,-0.876,0.242,-0.022,-111.748,-73.504,195.466,0.0,57.0
59026,-0.750,0.150,0.034,-93.191,-62.511,140.588,0.0,54.0
59077,-0.651,0.187,0.069,-42.870,-48.641,78.969,169.0,57.0
59129,-0.649,0.259,0.049,-16.046,-35.458,10.603,0.0,63.0
59185,-0.773,0.234,0.052,14.198,-20.382,-55.779,0.0,57.0
59237,-0.993,0.186,0.031,55.496,-10.771,-99.481,186.0,65.0
59292,-1.210,0.208,-0.036,127.382,-1.939,-154.511,0.0,68.0
59348,-0.999,0.190,-0.005,162.260,26.893,-167.000,0.0,64.0
59445,-1.194,0.327,-0.096,31.038,46.099,-176.107,0.0,82.0
59505,-0.961,0.107,0.090,44.901,49.878,-151.153,0.0,0.0
59566,-1.021,0.255,0.002,94.405,54.076,-107.206,0.0,0.0
59626,-1.079,0.368,0.048,34.672,36.336,-80.427,0.0,0.0
59686,-1.027,0.274,0.147,15.779,41.870,-48.412,0.0,0.0
59746,-1.059,0.297,0.242,25.550,18.130,-9.084,0.0,0.0
59806,-1.010,0.421,0.192,22.802,8.901,22.267,0.0,0.0
59865,-1.243,0.414,0.110,-50.328,-6.947,39.496,0.0,0.0
59924,-1.391,0.187,-0.002,-84.695,-54.244,107.939,0.0,0.0
59977,-1.500,0.022,0.011,-59.160,-89.641,186.282,0.0,76.0
60032,-1.377,0.170,-0.159,-39.267,-87.725,213.397,0.0,84.0
60088,-1.004,0.285,-0.088,-96.565,-94.847,204.198,0.0,131.0
60142,-0.747,0.225,-0.016,-79.718,-75.565,159.466,0.0,85.0
60197,-0.730,0.308,-0.038,-59.985,-49.313,107.450,193.0,119.0
60253,-0.771,0.252,-0.064,-50.786,-18.725,58.374,196.0,123.0
60312,-0.747,0.311,-0.006,-13.893,14.176,-7.786,0.0,126.0
60368,-0.980,0.280,-0.011,-8.069,35.458,-58.168,0.0,129.0
60425,-1.007,0.216,0.045,33.031,60.435,-113.954,0.0,129.0
60485,-0.890,0.276,0.059,51.305,83.573,-139.916,0.0,197.0
60540,-1.161,0.207,0.050,22.076,83.130,-157.176,0.0,108.0
60596,-1.182,0.088,0.077,58.962,62.557,-143.947,0.0,107.0
60651,-0.990,0.319,0.026,116.740,59.412,-113.924,0.0,106.0
60706,-0.981,0.368,0.041,56.176,46.908,-106.511,0.0,106.0
60760,-0.920,0.288,0.120,26.153,41.038,-85.962,178.0,108.0
60818,-0.978,0.320,0.135,8.771,34.298,-60.359,174.0,138.0
60876,-1.060,0.304,0.158,-10.260,14.695,-34.489,185.0,170.0
60931,-1.099,0.257,0.144,-5.473,-4.000,6.962,163.0,119.0
60986,-1.211,0.353,0.096,-13.802,-16.733,46.908,155.0,170.0
61044,-1.439,0.289,-0.042,-51.863,-48.557,80.565,159.0,0.0
61100,-1.456,0.038,-0.098,-41.542,-86.901,158.840,147.0,146.0
61156,-1.332,0.164,-0.202,-27.740,-88.481,216.504,134.0,0.0
61212,-1.034,0.376,-0.236,-69.069,-61.908,205.763,122.0,0.0
61273,-0.788,0.301,-0.169,-120.122,-50.176,155.550,164.0,173.0
61325,-0.731,0.223,-0.100,-94.260,-41.588,103.519,0.0,57.0
61377,-0.693,0.229,-0.051,-46.305,-26.573,62.618,0.0,57.0
61429,-0.738,0.286,-0.037,-22.626,-2.687,24.176,0.0,57.0
61483,-0.800,0.331,-0.002,-10.443,25.244,-23.710,197.0,67.0
61536,-0.860,0.322,0.056,-15.260,51.847,-56.695,139.0,125.0
61585,-1.071,0.374,0.185,2.519,76.748,-106.405,136.0,66.0
61634,-0.783,0.322,0.320,16.817,88.611,-123.870,133.0,66.0
61683,-0.995,0.408,0.260,-11.366,82.740,-124.969,133.0,64.0
61734,-1.202,0.301,0.292,-16.168,63.115,-129.092,131.0,61.0
61784,-1.209,0.289,0.289,-20.611,43.756,-88.191,130.0,65.0
61829,-1.015,0.356,0.293,-36.260,20.511,-54.305,72.0,60.0
61877,-0.937,0.392,0.236,-57.634,8.519,-36.832,127.0,60.0
61926,-0.907,0.396,0.165,-77.435,4.206,-23.588,125.0,65.0
61980,-0.875,0.407,0.068,-89.221,6.870,-5.687,122.0,174.0
62029,-0.807,0.410,-0.019,-113.214,11.275,9.695,116.0,78.0
62077,-0.826,0.442,-0.062,-121.618,20.771,14.481,112.0,81.0
62130,-0.909,0.404,-0.174,-147.130,26.481,22.397,106.0,83.0
62220,-1.288,0.421,-0.500,-179.794,-1.237,22.740,93.0,66.0
62266,-1.220,0.278,-0.429,-171.244,-23.969,40.672,87.0,57.0
62311,-1.218,0.167,-0.316,-88.786,-18.626,74.954,81.0,53.0
62362,-1.031,0.242,-0.328,-54.695,-16.473,114.962,0.0,33.0
62414,-0.906,0.348,-0.308,-68.344,-17.595,132.725,0.0,46.0
62467,-0.851,0.402,-0.263,-83.382,-19.565,103.672,0.0,53.0
62518,-0.859,0.365,-0.198,-77.992,-5.313,76.725,0.0,39.0
62573,-0.774,0.419,-0.159,-59.695,16.015,56.374,0.0,93.0
62630,-0.740,0.552,-0.155,-82.244,38.183,26.206,0.0,97.0
62685,-0.864,0.614,-0.132,-119.489,62.046,-11.115,0.0,79.0
62738,-0.812,0.536,-0.052,-150.359,88.504,-24.511,0.0,74.0
62789,-0.933,0.467,0.025,-176.893,85.336,-29.542,0.0,36.0
62844,-0.942,0.309,0.095,-170.198,75.481,-23.267,0.0,38.0
62897,-1.035,0.220,0.178,-135.328,58.351,-20.084,0.0,43.0
62949,-1.078,0.134,0.158,-83.542,46.504,-36.733,0.0,47.0
63004,-0.980,0.177,0.093,-79.809,38.954,-43.733,0.0,50.0
63056,-0.891,0.128,0.044,-90.290,39.366,-57.466,0.0,54.0
63113,-0.886,0.123,0.009,-99.840,38.740,-59.939,0.0,57.0
63169,-0.879,0.149,0.051,-89.794,37.206,-60.122,0.0,62.0
63222,-0.862,0.215,0.081,-71.267,33.565,-51.786,0.0,64.0
63280,-0.816,0.238,0.097,-55.427,25.221,-41.748,0.0,71.0
63323,-0.833,0.233,0.093,-33.824,17.603,-19.107,16.0,77.0
63377,-1.286,0.380,-0.005,-21.908,21.473,-7.893,0.0,81.0
63431,-1.510,0.374,-0.168,-66.878,-15.160,20.489,0.0,91.0
63486,-1.215,0.042,-0.011,-76.588,-47.053,129.206,0.0,103.0
63546,-1.301,0.242,-0.099,-66.427,-51.389,185.771,0.0,118.0
63604,-1.054,0.275,-0.085,-98.962,-57.107,172.435,0.0,149.0
63656,-0.880,0.226,-0.044,-87.947,-45.137,133.122,0.0,42.0
63712,-0.770,0.225,-0.008,-66.855,-35.198,97.122,0.0,42.0
63764,-0.808,0.212,-0.026,-48.634,-22.473,59.374,0.0,57.0
63820,-0.828,0.268,0.021,-25.031,-8.328,30.038,0.0,58.0
63874,-0.993,0.250,-0.010,-13.885,4.748,-24.290,0.0,61.0
63927,-1.229,0.210,0.011,46.412,10.702,-66.458,0.0,63.0
63980,-0.958,0.207,0.004,115.122,24.473,-99.198,0.0,59.0
64035,-0.764,0.346,0.015,87.656,42.458,-99.137,0.0,57.0
64089,-1.033,0.295,0.040,32.809,42.046,-109.725,0.0,57.0
64145,-1.026,0.141,0.048,69.626,27.374,-112.198,0.0,55.0
64197,-0.947,0.217,0.019,145.931,33.878,-105.282,0.0,54.0
64253,-0.985,0.422,-0.033,106.710,26.664,-106.466,0.0,54.0
64307,-0.930,0.358,0.036,42.641,28.855,-93.840,0.0,55.0
64365,-1.051,0.243,0.078,26.511,25.504,-60.382,0.0,57.0
64420,-1.074,0.223,0.140,55.107,18.802,-26.260,0.0,60.0
64473,-0.987,0.362,0.116,48.977,10.977,7.931,0.0,65.0
64528,-1.092,0.425,0.070,4.198,2.748,24.107,0.0,70.0
64584,-1.280,0.451,0.004,-42.099,-1.573,23.275,0.0,78.0
64638,-1.223,0.231,-0.039,-91.076,-32.122,79.298,0.0,91.0
64693,-1.358,0.180,-0.085,-91.626,-50.244,134.550,0.0,101.0
64748,-1.287,0.164,-0.133,-88.359,-65.817,167.740,0.0,116.0
64807,-0.959,0.176,-0.082,-78.718,-66.916,178.962,0.0,187.0
64866,-0.871,0.266,-0.103,-56.260,-56.824,154.725,0.0,168.0
64968,-0.858,0.261,-0.047,-42.893,-33.053,81.130,0.0,184.0
65028,-0.957,0.314,-0.047,-34.641,-5.893,15.221,0.0,190.0
65090,-1.078,0.215,0.007,-7.901,20.328,-59.679,0.0,194.0
65149,-0.689,0.094,0.115,52.366,54.557,-121.580,0.0,194.0
65210,-0.829,0.261,0.083,60.084,63.702,-131.015,0.0,193.0
65269,-1.074,0.205,0.048,39.557,46.710,-153.664,0.0,192.0
65329,-1.025,0.184,0.103,83.924,54.099,-154.046,0.0,191.0
65388,-1.097,0.344,0.002,64.702,53.191,-136.229,0.0,191.0
65448,-1.058,0.254,0.109,25.672,38.221,-105.366,0.0,0.0
65509,-0.998,0.329,0.215,39.359,32.527,-52.580,0.0,0.0
65571,-1.081,0.406,0.198,34.061,1.168,-13.565,0.0,0.0
65631,-1.036,0.461,0.110,-2.992,-6.443,24.260,196.0,188.0
65690,-1.512,0.486,-0.099,-68.168,-15.336,51.389,0.0,0.0
65748,-1.240,0.186,-0.117,-115.542,-48.015,128.267,167.0,0.0
65808,-1.405,0.148,-0.195,-111.389,-61.786,192.038,183.0,0.0
65868,-1.237,0.170,-0.198,-94.084,-66.634,204.443,0.0,0.0
65929,-0.865,0.240,-0.129,-84.023,-59.809,180.962,0.0,0.0
65989,-0.675,0.280,-0.094,-70.855,-45.450,126.252,0.0,0.0
66049,-0.675,0.262,-0.057,-47.588,-26.550,65.679,197.0,0.0
66112,-0.749,0.285,-0.017,-19.779,2.664,15.710,0.0,0.0
66171,-0.922,0.339,0.002,-3.519,31.137,-53.412,189.0,0.0
66231,-1.153,0.329,0.028,-0.565,50.580,-110.160,186.0,0.0
66290,-0.935,0.169,0.121,33.550,77.427,-152.656,184.0,0.0
66350,-0.963,0.237,0.104,42.290,90.786,-141.031,183.0,0.0
66409,-1.285,0.174,0.018,18.481,66.893,-121.351,183.0,0.0
66468,-0.977,0.306,0.049,25.382,53.359,-94.969,183.0,0.0
66528,-0.912,0.338,0.060,26.031,58.282,-98.985,0.0,0.0
66588,-0.898,0.313,0.097,-16.069,46.458,-95.740,0.0,0.0
66652,-0.963,0.248,0.165,-17.099,33.229,-66.160,0.0,0.0
66712,-1.000,0.234,0.161,-3.534,5.962,-20.443,0.0,0.0
66771,-1.037,0.290,0.084,2.427,-12.641,25.771,0.0,0.0
66825,-1.468,0.328,-0.063,-11.718,-27.847,60.351,17.0,0.0
66884,-1.317,0.196,-0.216,-5.534,-61.107,127.595,174.0,0.0
66941,-1.468,0.327,-0.355,-69.695,-55.489,180.687,153.0,0.0
66999,-1.202,0.121,-0.193,-58.565,-64.641,200.229,144.0,0.0
67050,-0.871,0.191,-0.089,-33.786,-49.366,201.122,137.0,92.0
67099,-0.766,0.344,-0.105,-33.389,-46.038,161.550,131.0,76.0
67150,-0.739,0.301,-0.062,-52.748,-42.405,108.603,126.0,56.0
67201,-0.706,0.236,0.015,-35.427,-32.145,64.168,168.0,54.0
67251,-0.798,0.331,0.048,11.824,-16.145,12.137,165.0,55.0
67300,-0.895,0.464,0.025,31.649,-0.046,-38.985,163.0,44.0
67346,-1.049,0.480,0.022,-3.565,10.389,-71.099,111.0,43.0
67393,-1.300,0.463,0.078,9.595,21.389,-100.046,109.0,57.0
67439,-0.881,0.402,0.086,37.985,34.008,-104.015,108.0,58.0
67486,-0.981,0.529,0.061,23.611,26.405,-66.076,107.0,57.0
67536,-0.997,0.470,0.102,28.542,-8.076,-45.351,107.0,57.0
67584,-0.911,0.413,0.105,83.107,-26.939,-26.107,107.0,57.0
67630,-0.710,0.568,0.061,111.313,-23.237,-25.527,108.0,57.0
67677,-0.594,0.667,0.045,80.809,-14.389,-39.672,108.0,58.0
67727,-0.683,0.647,0.106,49.115,-9.374,-43.153,107.0,104.0
67825,-0.767,0.778,0.201,33.328,-8.634,5.305,0.0,108.0
67877,-0.700,0.815,0.280,32.634,-15.130,34.641,0.0,67.0
67934,-0.688,0.837,0.275,16.099,-17.298,51.053,0.0,132.0
67988,-0.816,1.041,0.279,0.710,1.053,62.565,0.0,84.0
68042,-0.973,0.768,0.142,-65.366,-23.473,88.489,0.0,45.0
68094,-0.933,0.613,0.157,-62.511,-38.779,90.908,0.0,48.0
68146,-0.870,0.512,0.128,-37.008,-38.328,74.840,0.0,35.0
68197,-0.592,0.432,0.102,-34.725,-31.756,50.420,0.0,42.0
68247,-0.491,0.344,0.094,-29.267,-25.000,16.275,191.0,36.0
68299,-0.654,0.331,0.088,-3.962,-21.702,-29.015,0.0,42.0
68348,-0.768,0.264,0.076,22.176,-10.519,-70.092,171.0,40.0
68399,-0.989,0.297,0.029,46.420,6.511,-97.595,167.0,39.0
68450,-1.081,0.295,0.004,51.649,15.679,-124.687,0.0,44.0
68504,-1.372,0.226,-0.069,61.573,16.916,-130.802,0.0,43.0
68559,-1.466,0.202,-0.127,103.397,13.954,-132.824,0.0,44.0
68612,-0.970,0.177,-0.003,131.733,14.023,-104.221,0.0,36.0
68658,-1.024,0.337,-0.014,123.962,11.366,-87.427,125.0,36.0
68714,-1.120,0.294,-0.062,96.679,-0.145,-82.267,125.0,0.0
68770,-0.884,0.249,-0.006,108.840,1.344,-59.038,125.0,0.0
68828,-0.863,0.301,-0.029,104.267,2.672,-42.069,126.0,0.0
68884,-0.812,0.351,0.025,84.366,10.595,-33.221,126.0,0.0
68943,-0.842,0.395,0.076,49.489,22.534,-42.763,124.0,0.0
69003,-0.935,0.350,0.118,33.412,28.679,-50.122,191.0,0.0
69059,-1.141,0.313,0.122,25.809,34.282,-32.603,124.0,0.0
69120,-1.469,0.348,0.081,-1.557,21.603,12.107,198.0,0.0
69174,-1.205,0.088,0.115,-38.527,-22.687,106.992,17.0,0.0
69220,-1.303,0.083,0.078,-34.443,-49.458,188.000,95.0,56.0
69266,-1.301,0.239,0.002,-37.542,-60.786,203.672,91.0,48.0
69311,-1.163,0.301,-0.044,-66.031,-67.359,173.969,86.0,53.0
69357,-0.926,0.172,0.003,-81.733,-72.504,150.641,83.0,59.0
69406,-0.765,0.170,0.039,-54.611,-64.939,120.496,79.0,65.0
69452,-0.637,0.229,0.047,-27.191,-55.107,75.939,76.0,71.0
69500,-0.664,0.260,0.015,-10.168,-42.931,23.779,73.0,96.0
69545,-0.688,0.233,0.048,7.107,-30.885,-21.885,70.0,66.0
69592,-0.815,0.268,0.019,34.924,-17.840,-64.031,69.0,71.0
69637,-0.927,0.244,0.005,61.489,-9.115,-100.115,67.0,70.0
69683,-1.198,0.287,-0.044,103.489,0.954,-141.122,68.0,70.0
69729,-1.093,0.262,-0.039,127.198,23.656,-167.886,68.0,71.0
69774,-1.006,0.321,-0.078,99.008,44.473,-151.985,69.0,70.0
69824,-1.212,0.323,-0.104,21.450,37.542,-123.939,69.0,84.0
69870,-1.247,0.023,0.002,28.771,20.626,-76.832,69.0,82.0
69918,-1.000,0.007,0.063,133.084,20.405,-26.214,73.0,98.0
69967,-0.827,0.312,-0.039,169.710,21.618,-14.954,109.0,100.0
70020,-0.733,0.443,-0.033,108.153,20.786,-21.931,79.0,171.0
70072,-0.770,0.390,0.077,46.565,36.031,-28.832,77.0,168.0
70124,-0.881,0.288,0.150,28.473,39.496,-27.710,74.0,170.0
70173,-1.116,0.183,0.186,46.947,27.756,-6.489,16.0,174.0
70227,-1.452,0.209,0.135,84.542,7.718,31.863,68.0,175.0
70278,-1.405,0.133,0.020,79.672,-37.107,80.443,65.0,150.0
70328,-1.129,-0.000,0.053,70.534,-75.969,177.473,58.0,154.0
70422,-1.374,0.342,-0.156,46.794,-113.664,195.740,51.0,178.0
70477,-1.119,0.174,-0.094,13.603,-130.824,155.565,97.0,0.0
70526,-0.794,0.176,-0.023,43.000,-126.565,110.023,93.0,95.0
70575,-0.658,0.260,-0.036,69.809,-117.817,44.267,91.0,96.0
70626,-0.583,0.280,-0.065,92.458,-111.252,-21.954,119.0,97.0
70680,-0.606,0.327,-0.120,113.886,-98.435,-76.107,121.0,172.0
70736,-0.687,0.308,-0.155,132.206,-82.450,-115.695,124.0,141.0
70790,-0.759,0.349,-0.209,130.481,-82.076,-137.947,120.0,128.0
70841,-1.252,0.377,-0.281,157.580,-90.015,-146.947,96.0,127.0
70887,-1.557,0.333,-0.346,250.130,-83.351,-168.687,82.0,67.0
70933,-1.220,0.307,-0.331,250.130,-55.069,-109.466,78.0,60.0
70978,-1.282,0.348,-0.306,246.740,-55.954,-79.107,74.0,53.0
71024,-1.092,0.549,-0.246,250.130,-89.160,-28.924,81.0,47.0
71070,-0.791,0.546,-0.284,161.450,-80.863,-26.198,95.0,43.0
71118,-0.643,0.345,0.030,122.603,-48.420,-9.359,80.0,39.0
71162,-0.698,0.501,0.021,131.374,-30.557,-1.382,80.0,36.0
71207,-0.680,0.604,0.076,74.870,-24.893,-10.969,80.0,37.0
71260,-0.686,0.471,0.265,48.366,-3.237,-19.023,81.0,71.0
71305,-0.785,0.540,0.262,53.565,14.145,-8.824,80.0,57.0
71349,-0.904,0.649,0.267,23.237,18.710,0.641,79.0,58.0
71395,-1.161,0.700,0.145,11.824,23.924,2.870,79.0,78.0
71440,-1.196,0.681,0.061,-29.344,5.603,30.595,76.0,64.0
71485,-1.133,0.514,0.050,-16.229,-13.664,61.786,75.0,72.0
71542,-1.001,0.586,0.025,-7.260,-20.466,87.496,0.0,93.0
71593,-0.840,0.529,0.041,-32.191,-27.191,98.786,86.0,167.0
71642,-0.659,0.529,0.067,-28.229,-27.595,96.817,75.0,111.0
71695,-0.625,0.627,0.010,-28.802,-19.702,87.023,179.0,112.0
71748,-0.639,0.639,0.049,-35.802,-14.427,66.229,177.0,109.0
71801,-0.658,0.620,0.104,-30.237,-11.832,50.305,177.0,98.0
71855,-0.635,0.600,0.169,-20.008,-8.588,26.290,174.0,97.0
71908,-0.698,0.626,0.138,-34.031,-2.183,-1.046,173.0,107.0
71963,-0.846,0.496,0.163,-41.977,-2.038,-41.000,174.0,92.0
72015,-1.048,0.361,0.161,-5.168,3.947,-78.489,177.0,83.0
72071,-0.950,0.278,0.114,45.580,22.748,-101.305,200.0,116.0
72123,-0.896,0.396,0.068,42.924,41.725,-113.656,158.0,114.0
72171,-0.947,0.339,0.095,-7.656,47.473,-126.969,157.0,25.0
72218,-1.081,0.223,0.123,14.031,43.985,-138.046,157.0,26.0
72266,-1.167,0.234,0.135,37.397,38.626,-136.649,157.0,23.0
72313,-0.903,0.680,-0.089,22.046,25.939,-121.206,157.0,23.0
72360,-0.920,0.310,0.152,-46.046,22.366,-106.985,157.0,16.0
72411,-0.929,0.291,0.172,-58.893,21.969,-84.595,155.0,14.0
72457,-0.917,0.335,0.155,-71.374,13.534,-62.092,152.0,16.0
72504,-0.920,0.365,0.133,-99.053,5.313,-37.550,148.0,16.0
72551,-0.995,0.308,0.095,-123.053,-7.748,-9.527,143.0,30.0
72598,-1.044,0.231,0.079,-108.275,-22.962,21.267,136.0,36.0
72645,-1.611,0.383,-0.140,-68.336,-27.489,38.145,129.0,57.0
72697,-1.146,0.266,-0.324,-133.267,-67.084,94.137,120.0,127.0
72749,-1.227,0.221,-0.445,-168.023,-86.794,162.374,116.0,136.0
72807,-1.186,0.127,-0.325,-109.802,-78.382,167.824,158.0,147.0
72862,-0.950,0.272,-0.272,-41.573,-38.015,159.847,153.0,157.0
72958,-0.816,0.385,-0.178,-74.359,-22.145,109.794,0.0,73.0
73016,-0.760,0.321,-0.039,-65.084,-2.763,78.618,0.0,80.0
73069,-0.804,0.349,0.031,-40.450,14.580,58.107,0.0,83.0
73122,-0.930,0.413,0.092,-27.725,13.366,20.160,0.0,84.0
73179,-0.971,0.376,0.176,-2.985,18.176,-17.542,0.0,123.0
73234,-0.970,0.387,0.200,35.344,32.450,-55.962,0.0,123.0
73290,-0.766,0.311,0.217,1.794,29.931,-53.260,0.0,126.0
73352,-0.988,0.253,0.167,18.977,24.481,-62.649,0.0,178.0
73406,-0.974,0.279,0.058,56.443,28.802,-79.718,0.0,84.0
73459,-0.876,0.340,0.003,56.992,37.733,-94.954,0.0,82.0
73512,-0.773,0.428,-0.039,29.336,47.672,-117.733,0.0,82.0
73567,-0.873,0.318,-0.038,7.832,50.344,-128.908,0.0,83.0
73620,-0.968,0.239,0.006,21.954,51.954,-115.740,0.0,85.0
73674,-1.024,0.290,0.032,78.863,45.374,-83.489,0.0,83.0
73718,-1.059,0.404,0.018,70.382,38.466,-49.687,37.0,85.0
73762,-1.002,0.480,-0.008,26.878,31.672,-9.740,32.0,88.0
73820,-1.345,0.434,-0.033,-14.992,21.786,30.282,0.0,95.0
73874,-1.391,0.354,-0.085,-36.511,-10.550,89.221,0.0,100.0
73929,-1.271,0.180,-0.061,-12.389,-43.832,164.305,0.0,109.0
73986,-1.255,0.666,-0.330,-62.618,-43.916,187.618,0.0,124.0
74046,-1.353,0.468,-0.305,-168.519,-57.489,194.092,0.0,0.0
74099,-1.219,0.710,-0.258,-122.954,-75.069,232.374,0.0,62.0
74155,-0.881,0.989,-0.159,-159.176,-77.336,250.130,0.0,57.0
74208,-0.821,0.947,0.004,-250.137,-80.672,219.412,0.0,64.0
74264,-0.663,0.672,0.281,-250.137,-99.756,169.183,0.0,79.0
74324,-0.398,0.358,0.432,-250.137,-99.359,112.115,0.0,0.0
74379,-0.199,-0.122,0.572,-250.137,-101.275,41.122,92.0,0.0
74433,-0.079,-0.375,0.859,-92.939,-65.466,21.855,80.0,0.0
74486,0.034,0.144,0.781,-49.000,-40.107,26.794,84.0,0.0
74541,-0.063,-0.013,0.859,-75.328,-20.565,4.649,81.0,0.0
74594,0.116,-0.235,0.903,-49.893,-9.519,8.092,79.0,0.0
74647,0.227,-0.173,0.759,-29.649,-10.023,11.641,81.0,0.0
74702,0.241,-0.240,0.777,-37.939,-14.557,5.473,47.0,0.0
74758,0.298,-0.206,0.822,-6.412,-10.557,0.702,43.0,0.0
74811,0.285,-0.278,0.835,-2.794,-17.992,3.038,84.0,0.0
74865,0.374,-0.253,0.945,-1.489,-21.321,-6.802,88.0,0.0
74919,0.388,-0.241,0.952,4.588,-14.718,6.374,91.0,0.0
74975,0.459,-0.169,1.046,-11.023,-16.565,19.649,43.0,0.0
75026,0.205,-0.157,1.088,30.847,-8.863,22.511,47.0,0.0
75081,0.307,0.000,0.949,-8.511,-12.282,28.145,100.0,0.0
75137,0.281,-0.178,1.000,17.298,5.740,17.855,107.0,0.0
75192,0.203,-0.058,0.886,10.290,12.924,18.672,107.0,0.0
75250,0.242,-0.203,0.861,-8.580,9.550,23.855,112.0,0.0
75305,0.241,-0.153,0.813,-1.366,6.237,12.473,113.0,0.0
75362,0.262,-0.229,0.862,-1.290,4.939,-2.061,120.0,0.0
75417,0.281,-0.202,0.889,14.802,11.962,-9.527,124.0,0.0
75478,0.191,-0.200,0.926,16.107,27.405,-24.122,191.0,0.0
75538,-0.057,-0.258,0.793,50.702,53.557,-42.160,194.0,0.0
75593,-0.204,-0.289,0.575,187.786,124.046,-84.740,0.0,108.0
75649,-0.512,0.052,0.363,242.412,184.847,-121.847,0.0,100.0
75746,-1.313,0.104,0.440,250.130,194.824,-173.817,0.0,98.0
75807,-1.173,0.773,0.011,250.130,156.977,-182.664,0.0,144.0
75867,-1.296,0.951,-0.149,240.695,79.305,-212.229,0.0,179.0
75926,-1.077,0.730,0.036,40.298,45.252,-250.137,0.0,174.0
75985,-1.214,0.470,0.106,97.756,69.916,-208.221,0.0,174.0
76045,-1.300,0.511,0.115,115.366,30.000,-169.519,0.0,186.0
76105,-1.222,0.528,0.040,90.183,27.901,-84.855,0.0,190.0
76166,-1.357,0.663,-0.040,-15.656,18.809,4.695,0.0,197.0
76226,-1.077,0.306,0.045,-86.206,-15.450,105.855,0.0,0.0
76291,-1.333,0.183,-0.005,-90.977,-44.565,183.473,0.0,0.0
76348,-1.549,0.230,-0.095,-75.328,-71.550,250.130,0.0,154.0
76402,-1.355,0.333,-0.088,-89.092,-85.542,250.130,0.0,69.0
76455,-0.933,0.389,-0.087,-95.099,-83.542,249.382,0.0,81.0
76508,-0.617,0.299,0.052,-107.504,-73.069,176.038,184.0,57.0
76558,-0.570,0.230,0.080,-63.168,-58.237,99.328,162.0,58.0
76609,-0.588,0.318,0.101,-12.160,-33.832,22.015,163.0,60.0
76658,-0.666,0.294,0.071,10.382,-7.084,-56.725,148.0,61.0
76711,-1.050,0.295,-0.059,44.107,3.748,-117.702,0.0,62.0
76768,-0.887,0.184,-0.000,89.740,24.466,-157.924,0.0,60.0
76824,-1.150,0.352,-0.076,114.481,43.557,-190.015,0.0,60.0
76882,-1.324,0.281,-0.115,82.886,41.542,-231.595,0.0,154.0
76943,-1.170,0.217,0.015,106.244,48.183,-221.893,0.0,191.0
77003,-1.163,0.361,-0.044,110.580,49.435,-204.015,0.0,0.0
77065,-1.146,0.339,0.015,56.725,33.824,-161.267,0.0,0.0
77125,-1.127,0.331,0.084,55.107,29.718,-93.489,0.0,0.0
77186,-1.078,0.422,0.077,39.443,15.962,-36.618,0.0,0.0
77247,-0.935,0.427,0.073,3.214,8.687,11.267,0.0,0.0
77310,-1.158,0.508,0.026,-38.580,7.061,47.160,0.0,0.0
77372,-1.321,0.254,-0.032,-74.313,-19.786,110.802,0.0,0.0
77425,-1.497,0.092,-0.085,-69.275,-45.130,214.183,0.0,80.0
77480,-1.595,0.220,-0.164,-79.458,-49.672,250.130,0.0,90.0
77541,-1.325,0.231,-0.152,-107.756,-60.427,250.130,200.0,0.0
77602,-0.833,0.229,-0.060,-97.794,-58.290,216.328,0.0,0.0
77661,-0.716,0.303,-0.090,-62.695,-39.802,139.992,164.0,0.0
77714,-0.591,0.303,-0.020,-57.947,-23.496,66.855,159.0,100.0
77770,-0.645,0.299,0.000,-33.985,3.099,-7.427,154.0,99.0
77826,-0.702,0.288,0.060,-1.931,22.282,-63.168,0.0,99.0
77883,-1.021,0.347,0.023,23.153,35.649,-127.618,187.0,151.0
77940,-0.993,0.216,0.059,86.931,55.076,-194.053,0.0,149.0
78001,-1.051,0.356,0.044,70.603,72.466,-195.992,188.0,0.0
78061,-1.403,0.315,0.081,50.824,57.863,-205.924,188.0,0.0
78118,-1.256,0.321,0.192,21.015,44.298,-156.496,139.0,187.0
78173,-1.052,0.443,0.237,-4.756,31.618,-113.092,136.0,142.0
78227,-0.955,0.360,0.329,-25.145,5.008,-73.221,135.0,145.0
78291,-1.037,0.526,0.156,-42.962,-11.573,-39.092,131.0,0.0
78348,-0.974,0.541,0.081,-91.649,-32.504,3.046,138.0,0.0
78404,-1.111,0.508,-0.083,-125.802,-38.863,31.618,130.0,0.0
78462,-1.150,0.473,-0.215,-146.366,-41.992,59.420,164.0,0.0
78512,-1.508,0.427,-0.564,-204.450,-48.420,83.832,152.0,60.0
78558,-1.359,0.283,-0.626,-235.595,-68.008,118.328,108.0,57.0
78653,-1.132,0.268,-0.653,-152.855,-39.908,142.832,173.0,81.0
78709,-0.918,0.421,-0.723,-178.214,-16.374,132.023,0.0,143.0
78776,-0.841,0.276,-0.606,-167.359,20.076,107.611,0.0,104.0
78832,-0.870,0.342,-0.523,-141.504,50.198,84.985,0.0,95.0
78888,-0.832,0.307,-0.329,-137.954,68.191,59.573,0.0,88.0
78945,-0.802,0.321,-0.154,-120.046,89.046,37.687,0.0,102.0
79001,-1.030,0.466,-0.070,-95.916,119.260,-10.977,0.0,88.0
79057,-1.040,0.517,-0.109,-159.649,127.115,-28.298,0.0,92.0
79114,-1.082,0.171,0.024,-227.137,77.947,-17.595,0.0,98.0
79171,-1.457,-0.421,0.339,-88.519,28.420,-5.420,0.0,103.0
79228,-0.995,0.377,-0.080,-26.557,49.076,-18.275,0.0,108.0
79289,-0.856,0.356,-0.166,-162.198,32.527,-43.557,0.0,114.0
79347,-0.831,0.149,-0.054,-173.328,44.435,-50.656,0.0,119.0
79406,-0.903,0.263,-0.065,-125.672,37.328,-56.260,0.0,126.0
79464,-0.966,0.245,-0.048,-100.473,18.916,-57.763,0.0,133.0
79523,-0.845,0.241,-0.012,-83.405,12.015,-19.641,0.0,141.0
79577,-1.055,0.324,-0.091,-85.450,5.634,5.611,0.0,40.0
79631,-1.393,0.393,-0.240,-64.863,2.588,6.969,0.0,46.0
79684,-1.240,0.313,-0.413,-144.420,-17.489,73.145,0.0,56.0
79739,-1.328,0.231,-0.356,-164.359,-24.344,105.718,0.0,66.0
79805,-1.185,0.051,-0.217,-111.550,-32.412,152.359,0.0,0.0
79867,-0.885,0.197,-0.119,-47.130,-36.893,167.076,0.0,0.0
79931,-0.774,0.403,-0.129,-47.962,-41.229,120.260,0.0,0.0
79988,-0.678,0.380,-0.031,-43.603,-32.275,79.115,0.0,120.0
80047,-0.681,0.454,0.025,-11.076,-1.336,53.115,0.0,125.0
80105,-0.695,0.601,0.045,-37.878,28.511,16.511,0.0,126.0
80163,-0.760,0.583,0.140,-88.435,47.664,-36.481,0.0,124.0
80222,-0.760,0.308,0.280,-73.031,49.634,-99.603,0.0,125.0
80283,-0.887,0.243,0.301,5.092,58.519,-109.313,0.0,123.0
80342,-1.143,0.405,0.115,10.954,49.527,-155.313,0.0,132.0
80400,-0.989,0.635,0.041,-60.015,38.580,-157.641,0.0,124.0
80459,-0.979,0.369,0.006,-184.092,46.176,-139.122,0.0,136.0
80520,-0.964,0.076,0.179,-150.137,27.298,-87.962,0.0,166.0
80581,-0.932,0.200,0.167,-58.466,3.000,-39.786,0.0,172.0
80644,-0.930,0.316,0.046,-32.710,-14.939,-0.824,0.0,0.0
80706,-0.876,0.412,-0.074,-36.786,-14.443,42.969,196.0,0.0
80769,-1.283,0.473,-0.278,-65.618,0.840,68.000,0.0,0.0
80834,-1.261,0.316,-0.389,-169.099,2.664,114.855,0.0,0.0
80898,-1.439,0.190,-0.348,-166.534,-14.427,154.229,0.0,0.0
80960,-1.218,0.211,-0.248,-106.649,-13.756,168.664,0.0,0.0
81022,-0.955,0.250,-0.187,-107.374,-11.779,169.260,0.0,0.0
81082,-0.844,0.351,-0.124,-89.214,-16.924,158.504,0.0,140.0
81137,-0.847,0.596,-0.051,-68.229,-17.565,134.695,0.0,70.0
81192,-0.684,0.560,0.070,-85.107,-13.611,103.779,0.0,73.0
81247,-0.673,0.522,0.172,-34.962,-6.229,57.359,168.0,77.0
81303,-0.704,0.627,0.220,8.244,3.290,26.748,0.0,81.0
81362,-0.597,0.650,0.243,20.298,20.786,-25.985,0.0,101.0
81419,-0.545,0.575,0.281,12.634,27.244,-33.771,181.0,101.0
81474,-0.737,0.698,0.290,4.137,18.595,-37.802,165.0,100.0
81529,-0.818,0.667,0.323,23.534,2.718,-38.206,172.0,100.0
