Timestamp(ms),AccelX(g),AccelY(g),AccelZ(g),GyroX(deg/s),GyroY(deg/s),GyroZ(deg/s),DistanceLeft(cm),DistanceRight(cm)
246443,-1.578,-0.207,0.806,203.534,-8.893,-110.748,0.0,86.0
246501,-1.719,0.323,0.212,72.115,53.366,-250.137,0.0,73.0
246558,-1.504,0.417,0.016,-152.786,45.985,-196.344,0.0,63.0
246617,-0.766,-0.264,0.338,-114.198,21.786,-118.000,0.0,58.0
246674,-0.589,0.032,0.261,82.855,21.969,-22.527,0.0,59.0
246731,-0.585,0.438,0.092,37.733,-0.344,9.947,0.0,59.0
246789,-0.569,0.312,0.189,-57.267,-0.023,18.489,0.0,63.0
246846,-0.669,0.222,0.238,-50.160,7.847,30.260,0.0,57.0
246906,-1.258,0.330,0.106,-46.267,-5.206,27.328,0.0,50.0
246963,-1.994,0.331,-0.151,-69.130,-19.794,74.947,0.0,50.0
247020,-2.000,0.103,-0.244,-173.313,-48.656,161.847,0.0,53.0
247069,-1.356,0.045,-0.003,-84.809,-58.573,160.244,58.0,51.0
247127,-0.715,0.126,0.016,-19.595,-53.435,155.191,0.0,45.0
247183,-0.397,0.234,0.001,-28.878,-51.542,138.534,0.0,43.0
247239,-0.326,0.189,0.096,-43.366,-55.504,99.939,0.0,45.0
247298,-0.347,0.165,0.141,-23.191,-45.962,50.061,0.0,61.0
247358,-0.637,0.247,0.226,16.733,-34.519,-16.595,0.0,67.0
247416,-0.649,0.321,0.279,58.725,-1.588,-78.450,0.0,67.0
247475,-0.968,0.413,0.270,28.679,31.069,-140.313,0.0,76.0
247533,-1.913,0.591,0.271,31.611,77.168,-250.137,0.0,66.0
247590,-1.831,0.051,-0.003,-90.695,48.031,-176.412,0.0,66.0
247649,-1.299,0.115,0.267,-75.641,29.015,-111.931,0.0,66.0
247707,-0.890,0.417,0.119,-28.847,40.130,-89.916,0.0,68.0
247766,-0.571,0.416,0.086,-149.359,19.786,-76.992,0.0,70.0
247824,-0.585,0.140,0.242,-167.443,5.580,-42.374,0.0,74.0
247886,-0.912,0.221,0.200,-91.328,-22.947,-22.466,0.0,80.0
247945,-1.140,0.248,0.124,-49.901,-51.328,13.481,0.0,87.0
248005,-1.441,0.258,0.024,-32.267,-65.847,83.588,0.0,98.0
248066,-1.797,0.156,-0.215,-45.282,-101.450,156.511,0.0,109.0
248126,-1.783,0.651,-0.571,-157.695,-61.137,224.275,0.0,99.0
248187,-1.378,0.269,-0.545,-250.137,-53.687,185.328,185.0,148.0
248254,-0.765,0.026,-0.283,-155.198,-46.115,171.931,200.0,198.0
248313,-0.476,0.421,-0.289,-78.565,-29.756,117.374,187.0,104.0
248375,-0.678,0.421,-0.192,-93.595,-7.275,51.115,176.0,90.0
248433,-1.007,0.337,-0.121,-76.656,27.573,31.710,167.0,93.0
248493,-1.343,0.492,-0.077,-92.229,61.817,72.145,0.0,98.0
248553,-1.250,0.260,0.101,-138.458,69.176,79.511,0.0,104.0
248613,-1.031,0.116,0.391,-115.542,67.992,48.000,0.0,110.0
248675,-0.581,-0.079,0.506,-22.542,89.847,-13.542,0.0,114.0
248735,-0.899,0.136,0.366,-28.969,89.321,-47.466,0.0,117.0
248797,-1.091,0.089,0.314,-19.260,78.725,-98.595,0.0,118.0
248858,-1.037,0.177,0.209,12.557,83.550,-116.809,0.0,119.0
248918,-1.017,0.293,0.101,-28.824,73.076,-106.275,0.0,121.0
248979,-0.868,0.203,0.147,-85.458,52.176,-80.664,0.0,124.0
249040,-0.868,0.127,0.190,-75.840,30.313,-40.061,0.0,128.0
249108,-0.818,0.119,0.212,-28.298,1.092,1.244,0.0,135.0
249169,-0.802,0.264,0.153,4.916,-4.137,22.344,0.0,142.0
249232,-1.240,0.412,-0.012,-19.977,4.031,31.237,0.0,148.0
249293,-1.674,0.267,-0.187,-70.450,-24.824,76.489,0.0,156.0
249354,-1.934,0.068,-0.339,-133.458,-59.305,175.840,153.0,167.0
249461,-0.912,0.130,-0.167,-83.947,-62.611,204.305,142.0,188.0
249520,-0.615,0.117,-0.159,-53.885,-40.832,144.092,0.0,80.0
249577,-0.570,0.161,-0.138,-34.603,-24.740,87.832,0.0,69.0
249633,-0.589,0.295,-0.059,-38.847,-1.756,26.427,0.0,57.0
249691,-0.607,0.237,0.037,-44.817,8.229,-20.779,0.0,54.0
249747,-0.614,0.222,0.062,-37.718,14.260,-44.634,0.0,61.0
249804,-0.667,0.210,0.114,3.496,12.733,-67.832,0.0,59.0
249861,-0.612,0.165,0.127,51.954,10.695,-85.107,0.0,57.0
249918,-0.828,0.309,0.105,95.038,18.053,-107.931,0.0,59.0
249977,-1.335,0.406,0.078,104.969,34.962,-159.679,0.0,57.0
250034,-1.944,0.438,0.126,86.038,76.618,-189.481,0.0,57.0
250091,-1.841,0.280,0.021,-39.000,83.588,-144.344,0.0,57.0
250147,-1.327,0.047,0.279,-66.183,55.427,-78.878,0.0,57.0
250205,-0.753,0.063,0.250,15.817,42.130,-22.000,0.0,57.0
250261,-0.479,0.265,0.182,21.557,25.611,3.649,0.0,58.0
250317,-0.392,0.273,0.214,-18.099,14.885,11.504,0.0,58.0
250375,-0.406,0.229,0.244,-25.412,8.359,16.069,0.0,58.0
250424,-0.654,0.318,0.227,-38.511,4.313,6.000,17.0,59.0
250480,-0.833,0.265,0.135,-51.405,-12.985,2.840,0.0,50.0
250536,-1.407,0.077,0.026,-20.641,-40.420,43.046,0.0,59.0
250594,-2.000,0.164,-0.317,11.046,-53.695,117.053,0.0,51.0
250650,-2.000,0.114,-0.281,-38.336,-73.427,179.756,0.0,51.0
250707,-1.336,0.261,-0.059,-8.962,-68.046,154.511,0.0,61.0
250765,-0.676,0.222,-0.070,-9.511,-54.053,112.153,0.0,74.0
250823,-0.376,0.102,0.007,-33.489,-48.954,80.771,0.0,80.0
250882,-0.387,0.050,0.048,-6.076,-32.427,48.450,0.0,80.0
250942,-0.490,0.179,0.006,13.656,-20.107,17.153,0.0,80.0
251000,-0.681,0.217,0.005,6.664,-17.412,-20.786,0.0,70.0
251058,-0.869,0.318,0.040,42.389,5.153,-67.870,0.0,69.0
251115,-0.834,0.255,0.201,36.305,26.595,-133.183,0.0,73.0
251173,-1.505,0.241,0.393,83.405,30.641,-171.519,0.0,82.0
251231,-1.730,0.369,0.199,123.435,68.389,-228.832,0.0,66.0
251288,-1.452,0.473,0.121,-28.076,46.397,-146.618,0.0,65.0
251345,-0.909,0.113,0.160,-49.550,27.450,-69.214,0.0,62.0
251403,-0.571,0.155,0.242,32.328,15.015,-3.176,0.0,63.0
251463,-0.402,0.414,0.147,25.282,11.855,8.435,0.0,65.0
251521,-0.635,0.525,0.154,-45.565,21.015,-19.794,0.0,65.0
251567,-0.809,0.150,0.147,-86.115,6.053,-3.542,16.0,58.0
251614,-0.993,0.151,0.203,-53.977,-3.244,46.763,19.0,57.0
251670,-1.905,0.197,-0.076,-34.611,-23.359,73.855,0.0,57.0
251727,-2.000,0.055,-0.231,-55.336,-58.702,145.168,0.0,58.0
251785,-1.689,0.178,-0.148,-21.267,-64.252,182.573,0.0,57.0
251842,-0.946,0.212,-0.112,-0.496,-56.893,150.695,0.0,73.0
251904,-0.453,0.189,-0.038,-52.397,-49.924,115.679,0.0,70.0
251962,-0.384,0.047,-0.015,-50.076,-39.015,70.466,0.0,79.0
252020,-0.376,0.008,-0.012,-19.763,-30.649,34.588,0.0,81.0
252079,-0.601,0.117,-0.002,5.985,-24.344,-9.473,0.0,80.0
252136,-0.774,0.167,0.126,43.962,-6.840,-74.908,0.0,58.0
252193,-1.206,0.378,0.168,80.947,26.504,-150.824,0.0,66.0
252252,-1.560,0.504,0.141,88.137,76.160,-224.344,0.0,79.0
252352,-1.588,0.202,0.057,-80.305,82.252,-194.504,0.0,67.0
252409,-0.731,-0.063,0.364,-28.710,63.061,-94.183,0.0,58.0
252460,-0.473,0.255,0.228,-3.061,35.366,-27.366,16.0,57.0
252507,-0.389,0.290,0.268,-24.282,17.527,-14.931,17.0,68.0
252553,-0.465,0.311,0.260,-25.588,12.160,-22.458,16.0,57.0
252600,-0.705,0.319,0.173,-28.328,-2.634,-28.191,17.0,57.0
252652,-1.020,0.105,0.110,-31.695,-26.458,15.992,125.0,57.0
252708,-2.000,-0.014,-0.292,-16.191,-60.092,119.366,0.0,50.0
252767,-2.000,-0.181,-0.298,-53.817,-112.450,250.130,0.0,63.0
252824,-1.457,0.140,-0.109,31.794,-119.290,246.595,0.0,58.0
252881,-0.828,0.214,-0.113,19.779,-94.298,171.061,0.0,64.0
252938,-0.400,0.098,-0.026,-27.649,-63.000,121.313,0.0,84.0
252995,-0.369,0.025,-0.030,-27.786,-34.550,66.611,0.0,64.0
253053,-0.353,0.014,0.002,-24.298,-24.015,21.145,0.0,72.0
253112,-0.555,0.089,0.049,9.924,-15.687,-46.275,0.0,81.0
253170,-0.719,0.187,0.138,42.336,7.870,-103.435,0.0,81.0
253229,-1.371,0.350,0.385,57.053,35.695,-168.557,0.0,77.0
253287,-1.831,0.429,0.249,112.886,92.298,-234.313,0.0,75.0
253345,-1.663,0.545,-0.032,-60.229,98.733,-190.550,0.0,69.0
253407,-1.133,0.038,0.205,-106.244,69.702,-128.855,0.0,70.0
253464,-0.673,0.042,0.347,8.931,61.489,-58.435,0.0,59.0
253511,-0.456,0.309,0.215,1.985,30.679,-26.351,17.0,68.0
253557,-0.446,0.261,0.284,-30.092,13.122,-15.977,17.0,59.0
253615,-0.489,0.211,0.271,-29.771,0.924,-2.893,0.0,55.0
253662,-1.027,0.250,0.207,-9.237,-22.412,11.519,16.0,57.0
253719,-1.756,0.053,0.026,28.069,-65.412,40.870,0.0,58.0
253776,-2.000,-0.056,-0.204,86.122,-93.962,164.473,0.0,58.0
253834,-1.997,0.109,-0.322,50.397,-96.817,250.130,0.0,68.0
253895,-1.066,0.361,-0.131,-28.580,-75.992,250.130,0.0,68.0
253954,-0.468,0.243,-0.046,-88.855,-55.702,185.878,0.0,65.0
254011,-0.209,0.155,0.033,-86.985,-36.412,118.733,0.0,57.0
254068,-0.208,0.285,0.062,-77.023,-18.389,62.779,0.0,60.0
254126,-0.221,0.326,0.120,-72.198,-8.588,26.145,0.0,57.0
254192,-0.365,0.542,0.287,-73.298,2.511,5.878,0.0,63.0
254247,-0.648,1.042,0.660,-67.397,25.290,-23.710,0.0,43.0
254304,-1.117,1.261,0.918,-112.321,26.626,-20.015,0.0,44.0
254362,-0.952,0.656,1.149,-150.130,-11.817,44.725,0.0,47.0
254412,-0.586,0.348,1.045,-101.901,-37.481,61.664,83.0,55.0
254469,-0.484,0.379,0.801,-98.115,-41.534,53.137,0.0,52.0
254525,-0.197,-0.021,0.638,-104.252,-56.397,76.328,0.0,56.0
254584,-0.073,0.065,0.467,-127.809,-64.542,78.901,0.0,106.0
254638,-0.166,-0.044,0.674,-58.466,-67.397,56.351,87.0,107.0
254691,-0.209,0.202,0.694,-52.779,-66.344,43.611,80.0,107.0
254743,-0.295,0.238,1.072,-31.947,-43.344,29.641,80.0,107.0
254795,-0.438,0.279,1.308,-9.084,-16.969,10.458,80.0,107.0
254852,-0.212,0.270,1.406,7.122,10.916,2.710,81.0,106.0
254904,-0.180,0.202,1.156,22.145,28.573,-9.672,81.0,106.0
254956,-0.049,0.138,0.946,20.870,38.534,-7.336,83.0,106.0
255015,-0.166,0.026,0.604,39.542,37.908,-20.603,0.0,105.0
255069,-0.166,-0.084,0.470,113.107,54.695,-47.519,85.0,104.0
255168,-0.376,0.067,0.161,250.130,77.718,-102.763,0.0,51.0
255224,-0.643,0.571,0.156,247.695,54.779,-143.244,0.0,47.0
255282,-0.926,0.805,0.246,139.702,11.000,-191.252,0.0,62.0
255341,-1.480,0.641,0.456,156.489,49.099,-234.275,0.0,60.0
255399,-1.776,0.630,0.122,179.901,100.374,-250.137,0.0,74.0
255456,-1.725,0.650,-0.147,-26.550,84.542,-250.137,0.0,61.0
255513,-1.058,0.004,0.119,-95.969,71.817,-159.107,0.0,57.0
255559,-0.714,0.172,0.157,-18.824,66.237,-50.763,17.0,57.0
255605,-0.547,0.333,0.144,-14.015,50.214,-14.908,16.0,58.0
255651,-0.504,0.374,0.199,-29.084,44.000,-10.244,16.0,57.0
255698,-0.558,0.301,0.230,-32.924,29.053,-10.557,15.0,61.0
255745,-0.877,0.102,0.251,-10.947,-7.397,14.985,16.0,57.0
255794,-1.281,-0.059,0.178,77.603,-52.305,82.015,17.0,57.0
255840,-2.000,0.121,-0.211,90.947,-90.298,157.107,17.0,62.0
255897,-2.000,-0.168,-0.279,70.084,-141.924,250.130,0.0,63.0
255954,-1.528,0.255,-0.145,52.198,-133.992,250.130,0.0,71.0
256013,-0.870,0.305,-0.111,8.015,-116.412,214.924,0.0,73.0
256071,-0.527,0.211,-0.011,-35.641,-107.832,135.374,0.0,78.0
256130,-0.300,0.145,0.060,-1.107,-102.656,46.427,0.0,80.0
256187,-0.234,0.228,0.044,70.557,-92.450,-21.359,0.0,80.0
256248,-0.360,0.466,-0.017,91.160,-89.550,-76.786,0.0,81.0
256307,-0.672,0.621,0.143,34.718,-109.351,-116.748,0.0,79.0
256365,-1.747,0.848,0.675,17.397,-131.153,-189.977,0.0,76.0
256423,-1.671,0.280,0.850,250.130,-82.634,-221.870,0.0,81.0
256480,-1.193,0.978,0.242,233.817,-19.725,-162.046,159.0,89.0
256537,-0.948,0.846,-0.105,62.916,-6.328,-203.061,165.0,89.0
256592,-0.820,0.263,0.146,75.336,-3.618,-183.389,171.0,71.0
256643,-0.893,0.368,-0.087,197.153,-18.603,-114.947,75.0,48.0
256692,-0.749,0.566,-0.074,169.168,-24.702,-71.496,79.0,40.0
256743,-0.706,0.481,0.050,131.389,-17.229,-38.924,85.0,35.0
256792,-0.744,0.402,0.120,133.336,-7.511,-19.992,89.0,32.0
256841,-0.663,0.366,0.150,127.618,3.573,0.878,91.0,30.0
256890,-0.751,0.396,0.204,114.015,14.519,5.076,94.0,29.0
256940,-0.951,0.335,0.258,108.267,20.802,0.489,97.0,27.0
256999,-0.841,0.328,0.303,111.924,25.336,11.351,98.0,0.0
257059,-0.732,0.448,0.289,81.588,27.550,16.702,107.0,0.0
257119,-0.964,0.556,0.212,68.893,15.885,-0.115,111.0,0.0
257180,-1.187,0.554,0.137,37.313,10.496,21.473,111.0,175.0
257241,-1.250,0.557,0.032,25.389,8.420,26.664,113.0,0.0
257301,-1.020,0.529,0.004,-1.160,13.336,31.656,112.0,0.0
257361,-0.816,0.496,0.005,-33.015,19.603,15.550,110.0,0.0
257425,-0.774,0.348,0.015,-44.626,11.313,5.809,183.0,0.0
257483,-0.729,0.251,0.044,-0.115,-1.718,3.611,126.0,139.0
257548,-0.671,0.284,0.020,32.237,-7.145,3.878,0.0,0.0
257610,-0.598,0.327,0.103,21.046,-3.718,20.145,156.0,0.0
257665,-0.887,0.440,0.250,17.397,-16.771,42.908,133.0,75.0
257729,-1.639,1.102,0.140,1.000,-33.519,31.595,131.0,0.0
257784,-2.000,1.196,0.149,-28.176,-41.130,23.031,166.0,60.0
257846,-2.000,1.009,-0.036,65.115,-39.527,-40.588,130.0,0.0
257899,-0.772,0.277,-0.188,-68.130,-20.366,-39.038,132.0,52.0
257993,-0.899,-0.333,-0.219,7.504,-16.000,-95.695,104.0,46.0
258045,-1.023,-0.088,-0.275,45.641,-4.924,-93.260,107.0,57.0
258098,-0.885,0.046,-0.112,29.198,3.038,-62.031,106.0,63.0
258159,-0.801,0.140,0.018,35.672,5.618,-41.885,129.0,0.0
258220,-0.629,0.119,0.114,43.832,-4.473,-24.733,128.0,0.0
258286,-0.490,0.177,0.167,77.725,2.313,-17.198,165.0,0.0
258350,-0.401,0.273,0.115,54.542,17.229,-12.458,169.0,0.0
258414,-0.453,0.267,0.087,5.962,28.244,-9.031,171.0,0.0
258480,-0.581,0.204,0.115,-12.344,33.962,0.267,0.0,0.0
258544,-0.767,0.182,0.140,-24.191,29.092,11.504,0.0,0.0
258610,-1.331,0.168,0.153,-8.336,24.740,-2.550,0.0,0.0
258675,-2.000,0.173,0.103,29.046,28.893,-11.405,0.0,0.0
258741,-1.797,0.110,0.064,63.122,13.557,-6.947,0.0,0.0
258802,-1.196,0.194,0.063,41.931,-0.603,26.863,138.0,0.0
258865,-1.216,0.153,-0.062,-17.870,-21.084,62.458,99.0,0.0
258925,-1.049,0.196,-0.058,-17.542,-16.252,81.466,98.0,0.0
258985,-1.070,0.324,-0.259,-35.015,-10.389,54.115,120.0,0.0
259050,-0.632,0.226,-0.205,-83.290,3.870,43.061,182.0,0.0
259111,-0.308,0.053,-0.139,-113.817,32.206,34.382,134.0,0.0
259165,-0.428,0.057,-0.133,-95.534,30.008,22.092,119.0,64.0
259217,-0.404,0.031,-0.072,-53.069,12.290,22.153,98.0,65.0
259269,-0.260,0.023,0.011,0.046,3.153,29.656,105.0,62.0
259324,-0.286,0.180,0.042,0.359,10.466,32.687,98.0,72.0
259377,-1.414,0.734,0.129,-44.679,24.382,19.901,105.0,74.0
259430,-2.000,1.129,0.304,-23.435,29.458,6.282,115.0,71.0
259481,-2.000,1.170,0.188,2.275,-3.802,-30.084,95.0,64.0
259533,-1.607,0.205,-0.105,58.374,-17.389,-70.015,89.0,66.0
259585,-0.613,-0.167,-0.310,-4.328,-50.321,-59.832,90.0,66.0
259638,-0.933,-0.253,-0.280,37.092,-35.076,-124.977,102.0,78.0
259688,-1.035,-0.029,-0.318,48.153,0.076,-93.863,87.0,59.0
259747,-0.930,0.074,-0.207,9.076,16.267,-62.069,87.0,0.0
259810,-0.627,0.039,-0.016,14.359,4.092,-32.550,89.0,0.0
259870,-0.513,0.011,0.095,80.481,-7.809,-14.863,110.0,0.0
259934,-0.442,0.176,0.090,109.008,-6.595,2.664,160.0,0.0
259999,-0.488,0.311,0.090,53.092,5.076,3.374,0.0,0.0
260062,-0.542,0.219,0.149,-7.809,18.389,-0.015,159.0,0.0
260123,-0.611,0.123,0.190,-11.794,22.153,1.733,123.0,0.0
260184,-0.902,0.179,0.246,-4.237,21.061,6.672,115.0,0.0
260243,-1.878,0.179,0.281,47.084,19.763,-5.252,83.0,0.0
260302,-2.000,0.183,0.182,68.427,11.389,18.916,90.0,0.0
260364,-1.715,0.414,-0.024,13.832,23.061,27.771,77.0,0.0
260424,-1.131,0.278,-0.123,-116.611,-1.969,66.947,110.0,0.0
260487,-0.999,0.188,-0.157,-114.886,-24.008,79.954,131.0,0.0
260541,-0.857,0.388,-0.265,-115.061,-23.443,51.733,127.0,69.0
260593,-0.842,0.271,-0.205,-101.771,-7.336,34.519,125.0,57.0
260645,-0.801,0.160,-0.164,-50.817,-9.977,35.137,102.0,59.0
260698,-0.666,0.175,-0.131,-12.817,-14.550,39.550,99.0,59.0
260750,-0.563,0.161,-0.095,7.008,-19.458,41.191,108.0,57.0
260805,-0.434,0.198,-0.101,3.939,-17.870,35.008,116.0,57.0
260857,-0.337,0.137,-0.055,2.702,-14.076,33.458,104.0,57.0
260958,-0.302,0.175,0.038,13.046,6.344,15.985,185.0,57.0
261011,-0.991,0.444,0.210,21.595,22.977,-1.046,120.0,66.0
261066,-1.931,0.835,0.208,26.885,24.756,-54.824,134.0,81.0
261121,-2.000,0.915,0.201,55.359,19.908,-117.481,132.0,64.0
261174,-1.894,0.643,0.098,59.145,26.153,-157.710,132.0,51.0
261227,-0.940,0.248,-0.010,-7.038,12.763,-105.450,133.0,58.0
261280,-0.883,0.047,-0.137,-29.481,-12.252,-56.916,106.0,68.0
261353,-0.862,-0.064,-0.222,26.107,-34.550,-34.771,112.0,0.0
261415,-0.677,-0.017,-0.162,65.901,-22.397,-2.985,129.0,0.0
261483,-0.480,0.087,-0.080,42.489,-7.939,5.725,139.0,0.0
261544,-0.404,0.121,0.029,45.099,8.595,2.527,151.0,0.0
261609,-0.401,0.233,0.051,37.786,19.366,-1.840,0.0,0.0
261675,-0.375,0.220,0.110,-2.321,28.405,-3.893,0.0,0.0
261734,-0.594,0.173,0.169,-28.611,28.954,-2.084,124.0,0.0
261793,-0.945,0.111,0.207,-49.282,15.206,10.870,92.0,0.0
261861,-1.963,0.103,0.243,24.435,7.550,-13.267,0.0,0.0
261919,-2.000,0.107,0.220,111.763,11.115,-11.305,85.0,0.0
261977,-1.727,0.401,-0.084,50.626,25.427,-24.099,84.0,0.0
262042,-0.965,0.144,-0.052,-81.412,-12.435,43.313,0.0,0.0
262099,-0.976,0.110,-0.184,-32.000,-26.695,66.931,0.0,72.0
262152,-0.858,0.226,-0.252,-7.565,-32.908,68.580,129.0,57.0
262205,-0.740,0.203,-0.266,-19.603,-15.786,63.992,127.0,56.0
262258,-0.567,0.178,-0.201,-47.954,-0.458,61.015,124.0,71.0
262310,-0.489,0.125,-0.135,-56.924,7.282,52.756,123.0,60.0
262365,-0.537,0.166,-0.115,-54.481,13.183,39.916,118.0,61.0
262417,-0.515,0.132,-0.053,-54.282,10.977,28.611,116.0,63.0
262470,-0.508,0.115,0.030,-22.672,12.031,15.885,121.0,65.0
262521,-0.551,0.174,0.035,1.473,13.481,8.015,103.0,60.0
262574,-1.231,0.274,0.027,18.870,8.427,-4.099,116.0,71.0
262626,-1.777,0.502,-0.025,75.573,-19.282,-4.137,117.0,61.0
262683,-1.893,0.794,-0.058,92.931,-14.298,-29.420,0.0,65.0
262742,-1.299,0.513,0.049,41.977,-14.267,-88.443,0.0,82.0
262800,-0.861,0.178,-0.011,46.092,3.252,-124.504,0.0,89.0
262861,-0.764,-0.107,-0.062,33.183,-11.947,-53.481,197.0,92.0
262921,-0.945,-0.043,-0.173,102.443,-28.305,-39.344,194.0,94.0
262979,-0.790,0.113,-0.118,110.573,-15.214,-5.580,191.0,98.0
263037,-0.728,0.181,-0.089,76.435,-2.679,12.305,189.0,101.0
263097,-0.641,0.178,0.048,68.802,-3.809,14.252,186.0,111.0
263161,-0.491,0.060,0.133,86.420,-10.275,28.664,183.0,0.0
263225,-0.623,0.149,0.210,122.504,-9.656,39.939,179.0,0.0
263288,-0.898,0.276,0.258,135.511,-5.153,4.534,176.0,0.0
263355,-0.964,0.231,0.262,128.886,13.855,-18.679,173.0,0.0
263420,-1.150,0.369,0.170,106.305,12.122,-25.489,0.0,0.0
263485,-1.408,0.383,0.165,103.939,8.931,-30.382,0.0,0.0
263550,-1.359,0.149,0.025,-14.756,-32.450,58.649,0.0,0.0
263615,-1.547,0.023,0.085,-10.687,-68.092,138.229,0.0,0.0
263677,-1.184,0.072,0.111,35.275,-110.153,161.565,156.0,0.0
263737,-0.747,0.235,0.111,21.641,-116.038,143.397,0.0,93.0
263796,-0.470,0.236,0.189,16.084,-98.908,89.374,0.0,93.0
263856,-0.350,0.192,0.200,34.473,-68.008,26.176,0.0,95.0
263960,-0.561,0.343,0.136,83.496,-12.122,-102.191,0.0,92.0
264025,-1.060,0.316,0.023,95.237,1.611,-171.672,0.0,190.0
264086,-1.570,0.153,-0.154,84.611,15.351,-162.305,154.0,178.0
264147,-1.309,0.153,-0.168,72.954,45.084,-118.336,153.0,175.0
264207,-1.529,0.129,-0.209,96.099,23.336,-76.473,154.0,142.0
264267,-1.115,0.117,-0.073,195.595,10.359,-65.344,156.0,151.0
264328,-0.729,0.299,-0.109,215.153,1.893,-56.809,158.0,169.0
264389,-0.542,0.366,-0.043,159.176,-2.069,-51.718,160.0,171.0
264454,-0.681,0.360,0.011,133.374,15.748,-57.130,165.0,171.0
264516,-0.794,0.466,0.076,90.168,45.603,-68.672,175.0,175.0
264581,-1.111,0.435,0.087,15.443,60.412,-62.069,176.0,0.0
264644,-1.456,0.225,0.152,-21.656,39.031,-8.031,173.0,0.0
264707,-1.443,0.047,0.179,-29.710,-12.947,128.931,169.0,193.0
264769,-1.794,0.019,0.046,-38.122,-68.489,212.695,140.0,0.0
264830,-1.258,0.110,0.028,-45.015,-97.107,237.145,123.0,0.0
264891,-0.769,0.177,0.055,-57.954,-92.359,197.099,123.0,0.0
264953,-0.540,0.213,0.072,-46.893,-67.000,127.802,0.0,99.0
265011,-0.540,0.246,0.066,-39.947,-39.794,53.000,0.0,50.0
265062,-0.811,0.336,0.082,-19.863,-9.099,-32.023,111.0,51.0
265114,-1.050,0.335,0.089,5.840,14.206,-99.137,108.0,57.0
265165,-1.473,0.283,0.015,37.176,25.962,-153.115,103.0,61.0
265217,-1.393,0.229,-0.041,77.458,44.931,-179.450,99.0,61.0
265269,-1.245,0.086,-0.125,52.298,37.656,-136.847,109.0,57.0
265321,-1.420,0.110,-0.053,42.328,19.237,-81.931,109.0,68.0
265373,-1.151,0.090,0.049,86.321,7.740,-48.229,109.0,57.0
265437,-0.952,0.243,0.090,102.679,11.313,-34.985,112.0,0.0
265500,-0.794,0.306,0.107,106.847,11.244,-47.824,168.0,0.0
265564,-0.527,0.274,0.105,95.779,17.420,-37.313,177.0,0.0
265629,-0.305,0.273,0.108,46.893,14.267,-9.229,0.0,0.0
265690,-0.377,0.233,0.134,10.969,12.718,1.496,116.0,0.0
265746,-0.881,0.185,0.193,-18.221,8.641,12.977,42.0,0.0
265802,-1.666,0.223,0.300,16.863,18.092,-5.038,41.0,0.0
265859,-2.000,0.318,0.231,76.809,25.076,-34.947,40.0,0.0
265915,-1.739,0.372,0.089,59.244,27.656,-17.107,39.0,0.0
265976,-1.253,0.337,-0.123,-47.466,7.115,32.206,84.0,0.0
266036,-1.161,0.110,-0.137,-66.908,-18.969,90.504,85.0,0.0
266095,-1.085,0.396,-0.310,-72.076,-12.305,93.916,98.0,0.0
266149,-1.027,0.289,-0.289,-127.695,-24.405,76.244,135.0,66.0
266204,-0.866,0.131,-0.204,-113.137,-33.649,69.282,133.0,66.0
266259,-0.622,0.071,-0.163,-51.092,-33.733,84.160,147.0,74.0
266314,-0.408,0.155,-0.170,-41.229,-25.031,99.443,143.0,85.0
266369,-0.299,0.148,-0.123,-64.305,-19.000,102.985,139.0,60.0
266427,-0.201,0.094,-0.027,-59.130,-16.908,88.534,135.0,76.0
266479,-0.305,0.070,0.159,-24.786,-23.893,81.069,117.0,58.0
266531,-1.043,0.970,0.415,49.832,-45.687,31.580,117.0,57.0
266589,-1.817,1.540,0.570,74.359,-30.641,-58.176,0.0,57.0
266647,-1.625,1.482,0.507,29.229,13.206,-133.366,196.0,67.0
266700,-1.047,0.546,-0.002,-48.069,59.824,-177.313,128.0,58.0
266752,-0.958,-0.243,-0.208,-137.779,50.695,-123.725,103.0,57.0
266804,-1.016,-0.274,-0.123,1.939,41.069,-112.466,112.0,58.0
266903,-0.892,0.182,-0.055,65.122,28.824,-55.305,115.0,59.0
266964,-0.690,0.178,0.013,80.740,32.115,-46.313,124.0,0.0
267027,-0.454,0.237,0.102,130.076,25.733,-59.511,149.0,0.0
267092,-0.335,0.392,0.090,78.695,39.977,-67.931,0.0,0.0
267154,-0.301,0.207,0.220,-31.183,27.137,-49.038,117.0,0.0
267219,-0.506,-0.008,0.312,-25.496,1.305,0.427,0.0,0.0
267276,-1.638,0.230,0.258,37.031,3.405,-4.824,43.0,0.0
267332,-2.000,0.239,0.176,50.618,-8.504,-14.015,45.0,0.0
267389,-2.000,0.245,0.045,59.176,11.565,40.611,43.0,0.0
267452,-1.178,0.412,-0.192,-103.481,13.466,96.053,87.0,0.0
267503,-1.249,0.069,-0.159,-139.908,-18.641,114.992,105.0,59.0
267566,-1.172,0.150,-0.246,-58.641,-28.634,106.130,131.0,0.0
267627,-1.082,0.221,-0.335,-56.412,-29.107,98.115,133.0,0.0
267689,-0.724,0.063,-0.227,-52.885,-29.443,91.031,137.0,0.0
267743,-0.284,-0.053,-0.095,-19.069,-46.084,73.992,131.0,60.0
267797,-0.177,-0.037,-0.069,8.176,-37.779,60.817,129.0,62.0
267852,-0.172,0.035,-0.042,18.000,-25.954,49.069,126.0,88.0
267908,-0.229,0.110,0.025,8.527,-10.153,39.718,140.0,89.0
267961,-0.552,0.319,0.188,16.519,3.191,35.947,133.0,86.0
268016,-1.715,1.239,0.236,-8.626,26.542,-16.183,138.0,79.0
268070,-2.000,1.282,0.328,-66.672,24.756,-74.115,137.0,67.0
268124,-2.000,0.923,0.433,8.137,40.962,-186.046,116.0,60.0
268176,-1.402,0.435,0.005,11.802,26.443,-180.771,112.0,50.0
268228,-0.690,-0.048,-0.008,-19.374,-4.794,-119.611,109.0,57.0
268289,-0.833,-0.014,-0.161,30.008,-12.076,-93.847,115.0,0.0
268350,-0.903,0.085,-0.103,66.313,-18.267,-48.328,120.0,0.0
268414,-0.684,0.223,0.024,81.084,3.031,-13.733,120.0,0.0
268477,-0.446,0.328,0.060,78.847,27.672,-28.847,143.0,0.0
268541,-0.272,0.331,0.070,27.466,49.878,-37.038,174.0,0.0
268607,-0.250,0.177,0.111,-26.313,46.588,-24.115,0.0,0.0
268674,-0.189,-0.060,0.221,-14.893,20.252,6.282,0.0,0.0
268730,-1.230,0.228,0.272,26.183,7.458,16.099,46.0,0.0
268787,-2.000,0.190,0.309,12.771,2.115,33.885,44.0,0.0
268853,-2.000,0.490,0.185,3.458,23.229,18.817,0.0,0.0
268918,-1.599,0.247,0.000,-56.389,18.397,44.595,0.0,0.0
268987,-0.956,0.012,-0.022,-76.290,-19.901,120.366,0.0,0.0
269054,-1.007,0.250,-0.235,-4.916,-38.618,80.779,135.0,0.0
269108,-0.986,0.301,-0.337,-18.405,-31.405,54.397,129.0,77.0
269168,-0.641,0.137,-0.228,-34.656,-6.145,61.427,126.0,0.0
269220,-0.296,0.042,-0.093,-47.947,8.740,67.389,111.0,61.0
269274,-0.176,0.043,-0.056,-56.817,8.221,63.275,124.0,79.0
269327,-0.172,-0.011,0.035,-34.718,5.000,43.130,117.0,76.0
269380,-0.188,0.040,0.078,18.176,8.427,27.023,122.0,80.0
269437,-0.712,0.403,0.172,34.427,23.962,10.313,126.0,86.0
269491,-2.000,1.339,0.025,-15.595,17.550,-39.916,120.0,80.0
269544,-2.000,1.000,0.196,-22.672,2.634,-73.977,119.0,79.0
269597,-2.000,0.857,0.256,-15.740,2.809,-156.496,119.0,73.0
269649,-1.000,0.189,0.126,94.397,23.260,-158.634,119.0,57.0
269707,-0.487,0.097,-0.103,41.489,37.939,-72.053,0.0,66.0
269765,-0.980,-0.027,-0.250,56.137,-21.290,-75.061,0.0,84.0
269867,-0.752,0.117,-0.151,123.412,-4.794,5.901,200.0,82.0
269925,-0.689,0.202,-0.111,82.870,1.000,6.450,200.0,87.0
269986,-0.444,0.131,0.063,61.412,-2.366,13.397,200.0,93.0
270046,-0.336,0.137,0.105,77.985,5.015,22.504,199.0,96.0
270096,-0.387,0.242,0.126,59.489,5.252,19.221,51.0,99.0
270152,-0.546,0.263,0.181,41.046,12.458,12.718,51.0,195.0
270211,-0.901,0.353,0.217,46.443,20.832,-7.855,0.0,99.0
270276,-1.167,0.321,0.174,38.588,21.687,-8.863,0.0,0.0
270341,-1.504,0.332,0.124,60.000,23.321,7.939,0.0,0.0
270406,-1.425,0.282,0.006,14.588,-12.733,40.282,0.0,0.0
270471,-1.435,0.053,0.082,-18.763,-62.771,128.420,0.0,0.0
270538,-1.366,0.189,-0.023,4.695,-91.298,144.458,0.0,0.0
270598,-0.916,0.111,0.061,-9.137,-126.137,132.061,0.0,90.0
270656,-0.640,0.110,0.122,37.305,-119.824,101.809,0.0,92.0
270715,-0.480,0.210,0.093,75.137,-98.023,53.649,0.0,95.0
270774,-0.400,0.329,0.079,74.626,-66.656,-8.382,0.0,93.0
270833,-0.530,0.364,0.101,64.756,-35.664,-79.496,0.0,93.0
270892,-0.780,0.350,0.074,75.130,-9.290,-135.588,0.0,90.0
270950,-1.063,0.222,0.011,90.863,-9.840,-158.450,0.0,87.0
271015,-1.597,0.179,-0.155,171.420,-15.496,-159.718,0.0,0.0
271081,-1.584,0.320,-0.246,163.107,-5.489,-89.886,171.0,180.0
271142,-1.439,0.271,-0.220,128.481,-24.534,-66.290,173.0,173.0
271205,-0.843,0.228,-0.112,210.901,-17.924,-59.145,174.0,174.0
271267,-0.513,0.421,-0.164,194.847,-10.397,-53.695,167.0,176.0
271329,-0.460,0.419,-0.055,125.092,2.344,-57.130,167.0,171.0
271391,-0.745,0.448,0.023,81.298,30.649,-63.176,168.0,177.0
271454,-0.988,0.435,0.096,59.473,52.718,-73.817,166.0,188.0
271516,-1.283,0.358,0.124,44.458,58.137,-55.664,161.0,193.0
271582,-1.437,0.238,0.135,23.832,36.282,14.221,155.0,200.0
271643,-1.423,0.034,0.186,-35.679,-22.000,155.023,141.0,0.0
271704,-1.654,0.086,0.052,-30.855,-73.458,218.359,119.0,0.0
271765,-1.280,0.183,0.039,-41.427,-89.412,210.618,127.0,0.0
271825,-0.909,0.175,0.055,-73.443,-96.886,182.046,114.0,0.0
271885,-0.593,0.156,0.125,-46.351,-85.313,127.748,0.0,97.0
271942,-0.489,0.234,0.139,-3.275,-66.794,63.947,0.0,60.0
271998,-0.498,0.314,0.142,19.931,-43.969,10.656,0.0,50.0
272059,-0.707,0.431,0.143,36.183,-15.252,-41.252,0.0,55.0
272115,-1.073,0.550,0.118,38.565,7.863,-96.092,0.0,58.0
272169,-1.440,0.440,0.077,47.725,27.252,-156.420,152.0,54.0
272224,-1.496,0.354,-0.083,97.718,33.389,-216.145,150.0,57.0
272276,-1.437,-0.007,-0.054,106.313,-5.107,-166.382,108.0,62.0
272336,-1.501,0.163,-0.106,147.328,-2.153,-104.931,115.0,0.0
272398,-1.092,0.361,-0.133,105.221,-4.947,-71.313,122.0,0.0
272458,-0.819,0.284,-0.007,60.427,8.443,-76.656,124.0,0.0
272520,-0.575,0.271,0.054,69.817,26.313,-76.519,122.0,0.0
272584,-0.440,0.324,0.024,29.382,38.947,-65.870,139.0,0.0
272641,-0.487,0.278,0.069,-37.191,39.725,-38.618,44.0,0.0
272697,-0.726,0.142,0.118,-84.374,24.313,-1.733,45.0,0.0
272756,-1.119,-0.012,0.292,-55.244,4.687,29.954,99.0,0.0
272813,-1.729,0.052,0.238,50.916,4.489,27.137,45.0,0.0
272913,-1.649,0.264,-0.029,22.046,20.832,47.084,43.0,0.0
272971,-1.106,0.071,-0.051,-92.008,-17.672,103.634,91.0,0.0
273025,-1.139,0.041,-0.046,-20.992,-33.687,131.351,102.0,84.0
273084,-1.020,0.332,-0.236,-8.893,-35.115,119.069,156.0,87.0
273140,-1.042,0.533,-0.292,-101.733,-16.809,70.733,149.0,85.0
273196,-0.935,0.208,-0.248,-119.466,-12.389,42.504,163.0,60.0
273261,-0.609,0.082,-0.077,-65.191,-10.634,56.458,0.0,0.0
273318,-0.366,0.226,-0.103,-49.366,-2.008,60.420,0.0,58.0
273378,-0.288,0.179,-0.066,-70.954,-4.092,48.885,0.0,88.0
273431,-0.306,0.126,0.010,-46.328,-5.992,29.939,150.0,50.0
273488,-0.371,0.127,0.059,-1.031,-3.924,29.771,0.0,57.0
273541,-1.017,0.703,0.217,15.664,20.779,30.107,98.0,57.0
273595,-1.891,1.259,0.171,-28.328,40.214,-63.893,100.0,57.0
273646,-2.000,1.030,0.308,-27.802,50.458,-101.313,97.0,58.0
273697,-1.365,0.046,0.288,94.099,76.786,-183.336,96.0,64.0
273750,-1.355,0.114,-0.274,117.908,30.260,-153.221,112.0,54.0
273801,-1.208,-0.038,-0.264,49.901,-27.656,-97.183,103.0,50.0
273854,-0.978,-0.008,-0.242,54.061,-14.924,-42.237,107.0,67.0
273913,-0.784,0.109,-0.147,18.504,-11.053,-1.466,110.0,0.0
273975,-0.595,0.054,0.018,24.794,-14.344,-0.237,122.0,0.0
274038,-0.527,0.113,0.081,81.710,-14.290,-1.573,116.0,0.0
274103,-0.430,0.261,0.067,80.649,-1.130,-13.290,169.0,0.0
274168,-0.416,0.244,0.079,46.115,18.107,-27.641,0.0,0.0
274231,-0.422,0.170,0.097,7.389,30.595,-25.420,160.0,0.0
274296,-0.777,0.183,0.181,-27.115,29.351,-9.710,0.0,0.0
274358,-1.376,0.249,0.326,-21.802,17.969,-13.183,127.0,0.0
274417,-1.998,0.310,0.232,42.901,29.641,-29.038,94.0,0.0
274477,-1.836,0.280,-0.026,44.267,19.252,-17.405,86.0,0.0
274536,-1.005,0.053,-0.048,-62.107,-11.885,71.672,92.0,0.0
274598,-1.173,-0.024,-0.106,-33.710,-38.275,81.924,100.0,0.0
274661,-1.041,0.166,-0.137,6.137,-27.435,92.695,131.0,0.0
274723,-1.015,0.370,-0.253,-20.313,-8.550,71.015,141.0,0.0
274785,-0.702,0.217,-0.211,-105.947,-0.870,73.160,135.0,0.0
274845,-0.477,0.079,-0.089,-99.168,-3.863,78.458,109.0,0.0
274905,-0.414,0.103,-0.035,-61.191,-9.756,77.191,0.0,93.0
274963,-0.362,0.132,-0.008,-38.870,-13.802,71.595,0.0,71.0
275021,-0.371,0.156,0.058,-34.626,-16.107,62.817,0.0,76.0
275080,-0.940,0.452,0.344,20.031,-2.511,60.992,0.0,63.0
275141,-1.564,1.233,0.215,99.962,0.466,29.824,0.0,76.0
275197,-1.607,1.300,0.148,-27.313,-19.000,-56.412,154.0,77.0
275255,-1.299,0.580,0.101,63.550,1.275,-190.504,170.0,82.0
275310,-0.855,0.093,-0.097,-31.084,8.870,-149.069,139.0,88.0
275362,-1.125,-0.013,-0.146,-26.817,6.718,-137.550,100.0,55.0
275414,-1.249,-0.011,-0.129,32.924,7.916,-86.206,101.0,57.0
275475,-0.894,0.104,-0.104,46.229,13.710,-52.725,119.0,0.0
275537,-0.715,0.139,0.015,70.786,10.176,-42.977,142.0,0.0
275603,-0.488,0.138,0.054,111.191,6.817,-39.885,145.0,0.0
275663,-0.454,0.372,0.002,77.420,19.580,-42.160,115.0,0.0
275725,-0.405,0.256,0.067,-3.069,22.580,-37.344,113.0,0.0
275785,-0.354,0.166,0.179,-16.015,22.847,-12.130,112.0,0.0
275886,-1.493,0.135,0.214,-14.954,12.580,-19.122,41.0,0.0
275945,-1.857,0.125,0.253,38.382,14.130,-5.313,96.0,0.0
276001,-1.907,0.131,0.044,51.038,5.237,25.450,39.0,0.0
276061,-1.321,0.229,-0.132,-62.641,-19.733,109.534,86.0,0.0
276123,-1.115,0.110,-0.126,-85.038,-30.443,136.611,142.0,0.0
276182,-1.073,0.422,-0.346,-87.718,-20.534,99.489,135.0,67.0
276236,-1.060,0.309,-0.307,-118.275,-8.718,68.069,128.0,67.0
276289,-0.816,0.140,-0.174,-97.748,-5.122,62.794,125.0,70.0
276344,-0.625,0.112,-0.136,-60.359,-5.550,76.672,122.0,79.0
276398,-0.464,0.162,-0.119,-45.244,-5.519,82.076,118.0,65.0
276451,-0.363,0.142,-0.089,-44.878,-7.901,76.672,112.0,68.0
276503,-0.299,0.088,-0.027,-32.252,-12.534,70.382,112.0,61.0
276555,-0.252,0.092,0.032,-6.458,-12.405,60.977,95.0,60.0
276615,-0.641,0.390,0.204,44.137,-3.817,39.466,94.0,64.0
276666,-1.580,1.075,0.198,92.008,14.534,-12.702,94.0,75.0
276718,-1.918,1.637,0.220,20.038,26.878,-62.863,110.0,74.0
276771,-1.914,1.084,0.408,19.763,19.099,-181.855,115.0,74.0
276822,-1.278,0.515,0.123,65.450,14.802,-194.168,104.0,57.0
276874,-0.849,0.145,-0.013,27.504,-7.664,-134.397,105.0,75.0
276931,-0.988,0.142,-0.089,49.321,-16.718,-98.176,0.0,60.0
276984,-0.736,0.045,-0.098,63.015,-11.763,-53.115,119.0,75.0
277043,-0.688,0.144,-0.117,45.527,1.122,-27.061,0.0,86.0
277104,-0.528,0.066,-0.057,63.618,0.321,-16.298,0.0,92.0
277163,-0.466,0.120,0.010,103.069,1.099,-5.931,0.0,92.0
277221,-0.393,0.229,0.032,103.977,-1.542,-0.504,0.0,94.0
277280,-0.471,0.269,0.109,66.756,5.099,3.137,0.0,96.0
277339,-0.689,0.295,0.200,43.221,18.122,-0.214,0.0,99.0
277398,-0.880,0.330,0.242,40.916,28.992,-8.977,0.0,101.0
277457,-1.106,0.346,0.268,36.947,41.000,-21.649,0.0,105.0
277523,-1.174,0.291,0.188,21.870,35.115,-12.626,0.0,200.0
277581,-1.489,0.325,0.057,7.565,24.206,1.031,199.0,102.0
277649,-1.194,0.010,0.041,-79.137,-39.450,103.168,192.0,0.0
277707,-1.622,0.027,0.042,-10.107,-84.107,139.313,192.0,88.0
277766,-1.329,0.091,-0.008,51.229,-99.588,134.267,185.0,101.0
277823,-0.946,0.214,0.029,26.351,-99.427,130.008,180.0,87.0
277882,-0.789,0.202,0.046,-6.382,-92.641,94.725,176.0,127.0
277940,-0.512,0.118,0.110,7.008,-85.687,62.160,173.0,89.0
277997,-0.451,0.200,0.128,37.710,-72.099,17.084,170.0,93.0
278054,-0.667,0.326,0.140,71.763,-52.725,-44.931,174.0,94.0
278115,-0.782,0.354,0.158,105.237,-27.718,-107.069,179.0,91.0
278172,-1.108,0.393,0.053,125.122,-12.176,-148.137,172.0,89.0
278237,-1.330,0.282,-0.072,181.275,-14.435,-181.206,186.0,0.0
278300,-1.279,0.225,-0.259,235.168,-20.412,-116.046,0.0,162.0
278363,-1.352,0.469,-0.313,179.710,-23.695,-82.450,0.0,157.0
278423,-0.988,0.340,-0.165,168.779,-2.809,-73.733,175.0,142.0
278483,-0.630,0.335,-0.101,161.656,10.382,-58.611,175.0,140.0
278544,-0.532,0.346,-0.071,126.763,8.282,-48.885,175.0,139.0
278607,-0.783,0.409,-0.031,110.794,24.489,-49.832,173.0,154.0
278669,-0.913,0.426,0.019,77.130,40.366,-62.969,171.0,158.0
278730,-1.194,0.346,0.052,48.641,54.565,-36.664,167.0,163.0
278835,-1.374,0.054,0.136,2.130,4.679,83.282,158.0,176.0
278895,-1.659,0.048,0.105,0.275,-43.847,173.740,136.0,185.0
278956,-1.543,0.146,0.081,3.366,-76.061,192.389,116.0,195.0
279015,-1.107,0.221,0.064,-39.160,-86.595,171.458,110.0,0.0
279076,-0.761,0.173,0.128,-50.626,-91.580,123.557,124.0,0.0
279131,-0.523,0.124,0.136,5.893,-75.679,80.458,120.0,97.0
279193,-0.402,0.228,0.104,28.763,-59.832,49.290,0.0,101.0
279250,-0.439,0.313,0.121,-2.962,-48.084,35.076,0.0,67.0
279308,-0.764,0.449,0.271,6.672,-27.191,11.389,0.0,54.0
279360,-1.189,0.681,0.295,49.412,2.061,-57.519,112.0,60.0
279411,-1.523,0.667,0.158,77.244,9.969,-156.588,108.0,62.0
279462,-1.319,0.464,-0.101,96.931,20.519,-208.954,98.0,53.0
279515,-1.354,0.341,-0.226,35.634,21.069,-173.313,108.0,71.0
279567,-1.375,0.170,-0.156,-1.695,24.763,-131.931,104.0,59.0
279621,-1.157,0.040,-0.008,38.115,18.084,-80.206,105.0,59.0
279681,-0.890,0.123,0.054,97.183,15.389,-52.656,102.0,0.0
279742,-0.648,0.285,0.044,124.061,16.405,-64.489,127.0,0.0
279806,-0.487,0.288,0.033,87.886,19.527,-65.053,184.0,0.0
279866,-0.366,0.190,0.061,41.771,20.687,-44.015,104.0,0.0
279931,-0.496,0.174,0.075,-9.718,20.427,-12.359,0.0,0.0
279991,-1.039,0.118,0.198,-40.496,9.092,13.603,98.0,0.0
280047,-1.736,0.132,0.303,24.359,13.771,10.115,45.0,0.0
280103,-2.000,0.207,0.159,74.695,12.603,-11.573,44.0,0.0
280165,-1.739,0.212,-0.043,7.840,8.542,56.824,88.0,0.0
280219,-1.083,0.117,-0.091,-104.611,-27.672,139.336,108.0,86.0
280282,-0.989,0.122,-0.011,-59.969,-36.435,153.809,151.0,0.0
280336,-1.042,0.411,-0.249,-46.771,-16.779,101.366,119.0,98.0
280398,-0.914,0.263,-0.254,-127.573,-22.565,89.939,138.0,0.0
280455,-0.692,0.085,-0.104,-92.336,-25.679,76.481,113.0,127.0
280508,-0.508,0.146,-0.086,-36.603,-19.183,70.802,133.0,65.0
280562,-0.433,0.244,-0.131,-40.878,-24.672,65.092,103.0,92.0
280619,-0.452,0.194,-0.052,-43.847,-29.634,50.542,101.0,93.0
280670,-0.414,0.135,0.028,-1.634,-28.885,38.718,87.0,64.0
280722,-0.449,0.266,0.084,16.176,-17.336,44.924,89.0,72.0
280773,-0.973,0.694,0.233,33.450,1.466,43.466,89.0,69.0
280824,-1.744,1.696,0.252,3.931,49.504,-21.977,90.0,77.0
280876,-1.800,1.135,0.522,-33.481,43.061,-160.718,89.0,69.0
280928,-1.478,0.530,0.352,94.786,51.267,-210.687,100.0,69.0
280980,-0.968,0.277,0.039,25.557,40.191,-166.221,92.0,68.0
281031,-0.963,0.016,-0.072,15.374,21.008,-131.405,99.0,65.0
281095,-0.966,0.035,-0.123,46.565,12.008,-86.130,100.0,0.0
281154,-0.731,0.116,-0.037,68.389,11.389,-50.542,104.0,0.0
281214,-0.617,0.189,-0.002,102.969,12.229,-50.656,110.0,0.0
281278,-0.473,0.230,0.040,109.672,11.130,-54.863,168.0,0.0
281340,-0.388,0.286,0.029,65.107,30.244,-41.473,142.0,0.0
281397,-0.346,0.232,0.070,-20.611,32.618,-15.473,44.0,0.0
281459,-0.351,0.100,0.144,-61.656,22.107,12.061,135.0,0.0
281516,-1.210,0.047,0.295,-34.351,11.847,40.954,44.0,0.0
281578,-2.000,0.182,0.266,11.145,22.359,2.107,100.0,0.0
281637,-2.000,0.188,0.039,41.206,-5.634,25.130,93.0,0.0
