Timestamp(ms),AccelX(g),AccelY(g),AccelZ(g),GyroX(deg/s),GyroY(deg/s),GyroZ(deg/s),DistanceLeft(cm),DistanceRight(cm)
428187,-1.425,0.257,0.178,159.962,27.687,-201.580,0.0,0.0
428252,-1.245,0.378,0.213,111.176,29.397,-186.313,0.0,0.0
428316,-1.117,0.147,0.358,-9.397,53.389,-198.420,0.0,0.0
428382,-1.052,-0.284,0.359,-17.290,72.740,-168.473,0.0,0.0
428446,-0.915,-0.215,0.327,60.137,103.122,-129.153,0.0,0.0
428511,-0.952,-0.209,0.647,-56.817,108.084,-97.527,0.0,0.0
428579,-0.838,-0.594,0.895,-61.046,59.763,-25.542,0.0,0.0
428644,-0.703,-0.870,0.603,-47.282,-3.443,19.992,0.0,0.0
428708,-0.511,-0.840,0.378,12.908,-17.504,1.229,0.0,0.0
428774,-0.465,-0.513,0.254,59.947,-27.420,-5.870,0.0,0.0
428838,-0.438,-0.462,0.259,52.855,-32.336,6.389,0.0,0.0
428903,-0.795,-0.153,0.401,30.160,-24.466,6.015,0.0,0.0
428968,-0.861,-0.211,0.645,-5.008,-44.069,61.443,0.0,0.0
429033,-0.925,-0.381,0.657,-27.252,-75.695,107.908,0.0,0.0
429101,-1.098,-0.288,0.552,37.771,-63.992,154.046,0.0,0.0
429166,-1.084,-0.232,0.677,-45.649,-78.878,163.771,0.0,0.0
429231,-1.498,-0.396,0.471,-14.557,-99.565,235.573,0.0,0.0
429296,-1.338,-0.053,0.298,-5.779,-86.496,250.130,0.0,0.0
429361,-0.941,-0.069,0.365,-32.267,-55.122,230.695,0.0,0.0
429419,-0.758,0.025,0.391,-21.107,-41.878,214.176,0.0,82.0
429478,-0.627,-0.053,0.593,5.237,-35.840,193.916,0.0,88.0
429529,-0.418,0.185,0.708,52.168,-7.221,179.405,55.0,94.0
429588,-0.521,0.365,0.686,-5.786,2.046,144.832,0.0,101.0
429650,-0.403,0.245,0.871,-29.550,2.672,127.336,0.0,106.0
429711,-0.242,0.315,0.936,-0.985,19.893,83.458,0.0,109.0
429773,-0.290,0.426,0.858,5.176,34.473,22.672,0.0,169.0
429839,-0.265,0.419,0.781,-0.534,40.168,-32.649,0.0,0.0
429898,-0.278,0.330,0.652,13.885,55.725,-61.985,0.0,111.0
429959,-0.331,0.252,0.553,26.198,59.023,-87.901,0.0,109.0
430018,-0.385,0.219,0.465,56.557,58.855,-98.580,0.0,108.0
430081,-0.599,0.239,0.353,69.527,54.267,-112.443,0.0,149.0
430146,-0.792,0.307,0.283,72.565,62.962,-126.550,0.0,0.0
430209,-1.362,0.164,0.094,61.824,64.405,-128.740,0.0,103.0
430271,-1.628,0.178,-0.003,165.084,82.237,-138.924,151.0,0.0
430333,-1.508,0.529,-0.187,110.947,98.244,-177.679,154.0,0.0
430396,-1.389,0.298,0.034,-7.954,98.397,-190.443,157.0,0.0
430459,-1.407,0.006,0.108,-0.924,82.046,-122.962,173.0,0.0
430525,-1.134,0.104,0.176,102.405,61.977,-56.275,0.0,0.0
430589,-0.766,0.344,0.115,97.336,33.351,-38.557,0.0,0.0
430655,-0.811,0.322,0.150,28.580,22.496,-19.626,0.0,0.0
430723,-0.845,0.210,0.224,-0.885,4.832,21.069,0.0,0.0
430788,-1.010,0.211,0.173,-4.015,-17.328,56.244,0.0,0.0
430854,-1.155,0.260,0.102,8.588,-21.130,79.595,0.0,0.0
430918,-1.507,0.311,-0.017,-37.954,-24.489,97.290,0.0,0.0
430984,-1.557,0.242,-0.037,-110.969,-51.939,146.687,0.0,0.0
431049,-1.832,0.145,-0.068,-136.664,-98.863,203.641,0.0,0.0
431114,-1.321,0.127,0.141,-4.405,-125.435,250.130,0.0,0.0
431179,-0.713,0.622,0.068,4.122,-111.733,250.130,0.0,0.0
431239,-0.436,0.655,0.121,-2.275,-106.076,250.130,195.0,109.0
431302,-0.322,0.650,0.142,-34.771,-92.359,230.031,186.0,116.0
431397,0.014,0.489,0.279,-3.695,-46.237,96.336,49.0,124.0
431455,0.034,0.573,0.247,6.183,-12.046,13.992,48.0,0.0
431507,0.051,0.567,0.391,-30.336,8.115,-75.237,53.0,125.0
431559,-0.068,0.580,0.548,-4.267,27.107,-114.863,57.0,121.0
431619,-0.318,0.900,0.542,26.290,27.489,-118.855,183.0,117.0
431679,-0.236,1.040,0.427,0.389,33.847,-141.305,187.0,114.0
431741,-0.225,0.594,0.427,14.634,77.267,-202.489,0.0,153.0
431807,-0.348,0.514,0.120,11.229,127.870,-218.290,0.0,0.0
431876,-0.744,0.274,0.052,-50.756,170.618,-240.328,0.0,0.0
431940,-1.476,0.859,0.257,-26.069,94.954,-149.634,0.0,0.0
432006,-1.130,0.756,0.689,115.916,19.359,-27.809,0.0,0.0
432071,-0.890,1.134,0.450,32.183,-29.542,39.916,0.0,0.0
432137,-0.880,0.809,0.366,12.611,-43.878,112.817,0.0,0.0
432202,-1.095,1.040,0.221,13.740,-44.130,181.740,0.0,0.0
432267,-1.331,1.166,0.140,-32.962,-56.931,227.908,0.0,0.0
432327,-0.734,0.857,0.244,-13.420,-75.588,250.130,196.0,107.0
432382,-0.249,0.604,0.257,-58.641,-71.656,250.130,50.0,113.0
432434,0.076,0.550,0.222,-96.985,-68.382,250.130,39.0,120.0
432490,0.115,0.424,0.293,-108.130,-72.748,237.687,36.0,0.0
432545,0.385,0.458,0.219,-48.328,-61.412,193.649,31.0,0.0
432602,0.519,0.503,0.215,-61.885,-34.595,68.099,30.0,0.0
432657,0.598,0.274,0.403,-25.626,15.832,-37.725,30.0,0.0
432712,0.404,0.270,0.389,34.794,84.061,-123.519,31.0,0.0
432769,0.286,0.482,0.400,60.198,128.878,-186.511,30.0,0.0
432820,-0.124,0.438,0.375,25.924,151.450,-250.137,37.0,120.0
432875,-0.684,0.310,0.240,101.664,183.427,-250.137,46.0,112.0
432941,-1.150,0.577,-0.027,72.855,185.038,-250.137,0.0,0.0
433003,-1.379,0.363,0.006,14.863,164.168,-250.137,0.0,150.0
433065,-1.463,0.219,0.135,8.809,131.359,-250.137,0.0,145.0
433117,-1.478,0.054,0.471,50.557,92.840,-185.672,16.0,144.0
433180,-1.264,0.353,0.455,95.527,46.397,-90.718,0.0,150.0
433243,-1.407,0.524,0.262,11.641,-2.954,-2.916,0.0,150.0
433305,-1.308,0.261,0.134,0.504,-34.916,88.771,0.0,157.0
433373,-1.485,0.278,-0.033,-19.824,-55.649,179.916,0.0,170.0
433433,-1.734,0.203,-0.059,-68.595,-83.794,230.389,0.0,110.0
433499,-1.348,0.171,0.013,-45.420,-89.550,250.130,0.0,0.0
433564,-0.807,0.347,0.024,-64.389,-98.817,250.130,0.0,0.0
433630,-0.333,0.252,0.157,-71.298,-92.527,187.756,0.0,0.0
433695,-0.196,0.229,0.160,-44.824,-64.748,82.794,0.0,0.0
433758,-0.396,0.389,0.163,14.504,0.878,-46.489,0.0,154.0
433821,-0.771,0.352,0.063,15.679,68.145,-159.351,0.0,150.0
433885,-1.164,0.317,-0.091,-24.076,122.214,-203.870,0.0,173.0
433950,-1.401,0.106,-0.011,-51.305,130.786,-208.771,0.0,137.0
434013,-1.640,-0.145,0.112,84.084,115.496,-192.756,0.0,131.0
434074,-1.348,0.054,0.034,215.206,106.992,-158.023,0.0,126.0
434136,-1.124,0.524,-0.073,129.275,74.374,-146.542,0.0,124.0
434197,-0.933,0.315,0.132,0.405,55.847,-123.260,0.0,123.0
434258,-0.945,0.230,0.222,11.038,54.947,-86.954,0.0,124.0
434320,-1.011,0.268,0.264,38.496,29.397,-56.779,0.0,128.0
434381,-1.118,0.301,0.182,37.328,3.977,-11.580,0.0,134.0
434481,-1.403,0.291,-0.020,-55.985,-46.626,135.321,16.0,147.0
434544,-1.725,0.168,-0.115,-102.954,-78.344,193.099,0.0,160.0
434609,-1.689,0.080,-0.161,-85.008,-108.863,235.076,0.0,175.0
434674,-1.169,0.133,-0.103,-46.687,-104.832,250.130,0.0,0.0
434736,-0.783,0.329,-0.131,-54.252,-79.198,210.855,0.0,132.0
434798,-0.697,0.282,-0.094,-75.076,-60.702,145.603,0.0,130.0
434860,-0.686,0.223,-0.042,-52.962,-36.328,88.740,0.0,131.0
434922,-0.814,0.318,-0.034,-27.046,-0.153,9.710,0.0,133.0
434988,-0.855,0.232,0.057,-10.008,37.374,-67.031,0.0,0.0
435053,-0.870,0.208,0.059,23.397,92.603,-138.656,0.0,136.0
435119,-1.134,0.282,-0.031,16.977,129.282,-179.794,0.0,0.0
435178,-1.557,0.084,0.002,32.282,118.076,-217.382,0.0,94.0
435241,-1.372,-0.033,0.068,143.733,105.504,-197.084,0.0,152.0
435304,-1.211,0.328,-0.032,159.794,87.519,-168.695,0.0,149.0
435367,-1.080,0.381,0.044,49.084,53.962,-142.023,0.0,148.0
435433,-1.005,0.241,0.164,23.237,46.885,-84.962,0.0,0.0
435500,-1.031,0.288,0.172,44.779,16.542,-29.954,0.0,0.0
435577,-1.254,0.389,0.044,25.611,-3.420,38.504,0.0,0.0
435643,-1.236,0.209,0.037,-34.878,-33.053,133.985,0.0,0.0
435708,-1.809,0.137,-0.117,-96.664,-68.763,224.092,0.0,191.0
435774,-1.647,0.135,-0.159,-108.450,-93.466,243.611,0.0,0.0
435841,-1.012,0.167,-0.072,-84.977,-84.832,216.298,0.0,0.0
435906,-0.690,0.303,-0.089,-81.122,-66.092,166.641,0.0,0.0
435973,-0.722,0.291,-0.084,-99.931,-48.489,104.550,0.0,0.0
436041,-0.819,0.207,-0.012,-69.672,-26.931,48.244,0.0,143.0
436103,-0.839,0.218,0.035,-11.244,4.885,-13.557,0.0,144.0
436167,-0.822,0.298,0.063,33.336,53.443,-83.176,0.0,149.0
436230,-0.798,0.322,0.070,16.458,100.756,-136.038,0.0,147.0
436289,-1.316,0.200,0.067,-37.130,108.298,-171.397,0.0,111.0
436348,-1.472,-0.091,0.170,49.802,97.397,-163.931,0.0,110.0
436414,-1.168,0.060,0.108,160.420,90.405,-127.443,0.0,0.0
436478,-0.986,0.401,-0.007,108.931,65.183,-94.748,0.0,0.0
436544,-0.820,0.323,0.130,-0.412,53.275,-61.344,0.0,0.0
436609,-0.878,0.238,0.239,-14.595,42.168,-33.672,0.0,0.0
436673,-1.061,0.159,0.237,5.893,12.176,-9.366,0.0,0.0
436730,-1.223,0.156,0.174,65.580,-23.389,44.977,13.0,0.0
436785,-1.340,0.127,0.038,92.794,-56.824,96.756,16.0,0.0
436850,-1.346,0.156,-0.042,86.115,-73.031,162.794,0.0,0.0
436915,-1.672,0.318,-0.187,18.275,-82.557,198.351,0.0,0.0
436980,-1.368,0.189,-0.106,-52.809,-93.282,192.527,0.0,0.0
437045,-0.892,0.132,0.025,-18.115,-95.672,165.718,0.0,0.0
437110,-0.636,0.272,0.027,27.824,-81.740,113.099,0.0,0.0
437175,-0.597,0.360,0.018,28.176,-81.763,37.160,0.0,0.0
437242,-0.747,0.283,0.055,64.412,-106.725,-36.466,0.0,0.0
437308,-0.820,0.306,0.055,154.267,-131.939,-62.962,0.0,0.0
437372,-0.938,0.594,0.028,186.908,-150.084,-96.000,0.0,0.0
437438,-0.934,0.745,-0.007,197.603,-140.939,-123.802,0.0,0.0
437504,-1.043,0.775,-0.066,170.725,-115.710,-142.618,0.0,0.0
437568,-1.004,0.671,-0.083,100.366,-98.275,-122.710,0.0,0.0
437630,-0.994,0.434,-0.017,84.588,-102.359,-101.374,151.0,0.0
437737,-0.970,0.347,-0.058,147.298,-114.305,-63.649,165.0,0.0
437801,-0.884,0.408,-0.081,155.305,-101.366,-67.168,176.0,0.0
437868,-0.912,0.320,-0.059,156.282,-93.580,-78.687,188.0,0.0
437934,-0.851,0.312,-0.092,180.191,-59.366,-67.496,0.0,0.0
437999,-0.807,0.460,-0.119,155.763,-21.435,-52.053,0.0,0.0
438064,-0.976,0.567,-0.024,148.824,-24.092,-61.191,0.0,0.0
438129,-1.052,0.714,-0.054,127.145,-29.565,-29.000,0.0,0.0
438195,-0.830,0.845,-0.028,96.725,-19.092,6.947,0.0,0.0
438259,-0.788,0.811,0.071,37.176,-20.328,35.443,0.0,0.0
438325,-0.896,0.790,0.117,4.473,-19.374,87.435,0.0,0.0
438392,-0.800,0.652,0.202,8.893,-31.794,124.672,0.0,0.0
438458,-0.559,0.720,0.142,-3.687,-26.618,113.191,0.0,0.0
438523,-0.552,0.450,0.239,26.855,-32.794,67.160,0.0,0.0
438588,-0.533,0.592,0.050,94.489,-25.901,23.916,0.0,0.0
438653,-0.555,0.691,-0.018,13.160,-16.221,-52.290,0.0,0.0
438718,-0.754,0.317,0.111,-3.473,9.916,-128.382,0.0,0.0
438784,-1.171,0.426,-0.020,20.336,15.267,-193.962,0.0,0.0
438849,-1.132,0.339,-0.014,-54.519,32.985,-223.412,0.0,0.0
438915,-1.315,0.148,-0.019,-80.351,77.962,-154.908,0.0,0.0
438982,-1.131,0.048,0.003,-114.771,87.450,-91.427,0.0,0.0
439036,-1.018,-0.007,0.094,-70.237,92.725,-87.794,12.0,199.0
439092,-0.938,-0.060,0.208,-8.565,70.634,-79.061,13.0,200.0
439146,-0.900,0.073,0.200,67.916,45.206,-51.756,17.0,0.0
439201,-0.881,0.696,-0.104,-126.565,49.092,-18.489,17.0,0.0
439256,-1.189,0.213,-0.349,-250.137,40.099,19.687,14.0,0.0
439318,-1.136,-0.554,0.061,-250.137,-26.771,16.496,0.0,147.0
439380,-0.957,-0.218,0.281,8.053,-53.237,6.290,0.0,150.0
439433,-1.210,0.203,0.066,-16.939,-71.038,-39.290,17.0,154.0
439489,-1.157,0.262,0.015,66.450,-106.450,-23.847,6.0,185.0
439543,-1.426,0.700,-0.192,-32.198,-109.267,-20.046,4.0,190.0
439608,-1.317,0.452,-0.198,-172.122,-121.733,2.282,0.0,0.0
439673,-1.107,0.214,-0.028,-130.679,-141.359,45.031,0.0,0.0
439739,-0.959,0.319,-0.038,-73.214,-139.557,44.397,0.0,0.0
439804,-0.899,0.063,0.046,7.870,-132.817,43.947,0.0,0.0
439870,-0.992,-0.036,0.031,170.740,-130.763,60.618,0.0,0.0
439936,-0.916,0.199,-0.092,246.389,-75.160,78.427,0.0,0.0
440004,-0.682,0.468,0.004,59.511,16.473,-0.649,0.0,0.0
440069,-0.818,0.177,0.143,-17.389,97.084,-102.084,0.0,0.0
440134,-1.119,0.081,0.109,-19.053,122.023,-132.969,0.0,0.0
440200,-1.177,-0.065,0.179,54.802,99.198,-138.237,0.0,0.0
440265,-1.122,0.093,0.080,159.931,91.031,-128.298,0.0,0.0
440331,-1.082,0.343,-0.027,130.740,67.939,-122.489,0.0,0.0
440396,-0.993,0.287,0.087,51.824,56.160,-99.313,0.0,0.0
440462,-1.029,0.264,0.152,20.198,47.015,-54.504,0.0,0.0
440517,-1.101,0.287,0.209,7.137,28.137,-25.962,17.0,0.0
440585,-1.047,0.257,0.238,-2.473,9.565,6.198,0.0,0.0
440640,-1.304,0.269,0.100,-23.382,-26.496,47.634,16.0,0.0
440695,-1.243,0.176,0.034,-43.298,-57.290,112.840,16.0,0.0
440761,-1.629,0.251,-0.120,-68.817,-81.321,147.679,0.0,0.0
440826,-1.372,0.129,-0.112,-79.313,-96.748,170.092,0.0,0.0
440935,-0.812,0.298,-0.120,-63.336,-75.420,162.542,0.0,0.0
441000,-0.710,0.302,-0.077,-88.565,-56.511,108.916,0.0,0.0
441066,-0.665,0.228,0.024,-73.412,-32.061,51.924,0.0,0.0
441132,-0.722,0.290,0.124,-24.137,-2.221,-20.374,0.0,0.0
441200,-1.009,0.217,0.206,10.489,27.069,-84.466,0.0,0.0
441266,-1.086,0.209,0.162,12.611,60.748,-96.389,0.0,0.0
441331,-1.297,0.021,0.096,13.595,49.748,-81.947,0.0,0.0
441397,-1.155,-0.082,0.073,117.115,44.725,-57.550,0.0,0.0
441462,-0.957,0.296,-0.091,189.145,68.267,-88.252,0.0,0.0
441528,-0.809,0.488,-0.053,78.710,71.015,-140.023,0.0,0.0
441593,-0.948,0.346,0.049,-1.573,92.092,-168.924,0.0,0.0
441659,-1.124,0.213,0.128,-39.763,89.962,-141.550,0.0,0.0
441728,-1.195,0.116,0.267,13.145,59.069,-69.084,0.0,0.0
441783,-1.157,0.284,0.211,28.359,13.275,2.824,17.0,0.0
441848,-1.318,0.373,0.134,-20.786,-16.107,49.191,0.0,0.0
441914,-1.234,0.175,0.090,-68.298,-65.969,111.954,0.0,0.0
441980,-1.609,0.155,-0.071,-73.695,-111.038,157.832,0.0,0.0
442046,-1.432,0.136,-0.140,-51.786,-128.084,165.046,0.0,0.0
442112,-1.104,0.168,-0.159,-24.153,-115.832,173.237,0.0,0.0
442177,-0.858,0.277,-0.165,-49.802,-93.244,159.534,0.0,0.0
442243,-0.833,0.266,-0.141,-90.336,-72.038,127.878,0.0,0.0
442309,-0.771,0.169,-0.003,-82.389,-37.221,63.237,0.0,155.0
442373,-0.755,0.076,0.083,-19.740,15.908,-18.076,0.0,158.0
442434,-0.926,0.094,0.032,26.458,66.397,-81.260,0.0,121.0
442494,-1.046,0.109,0.023,55.840,108.542,-140.504,0.0,121.0
442556,-1.323,0.167,-0.039,78.924,124.962,-171.756,0.0,120.0
442617,-1.346,0.033,0.063,100.947,111.053,-177.550,0.0,119.0
442683,-1.218,0.209,-0.004,151.107,102.275,-170.687,0.0,0.0
442749,-1.105,0.352,0.005,61.382,72.153,-142.588,0.0,0.0
442815,-1.079,0.167,0.151,28.710,59.565,-84.366,0.0,0.0
442884,-0.965,0.245,0.196,48.489,36.496,-28.176,0.0,0.0
442949,-1.075,0.305,0.170,27.191,14.046,0.023,0.0,0.0
443015,-1.256,0.249,0.154,11.878,-11.519,44.176,0.0,0.0
443081,-1.384,0.168,0.060,-10.870,-48.718,114.794,0.0,0.0
443147,-1.447,0.180,-0.048,-61.366,-77.511,190.802,0.0,0.0
443212,-1.506,0.260,-0.177,-129.664,-101.542,190.992,0.0,0.0
443276,-0.987,0.082,-0.019,-100.962,-104.771,160.466,0.0,163.0
443340,-0.725,0.231,-0.055,-25.198,-82.305,125.794,0.0,170.0
443409,-0.680,0.300,-0.094,-36.519,-58.290,84.824,0.0,189.0
443475,-0.740,0.273,-0.054,-52.626,-28.580,46.763,0.0,0.0
443540,-0.867,0.254,0.012,-31.870,16.443,-16.160,199.0,189.0
443606,-1.076,0.196,0.038,1.710,60.496,-76.954,198.0,190.0
443671,-1.067,0.049,0.084,16.725,83.595,-116.321,195.0,194.0
443736,-1.294,0.066,0.100,46.092,83.092,-125.557,197.0,192.0
443801,-1.278,0.030,0.113,118.038,68.008,-115.779,0.0,189.0
443867,-1.000,0.254,0.040,160.748,64.916,-108.824,0.0,188.0
443932,-0.900,0.452,-0.041,63.733,57.595,-109.046,0.0,188.0
444001,-0.927,0.232,0.128,-5.176,58.641,-89.687,0.0,188.0
444055,-0.987,0.212,0.198,4.489,48.031,-48.214,16.0,189.0
444110,-1.082,0.256,0.256,8.069,30.504,-26.290,17.0,192.0
444209,-1.244,0.249,0.192,2.756,-12.733,26.359,17.0,198.0
444273,-1.268,0.275,0.063,-29.427,-46.496,74.160,80.0,0.0
444327,-1.488,0.235,-0.029,-64.405,-82.015,117.725,16.0,0.0
444393,-1.595,0.104,-0.110,-64.840,-110.969,146.473,0.0,0.0
444457,-1.167,0.067,-0.057,-6.626,-107.855,187.336,0.0,0.0
444526,-0.773,0.239,-0.096,58.832,-82.450,191.481,0.0,0.0
444591,-0.623,0.221,-0.081,99.939,-62.733,155.466,0.0,0.0
444655,-0.630,0.327,-0.098,112.641,-41.344,109.282,0.0,0.0
444721,-0.803,0.529,-0.144,32.725,-23.534,15.137,0.0,0.0
444785,-0.877,0.510,-0.064,-57.000,13.221,-64.458,0.0,0.0
444851,-0.944,0.544,-0.163,-172.588,43.740,-132.573,0.0,0.0
444907,-0.944,0.076,0.048,-206.321,87.130,-164.176,0.0,51.0
444963,-1.259,-0.140,0.184,-76.191,110.802,-152.229,0.0,49.0
445020,-1.239,-0.069,0.164,84.336,100.664,-126.099,0.0,49.0
445079,-1.053,0.228,0.055,142.168,80.237,-116.061,0.0,50.0
445135,-0.978,0.379,0.035,91.351,60.260,-114.099,0.0,49.0
445192,-0.973,0.317,0.107,37.893,50.405,-102.763,0.0,50.0
445248,-1.015,0.249,0.185,12.863,38.290,-71.519,0.0,50.0
445299,-1.082,0.243,0.327,10.573,22.176,-35.588,90.0,57.0
445356,-1.141,0.190,0.377,8.718,-12.160,-12.076,0.0,53.0
445413,-1.241,0.184,0.285,40.580,-41.542,32.573,0.0,58.0
445469,-1.270,0.279,0.195,32.382,-71.977,81.824,0.0,59.0
445530,-1.351,0.331,0.087,-0.137,-93.710,132.405,0.0,69.0
445588,-1.630,0.575,-0.170,-68.664,-96.221,161.977,0.0,79.0
445647,-1.261,0.531,-0.163,-103.542,-81.282,223.977,0.0,96.0
445712,-0.958,0.740,-0.283,-157.870,-61.443,236.221,0.0,0.0
445776,-0.857,0.895,-0.298,-190.954,-26.939,250.130,182.0,0.0
445840,-0.914,0.928,-0.146,-176.626,4.473,250.130,170.0,0.0
445905,-0.802,0.865,0.044,-160.985,42.130,250.130,0.0,0.0
445970,-0.751,0.768,0.268,-125.985,65.542,250.130,0.0,0.0
446035,-0.589,0.619,0.565,-83.145,73.939,250.130,0.0,0.0
446103,-0.472,0.636,0.802,-53.344,64.565,226.427,0.0,0.0
446169,-0.490,0.436,0.832,-22.710,36.901,177.656,0.0,0.0
446234,-0.107,0.318,0.801,34.740,38.855,136.015,0.0,0.0
446299,-0.015,0.411,0.711,11.611,64.954,104.931,0.0,0.0
446364,-0.138,0.262,0.765,2.511,61.107,86.313,0.0,0.0
446429,-0.100,0.353,0.726,59.298,41.229,82.115,0.0,0.0
446494,-0.053,0.562,0.814,38.611,30.015,73.336,0.0,0.0
446559,-0.227,0.679,1.017,17.725,31.458,54.595,0.0,0.0
446624,-0.169,0.592,1.112,-0.115,14.244,38.374,0.0,0.0
446692,-0.274,0.480,1.085,-19.756,-10.359,-28.832,0.0,0.0
446757,-0.084,0.322,0.975,8.580,-13.756,-76.412,0.0,0.0
446823,-0.113,0.485,0.860,-15.221,-30.802,-146.771,0.0,0.0
446887,-0.293,0.366,0.859,-15.901,-39.359,-235.107,0.0,0.0
446953,-0.619,0.218,0.738,68.344,-42.336,-250.137,0.0,0.0
447019,-0.832,0.326,0.522,70.756,-54.176,-250.137,0.0,0.0
447084,-1.112,0.286,0.463,75.374,-53.313,-250.137,0.0,0.0
447149,-1.420,0.312,0.410,87.015,-51.504,-250.137,0.0,0.0
447214,-1.633,0.307,0.306,166.901,-46.412,-250.137,0.0,199.0
447282,-1.847,0.442,0.153,154.687,-38.328,-250.137,0.0,180.0
447390,-1.688,0.406,0.129,124.832,-16.351,-250.137,0.0,0.0
447456,-1.457,0.192,0.104,194.550,-3.298,-245.382,0.0,0.0
447521,-1.057,0.500,0.064,170.252,-10.748,-186.191,0.0,0.0
447587,-0.733,0.534,0.143,58.985,5.038,-178.832,0.0,0.0
447651,-0.804,0.366,0.335,31.397,37.748,-166.267,0.0,0.0
447717,-0.729,0.442,0.601,-14.916,64.321,-149.420,0.0,0.0
447782,-0.737,-0.005,0.985,-11.924,79.229,-142.344,0.0,0.0
447851,-1.064,-0.227,0.814,20.038,71.489,-85.305,0.0,0.0
447916,-0.954,-0.381,0.752,7.405,51.588,-34.794,0.0,0.0
447981,-0.844,-0.266,0.810,9.527,34.023,-24.130,0.0,0.0
448047,-0.806,-0.085,0.979,-17.710,3.466,4.618,0.0,0.0
448112,-0.712,0.198,0.842,-16.733,-56.618,46.160,0.0,0.0
448178,-0.804,0.302,0.527,-23.687,-87.115,96.122,0.0,0.0
448242,-1.102,0.404,0.323,-78.519,-92.260,162.886,0.0,0.0
448308,-1.515,-0.101,0.395,-100.992,-106.153,206.450,0.0,0.0
448373,-1.544,-0.218,0.402,-60.718,-70.122,201.061,0.0,0.0
448442,-1.311,-0.103,0.479,-101.786,-66.733,240.504,0.0,0.0
448507,-1.536,-0.130,0.435,-67.504,-78.527,250.130,0.0,0.0
448571,-1.398,0.025,0.423,-39.069,-56.840,250.130,0.0,163.0
448635,-1.000,0.046,0.404,-55.038,-30.718,250.130,0.0,173.0
448700,-0.802,0.145,0.409,-104.382,-11.519,250.130,0.0,186.0
448765,-0.824,0.023,0.530,-116.344,-18.153,250.130,0.0,200.0
448831,-0.871,0.006,0.736,-83.473,-19.473,250.130,0.0,0.0
448897,-0.704,0.175,0.949,0.771,-16.771,250.130,0.0,0.0
448965,-0.447,0.226,1.097,-17.588,-2.130,250.130,0.0,0.0
449031,-0.312,-0.249,1.108,-49.885,-27.695,241.214,0.0,0.0
449096,-0.032,-0.310,1.075,76.947,-7.763,160.252,0.0,0.0
449162,-0.041,0.155,0.881,37.504,4.145,63.733,0.0,0.0
449226,-0.022,-0.104,0.888,-0.122,2.122,-19.626,0.0,0.0
449292,-0.115,-0.245,0.752,33.237,-3.908,-86.855,0.0,0.0
449357,-0.211,-0.099,0.664,1.786,-2.290,-174.672,0.0,0.0
449423,-0.378,-0.213,0.740,-10.313,31.878,-250.137,0.0,0.0
449488,-0.766,-0.202,0.766,51.771,65.725,-250.137,0.0,0.0
449558,-1.532,-0.070,0.637,128.550,97.237,-250.137,0.0,0.0
449620,-1.824,0.323,0.558,179.305,74.313,-250.137,0.0,147.0
449685,-2.000,0.183,0.292,129.687,46.107,-250.137,0.0,184.0
449748,-1.766,0.209,0.072,230.710,32.443,-229.534,0.0,169.0
449814,-1.270,0.484,0.021,189.542,6.840,-193.420,0.0,186.0
449879,-1.030,0.448,0.038,116.519,1.267,-204.069,0.0,178.0
449944,-1.179,0.348,0.177,116.992,18.198,-188.038,0.0,0.0
450010,-0.872,0.634,0.364,83.305,34.626,-158.015,0.0,0.0
450075,-0.845,0.332,0.601,66.397,44.015,-117.794,0.0,0.0
450144,-0.993,0.238,0.568,49.527,51.855,-62.366,0.0,0.0
450209,-1.000,0.095,0.433,-45.931,51.969,-7.420,0.0,0.0
450275,-0.903,0.166,0.264,-132.046,67.756,66.641,0.0,0.0
450340,-0.757,0.029,0.212,-94.718,72.969,129.252,0.0,0.0
450406,-0.525,0.341,0.163,-37.099,80.618,148.603,0.0,0.0
450471,-0.980,0.509,0.190,-92.878,52.267,179.641,0.0,0.0
450537,-1.739,0.793,0.444,-28.076,-7.008,234.511,0.0,0.0
450604,-1.776,1.437,0.561,15.008,-43.344,250.130,0.0,0.0
450707,-1.536,1.535,0.809,-94.733,-88.282,250.130,0.0,106.0
450771,-1.152,1.535,0.516,-100.450,-104.847,250.130,197.0,124.0
450830,-0.530,1.246,0.388,-110.740,-105.870,250.130,0.0,78.0
450881,-0.049,0.695,0.215,-94.702,-90.321,217.008,40.0,96.0
450947,-0.237,0.202,0.029,-98.779,-88.412,155.496,0.0,0.0
451012,-0.018,0.000,0.067,-33.290,-70.733,137.069,0.0,0.0
451079,0.091,-0.169,0.045,-34.924,-59.282,124.168,0.0,0.0
451144,0.141,-0.367,0.072,-11.489,-36.183,118.244,0.0,0.0
451210,0.118,-0.242,0.030,10.481,-12.740,102.321,0.0,0.0
451278,0.444,-0.160,0.218,-8.481,-8.634,74.351,0.0,0.0
451345,1.857,-0.475,0.434,6.305,-36.168,6.916,0.0,0.0
451410,2.000,-0.955,0.555,32.191,-12.588,40.221,0.0,0.0
451476,1.712,-0.582,0.367,-6.763,12.847,34.786,0.0,0.0
451542,0.371,-0.163,0.091,6.809,24.450,-44.802,0.0,0.0
451607,-0.351,0.018,0.058,-10.725,11.947,-70.336,0.0,0.0
451673,-0.610,0.191,-0.013,-2.015,2.130,-12.588,0.0,0.0
451739,-0.366,0.187,0.103,2.252,-12.321,1.908,0.0,0.0
451805,0.684,0.517,0.239,-8.198,-22.527,-85.519,0.0,0.0
451873,2.000,0.307,0.670,-38.496,-6.550,-205.458,0.0,0.0
451940,2.000,-0.500,0.878,-41.763,-9.282,-56.405,0.0,0.0
451995,1.845,-0.005,0.392,22.176,23.588,73.863,31.0,0.0
452062,0.988,0.170,0.115,9.763,55.160,-15.794,0.0,0.0
452127,0.257,0.115,-0.042,-43.130,66.130,-96.000,0.0,0.0
452184,-0.059,0.079,-0.150,-51.550,92.573,-131.779,30.0,0.0
452239,-0.030,0.090,-0.135,-80.061,130.511,-123.115,30.0,194.0
452295,-0.084,0.003,0.057,-66.069,163.481,-96.985,32.0,186.0
452352,-0.127,0.177,0.191,-21.405,183.733,-75.603,31.0,0.0
452411,-0.266,0.225,0.439,50.061,192.886,-105.321,35.0,0.0
452483,-0.388,0.654,0.755,202.435,242.298,-145.863,0.0,0.0
452547,-1.013,1.523,0.789,89.405,234.878,-221.634,0.0,0.0
452612,-1.499,0.485,1.349,32.176,197.771,-207.382,0.0,186.0
452677,-1.282,0.994,1.041,92.595,94.069,-85.282,0.0,0.0
452742,-0.668,0.838,0.823,-4.763,29.634,-12.435,0.0,0.0
452806,-0.591,0.403,0.607,-8.962,-25.405,11.191,0.0,0.0
452872,-0.766,0.380,0.333,75.168,-47.313,20.573,0.0,0.0
452936,-1.091,0.424,0.036,131.969,-31.519,-17.519,0.0,0.0
453004,-0.986,0.314,-0.125,119.611,12.802,-53.878,0.0,0.0
453066,-0.948,0.147,-0.239,-19.817,60.496,-119.809,0.0,146.0
453128,-1.283,-0.365,-0.190,-106.855,57.626,-169.382,0.0,143.0
453189,-1.382,-0.510,0.102,65.695,72.260,-149.870,0.0,140.0
453240,-1.228,-0.046,-0.030,167.427,58.160,-136.229,16.0,138.0
453306,-0.948,0.177,0.032,154.733,25.565,-123.099,0.0,0.0
453370,-0.815,0.391,0.072,122.992,20.748,-86.847,0.0,0.0
453435,-0.823,0.531,0.143,32.542,12.924,-58.328,0.0,0.0
453504,-1.025,0.428,0.196,-13.534,11.733,-13.099,0.0,0.0
453568,-1.294,0.321,0.134,-14.618,3.260,68.718,0.0,0.0
453634,-1.427,0.266,0.059,-42.107,-14.244,160.947,0.0,0.0
453698,-1.916,0.104,-0.154,-113.802,-51.061,243.435,0.0,0.0
453764,-1.448,0.084,-0.045,-122.771,-74.008,250.130,0.0,0.0
453828,-0.792,0.205,0.021,-73.542,-50.908,209.153,0.0,0.0
453937,-0.613,0.310,-0.004,-114.084,-24.527,92.969,0.0,0.0
454002,-0.688,0.229,0.053,-89.809,-9.374,36.672,0.0,0.0
454067,-0.871,0.226,0.081,-17.206,8.618,-29.244,0.0,0.0
454135,-1.030,0.195,0.045,39.435,34.962,-81.687,0.0,0.0
454200,-1.113,0.117,0.029,91.618,57.557,-134.489,0.0,0.0
454265,-1.288,0.279,-0.020,76.031,78.779,-169.031,0.0,0.0
454330,-1.460,0.167,0.090,61.244,76.496,-186.886,0.0,0.0
454395,-1.203,0.176,0.088,113.244,67.206,-176.443,0.0,0.0
454460,-0.994,0.272,0.055,96.427,45.794,-142.565,0.0,0.0
454525,-0.898,0.273,0.123,63.748,28.916,-95.557,0.0,0.0
454590,-0.906,0.279,0.183,56.817,17.061,-51.802,0.0,0.0
454656,-1.000,0.366,0.173,42.076,6.550,-25.847,0.0,0.0
454723,-1.150,0.346,0.094,36.855,-0.313,37.664,0.0,0.0
454789,-1.269,0.371,-0.000,-13.901,-3.603,111.115,0.0,0.0
454854,-1.605,0.301,-0.102,-121.061,-24.290,183.122,0.0,0.0
454919,-1.642,0.190,-0.149,-153.420,-45.779,205.786,0.0,198.0
454984,-1.127,0.126,-0.069,-116.832,-54.885,199.969,0.0,0.0
455050,-0.750,0.210,-0.063,-92.214,-50.053,174.695,0.0,0.0
455114,-0.680,0.277,-0.048,-85.015,-37.221,122.275,0.0,0.0
455180,-0.755,0.254,-0.006,-80.634,-20.023,66.000,0.0,0.0
455244,-0.854,0.264,0.096,-31.580,6.588,-16.763,0.0,131.0
455310,-1.022,0.332,0.315,17.687,10.519,-67.496,0.0,0.0
455374,-0.874,0.436,0.633,36.740,15.550,-53.489,0.0,0.0
455436,-1.226,0.723,0.567,10.160,-8.771,-39.168,0.0,132.0
455495,-0.927,0.668,0.732,7.023,-41.511,-5.198,0.0,90.0
455553,-0.515,0.579,0.796,11.840,-86.580,13.718,0.0,71.0
455612,-0.584,0.709,0.682,29.015,-131.412,62.115,0.0,92.0
455672,-0.474,1.128,0.577,-113.489,-177.198,96.496,0.0,108.0
455733,-0.245,0.845,0.552,-250.137,-190.542,56.733,0.0,120.0
455799,-0.241,-0.445,1.231,-175.573,-189.733,56.878,0.0,171.0
455865,-0.038,0.228,0.942,-101.580,-144.122,55.580,0.0,0.0
455930,0.117,-0.166,0.946,-129.863,-102.115,52.924,0.0,0.0
455996,0.202,-0.144,0.894,-86.473,-57.389,30.244,0.0,0.0
456061,0.216,-0.207,0.763,-52.504,-40.153,20.366,0.0,0.0
456126,0.298,-0.275,0.597,-39.031,-37.351,3.550,0.0,0.0
456192,0.308,-0.244,0.559,-23.977,-30.527,-13.267,0.0,0.0
456257,0.493,-0.338,0.639,-40.290,-19.992,-17.519,0.0,0.0
456323,0.496,-0.428,0.829,-47.275,-5.565,-21.962,0.0,0.0
456391,0.526,-0.579,0.919,-36.427,-3.534,-30.466,0.0,0.0
456456,0.560,-0.648,0.923,-41.244,-5.710,-25.908,0.0,0.0
456521,0.375,-0.584,0.866,-26.985,-8.099,-40.626,0.0,0.0
456587,0.337,-0.455,0.738,1.756,-6.817,-41.565,0.0,0.0
456652,0.507,-0.368,0.620,-6.382,-1.740,-15.901,0.0,0.0
456718,0.567,-0.440,0.550,3.656,-0.634,-10.870,0.0,0.0
456783,0.545,-0.348,0.481,24.053,-1.977,-28.855,0.0,0.0
456848,0.606,-0.342,0.523,6.053,-6.611,-19.458,0.0,0.0
456913,0.642,-0.334,0.577,-1.153,-1.359,-1.962,0.0,0.0
456982,0.670,-0.441,0.653,-8.237,-0.061,8.679,0.0,0.0
457048,0.714,-0.489,0.685,14.649,-3.557,4.603,0.0,0.0
457113,0.727,-0.352,0.665,24.664,0.076,12.198,0.0,0.0
457222,0.458,-0.099,0.661,74.046,13.733,28.183,0.0,0.0
457287,0.262,-0.268,0.614,183.328,46.733,35.244,0.0,0.0
457353,0.375,0.181,0.391,250.130,62.237,11.130,0.0,0.0
457417,0.728,0.169,0.551,250.130,105.382,18.153,0.0,0.0
457483,0.554,0.205,0.815,226.985,144.313,-16.389,0.0,0.0
457540,-0.175,0.601,0.603,250.130,156.107,-78.519,51.0,0.0
457604,-0.676,1.144,0.280,162.794,122.366,-162.550,0.0,114.0
457669,-0.894,0.927,0.174,-86.412,129.901,-239.191,0.0,0.0
457736,-1.132,0.097,0.389,-83.878,194.336,-250.137,0.0,0.0
457801,-1.837,-0.132,0.237,67.366,184.557,-248.718,0.0,0.0
457867,-1.760,-0.030,0.124,162.611,105.420,-195.275,0.0,0.0
457932,-1.179,0.312,0.051,163.733,77.771,-134.954,0.0,0.0
457998,-0.962,0.446,0.052,48.168,42.489,-102.260,0.0,0.0
458063,-0.904,0.240,0.214,18.405,33.389,-73.122,0.0,0.0
458132,-1.020,0.259,0.253,55.939,18.603,-51.092,0.0,0.0
458198,-1.002,0.293,0.226,64.947,5.840,-19.771,0.0,0.0
458263,-1.262,0.434,0.063,24.550,0.069,32.443,0.0,0.0
458329,-1.340,0.382,-0.038,-71.076,-26.641,109.244,0.0,0.0
458394,-1.842,0.256,-0.205,-144.153,-60.588,163.420,0.0,0.0
458460,-1.519,0.019,-0.142,-132.084,-87.992,216.695,0.0,0.0
458525,-1.096,0.087,-0.095,-84.282,-93.008,243.779,0.0,0.0
458592,-0.833,0.256,-0.075,-83.321,-77.344,215.443,0.0,0.0
458657,-0.737,0.237,-0.026,-106.443,-56.504,159.886,0.0,0.0
458726,-0.714,0.251,0.095,-45.198,-25.580,69.763,0.0,195.0
458789,-0.773,0.222,0.136,4.931,5.351,-23.313,0.0,171.0
458853,-0.938,0.158,0.087,58.756,28.832,-82.084,0.0,167.0
458917,-0.913,0.277,-0.007,115.145,78.229,-139.122,0.0,164.0
458983,-1.318,0.316,-0.063,69.802,76.305,-204.176,0.0,0.0
459048,-1.251,0.113,0.071,115.107,80.496,-235.099,0.0,0.0
459114,-1.225,0.315,-0.027,111.336,81.557,-238.824,0.0,0.0
459181,-1.171,0.352,0.005,37.695,67.824,-195.412,0.0,0.0
459246,-1.112,0.154,0.194,32.725,53.985,-99.969,0.0,0.0
459315,-1.105,0.248,0.249,87.824,21.298,-26.023,0.0,0.0
459380,-1.207,0.448,0.098,68.420,0.664,12.733,0.0,0.0
459446,-1.239,0.339,0.003,-18.130,-18.405,87.115,0.0,0.0
459511,-1.545,0.182,-0.102,-82.779,-50.847,176.611,0.0,0.0
459578,-1.774,0.002,-0.184,-67.191,-83.038,250.130,0.0,0.0
459643,-1.066,0.187,-0.098,-57.275,-63.412,250.130,0.0,0.0
459709,-0.712,0.365,-0.119,-104.931,-39.992,213.496,0.0,0.0
459776,-0.591,0.247,-0.039,-123.244,-31.756,137.992,0.0,0.0
459843,-0.617,0.260,0.022,-87.504,-6.160,66.756,0.0,181.0
459908,-0.875,0.345,0.050,-52.038,22.687,-26.443,0.0,182.0
459974,-1.117,0.208,0.079,-27.641,47.611,-95.435,0.0,0.0
460040,-1.054,0.116,0.114,37.351,80.015,-126.099,0.0,0.0
460105,-1.228,0.207,0.069,70.511,86.435,-151.588,0.0,0.0
460170,-1.353,0.112,0.066,98.229,66.977,-171.214,0.0,171.0
460235,-1.099,0.139,0.093,149.229,63.344,-149.275,0.0,0.0
460302,-0.965,0.422,-0.032,96.580,52.847,-130.924,0.0,0.0
460367,-0.916,0.312,0.117,6.382,46.176,-114.176,0.0,0.0
460437,-0.998,0.216,0.208,1.252,42.672,-73.573,0.0,0.0
460546,-1.087,0.222,0.192,37.221,5.718,-9.855,0.0,0.0
460611,-1.319,0.336,0.042,18.756,-11.840,47.924,0.0,0.0
460677,-1.413,0.233,-0.037,-52.550,-41.267,143.969,0.0,194.0
460743,-1.759,0.053,-0.114,-88.252,-81.420,227.038,0.0,0.0
460809,-1.141,0.163,-0.075,-93.718,-80.924,241.756,0.0,0.0
460880,-0.723,0.328,-0.102,-92.008,-54.725,193.084,0.0,0.0
460946,-0.617,0.301,-0.047,-108.580,-44.817,130.855,0.0,0.0
461010,-0.688,0.245,-0.009,-94.740,-30.977,78.702,0.0,0.0
461078,-0.925,0.301,0.051,-44.420,-1.008,3.237,0.0,0.0
461144,-1.104,0.165,0.065,20.046,29.565,-64.802,0.0,0.0
461208,-0.969,0.172,0.044,56.443,76.534,-102.107,0.0,0.0
461273,-1.236,0.281,0.015,34.252,93.122,-142.267,0.0,0.0
461338,-1.316,0.039,0.113,88.626,79.252,-177.198,0.0,0.0
461403,-1.067,0.129,0.068,174.435,74.458,-169.817,0.0,0.0
461468,-0.991,0.430,-0.052,104.916,59.893,-158.840,0.0,0.0
461533,-0.980,0.310,0.081,5.542,55.366,-133.534,0.0,0.0
461597,-0.989,0.240,0.203,-5.496,52.038,-83.672,0.0,0.0
461666,-1.114,0.224,0.223,1.893,21.870,-38.542,0.0,0.0
461730,-1.345,0.194,0.142,34.649,-9.122,36.534,0.0,0.0
461795,-1.243,0.257,0.032,5.901,-46.992,130.084,0.0,0.0
461860,-1.706,0.216,-0.109,-64.260,-77.214,185.878,0.0,0.0
461925,-1.571,0.115,-0.162,-67.122,-93.031,221.618,0.0,0.0
461990,-1.116,0.205,-0.122,-68.802,-86.313,240.573,0.0,0.0
462055,-0.837,0.303,-0.097,-69.985,-70.435,213.046,0.0,0.0
462120,-0.644,0.321,-0.052,-77.069,-53.191,168.412,0.0,0.0
462188,-0.582,0.291,0.008,-75.908,-25.122,98.099,0.0,0.0
462254,-0.607,0.319,0.059,-40.649,15.649,-11.069,0.0,0.0
462318,-0.873,0.298,0.058,7.763,70.771,-110.740,0.0,0.0
462384,-0.928,0.203,0.047,30.229,121.954,-178.542,0.0,0.0
462448,-1.393,0.203,0.013,11.366,136.435,-219.992,197.0,0.0
462514,-1.550,-0.060,0.099,64.603,115.733,-221.023,198.0,0.0
462578,-1.188,0.040,0.127,153.931,98.756,-165.947,0.0,0.0
462644,-1.065,0.336,0.006,106.336,52.382,-115.847,0.0,0.0
462708,-0.971,0.223,0.117,62.679,33.718,-66.626,0.0,0.0
462777,-0.951,0.296,0.135,57.504,18.656,-27.534,0.0,0.0
462841,-0.983,0.358,0.131,36.450,14.573,-14.977,0.0,0.0
462907,-1.251,0.388,0.076,-6.786,5.008,8.237,0.0,0.0
462971,-1.334,0.165,0.068,-50.489,-27.565,95.947,0.0,0.0
463037,-1.784,0.145,-0.091,-82.740,-67.031,194.099,0.0,0.0
463102,-1.505,0.177,-0.164,-114.985,-93.061,230.183,0.0,0.0
463167,-0.958,0.170,-0.085,-102.046,-80.504,218.687,0.0,0.0
463233,-0.693,0.317,-0.095,-97.962,-62.550,173.397,0.0,0.0
463298,-0.703,0.302,-0.055,-104.206,-47.084,104.878,0.0,0.0
463366,-0.795,0.147,0.057,-20.611,-23.947,53.511,0.0,0.0
463431,-0.934,0.305,-0.014,20.092,-1.573,-16.863,0.0,0.0
463497,-1.039,0.251,0.014,35.954,29.168,-74.939,0.0,0.0
463561,-1.000,0.242,0.029,34.473,75.328,-117.824,0.0,0.0
463627,-1.305,0.209,0.038,22.519,80.252,-162.359,0.0,0.0
463691,-1.153,0.073,0.099,108.389,86.420,-180.664,0.0,0.0
463757,-1.035,0.305,0.004,125.817,90.191,-175.924,0.0,0.0
463865,-1.080,0.227,0.110,28.893,68.473,-115.656,0.0,0.0
463921,-1.058,0.208,0.214,43.519,45.244,-57.931,17.0,0.0
463988,-1.085,0.285,0.205,44.672,25.542,-21.855,0.0,0.0
464054,-1.245,0.321,0.152,30.763,5.634,13.321,0.0,0.0
464119,-1.215,0.282,0.105,-32.382,-29.695,75.130,0.0,0.0
464184,-1.546,0.209,-0.011,-90.954,-72.031,134.061,0.0,0.0
464249,-1.572,0.088,-0.089,-59.435,-102.313,172.679,0.0,0.0
464315,-1.131,0.208,-0.146,-34.573,-100.221,212.886,0.0,0.0
464380,-0.852,0.307,-0.153,-77.206,-85.802,202.405,0.0,0.0
464446,-0.803,0.240,-0.060,-95.756,-67.519,162.031,0.0,0.0
464515,-0.860,0.203,0.013,-75.847,-38.130,98.313,0.0,0.0
464579,-0.841,0.183,0.073,-7.756,-0.779,12.985,0.0,0.0
464645,-0.967,0.154,0.056,24.718,35.687,-69.573,0.0,0.0
464710,-0.953,0.165,0.073,63.802,70.542,-129.267,0.0,0.0
464776,-1.280,0.230,0.050,72.115,85.260,-194.145,0.0,0.0
464840,-1.288,0.132,0.067,108.305,93.420,-227.298,0.0,0.0
464906,-1.145,0.229,0.013,96.985,85.863,-210.336,0.0,0.0
464971,-1.076,0.193,0.073,74.076,63.618,-150.748,0.0,0.0
465037,-1.042,0.218,0.124,67.351,42.435,-75.145,0.0,0.0
465105,-0.956,0.397,0.176,45.046,28.344,-34.679,0.0,0.0
465170,-1.087,0.371,0.215,-4.786,16.321,-16.214,0.0,0.0
465235,-1.370,0.186,0.114,-21.237,-18.267,55.565,0.0,0.0
465301,-1.621,0.067,-0.018,-22.977,-72.489,182.855,0.0,0.0
465367,-1.706,0.097,-0.134,-14.908,-101.229,250.130,0.0,0.0
465432,-1.064,0.330,-0.102,-61.252,-72.672,246.282,0.0,0.0
465498,-0.699,0.287,-0.066,-111.038,-50.137,174.473,0.0,0.0
465563,-0.569,0.194,-0.002,-103.718,-37.550,114.588,0.0,0.0
465629,-0.732,0.272,-0.014,-73.183,-11.076,56.397,0.0,0.0
465697,-0.944,0.210,0.043,-56.260,5.771,-4.534,0.0,0.0
465763,-1.057,0.094,0.126,8.252,30.550,-55.962,0.0,0.0
465828,-0.985,0.222,0.116,88.740,73.901,-128.237,0.0,0.0
465894,-1.078,0.228,0.131,61.679,68.969,-181.664,0.0,0.0
465959,-1.499,-0.009,0.108,123.527,59.870,-181.344,0.0,0.0
466025,-1.109,0.263,-0.007,151.786,51.573,-122.832,0.0,0.0
466091,-0.959,0.387,-0.032,43.771,31.153,-87.649,0.0,0.0
466156,-0.917,0.133,0.132,93.886,22.527,-57.008,0.0,0.0
466222,-0.851,0.377,0.135,136.748,15.191,-57.008,0.0,0.0
466290,-0.949,0.548,0.179,35.267,15.710,-81.298,0.0,0.0
466356,-1.364,0.289,0.140,17.122,9.573,-44.282,0.0,0.0
466421,-1.205,0.441,-0.007,-20.137,-3.145,65.924,0.0,0.0
466487,-1.520,0.381,-0.146,-146.710,-25.641,151.389,0.0,0.0
466552,-1.741,0.205,-0.202,-168.076,-46.802,188.718,0.0,0.0
466618,-1.392,0.167,-0.168,-132.557,-55.084,250.130,0.0,0.0
466683,-1.154,0.288,-0.080,-38.527,-76.580,250.130,0.0,0.0
466752,-0.554,0.520,-0.004,-57.611,-65.511,250.130,0.0,104.0
466814,-0.412,0.312,0.133,-38.351,-57.931,218.389,0.0,109.0
466875,-0.274,0.578,0.136,10.382,-34.725,96.298,198.0,112.0
466934,-0.303,0.541,0.172,20.061,-9.550,-23.931,197.0,111.0
466994,-0.403,0.333,0.169,11.443,29.313,-138.496,0.0,108.0
467054,-0.751,0.469,0.124,14.718,64.321,-220.061,0.0,104.0
