Timestamp(ms),AccelX(g),AccelY(g),AccelZ(g),GyroX(deg/s),GyroY(deg/s),GyroZ(deg/s),DistanceLeft(cm),DistanceRight(cm)
457367,-1.892,0.910,-0.025,-12.611,-0.031,-22.855,0.0,50.0
457423,-1.608,0.554,-0.024,-15.649,-14.076,34.374,0.0,47.0
457481,-0.950,0.527,0.047,-18.649,1.634,53.366,0.0,57.0
457537,-0.473,0.311,0.148,-79.656,-8.183,28.901,0.0,50.0
457594,-0.076,-0.036,0.248,-90.817,-10.450,4.237,0.0,55.0
457652,-0.542,-0.067,0.283,-75.038,-20.198,1.664,0.0,60.0
457709,-2.000,0.411,0.208,75.779,0.863,-65.595,0.0,67.0
457767,-1.802,0.590,-0.046,24.183,23.817,-20.855,0.0,72.0
457826,-1.148,0.554,0.145,-132.321,12.275,-20.473,0.0,80.0
457887,-0.789,0.420,0.271,-10.405,18.412,-27.496,0.0,88.0
457947,-0.465,0.698,0.124,-56.053,21.924,-7.382,0.0,98.0
458007,-0.135,0.533,0.183,-118.450,36.420,19.840,0.0,110.0
458067,-0.712,0.623,-0.051,-123.817,53.664,27.885,0.0,123.0
458127,-1.969,1.156,-0.884,-202.214,74.832,-20.244,0.0,90.0
458186,-1.759,0.186,-0.490,-250.137,46.321,71.603,0.0,96.0
458247,-0.863,0.107,-0.049,-181.191,28.573,154.626,0.0,107.0
458308,-0.393,0.206,-0.022,-174.145,8.618,146.557,0.0,132.0
458375,-0.577,0.243,-0.144,-136.511,-16.740,73.366,0.0,176.0
458440,-1.204,0.326,-0.367,-27.626,-29.153,-12.893,0.0,0.0
458506,-1.160,0.372,-0.137,-20.534,22.740,-31.618,196.0,0.0
458570,-0.875,0.388,0.118,-45.397,55.794,-59.611,188.0,0.0
458635,-1.128,0.230,0.168,-143.908,58.786,-63.771,182.0,0.0
458699,-1.274,-0.169,0.296,-58.130,27.336,-57.229,177.0,0.0
458763,-0.938,0.279,0.139,58.687,40.221,-55.412,170.0,0.0
458826,-0.757,0.404,0.010,-37.053,15.664,-67.053,162.0,0.0
458889,-0.671,0.246,0.143,-91.573,19.710,-46.893,160.0,0.0
458950,-0.874,0.221,0.241,-84.878,9.160,-20.603,151.0,112.0
459006,-0.949,0.216,0.254,-67.237,-12.038,4.779,142.0,112.0
459068,-1.130,0.343,0.100,-38.679,-19.824,21.695,0.0,117.0
459129,-1.423,0.378,-0.226,-53.061,-15.595,58.122,0.0,125.0
459191,-1.596,0.406,-0.495,-145.160,-20.840,117.275,0.0,133.0
459253,-1.039,0.048,-0.124,-97.901,0.328,136.183,0.0,146.0
459313,-0.490,0.284,-0.090,-78.382,34.450,141.282,174.0,122.0
459374,-0.594,0.294,-0.159,-166.405,21.481,84.206,166.0,159.0
459437,-1.212,-0.072,-0.183,-133.832,-6.336,35.099,160.0,135.0
459496,-1.302,-0.058,-0.098,-5.153,-5.015,20.779,155.0,141.0
459556,-1.141,0.237,-0.055,41.412,11.130,-25.901,152.0,144.0
459616,-0.905,0.275,0.089,0.198,17.122,-79.702,150.0,148.0
459675,-0.721,0.105,0.234,-27.588,38.000,-51.107,148.0,150.0
459736,-1.095,0.155,0.201,16.840,27.656,-67.374,147.0,153.0
459796,-0.817,0.213,0.149,74.443,20.313,-50.565,147.0,155.0
459858,-0.681,0.391,0.082,22.435,19.115,-28.656,0.0,159.0
459922,-0.622,0.296,0.205,-30.595,4.702,-3.725,0.0,165.0
459983,-0.643,0.406,0.236,-19.466,11.244,23.954,0.0,57.0
460041,-0.732,0.466,0.194,-40.573,13.443,13.802,0.0,56.0
460097,-0.887,0.252,0.163,-59.962,10.183,25.878,198.0,48.0
460153,-2.000,0.195,-0.334,-30.901,-15.748,5.580,192.0,54.0
460210,-1.486,-0.144,-0.103,33.061,-15.771,79.817,186.0,50.0
460268,-0.793,0.158,-0.137,51.305,-17.069,31.137,0.0,55.0
460325,0.158,-0.120,0.115,-20.282,-15.397,26.664,0.0,57.0
460426,-0.611,0.198,0.222,49.031,-11.985,-0.198,0.0,57.0
460486,-1.211,0.807,0.195,50.282,19.420,-27.595,0.0,55.0
460544,-1.097,0.643,0.114,-57.160,34.550,-36.885,0.0,57.0
460601,-1.596,0.218,0.103,-76.275,14.122,-37.473,0.0,54.0
460658,-1.892,0.073,-0.172,31.397,-9.992,-13.115,0.0,50.0
460716,-0.903,0.111,-0.046,31.969,-3.580,67.420,0.0,57.0
460774,0.178,-0.044,0.067,-22.679,-15.053,50.252,0.0,58.0
460831,-0.167,-0.083,0.234,28.595,-30.557,35.489,0.0,60.0
460890,-0.975,0.512,0.133,83.382,-26.664,25.595,0.0,68.0
460947,-1.217,0.857,0.235,58.496,17.221,-50.137,0.0,67.0
461008,-0.821,0.633,0.214,-120.687,49.695,-13.298,0.0,58.0
461066,-1.904,0.405,0.029,-97.656,41.931,-39.359,0.0,57.0
461123,-1.399,-0.011,-0.150,-32.046,3.893,-13.931,0.0,51.0
461180,-0.613,-0.180,0.056,49.458,-27.771,33.611,0.0,58.0
461238,0.195,-0.071,-0.011,84.679,-25.885,27.305,0.0,57.0
461296,-0.548,0.327,0.053,18.481,-12.908,25.107,0.0,58.0
461353,-1.489,0.957,0.327,2.198,-3.733,-35.855,0.0,58.0
461411,-1.147,0.895,0.370,2.824,24.244,37.809,0.0,59.0
461468,-1.049,0.870,0.295,-134.985,3.496,91.000,0.0,57.0
461530,-2.000,0.461,-0.484,-14.969,-36.351,120.626,0.0,57.0
461588,-0.628,0.378,-0.215,55.664,-16.038,179.534,0.0,77.0
461646,0.263,-0.203,-0.127,-94.382,-8.076,74.542,0.0,66.0
461705,0.264,-0.362,0.339,-54.298,-16.962,13.107,0.0,63.0
461762,-0.980,1.435,0.396,45.107,-9.252,31.008,0.0,59.0
461812,-0.880,1.410,0.469,29.290,35.389,44.573,58.0,69.0
461871,-0.011,0.712,0.343,-88.931,54.794,84.656,0.0,67.0
461921,-1.345,1.749,0.272,33.687,63.046,46.344,55.0,82.0
461975,-1.291,1.193,-0.304,-12.206,-3.206,107.855,51.0,87.0
462025,-0.287,0.143,-0.056,-47.008,10.550,92.344,41.0,91.0
462074,0.135,-0.492,0.043,-44.702,0.863,76.870,37.0,75.0
462124,0.375,-0.492,0.267,-37.244,-5.122,18.595,37.0,74.0
462173,-0.148,0.855,1.025,19.260,-10.679,-58.191,38.0,76.0
462223,-0.884,2.000,0.994,-15.176,-35.855,27.275,39.0,77.0
462272,0.223,0.565,0.524,31.916,34.595,104.740,37.0,77.0
462323,0.588,-0.149,0.364,16.489,108.748,13.008,39.0,99.0
462373,-0.754,1.969,-0.356,32.863,103.550,-98.336,41.0,93.0
462427,-1.310,2.000,-0.184,41.328,-18.214,23.099,44.0,87.0
462479,-0.205,0.668,-0.100,52.908,-23.542,50.450,51.0,108.0
462531,0.151,-0.389,-0.016,-91.992,-7.779,11.916,48.0,103.0
462581,0.339,-0.588,0.238,-106.870,5.168,-58.420,51.0,80.0
462639,-0.715,0.771,0.280,31.847,0.168,-54.046,51.0,113.0
462690,-0.713,2.000,0.535,34.145,-19.588,-30.618,57.0,110.0
462749,0.040,1.031,0.619,-10.603,29.061,25.626,0.0,110.0
462810,0.568,0.429,0.458,-83.023,105.779,13.557,0.0,112.0
462870,-0.691,2.000,-0.196,-39.519,104.939,-33.832,0.0,115.0
462931,-0.899,2.000,-0.319,-7.710,61.458,36.954,0.0,98.0
462991,-0.551,1.253,-0.222,-52.695,70.275,24.053,0.0,98.0
463050,-0.340,0.572,-0.072,-79.382,66.130,-16.305,0.0,100.0
463110,-0.269,0.278,0.060,-96.992,59.153,-43.504,0.0,101.0
463171,-0.631,0.701,0.309,-92.855,52.878,-76.015,0.0,141.0
463276,-1.136,0.483,0.086,-63.183,83.275,-159.847,0.0,124.0
463336,-0.938,0.394,0.094,-60.069,72.374,-185.229,0.0,126.0
463397,-1.071,0.600,0.008,-48.992,65.611,-192.313,200.0,130.0
463461,-1.070,0.549,0.008,-97.160,42.328,-126.916,195.0,137.0
463523,-0.911,0.521,0.094,-125.031,19.740,-32.977,0.0,147.0
463587,-0.678,0.364,0.207,-129.282,-7.000,33.191,0.0,176.0
463650,-0.702,0.416,0.168,-80.168,-30.916,51.786,188.0,190.0
463709,-1.163,0.716,-0.175,-40.153,-37.756,53.847,176.0,98.0
463768,-1.912,1.061,-0.781,-145.992,8.618,93.901,0.0,104.0
463828,-1.796,0.440,-0.708,-250.137,30.229,148.771,0.0,113.0
463889,-1.077,0.173,-0.210,-171.939,26.252,185.458,0.0,126.0
463954,-0.594,0.316,-0.120,-132.374,13.389,171.557,0.0,142.0
464015,-0.493,0.359,-0.114,-169.069,-7.237,130.359,153.0,172.0
464075,-0.970,0.404,-0.171,-124.321,-17.435,59.794,148.0,167.0
464136,-1.292,0.293,-0.150,-39.687,-4.916,15.794,145.0,174.0
464196,-1.105,0.301,-0.075,31.588,29.740,-26.504,140.0,177.0
464257,-0.928,0.355,0.044,26.908,68.542,-76.687,140.0,178.0
464317,-0.817,0.284,0.144,-30.908,89.351,-110.458,137.0,179.0
464377,-1.198,0.111,0.181,-62.931,66.344,-124.511,137.0,179.0
464438,-1.246,0.003,0.306,46.695,56.092,-119.389,136.0,179.0
464501,-1.025,0.301,0.129,78.191,40.687,-80.191,140.0,179.0
464563,-0.786,0.429,0.138,-9.573,22.153,-46.542,0.0,129.0
464624,-0.713,0.330,0.215,-46.489,12.099,8.015,0.0,132.0
464689,-0.653,0.355,0.282,-38.809,-11.855,110.321,0.0,192.0
464754,-0.161,0.492,0.236,-6.046,-14.130,125.481,0.0,0.0
464812,0.038,0.379,0.248,-59.221,-28.176,96.282,0.0,59.0
464869,-0.528,0.459,0.332,-28.382,-10.023,49.489,0.0,62.0
464926,-2.000,1.140,-0.691,-28.092,-59.908,86.573,0.0,66.0
464987,-1.254,0.499,-0.185,36.092,29.328,214.641,0.0,61.0
465045,-0.505,0.419,-0.171,-63.885,54.809,135.664,0.0,80.0
465093,-0.055,-0.172,0.052,-104.733,37.733,52.206,51.0,62.0
465142,0.104,-0.445,0.196,-34.008,22.260,43.824,51.0,67.0
465191,0.026,-0.163,0.177,15.931,11.718,45.397,53.0,73.0
465243,-0.472,0.627,0.221,-9.359,-18.061,58.794,51.0,93.0
465293,-0.595,1.274,0.618,-14.954,-34.710,40.130,44.0,91.0
465343,-0.590,1.188,0.565,33.863,13.069,-6.634,45.0,104.0
465392,-0.313,0.997,0.419,-47.504,49.244,33.084,44.0,77.0
465444,-0.828,1.388,0.293,-8.893,64.580,4.756,45.0,81.0
465495,-1.322,1.595,-0.052,24.733,-0.198,5.305,45.0,89.0
465545,-0.481,0.999,0.015,26.359,-26.130,21.679,49.0,81.0
465594,-0.163,0.426,0.020,-3.389,-37.015,6.267,48.0,72.0
465653,0.123,-0.031,0.107,-34.458,-49.260,2.603,0.0,101.0
465703,-0.010,-0.068,0.240,13.504,-48.672,2.679,57.0,82.0
465754,-0.572,1.227,0.361,40.725,-27.183,30.763,45.0,84.0
465803,-0.733,1.684,0.375,21.336,-3.328,-13.794,42.0,89.0
465853,-0.291,1.042,0.445,-30.321,17.557,18.550,42.0,90.0
465905,0.061,0.506,0.564,-14.870,39.611,-9.908,44.0,83.0
465955,-1.069,1.944,0.243,54.618,53.076,-18.252,44.0,82.0
466014,-0.893,1.873,-0.036,-16.053,-2.137,23.947,0.0,92.0
466065,-0.281,0.703,0.095,-37.672,-28.695,10.359,45.0,95.0
466159,0.091,-0.229,0.097,-12.443,-41.870,20.710,45.0,100.0
466209,-0.159,0.115,0.223,9.786,-40.809,16.855,43.0,101.0
466259,-0.295,1.111,0.341,44.603,-18.595,7.000,40.0,82.0
466310,-0.460,1.595,0.419,19.893,30.481,-34.443,40.0,111.0
466363,-0.174,0.741,0.357,-35.298,60.519,2.710,40.0,83.0
466413,-0.325,1.325,0.276,-3.061,80.779,0.221,41.0,95.0
466463,-1.416,1.756,-0.135,74.618,-4.542,-45.176,40.0,97.0
466513,-0.033,0.859,-0.078,12.855,13.611,5.023,40.0,94.0
466563,0.239,-0.354,-0.001,-97.000,10.183,7.504,38.0,81.0
466613,-0.046,-0.022,0.230,28.038,-24.282,-0.679,39.0,94.0
466662,-0.521,1.093,0.309,55.794,-48.824,34.183,38.0,90.0
466712,-0.697,1.870,0.417,28.122,-21.840,-1.710,39.0,95.0
466762,-0.344,1.211,0.448,-17.847,18.870,7.870,40.0,94.0
466816,-0.366,1.028,0.351,-17.382,57.038,9.015,39.0,90.0
466866,-1.360,1.859,-0.275,-7.374,9.313,-19.198,41.0,92.0
466916,-0.510,1.281,-0.106,9.160,-41.603,10.160,39.0,100.0
466966,-0.085,0.471,0.000,1.496,-53.725,-6.366,39.0,102.0
467016,0.085,-0.079,0.241,46.366,-42.672,9.931,40.0,89.0
467067,0.098,0.460,0.024,12.351,-22.702,39.557,42.0,109.0
467119,-0.176,0.753,0.252,-41.237,-16.863,-5.542,57.0,96.0
467169,-0.612,1.563,0.311,59.221,-4.840,-31.176,44.0,94.0
467220,-0.261,1.292,0.312,-2.435,24.718,11.069,43.0,94.0
467273,-0.045,0.593,0.315,-51.328,41.137,17.221,43.0,96.0
467323,-0.693,1.891,-0.026,60.000,27.107,-37.099,46.0,95.0
467375,-0.808,1.302,-0.150,134.427,-18.954,17.061,46.0,96.0
467426,-0.280,0.863,-0.277,-43.802,-24.084,23.908,46.0,104.0
467477,-0.135,-0.518,0.183,-84.450,-42.718,5.565,45.0,100.0
467528,-0.165,-0.124,0.065,31.336,-65.710,-7.160,47.0,98.0
467578,-0.740,1.112,-0.053,103.084,-111.771,-34.786,46.0,92.0
467629,-0.781,2.000,0.078,81.908,-130.626,-38.580,47.0,88.0
467682,-0.296,1.161,0.188,71.282,-72.954,15.168,44.0,87.0
467733,0.052,0.638,-0.046,24.130,-78.282,32.198,51.0,88.0
467783,-0.085,1.165,0.043,8.046,-90.534,24.504,44.0,86.0
467842,-1.657,2.000,-0.434,60.962,-138.237,-1.481,0.0,85.0
467902,-0.435,1.538,-0.063,20.679,-106.435,39.122,0.0,96.0
467952,-0.275,1.141,0.064,-1.015,-86.580,-21.084,51.0,90.0
468012,-0.389,1.014,-0.045,30.267,-105.321,-19.809,0.0,94.0
468072,-0.286,0.644,-0.133,46.076,-139.710,-19.107,0.0,96.0
468131,-0.216,0.381,-0.124,15.580,-165.336,-26.061,0.0,97.0
468195,-0.388,0.442,-0.057,19.969,-188.412,-35.695,0.0,102.0
468247,-0.579,0.783,0.106,43.763,-196.137,-50.069,58.0,98.0
468306,-0.742,1.263,0.185,84.595,-184.321,-86.359,0.0,97.0
468367,-0.637,1.391,0.221,75.702,-144.099,-119.473,0.0,95.0
468427,-0.510,1.017,0.189,28.435,-101.237,-124.779,0.0,109.0
468488,-0.399,0.684,0.159,43.931,-101.511,-108.534,0.0,107.0
468545,-0.405,0.669,0.163,90.649,-108.695,-100.740,143.0,106.0
468602,-0.440,0.799,0.209,99.611,-99.466,-80.626,147.0,104.0
468667,-0.378,0.745,0.326,102.260,-66.924,-67.183,115.0,0.0
468732,-0.489,0.814,0.289,66.076,-27.626,-71.313,0.0,0.0
468796,-0.827,0.696,0.274,37.756,-14.977,-41.878,162.0,0.0
468905,-0.854,0.729,0.050,42.275,-1.221,-10.000,0.0,0.0
468971,-0.753,0.565,0.059,44.817,10.153,-9.969,0.0,0.0
469038,-0.650,0.552,-0.009,35.702,24.328,-4.809,0.0,0.0
469103,-0.656,0.604,-0.040,26.557,35.733,-17.855,0.0,0.0
469169,-0.817,0.632,-0.060,-15.779,32.038,-18.748,0.0,0.0
469234,-0.910,0.599,-0.016,4.649,22.145,-2.893,0.0,0.0
469304,-0.850,0.671,0.062,2.069,16.000,2.916,0.0,0.0
469369,-0.816,0.641,0.157,-40.466,8.908,3.092,0.0,0.0
469435,-0.897,0.542,0.193,-54.244,-11.115,-5.855,0.0,0.0
469500,-1.082,0.476,0.116,-5.901,-30.031,-27.008,0.0,0.0
469567,-1.536,0.334,-0.151,53.191,-36.267,-30.008,0.0,0.0
469633,-1.358,0.136,-0.360,107.679,-26.191,-70.817,0.0,0.0
469699,-1.001,0.018,-0.339,29.985,-8.931,-98.153,0.0,0.0
469762,-1.140,0.015,-0.120,31.290,2.176,-93.244,150.0,0.0
469817,-0.963,0.086,-0.031,62.214,-10.198,-65.802,155.0,57.0
469875,-0.816,0.248,-0.011,86.168,-11.252,-53.344,157.0,57.0
469928,-0.639,0.315,0.016,59.290,-6.573,-39.779,114.0,57.0
469995,-0.554,0.342,0.085,9.954,4.641,-24.244,119.0,0.0
470054,-0.684,0.295,0.135,-42.634,11.023,-7.298,114.0,0.0
470115,-0.831,0.165,0.188,-41.939,5.840,10.405,117.0,0.0
470170,-1.161,0.235,0.125,22.466,13.672,22.244,161.0,71.0
470222,-1.476,0.427,-0.108,14.458,25.183,25.000,101.0,74.0
470281,-1.449,0.280,-0.233,-95.397,3.374,76.290,100.0,0.0
470338,-1.411,0.094,-0.129,-88.389,-17.260,125.237,145.0,62.0
470392,-1.143,0.220,-0.118,-26.718,-19.107,122.244,145.0,61.0
470448,-0.745,0.330,-0.112,-44.397,-11.191,105.473,174.0,61.0
470506,-0.481,0.294,-0.065,-92.794,-3.046,80.359,0.0,77.0
470560,-0.391,0.190,0.001,-105.412,-2.557,57.237,158.0,63.0
470617,-0.675,0.211,0.013,-78.275,-2.275,24.023,0.0,50.0
470668,-1.218,0.212,-0.060,-24.282,1.595,-25.916,107.0,50.0
470725,-1.571,0.274,-0.156,10.366,16.336,-71.038,0.0,57.0
470777,-1.386,0.163,-0.118,20.763,22.305,-122.099,109.0,65.0
470832,-1.105,-0.101,-0.079,34.794,40.779,-159.588,119.0,57.0
470892,-1.379,-0.075,-0.229,44.878,45.809,-145.748,108.0,0.0
470953,-1.144,-0.053,-0.032,52.214,27.573,-84.107,139.0,0.0
471014,-0.890,0.153,0.026,133.382,24.618,-52.893,128.0,0.0
471078,-0.615,0.348,0.056,121.260,21.962,-52.916,180.0,0.0
471142,-0.490,0.346,0.135,39.656,21.733,-43.595,174.0,0.0
471207,-0.735,0.273,0.238,-11.198,21.496,-30.832,0.0,0.0
471272,-0.975,0.248,0.271,-0.137,17.824,-21.695,0.0,0.0
471340,-1.250,0.398,0.140,-32.458,27.290,18.550,0.0,0.0
471400,-1.681,0.368,-0.135,-173.756,-17.031,69.099,104.0,0.0
471461,-1.389,-0.054,0.049,-131.099,-85.649,154.603,136.0,0.0
471514,-1.436,0.312,-0.001,-88.626,-118.046,167.641,135.0,44.0
471575,-1.273,0.429,0.087,-120.107,-143.519,121.038,126.0,0.0
471626,-1.169,0.193,0.335,-90.473,-183.802,76.603,109.0,45.0
471675,-1.015,0.553,0.226,-116.641,-177.679,99.206,94.0,43.0
471726,-0.866,0.245,0.378,-167.321,-191.176,82.672,91.0,45.0
471779,-0.730,0.239,0.505,-97.374,-173.282,79.061,89.0,42.0
471829,-0.569,0.278,0.538,-120.847,-146.672,68.260,87.0,51.0
471921,-0.525,0.100,0.837,-110.344,-88.573,42.664,83.0,39.0
471970,-0.208,-0.017,0.949,-71.466,-70.527,30.481,82.0,40.0
472019,-0.159,-0.122,0.892,-67.496,-46.718,23.321,81.0,41.0
472069,-0.158,-0.185,0.949,-54.000,-41.824,20.374,80.0,41.0
472118,-0.067,-0.253,0.912,-27.473,-33.771,10.664,80.0,45.0
472168,0.130,-0.299,0.878,-11.725,-17.626,1.969,80.0,43.0
472217,0.066,-0.222,0.812,-17.603,-3.504,-9.229,80.0,45.0
472269,0.086,-0.240,0.843,-2.069,-5.458,-13.504,82.0,44.0
472317,0.080,-0.232,0.873,-6.992,-9.702,-13.397,56.0,41.0
472367,0.135,-0.181,0.825,-5.305,-11.595,-10.496,83.0,40.0
472416,0.146,-0.243,0.889,-10.992,-15.954,-7.885,85.0,40.0
472465,0.138,-0.189,0.908,-2.817,-14.176,-8.496,86.0,38.0
472514,0.180,-0.257,1.009,9.160,-11.969,-5.130,88.0,36.0
472564,0.094,-0.146,1.051,12.374,-17.366,3.382,89.0,36.0
472613,0.202,-0.078,1.142,41.046,0.336,0.977,91.0,33.0
472663,0.238,-0.023,1.030,6.824,20.328,16.779,92.0,31.0
472710,0.209,0.051,1.033,49.290,31.870,10.397,93.0,31.0
472759,0.021,0.185,0.890,67.809,49.076,5.725,93.0,30.0
472808,-0.043,0.041,0.730,90.977,66.061,17.992,93.0,29.0
472857,0.087,-0.136,0.675,176.817,88.092,0.557,93.0,30.0
472908,0.016,0.023,0.360,250.130,122.817,-31.710,94.0,57.0
472965,-0.133,0.181,0.183,250.130,137.939,-53.573,0.0,52.0
473019,-0.541,0.422,0.104,173.718,149.397,-118.191,154.0,45.0
473070,-1.119,0.445,0.005,84.992,174.847,-184.855,105.0,44.0
473124,-1.941,0.519,-0.227,30.779,192.359,-250.137,108.0,50.0
473176,-2.000,-0.067,-0.182,-26.237,174.061,-246.977,111.0,37.0
473226,-1.942,-0.084,0.078,105.985,153.115,-204.412,111.0,35.0
473287,-1.712,0.035,0.021,207.183,101.527,-166.115,121.0,0.0
473348,-1.582,0.525,-0.120,177.511,44.985,-118.847,104.0,0.0
473407,-0.950,0.341,0.073,104.939,23.290,-70.153,100.0,0.0
473467,-0.586,0.374,0.055,88.794,7.908,-13.351,112.0,0.0
473525,-0.466,0.330,0.124,32.656,-7.076,24.267,51.0,0.0
473584,-0.743,0.328,0.198,6.634,-9.870,36.450,106.0,0.0
473648,-0.997,0.288,0.201,-15.817,0.977,26.573,108.0,0.0
473707,-1.202,0.221,0.089,-13.756,2.160,57.450,101.0,0.0
473766,-1.571,0.200,-0.132,-13.191,-7.137,96.405,95.0,0.0
473827,-1.662,0.092,-0.359,-79.122,-15.481,193.939,103.0,0.0
473889,-1.539,0.238,-0.271,-129.679,-23.053,233.473,149.0,0.0
473945,-0.889,0.198,-0.065,-102.603,-31.038,202.336,168.0,57.0
474002,-0.503,0.215,0.005,-94.740,-22.099,165.771,183.0,60.0
474058,-0.308,0.243,0.013,-96.496,-7.076,113.886,193.0,59.0
474119,-0.689,0.244,-0.057,-84.634,-3.763,42.962,188.0,55.0
474173,-1.147,0.258,-0.103,-22.313,8.038,-23.351,153.0,56.0
474229,-1.431,0.343,-0.169,11.412,26.008,-88.145,179.0,57.0
474286,-1.494,0.246,-0.142,12.351,36.649,-139.962,156.0,85.0
474341,-1.220,0.187,-0.038,30.191,62.565,-160.443,160.0,57.0
474394,-1.238,0.176,0.000,54.260,83.496,-156.397,117.0,61.0
474447,-1.211,0.196,0.005,28.565,79.886,-158.733,110.0,75.0
474509,-0.988,0.067,0.113,67.771,57.458,-151.237,135.0,0.0
474576,-0.745,0.144,0.105,153.855,36.122,-129.840,179.0,0.0
474682,-0.841,0.352,0.099,88.008,10.313,-68.450,126.0,0.0
474741,-1.059,0.276,0.167,34.901,9.969,-32.954,101.0,0.0
474799,-0.989,0.280,0.166,24.435,24.061,15.595,57.0,0.0
474858,-1.525,0.340,-0.015,-37.038,21.809,62.809,95.0,0.0
474918,-1.719,0.005,-0.199,-128.305,-21.916,167.397,94.0,0.0
474978,-1.497,-0.076,-0.066,-124.321,-47.458,250.130,100.0,0.0
475041,-1.108,0.149,-0.078,-61.771,-48.023,249.618,148.0,0.0
475103,-0.695,0.232,-0.066,-76.634,-38.908,195.023,141.0,0.0
475161,-0.477,0.168,-0.040,-103.504,-30.863,122.687,146.0,61.0
475215,-0.665,0.135,-0.080,-73.099,-26.985,57.244,139.0,63.0
475270,-1.013,0.166,-0.144,-6.802,-7.962,-5.481,139.0,58.0
475324,-1.176,0.296,-0.210,49.969,16.328,-84.550,137.0,63.0
475378,-1.491,0.388,-0.257,41.008,27.580,-166.519,138.0,66.0
475431,-1.236,0.223,-0.020,9.282,55.435,-202.550,127.0,57.0
475485,-1.371,0.097,-0.006,9.679,76.282,-199.664,117.0,66.0
475539,-1.345,0.018,0.041,29.397,63.389,-162.557,133.0,62.0
475596,-0.984,0.020,0.138,99.985,41.725,-129.908,135.0,61.0
475659,-0.628,0.169,0.110,139.565,26.931,-98.832,141.0,0.0
475724,-0.572,0.314,0.073,95.405,3.115,-70.366,0.0,0.0
475787,-0.950,0.247,0.193,36.427,-6.282,-47.145,0.0,140.0
475846,-1.079,0.128,0.240,44.969,-0.435,-5.947,103.0,0.0
475913,-1.115,0.275,0.118,22.840,20.153,50.786,0.0,0.0
475978,-1.319,0.270,-0.094,-53.931,24.893,89.588,0.0,0.0
476044,-1.464,-0.009,-0.170,-94.695,-14.863,167.962,0.0,0.0
476099,-1.211,0.124,-0.082,-43.672,-19.779,206.115,129.0,83.0
476161,-0.839,0.252,-0.038,-47.740,-19.992,181.618,0.0,63.0
476218,-0.609,0.235,0.011,-82.573,-16.366,138.160,0.0,63.0
476276,-0.479,0.156,0.061,-83.328,-6.435,91.595,0.0,66.0
476335,-0.758,0.187,0.017,-44.893,2.282,29.534,0.0,59.0
476392,-1.355,0.300,-0.115,10.153,16.672,-46.115,0.0,59.0
476449,-1.421,0.323,-0.150,28.160,22.107,-120.939,0.0,57.0
476508,-1.311,0.184,-0.078,51.427,22.580,-161.695,0.0,58.0
476565,-1.126,0.045,-0.061,61.901,34.282,-122.527,0.0,60.0
476627,-1.068,0.177,-0.090,73.886,30.855,-78.611,0.0,81.0
476687,-0.796,0.217,-0.010,79.580,24.534,-63.473,0.0,87.0
476747,-0.622,0.222,0.076,97.015,29.153,-54.550,0.0,95.0
476807,-0.524,0.225,0.067,91.740,22.481,-38.969,0.0,95.0
476867,-0.605,0.266,0.107,74.733,18.267,-12.450,198.0,98.0
476926,-0.895,0.272,0.123,48.954,13.313,-1.527,195.0,93.0
476992,-1.023,0.151,0.189,61.626,16.817,15.977,190.0,0.0
477057,-1.104,0.306,0.157,72.542,32.160,38.328,184.0,0.0
477121,-1.605,0.238,-0.084,-40.962,-11.237,72.924,175.0,0.0
477180,-1.790,-0.297,0.213,52.015,-114.397,173.191,166.0,57.0
477244,-1.488,0.038,0.051,138.924,-104.214,195.588,160.0,0.0
477306,-0.961,0.401,0.030,16.053,-99.084,161.160,154.0,87.0
477363,-0.814,0.251,0.108,-34.916,-106.656,88.237,152.0,90.0
477421,-0.617,0.036,0.218,9.542,-106.649,54.977,0.0,95.0
477480,-0.417,0.077,0.208,71.840,-95.282,39.695,0.0,96.0
477539,-0.367,0.217,0.135,91.802,-78.908,-1.618,0.0,95.0
477598,-0.686,0.363,0.082,98.847,-60.740,-72.061,0.0,93.0
477706,-1.486,0.406,-0.094,125.756,-53.305,-161.580,0.0,191.0
477772,-1.380,0.615,-0.084,95.305,-4.977,-157.656,0.0,181.0
477834,-1.347,0.276,-0.020,102.939,-16.267,-143.702,155.0,174.0
477893,-0.823,0.157,-0.044,250.130,-24.557,-121.351,157.0,139.0
477954,-0.585,0.393,-0.307,250.130,-21.244,-97.069,160.0,167.0
478015,-0.629,0.578,-0.264,214.061,-8.672,-87.374,163.0,168.0
478077,-0.813,0.589,-0.122,72.527,26.076,-96.290,162.0,0.0
478141,-1.071,0.420,0.030,-12.176,62.359,-85.931,163.0,0.0
478204,-1.588,0.330,0.115,-25.183,66.779,-45.618,171.0,0.0
478269,-1.365,0.034,0.244,-37.863,9.817,56.924,163.0,187.0
478330,-1.754,0.030,0.139,-24.664,-39.740,156.756,137.0,194.0
478392,-1.339,0.159,0.076,-38.863,-74.672,224.901,131.0,0.0
478452,-0.891,0.250,0.047,-88.779,-80.664,211.756,124.0,0.0
478507,-0.667,0.147,0.044,-90.580,-84.008,167.481,106.0,99.0
478559,-0.586,0.109,0.114,-48.389,-77.969,113.886,114.0,60.0
478610,-0.722,0.288,0.155,-4.382,-46.618,48.237,111.0,50.0
478662,-1.129,0.479,0.072,19.794,-14.664,-48.313,109.0,60.0
478716,-1.565,0.298,-0.057,58.252,-5.580,-129.229,107.0,53.0
478768,-1.231,0.099,-0.124,109.519,17.137,-148.160,107.0,59.0
478820,-1.351,0.224,-0.266,106.031,32.664,-140.626,103.0,77.0
478880,-1.159,0.181,-0.092,84.351,9.260,-150.229,105.0,0.0
478941,-0.969,0.113,0.066,125.427,7.328,-152.015,123.0,0.0
479002,-0.802,0.238,0.076,162.817,21.916,-156.634,132.0,0.0
479065,-0.841,0.346,-0.003,98.718,19.916,-153.168,148.0,0.0
479124,-0.825,0.242,0.112,36.290,25.015,-103.427,103.0,0.0
479183,-0.846,0.200,0.148,26.450,23.779,-37.496,99.0,0.0
479245,-1.230,0.315,0.057,21.916,29.939,19.031,95.0,0.0
479304,-1.434,0.391,-0.104,-73.305,28.107,78.916,97.0,0.0
479365,-1.550,0.072,-0.129,-177.878,-17.458,177.504,106.0,0.0
479418,-1.541,-0.056,-0.058,-147.420,-61.725,223.947,109.0,80.0
479471,-1.090,0.045,-0.000,-59.771,-69.840,214.893,113.0,78.0
479524,-0.831,0.193,-0.070,-30.099,-61.214,180.847,106.0,93.0
479579,-0.516,0.212,-0.037,-48.366,-44.160,141.412,101.0,94.0
479637,-0.534,0.241,-0.065,-66.351,-26.809,86.336,0.0,94.0
479693,-0.924,0.244,-0.083,-36.443,-5.267,5.695,102.0,81.0
479747,-1.275,0.254,-0.130,6.321,17.573,-59.595,102.0,93.0
479800,-1.563,0.318,-0.255,15.908,29.237,-117.886,100.0,90.0
479859,-1.139,0.212,-0.063,28.122,43.542,-164.565,104.0,0.0
479915,-1.177,0.091,0.029,48.183,55.664,-170.076,100.0,116.0
479969,-1.144,0.151,0.078,79.817,47.832,-171.733,102.0,112.0
480030,-1.120,0.137,0.097,108.924,34.397,-176.130,117.0,0.0
480091,-0.895,0.122,0.110,141.809,26.534,-143.366,120.0,0.0
480155,-0.750,0.309,0.050,99.191,13.786,-90.664,124.0,0.0
480215,-0.868,0.303,0.143,22.718,3.634,-55.779,101.0,0.0
480274,-0.896,0.154,0.232,34.527,5.565,-18.878,98.0,0.0
480333,-1.052,0.378,0.103,39.298,29.023,20.466,96.0,0.0
480392,-1.437,0.473,-0.141,-82.023,34.496,58.565,90.0,0.0
480451,-1.707,-0.020,-0.200,-212.481,-16.496,183.351,92.0,0.0
480512,-1.629,-0.101,-0.062,-145.260,-60.679,250.130,117.0,0.0
480573,-1.015,0.100,-0.015,-66.916,-71.802,250.130,123.0,0.0
480669,-0.519,0.171,-0.007,-92.679,-44.611,156.878,103.0,78.0
480724,-0.649,0.163,-0.039,-75.176,-36.481,80.084,100.0,70.0
480778,-1.118,0.351,-0.048,-12.550,-10.260,-14.985,102.0,72.0
480829,-1.460,0.334,-0.185,17.099,19.473,-105.863,98.0,63.0
480883,-1.406,0.276,-0.154,-0.008,36.443,-141.176,99.0,99.0
480935,-1.133,0.166,0.017,19.229,60.885,-163.351,92.0,76.0
480987,-1.167,0.130,0.083,54.511,66.473,-179.466,98.0,64.0
481047,-1.027,0.057,0.162,106.786,61.740,-184.389,109.0,0.0
481107,-0.886,0.105,0.180,176.977,59.679,-180.084,118.0,0.0
481171,-0.768,0.418,0.051,119.626,36.389,-152.595,112.0,0.0
481231,-0.918,0.226,0.203,17.557,18.443,-92.863,112.0,0.0
481291,-1.031,0.108,0.260,41.130,9.626,-14.802,92.0,0.0
481350,-1.074,0.300,0.151,55.145,12.076,43.496,91.0,0.0
481410,-1.562,0.298,-0.113,-27.679,9.588,87.389,95.0,0.0
481469,-1.562,0.189,-0.222,-101.954,-4.084,177.092,100.0,0.0
481531,-1.509,0.050,-0.212,-134.504,-25.847,243.321,136.0,0.0
481593,-0.978,0.140,-0.051,-87.656,-29.389,230.168,135.0,0.0
481650,-0.522,0.252,-0.011,-77.748,-16.832,176.275,151.0,104.0
481710,-0.448,0.215,0.025,-102.336,-7.695,113.420,146.0,80.0
481769,-0.673,0.203,0.040,-91.427,-0.679,52.366,0.0,93.0
481826,-1.017,0.137,0.013,-19.374,7.046,-24.649,0.0,57.0
481884,-1.387,0.271,-0.168,68.641,22.611,-96.809,0.0,57.0
481938,-1.542,0.411,-0.240,81.504,29.748,-173.954,134.0,77.0
482000,-1.165,0.242,-0.088,32.901,52.679,-205.153,136.0,0.0
482053,-1.292,0.195,-0.054,15.008,65.443,-189.160,117.0,61.0
482115,-1.045,0.048,0.134,32.855,43.870,-156.779,134.0,0.0
482180,-0.727,-0.009,0.165,136.947,25.298,-104.351,134.0,0.0
482240,-0.696,0.325,0.059,133.901,6.130,-52.573,103.0,0.0
482300,-0.880,0.328,0.147,37.130,-5.794,-26.160,102.0,0.0
482360,-0.934,0.194,0.200,31.916,0.366,-2.107,100.0,0.0
482420,-1.144,0.347,0.091,30.252,17.786,32.786,97.0,0.0
482488,-1.316,0.267,-0.105,-55.313,10.305,90.473,93.0,0.0
482548,-1.452,0.080,-0.137,-108.557,-20.275,159.534,115.0,0.0
482610,-1.433,0.133,-0.045,-65.855,-38.893,219.137,154.0,0.0
482675,-1.109,0.338,-0.045,-56.695,-47.282,221.206,0.0,0.0
482737,-0.534,0.280,0.030,-78.191,-30.809,175.710,0.0,83.0
482793,-0.312,0.221,0.029,-85.275,-10.221,124.542,199.0,57.0
482850,-0.656,0.280,-0.007,-62.580,-6.924,39.412,0.0,58.0
482908,-1.123,0.246,-0.039,8.298,8.053,-54.641,0.0,58.0
482964,-1.280,0.327,-0.079,40.344,41.038,-121.893,186.0,81.0
483019,-1.251,0.309,-0.087,8.046,63.061,-175.450,166.0,57.0
483073,-1.328,0.207,-0.042,-17.969,64.489,-186.985,135.0,57.0
483126,-1.390,0.003,0.094,37.855,63.252,-181.550,124.0,75.0
483189,-1.145,0.102,0.052,96.794,73.809,-137.725,127.0,0.0
483252,-0.792,0.278,0.065,78.878,45.160,-115.206,156.0,0.0
483313,-0.618,0.218,0.164,53.344,27.282,-82.878,134.0,0.0
483379,-0.855,0.215,0.229,52.962,10.466,-52.458,0.0,0.0
483437,-0.907,0.227,0.214,76.214,0.321,-19.672,94.0,0.0
483495,-1.017,0.325,0.087,46.344,5.481,19.511,90.0,0.0
483554,-1.500,0.338,-0.114,-7.420,3.794,65.611,85.0,0.0
483660,-1.654,0.120,-0.270,-119.275,-14.443,219.977,164.0,0.0
483716,-1.373,0.151,-0.196,-111.702,-29.328,242.298,152.0,65.0
483773,-0.793,0.203,-0.068,-83.298,-28.008,206.023,148.0,62.0
483827,-0.383,0.195,-0.023,-84.336,-16.611,159.305,151.0,61.0
483885,-0.429,0.205,-0.052,-95.435,-10.382,104.672,0.0,68.0
483942,-0.740,0.206,-0.070,-59.031,-7.115,22.206,0.0,57.0
483994,-1.154,0.199,-0.122,30.069,11.206,-71.886,116.0,65.0
484047,-1.481,0.397,-0.271,53.840,40.267,-132.611,118.0,66.0
484100,-1.362,0.375,-0.153,18.260,50.802,-209.916,122.0,56.0
484152,-1.273,0.115,-0.004,-20.008,66.489,-204.802,114.0,59.0
484207,-1.295,0.001,0.137,21.466,64.221,-187.420,128.0,59.0
484259,-1.119,-0.016,0.184,111.130,53.053,-166.336,124.0,57.0
484322,-0.866,0.105,0.124,164.534,33.672,-137.496,147.0,0.0
484383,-0.659,0.289,0.047,133.183,5.702,-91.618,0.0,124.0
484445,-0.821,0.265,0.126,59.267,-3.290,-36.817,0.0,140.0
484509,-0.901,0.208,0.186,41.321,0.328,10.710,0.0,0.0
484575,-1.154,0.255,0.063,19.550,19.924,56.008,0.0,0.0
484639,-1.343,0.314,-0.093,-67.931,26.969,103.992,0.0,0.0
484705,-1.428,-0.003,-0.107,-106.611,-17.092,174.031,0.0,0.0
484766,-1.069,0.139,0.005,-31.099,-18.176,202.107,0.0,75.0
484824,-0.709,0.356,-0.033,-29.229,-6.947,154.504,0.0,69.0
484883,-0.523,0.299,-0.031,-73.145,1.786,104.290,0.0,90.0
484940,-0.420,0.234,0.030,-80.145,15.565,77.855,0.0,61.0
484998,-0.574,0.358,-0.015,-63.992,29.794,29.985,0.0,67.0
485050,-0.951,0.442,-0.056,-51.191,41.038,-32.008,117.0,58.0
485102,-1.454,0.601,-0.117,-43.260,48.870,-81.122,103.0,61.0
485153,-1.781,0.485,-0.159,-54.305,54.763,-104.985,102.0,57.0
485208,-1.567,0.319,0.029,-85.580,41.023,-62.130,95.0,58.0
485259,-1.311,0.045,0.229,-50.786,-4.947,-13.198,110.0,46.0
485310,-1.295,0.012,0.155,30.145,-55.908,34.786,116.0,52.0
485362,-1.096,0.124,0.069,78.649,-83.992,74.634,114.0,57.0
485420,-0.733,0.220,0.071,71.603,-88.618,91.611,173.0,86.0
485477,-0.432,0.197,0.116,23.511,-96.679,76.870,200.0,66.0
485536,-0.195,0.056,0.226,9.977,-102.099,65.550,0.0,96.0
485596,-0.253,0.206,0.308,18.130,-82.878,24.450,0.0,92.0
485654,-0.433,0.223,0.503,91.695,-55.878,-32.313,0.0,88.0
485715,-0.544,0.575,0.416,136.252,-4.580,-50.351,0.0,78.0
485775,-0.742,0.756,0.282,83.282,0.718,-76.626,0.0,83.0
485833,-1.260,0.577,0.156,155.779,22.290,-110.618,0.0,80.0
485889,-1.177,0.903,-0.129,46.321,-0.290,-93.557,0.0,37.0
485950,-1.222,0.575,-0.152,-96.481,-2.641,-36.634,0.0,131.0
486011,-0.988,0.243,0.109,-116.580,-15.885,10.840,0.0,126.0
486068,-0.821,0.076,0.217,-71.718,-34.718,-4.687,0.0,40.0
486129,-0.852,0.049,0.190,-30.260,-38.519,-33.756,0.0,121.0
486201,-0.862,-0.035,0.168,131.412,-40.557,-36.656,0.0,118.0
486259,-0.925,-0.061,0.115,231.886,-60.023,-24.748,0.0,62.0
486317,-0.995,0.177,-0.105,250.130,-84.763,-23.992,0.0,57.0
486374,-1.107,0.789,-0.270,250.130,-92.634,-55.351,0.0,57.0
486431,-1.124,0.568,-0.133,129.359,-73.382,-33.840,0.0,53.0
486488,-1.367,0.491,-0.074,70.305,-60.863,-21.405,0.0,48.0
486589,-0.791,0.313,0.086,151.481,-71.176,12.595,0.0,71.0
486647,-0.498,0.387,0.076,150.496,-71.771,2.420,0.0,69.0
486713,-0.377,0.374,0.146,94.099,-64.985,-7.725,0.0,0.0
486772,-0.491,0.355,0.179,80.939,-58.023,-17.771,38.0,0.0
486825,-0.880,0.448,0.205,134.359,-43.206,-15.519,120.0,63.0
486879,-1.324,0.792,0.042,152.237,-36.473,-21.809,110.0,90.0
486936,-1.266,1.009,0.093,51.015,-41.176,-8.924,161.0,90.0
486987,-1.405,0.729,0.205,31.832,-50.710,-12.870,108.0,36.0
487042,-0.936,0.526,0.286,73.031,-56.710,40.305,159.0,40.0
487095,-0.484,0.567,0.232,40.847,-63.107,52.099,159.0,43.0
487150,-0.398,0.370,0.162,0.878,-66.641,36.198,159.0,50.0
487211,-0.491,0.248,0.100,25.466,-55.443,12.580,0.0,57.0
487268,-1.108,0.351,-0.067,62.260,-27.550,-41.046,0.0,57.0
487325,-1.372,0.437,-0.170,66.886,6.366,-130.763,0.0,58.0
487379,-1.399,0.448,-0.135,23.481,49.397,-211.374,150.0,50.0
487433,-1.207,0.292,-0.004,-23.611,88.099,-244.527,137.0,41.0
487484,-1.499,-0.019,-0.070,-84.725,81.519,-186.977,119.0,39.0
487536,-1.205,-0.267,0.135,-15.893,17.405,-81.985,128.0,30.0
487584,-0.834,-0.245,0.136,202.374,-10.947,-16.153,57.0,48.0
487643,-0.613,0.153,-0.122,250.130,-22.939,6.527,59.0,0.0
487707,-0.406,0.539,-0.155,179.939,-29.115,4.504,141.0,0.0
487770,-0.532,0.459,0.140,2.305,-4.748,2.756,139.0,0.0
487828,-0.965,0.295,0.299,-62.198,14.038,9.725,63.0,0.0
487889,-1.018,0.160,0.360,-5.290,24.634,15.176,134.0,0.0
487950,-1.394,0.490,0.189,23.977,33.901,39.015,109.0,0.0
488010,-1.613,0.374,0.042,-74.397,-4.809,119.366,103.0,0.0
488066,-1.363,0.284,0.074,-98.947,-28.443,183.046,155.0,65.0
488124,-1.040,0.324,0.072,-80.099,-38.458,175.489,0.0,77.0
488182,-0.796,0.341,0.031,-57.160,-36.191,140.305,0.0,74.0
488244,-0.519,0.232,0.025,-66.687,-34.595,118.008,0.0,57.0
488302,-0.529,0.220,0.021,-65.168,-24.809,88.282,0.0,82.0
488358,-0.903,0.274,-0.000,-28.328,-10.214,22.099,154.0,81.0
488418,-1.018,0.306,0.031,13.687,19.183,-56.542,0.0,85.0
488476,-1.331,0.358,-0.068,-0.794,56.115,-125.573,0.0,70.0
488531,-1.462,0.255,-0.022,-1.542,78.580,-173.496,157.0,60.0
488584,-1.345,0.045,0.034,6.855,77.939,-166.351,101.0,57.0
488644,-1.293,-0.025,0.117,41.702,52.618,-120.977,104.0,0.0
488711,-0.991,0.049,0.145,143.641,30.947,-99.046,155.0,0.0
488773,-0.715,0.202,0.055,199.145,20.198,-92.565,155.0,0.0
488835,-0.599,0.396,0.015,143.573,11.931,-84.214,116.0,0.0
488895,-0.746,0.414,0.160,34.214,19.550,-73.748,108.0,0.0
488955,-1.042,0.293,0.248,-3.687,26.824,-74.008,107.0,0.0
489016,-0.928,0.122,0.254,16.244,23.511,-27.664,96.0,0.0
489075,-1.360,0.288,0.079,25.863,26.214,34.214,91.0,0.0
489135,-1.540,0.336,-0.052,-16.359,7.786,86.534,102.0,0.0
489195,-1.659,0.205,-0.172,-123.382,-23.023,172.817,92.0,0.0
489259,-1.652,0.012,-0.113,-143.573,-54.794,241.893,110.0,0.0
489325,-0.914,0.167,-0.038,-114.206,-50.908,228.672,0.0,0.0
489391,-0.535,0.246,-0.059,-114.947,-41.137,171.977,0.0,0.0
489448,-0.427,0.199,-0.041,-115.183,-33.260,108.954,0.0,51.0
489549,-1.005,0.262,-0.009,-31.710,-11.366,-15.031,0.0,48.0
489608,-1.392,0.277,-0.017,23.389,14.527,-78.076,0.0,71.0
489663,-1.281,0.259,0.021,41.656,45.069,-111.557,164.0,61.0
489721,-1.169,0.200,0.036,36.695,69.405,-133.023,0.0,53.0
489780,-1.202,0.157,0.077,62.977,79.977,-146.916,169.0,50.0
489843,-1.125,0.193,0.051,99.756,76.466,-164.824,147.0,0.0
489906,-0.946,0.236,0.064,107.870,69.771,-171.298,146.0,0.0
489972,-0.881,0.229,0.068,85.794,54.481,-144.504,113.0,0.0
490032,-0.880,0.227,0.146,66.542,45.351,-100.840,95.0,0.0
490090,-0.967,0.261,0.157,60.870,30.779,-60.000,97.0,0.0
490147,-0.966,0.323,0.121,53.893,28.802,-17.786,57.0,0.0
490204,-1.515,0.376,-0.035,6.580,17.954,24.412,57.0,0.0
490262,-1.543,0.260,-0.156,-52.374,-6.412,111.298,90.0,0.0
490324,-1.589,0.060,-0.299,-154.901,-37.702,206.412,101.0,0.0
490385,-1.370,0.062,-0.171,-76.809,-55.443,239.198,113.0,0.0
490442,-0.939,0.288,-0.181,-66.496,-50.115,217.122,197.0,69.0
490499,-0.746,0.320,-0.173,-110.305,-44.832,171.443,0.0,45.0
490555,-0.706,0.190,-0.116,-108.824,-50.519,129.649,0.0,55.0
490612,-0.730,0.198,-0.117,-54.603,-33.481,84.985,0.0,57.0
490670,-0.926,0.276,-0.130,-12.496,-17.389,39.122,0.0,71.0
490726,-1.009,0.341,-0.082,-5.748,10.565,-18.489,0.0,47.0
490785,-1.102,0.354,-0.007,-14.252,37.008,-83.443,0.0,50.0
490843,-1.097,0.275,0.121,18.412,51.435,-146.824,0.0,77.0
490899,-1.261,0.148,0.154,101.160,47.847,-163.756,0.0,40.0
490955,-1.317,0.446,0.024,128.931,31.443,-135.099,0.0,50.0
491011,-1.019,0.435,0.022,94.405,31.458,-110.267,177.0,51.0
491075,-0.787,0.464,-0.053,84.618,33.771,-88.695,183.0,0.0
491136,-0.550,0.377,0.014,45.191,22.084,-68.878,130.0,0.0
491196,-0.763,0.447,0.037,17.626,21.130,-44.763,114.0,0.0
491255,-0.997,0.409,0.091,-16.817,14.702,-36.137,98.0,0.0
491318,-1.189,0.304,0.105,-4.344,14.130,-16.145,107.0,0.0
491377,-1.340,0.365,-0.021,3.450,14.885,10.099,90.0,0.0
491436,-1.478,0.393,-0.219,-43.809,0.916,37.710,99.0,0.0
491496,-1.268,0.171,-0.188,-83.855,-18.176,91.344,114.0,0.0
491558,-1.083,0.266,-0.197,-61.061,-17.397,120.847,140.0,0.0
491614,-0.793,0.298,-0.151,-91.031,-20.069,118.206,180.0,50.0
491670,-0.628,0.257,-0.091,-107.145,-20.176,105.969,0.0,51.0
491727,-0.538,0.225,-0.065,-104.763,-21.687,89.786,0.0,57.0
491786,-0.595,0.290,-0.045,-81.702,-15.519,59.351,178.0,60.0
491841,-0.902,0.415,-0.058,-48.985,3.840,19.389,173.0,51.0
491905,-1.106,0.590,-0.076,-43.053,27.550,-23.817,167.0,0.0
491968,-1.437,0.520,0.026,-95.626,21.924,-38.183,162.0,0.0
492027,-1.213,0.340,0.213,-19.015,22.420,-35.718,111.0,0.0
492085,-1.147,0.446,0.200,-25.168,7.191,0.702,110.0,139.0
492144,-0.976,0.316,0.167,-61.504,-10.947,19.748,105.0,0.0
492205,-0.620,0.235,0.245,-58.565,-6.916,37.099,108.0,0.0
492255,-0.421,0.228,0.238,-64.969,-13.252,25.282,103.0,45.0
492309,-0.332,0.210,0.300,-63.557,-18.214,18.908,103.0,57.0
492361,-0.617,0.287,0.372,-51.015,-25.275,2.206,104.0,60.0
492421,-0.897,0.370,0.485,3.924,-16.641,-11.733,105.0,192.0
