Timestamp(ms),AccelX(g),AccelY(g),AccelZ(g),GyroX(deg/s),GyroY(deg/s),GyroZ(deg/s),DistanceLeft(cm),DistanceRight(cm)
175686,-0.617,0.217,0.151,42.427,15.412,-103.137,0.0,57.0
175747,-1.146,0.323,0.116,72.153,41.137,-166.389,0.0,57.0
175804,-1.925,0.181,0.092,48.076,66.771,-180.321,0.0,52.0
175861,-1.683,0.248,0.109,-7.496,105.191,-172.710,0.0,51.0
175919,-1.661,0.203,0.098,-95.626,75.519,-134.115,0.0,50.0
175969,-1.117,-0.143,0.310,-15.069,39.840,-71.298,75.0,50.0
176025,-0.776,0.052,0.263,75.656,22.023,-14.588,0.0,51.0
176082,-0.546,0.288,0.155,59.412,-2.008,19.588,0.0,51.0
176130,-0.455,0.275,0.182,-6.519,-7.832,41.985,16.0,51.0
176176,-0.493,0.274,0.203,-36.649,-7.634,44.634,17.0,54.0
176226,-0.676,0.240,0.187,-56.160,-11.061,37.366,16.0,46.0
176282,-0.905,0.091,0.168,-47.336,-32.382,38.954,0.0,43.0
176339,-1.084,0.125,0.208,28.771,-38.802,49.344,0.0,49.0
176397,-1.879,0.249,-0.060,67.969,-36.412,46.374,0.0,46.0
176454,-1.875,0.247,-0.148,-8.573,-44.626,97.756,0.0,60.0
176512,-1.692,0.332,-0.086,-42.305,-45.908,124.290,0.0,47.0
176569,-1.057,0.213,-0.011,-42.771,-41.847,130.382,0.0,58.0
176627,-0.568,0.226,0.062,-25.267,-27.221,139.740,0.0,65.0
176693,-0.373,0.379,0.014,-35.511,-14.817,113.130,0.0,48.0
176749,-0.314,0.362,0.127,-42.099,-4.641,63.053,0.0,51.0
176807,-0.414,0.422,0.169,-24.893,11.450,2.359,0.0,86.0
176864,-0.502,0.475,0.181,-13.840,29.832,-52.832,0.0,56.0
176920,-0.556,0.455,0.183,-34.374,44.817,-84.824,0.0,57.0
176976,-0.747,0.383,0.204,-62.420,48.947,-111.313,0.0,56.0
177034,-1.050,0.084,0.306,-16.267,43.687,-120.160,0.0,58.0
177090,-2.000,0.269,0.247,108.687,37.748,-129.435,0.0,57.0
177146,-1.764,0.141,0.083,94.244,22.481,-133.809,0.0,52.0
177207,-1.280,0.474,0.101,-59.160,22.832,-52.725,0.0,66.0
177263,-0.947,0.287,0.076,-108.679,24.031,-56.664,0.0,58.0
177320,-0.579,0.211,0.219,-83.588,34.817,-49.855,0.0,58.0
177377,-0.523,0.308,0.189,-109.443,31.282,-40.947,0.0,59.0
177434,-0.660,0.219,0.245,-133.099,10.458,-37.786,0.0,62.0
177491,-0.936,0.184,0.252,-71.412,-10.206,-29.634,0.0,65.0
177549,-1.141,0.294,0.079,-46.939,-32.924,-5.802,0.0,71.0
177606,-1.603,0.473,-0.245,-46.458,-33.863,26.840,0.0,78.0
177666,-1.631,0.327,-0.586,-189.733,-65.901,112.473,0.0,88.0
177728,-1.526,0.079,-0.425,-180.824,-66.550,154.809,0.0,101.0
177787,-1.041,0.160,-0.352,-102.252,-31.000,185.557,0.0,109.0
177849,-0.704,0.348,-0.308,-117.687,-17.817,174.656,0.0,131.0
177911,-0.611,0.390,-0.241,-136.992,-4.908,112.076,0.0,158.0
177972,-0.726,0.376,-0.121,-102.618,18.473,56.153,0.0,123.0
178031,-0.895,0.383,-0.120,-90.099,30.718,23.893,0.0,99.0
178084,-1.013,0.389,-0.037,-93.481,33.603,8.244,105.0,89.0
178143,-1.102,0.327,0.090,-68.962,35.794,-32.145,0.0,89.0
178204,-1.057,0.198,0.250,-7.008,52.527,-71.977,0.0,91.0
178264,-0.862,0.183,0.280,-14.855,47.939,-59.901,0.0,93.0
178322,-1.093,0.213,0.257,-59.038,37.985,-57.931,0.0,94.0
178381,-1.054,0.107,0.261,-41.695,40.679,-55.504,0.0,95.0
178441,-0.867,0.226,0.181,-38.817,45.489,-49.466,0.0,97.0
178500,-0.779,0.260,0.157,-69.679,40.618,-48.214,0.0,99.0
178603,-0.781,0.260,0.157,-68.847,31.939,-32.008,0.0,104.0
178663,-0.868,0.275,0.124,-77.977,15.221,-4.244,0.0,109.0
178723,-0.934,0.233,0.087,-61.015,0.458,35.153,0.0,116.0
178787,-1.383,0.351,-0.018,-39.412,-3.084,69.603,0.0,124.0
178848,-1.510,0.266,-0.198,-99.435,-22.267,98.519,0.0,134.0
178907,-1.557,0.194,-0.177,-126.389,-31.145,125.122,155.0,142.0
178967,-1.178,0.115,-0.086,-86.771,-40.656,133.443,158.0,155.0
179027,-0.711,0.167,-0.024,-66.886,-36.466,140.168,154.0,161.0
179089,-0.587,0.261,-0.023,-72.015,-26.618,108.542,150.0,167.0
179150,-0.572,0.213,0.033,-64.870,-16.328,47.641,147.0,193.0
179211,-0.814,0.264,0.054,-15.992,8.069,-25.504,144.0,178.0
179274,-1.034,0.274,0.041,23.710,37.847,-93.107,142.0,178.0
179336,-1.199,0.257,0.064,17.267,62.336,-118.977,142.0,177.0
179396,-1.111,0.191,0.116,13.435,77.359,-134.702,142.0,176.0
179457,-1.036,0.143,0.139,-5.290,72.611,-116.458,142.0,175.0
179520,-1.196,0.071,0.185,-2.092,53.962,-90.267,0.0,175.0
179573,-1.171,0.118,0.203,36.198,30.649,-61.328,17.0,175.0
179635,-0.930,0.191,0.163,34.191,17.802,-36.542,0.0,125.0
179695,-0.747,0.240,0.146,-4.718,8.214,-15.046,0.0,127.0
179748,-0.609,0.196,0.140,-33.695,5.092,4.763,16.0,129.0
179800,-0.590,0.140,0.095,-63.802,0.504,28.641,17.0,132.0
179864,-0.543,0.140,0.123,-75.588,-5.351,48.321,0.0,191.0
179911,-0.708,0.208,0.104,-57.191,-11.198,39.710,17.0,74.0
179969,-0.691,0.199,0.110,-35.588,-15.824,33.908,0.0,56.0
180026,-1.009,0.268,0.015,-19.137,-13.626,34.534,0.0,57.0
180082,-2.000,0.371,-0.174,-2.550,-15.198,34.107,0.0,51.0
180140,-2.000,-0.079,-0.352,-63.282,-53.710,94.947,0.0,55.0
180197,-1.592,0.072,0.002,-35.244,-66.137,177.328,0.0,70.0
180257,-0.684,0.216,-0.055,8.985,-57.351,126.580,0.0,60.0
180316,-0.280,0.091,0.036,2.817,-45.237,83.282,0.0,84.0
180375,-0.313,0.153,-0.030,1.405,-18.542,34.947,0.0,83.0
180433,-0.584,0.210,-0.030,-16.679,-8.656,-6.466,0.0,84.0
180492,-0.616,0.119,0.057,7.198,5.282,-34.489,0.0,79.0
180549,-0.735,0.265,0.071,48.870,20.679,-79.618,0.0,67.0
180608,-0.961,0.280,0.065,55.397,26.603,-108.504,0.0,77.0
180666,-1.333,0.080,0.334,92.687,4.710,-138.954,0.0,72.0
180723,-1.738,0.500,0.055,106.695,35.305,-178.168,0.0,74.0
180786,-1.663,0.320,0.021,-40.359,51.771,-147.565,0.0,77.0
180844,-1.195,0.073,0.149,-69.489,31.305,-83.397,0.0,79.0
180901,-0.614,0.074,0.245,2.901,26.015,-13.466,0.0,66.0
180959,-0.435,0.256,0.179,15.985,20.092,12.573,0.0,63.0
181016,-0.423,0.342,0.212,-31.008,22.977,7.489,0.0,58.0
181063,-0.609,0.306,0.258,-32.588,15.847,-22.374,17.0,59.0
181109,-0.812,0.164,0.202,-23.473,-4.214,-11.901,17.0,58.0
181167,-1.038,0.119,0.144,3.450,-22.557,30.420,0.0,63.0
181228,-1.906,0.178,0.013,23.626,-46.618,92.137,0.0,60.0
181284,-2.000,0.045,-0.228,-12.153,-72.664,174.618,0.0,57.0
181344,-1.772,0.210,-0.139,-61.802,-76.550,243.504,0.0,79.0
181402,-1.020,0.303,-0.085,-44.794,-63.649,169.099,0.0,77.0
181460,-0.504,0.177,-0.023,-56.855,-50.237,125.550,0.0,72.0
181561,-0.286,0.143,0.054,-5.168,-16.779,43.832,0.0,64.0
181619,-0.391,0.254,0.023,3.290,1.473,-10.710,0.0,68.0
181678,-0.512,0.243,0.069,-1.687,7.847,-56.992,0.0,72.0
181736,-0.635,0.162,0.156,47.969,17.344,-102.580,0.0,84.0
181797,-0.945,0.289,0.103,116.733,29.664,-150.855,0.0,69.0
181856,-1.567,0.510,0.025,78.504,36.344,-193.702,0.0,73.0
181914,-2.000,0.423,0.074,24.420,62.466,-235.443,0.0,72.0
181971,-1.630,0.197,0.141,-111.901,62.504,-132.771,0.0,64.0
182029,-1.186,0.001,0.202,-67.145,32.855,-44.130,0.0,57.0
182076,-0.698,0.081,0.289,40.702,17.458,3.008,17.0,66.0
182134,-0.430,0.305,0.167,57.992,14.092,18.115,0.0,64.0
182192,-0.303,0.374,0.205,-2.069,12.290,14.305,0.0,69.0
182249,-0.520,0.363,0.230,-52.878,18.695,-10.366,0.0,60.0
182300,-0.920,0.197,0.139,-57.084,-3.794,-17.969,16.0,63.0
182358,-0.847,0.083,0.140,-26.458,-23.649,25.069,0.0,57.0
182415,-1.596,0.231,-0.043,-11.305,-36.985,77.252,0.0,57.0
182472,-2.000,0.175,-0.239,-10.672,-65.137,135.603,0.0,53.0
182530,-2.000,-0.009,-0.180,-23.267,-85.863,207.420,0.0,60.0
182588,-1.151,0.296,-0.042,3.542,-76.237,155.847,0.0,77.0
182646,-0.484,0.200,0.014,-12.756,-46.092,90.214,0.0,78.0
182706,-0.227,0.136,0.032,-28.695,-16.649,35.573,0.0,84.0
182767,-0.209,0.088,0.011,-18.962,-6.252,2.939,0.0,75.0
182827,-0.449,0.167,-0.003,-6.321,-7.496,-23.092,0.0,83.0
182885,-0.564,0.150,0.062,17.947,-7.046,-53.427,0.0,75.0
182943,-1.080,0.335,0.156,67.718,12.145,-107.992,0.0,68.0
183002,-1.775,0.263,0.173,85.145,46.489,-178.748,0.0,71.0
183059,-1.841,0.315,0.145,49.603,90.229,-187.710,0.0,67.0
183117,-1.553,0.250,0.082,-63.473,62.427,-155.809,0.0,60.0
183175,-0.917,-0.023,0.252,-3.733,46.351,-95.206,0.0,57.0
183233,-0.563,0.238,0.187,49.885,38.863,-34.618,0.0,70.0
183294,-0.320,0.335,0.211,-12.267,20.908,-10.718,0.0,74.0
183353,-0.385,0.368,0.243,-46.519,24.183,-15.328,0.0,61.0
183410,-0.685,0.309,0.198,-62.733,10.595,-38.748,0.0,54.0
183460,-1.586,0.103,0.047,-35.756,-21.977,4.206,78.0,57.0
183518,-2.000,0.060,-0.429,-41.412,-69.527,116.779,0.0,51.0
183575,-2.000,-0.204,-0.313,-88.260,-123.160,250.130,0.0,57.0
183632,-1.316,0.073,-0.075,24.351,-116.672,241.931,0.0,57.0
183691,-0.640,0.243,-0.159,32.000,-87.137,156.832,0.0,69.0
183749,-0.388,0.227,-0.095,-46.565,-57.626,100.008,0.0,71.0
183812,-0.396,0.082,0.019,-64.260,-30.695,54.298,0.0,71.0
183869,-0.417,0.087,0.058,-20.221,-12.817,11.603,0.0,57.0
183927,-0.383,0.135,0.087,9.344,-4.321,-18.458,0.0,63.0
183985,-0.529,0.247,0.169,10.374,12.992,-55.473,0.0,57.0
184043,-1.177,0.273,0.227,19.786,32.084,-140.977,0.0,76.0
184101,-1.707,0.199,0.250,128.344,86.969,-244.046,0.0,71.0
184165,-2.000,0.383,-0.115,69.588,104.267,-235.176,0.0,58.0
184221,-1.440,0.135,0.039,-41.122,64.580,-172.580,0.0,57.0
184281,-0.763,0.160,0.253,8.420,81.031,-89.328,0.0,57.0
184331,-0.721,0.352,0.180,-27.282,54.656,-59.962,74.0,61.0
184387,-0.597,0.178,0.307,-26.260,30.924,-36.321,0.0,57.0
184487,-0.678,0.230,0.215,-15.366,-10.901,7.595,0.0,57.0
184544,-0.782,0.181,0.155,-17.511,-34.420,55.031,0.0,65.0
184590,-1.788,0.143,-0.027,8.458,-64.115,96.328,16.0,51.0
184646,-2.000,0.026,-0.344,7.069,-94.382,168.962,0.0,57.0
184704,-2.000,-0.014,-0.302,-34.130,-112.969,250.130,0.0,62.0
184761,-1.303,0.300,-0.134,3.718,-97.886,224.206,0.0,73.0
184821,-0.637,0.205,-0.091,-49.679,-67.466,171.863,0.0,68.0
184880,-0.322,0.081,-0.008,-54.176,-42.321,94.763,0.0,82.0
184938,-0.252,0.025,0.010,-15.389,-20.031,37.344,0.0,87.0
184995,-0.296,0.139,-0.005,-0.519,-4.695,-11.847,0.0,73.0
185053,-0.372,0.138,0.064,0.412,9.321,-57.191,0.0,68.0
185110,-0.563,0.135,0.146,34.466,23.244,-97.840,0.0,66.0
185167,-1.250,0.168,0.287,84.008,46.954,-164.870,0.0,76.0
185226,-2.000,0.307,0.156,197.412,76.435,-250.137,0.0,84.0
185285,-2.000,0.646,-0.199,-20.092,79.916,-250.137,0.0,101.0
185346,-1.316,-0.024,0.120,-175.267,59.870,-156.237,0.0,68.0
185396,-0.859,-0.082,0.327,-30.168,64.099,-54.344,81.0,59.0
185443,-0.571,0.260,0.209,16.878,34.443,-17.092,16.0,62.0
185489,-0.412,0.313,0.261,-16.649,20.916,-8.573,13.0,57.0
185535,-0.480,0.261,0.285,-29.542,9.290,-0.771,14.0,71.0
185582,-0.662,0.216,0.262,-33.519,-13.756,8.229,15.0,63.0
185638,-0.815,0.120,0.217,-15.435,-40.786,33.763,0.0,57.0
185684,-0.967,0.138,0.103,12.557,-59.588,83.725,18.0,58.0
185744,-1.570,0.133,-0.088,21.855,-77.244,126.313,0.0,53.0
185801,-2.000,0.154,-0.464,-37.237,-93.427,197.931,0.0,57.0
185859,-1.938,0.085,-0.219,-39.221,-109.939,240.473,0.0,57.0
185916,-0.923,0.264,-0.027,24.893,-77.954,163.595,0.0,69.0
185973,-0.428,0.255,-0.018,-10.947,-41.992,107.588,0.0,62.0
186031,-0.229,0.146,0.047,-30.580,-24.313,55.580,0.0,73.0
186089,-0.292,0.134,0.048,-22.962,-15.908,9.969,0.0,77.0
186147,-0.427,0.149,0.057,3.115,-13.405,-32.939,0.0,75.0
186204,-0.493,0.205,0.113,32.397,-1.924,-72.542,0.0,63.0
186265,-0.797,0.258,0.190,52.733,21.649,-124.344,0.0,77.0
186322,-1.567,0.350,0.232,65.443,55.733,-183.908,0.0,71.0
186381,-1.868,0.250,0.096,54.962,101.191,-238.328,0.0,80.0
186439,-1.469,0.116,0.017,-54.130,69.420,-161.863,0.0,74.0
186498,-1.089,-0.142,0.186,22.557,38.702,-84.252,0.0,80.0
186557,-0.753,0.077,0.003,146.420,28.000,-7.366,0.0,104.0
186615,-0.471,0.269,-0.085,132.595,-1.557,23.763,0.0,85.0
186674,-0.447,0.265,-0.100,114.779,-10.573,28.817,0.0,81.0
186732,-0.630,0.180,-0.107,142.412,-11.008,37.626,149.0,79.0
186787,-1.739,0.270,-0.188,156.107,-8.328,40.618,146.0,74.0
186843,-2.000,-0.270,0.085,120.672,-30.168,87.649,149.0,76.0
186898,-1.616,0.044,0.317,128.168,-32.969,140.710,142.0,81.0
186948,-1.274,0.184,0.168,136.817,-57.382,67.863,66.0,72.0
186998,-1.046,0.101,0.067,187.588,-87.328,44.031,63.0,84.0
187049,-0.830,0.179,-0.136,231.550,-112.214,39.458,64.0,87.0
187100,-0.566,0.310,-0.180,176.076,-121.412,28.344,61.0,74.0
187149,-0.620,0.312,-0.047,106.351,-110.389,-11.664,66.0,67.0
187202,-0.770,0.248,0.094,87.832,-97.969,-53.595,70.0,64.0
187295,-0.994,0.537,0.125,194.481,-40.992,-113.618,79.0,52.0
187345,-1.006,0.596,0.022,159.710,-20.656,-130.886,85.0,44.0
187395,-0.950,0.430,-0.004,139.901,-0.985,-141.916,90.0,41.0
187455,-0.758,0.346,-0.027,134.145,20.282,-139.718,104.0,0.0
187516,-0.764,0.421,-0.043,99.176,51.076,-124.611,126.0,0.0
187576,-0.921,0.414,0.106,-11.267,63.359,-80.870,106.0,0.0
187640,-1.101,0.172,0.341,8.542,60.176,-29.374,177.0,0.0
187707,-1.115,0.412,0.298,93.481,45.115,-16.450,175.0,0.0
187766,-1.270,0.519,0.156,33.412,38.198,5.015,97.0,0.0
187826,-1.473,0.192,0.009,-40.870,-8.168,66.832,92.0,0.0
187886,-1.785,0.022,-0.127,-38.626,-56.588,160.206,130.0,0.0
187948,-1.619,0.156,-0.190,-30.611,-82.542,209.282,131.0,0.0
188008,-1.035,0.226,-0.120,-42.603,-86.450,194.214,146.0,152.0
188065,-0.572,0.198,-0.041,-60.641,-75.313,145.947,0.0,58.0
188123,-0.314,0.185,0.011,-39.885,-52.832,93.931,0.0,63.0
188180,-0.387,0.245,0.007,-23.031,-29.298,44.305,0.0,52.0
188239,-0.744,0.324,-0.016,-17.084,-2.565,-5.710,0.0,51.0
188297,-1.260,0.398,-0.052,1.153,20.855,-75.168,0.0,52.0
188353,-1.422,0.278,0.004,13.298,40.824,-136.405,0.0,52.0
188408,-1.240,0.201,0.042,53.985,60.084,-170.611,153.0,64.0
188461,-1.345,0.117,0.020,70.191,58.641,-165.794,109.0,57.0
188521,-1.297,0.089,0.060,87.038,38.550,-140.420,116.0,0.0
188582,-1.024,0.132,0.083,114.092,17.260,-99.443,130.0,0.0
188643,-0.731,0.280,0.076,116.656,16.382,-82.626,120.0,0.0
188706,-0.548,0.360,0.078,45.939,15.031,-76.244,109.0,0.0
188767,-0.792,0.257,0.182,1.969,17.519,-59.893,108.0,0.0
188826,-1.031,0.188,0.292,2.802,10.763,-33.511,100.0,0.0
188886,-0.874,0.160,0.298,27.954,5.664,17.351,97.0,0.0
188945,-1.228,0.409,0.085,36.115,18.977,28.489,93.0,0.0
189004,-1.264,0.338,-0.151,-68.420,6.832,77.748,97.0,0.0
189065,-1.657,0.122,-0.136,-148.718,-23.740,151.534,106.0,0.0
189126,-1.419,0.028,0.006,-96.588,-55.092,188.198,127.0,0.0
189188,-1.105,0.137,0.010,-25.718,-70.305,168.695,127.0,0.0
189249,-0.521,0.178,0.030,-10.611,-61.618,150.313,0.0,68.0
189315,-0.361,0.249,0.043,-32.389,-36.924,125.115,0.0,0.0
189373,-0.675,0.301,0.042,-67.336,-10.069,60.206,0.0,80.0
189431,-1.086,0.332,0.087,-42.382,18.641,-32.420,0.0,68.0
189491,-1.323,0.302,0.043,-17.908,48.924,-120.267,0.0,94.0
189548,-1.393,0.101,0.068,-12.573,49.656,-141.573,0.0,57.0
189608,-1.272,0.059,0.128,54.611,47.298,-152.931,107.0,0.0
189670,-1.240,0.103,0.077,96.137,34.885,-116.206,129.0,0.0
189734,-1.003,0.212,0.091,100.886,32.237,-106.206,128.0,0.0
189796,-0.769,0.267,0.108,98.344,38.985,-104.458,120.0,0.0
189858,-0.645,0.347,0.102,30.634,38.168,-89.595,148.0,0.0
189919,-0.739,0.204,0.235,-15.641,30.580,-63.908,120.0,0.0
189979,-0.931,0.161,0.254,25.527,27.687,-43.733,104.0,0.0
190040,-1.055,0.249,0.177,47.443,23.107,-0.267,101.0,0.0
190099,-1.366,0.369,0.027,-0.817,16.756,41.221,97.0,0.0
190158,-1.673,0.147,-0.120,-56.794,-21.000,114.817,93.0,0.0
190219,-1.579,0.106,-0.124,-80.870,-48.550,203.176,99.0,0.0
190328,-0.846,0.230,-0.053,-107.878,-47.710,191.824,158.0,0.0
190389,-0.547,0.139,0.022,-116.122,-42.588,147.351,0.0,105.0
190447,-0.359,0.092,0.081,-82.618,-31.107,107.344,0.0,66.0
190504,-0.530,0.243,0.063,-42.405,-13.260,35.382,0.0,64.0
190563,-0.985,0.364,0.031,-2.817,18.076,-64.985,0.0,59.0
190614,-1.354,0.355,-0.039,10.176,58.992,-149.916,96.0,59.0
190667,-1.542,0.180,-0.087,3.153,69.832,-175.458,98.0,78.0
190720,-1.284,0.105,-0.023,-9.290,72.863,-151.458,104.0,65.0
190775,-1.327,-0.031,0.055,31.053,53.031,-111.023,98.0,60.0
190836,-1.101,0.015,0.124,107.191,37.885,-79.702,128.0,0.0
190898,-0.861,0.243,0.085,139.863,33.435,-73.992,133.0,0.0
190961,-0.643,0.365,0.102,78.321,32.924,-74.794,152.0,0.0
191023,-0.596,0.305,0.195,-15.695,38.053,-67.130,122.0,0.0
191088,-0.842,0.192,0.293,-26.298,35.023,-62.695,0.0,0.0
191148,-1.077,0.063,0.271,49.267,14.527,-43.863,99.0,0.0
191208,-1.359,0.180,0.065,108.687,6.198,14.870,96.0,0.0
191267,-1.578,0.365,-0.188,40.443,-4.947,96.802,86.0,0.0
191330,-1.644,0.148,-0.222,-127.809,-30.870,199.878,96.0,0.0
191393,-1.419,0.053,-0.072,-145.427,-52.000,248.489,151.0,0.0
191459,-0.990,0.159,-0.044,-91.328,-52.779,208.672,0.0,0.0
191518,-0.478,0.153,-0.003,-76.786,-40.954,155.176,0.0,89.0
191579,-0.323,0.166,0.020,-70.817,-21.466,110.252,0.0,92.0
191641,-0.624,0.257,0.009,-50.794,1.763,18.191,0.0,63.0
191699,-1.022,0.321,-0.031,-7.611,30.458,-79.954,0.0,92.0
191757,-1.445,0.286,-0.050,9.008,58.527,-159.962,0.0,58.0
191809,-1.408,0.157,0.006,29.824,77.588,-205.092,125.0,57.0
191862,-1.394,0.016,0.063,47.489,74.603,-185.191,104.0,56.0
191923,-1.344,0.006,0.101,90.099,52.374,-153.046,120.0,0.0
191983,-1.021,0.105,0.100,147.718,38.504,-108.435,126.0,0.0
192044,-0.742,0.331,0.034,129.573,32.756,-86.107,117.0,0.0
192104,-0.641,0.367,0.119,29.397,23.237,-70.855,118.0,0.0
192163,-0.735,0.217,0.233,-8.214,25.290,-44.740,103.0,0.0
192223,-0.905,0.214,0.208,11.878,22.374,-24.122,101.0,0.0
192281,-1.199,0.298,0.112,-3.763,20.076,16.679,96.0,0.0
192343,-1.652,0.238,-0.030,-47.771,-2.664,74.702,86.0,0.0
192401,-1.602,0.072,-0.154,-89.198,-49.198,168.702,97.0,0.0
192456,-1.642,-0.002,-0.178,-97.427,-78.519,236.580,150.0,72.0
192512,-1.100,0.102,-0.067,-50.847,-85.214,237.336,134.0,92.0
192566,-0.619,0.217,-0.037,-49.718,-73.137,197.519,157.0,67.0
192622,-0.319,0.191,-0.012,-64.901,-52.313,147.557,153.0,79.0
192677,-0.304,0.221,0.040,-57.053,-24.885,85.374,162.0,68.0
192735,-0.778,0.325,-0.027,-29.298,5.260,-6.580,195.0,70.0
192788,-1.196,0.338,-0.049,0.107,41.458,-87.206,149.0,60.0
192845,-1.392,0.301,-0.036,1.191,73.603,-160.031,141.0,61.0
192899,-1.225,0.194,0.010,4.122,97.321,-196.687,134.0,57.0
192960,-1.320,0.062,0.060,9.099,91.832,-186.061,144.0,0.0
193019,-1.386,-0.036,0.102,65.939,58.481,-142.794,112.0,0.0
193081,-1.050,0.101,0.097,127.290,37.405,-95.931,134.0,0.0
193143,-0.803,0.262,0.048,123.351,20.901,-68.763,153.0,0.0
193202,-0.685,0.313,0.098,90.786,11.504,-54.214,92.0,0.0
193305,-0.947,0.238,0.232,-23.618,11.305,-27.817,101.0,0.0
193367,-0.939,0.197,0.221,7.901,12.939,-0.466,97.0,0.0
193426,-1.477,0.325,0.022,9.328,13.832,18.908,93.0,0.0
193484,-1.459,0.192,-0.102,-31.679,-16.878,97.725,89.0,0.0
193546,-1.568,0.187,-0.276,-106.122,-31.664,182.695,140.0,0.0
193600,-1.284,0.144,-0.146,-127.649,-42.084,232.237,131.0,74.0
193653,-1.063,0.185,-0.104,-108.664,-45.863,208.771,126.0,70.0
193707,-0.701,0.147,-0.021,-96.626,-53.267,180.298,121.0,72.0
193759,-0.422,0.129,0.051,-73.145,-42.069,143.420,116.0,59.0
193811,-0.406,0.240,0.052,-50.206,-17.198,87.191,113.0,57.0
193866,-0.778,0.356,0.008,-36.191,8.641,-4.389,116.0,58.0
193917,-0.926,0.263,0.069,-2.939,30.130,-82.053,98.0,66.0
193970,-1.365,0.314,-0.040,30.702,55.603,-151.542,108.0,76.0
194021,-1.308,0.264,-0.019,46.084,80.748,-194.466,99.0,59.0
194072,-1.348,0.157,-0.031,25.229,82.092,-197.710,101.0,62.0
194123,-1.417,0.046,0.038,27.824,67.336,-160.527,105.0,50.0
194176,-1.272,0.017,0.074,75.985,47.084,-110.985,114.0,60.0
194229,-0.991,0.128,0.080,116.084,32.489,-75.023,117.0,69.0
194289,-0.687,0.261,0.044,122.817,19.252,-54.359,0.0,67.0
194347,-0.529,0.309,0.047,77.092,7.405,-38.153,0.0,72.0
194405,-0.740,0.262,0.132,48.672,2.901,-21.000,0.0,73.0
194462,-1.045,0.246,0.184,44.275,4.672,-17.229,0.0,74.0
194521,-1.046,0.215,0.185,48.336,18.588,3.939,0.0,78.0
194586,-1.275,0.258,0.107,19.702,31.382,33.992,0.0,0.0
194643,-1.361,0.178,-0.002,-29.656,6.855,89.046,0.0,80.0
194703,-1.208,0.110,0.087,-42.992,-22.794,145.015,0.0,98.0
194761,-1.288,0.138,0.055,-50.313,-47.076,166.336,198.0,75.0
194823,-1.177,0.166,0.059,-43.672,-68.130,152.321,0.0,73.0
194881,-0.907,0.132,0.081,-29.626,-77.076,132.221,196.0,89.0
194939,-0.654,0.129,0.120,-9.130,-70.924,115.695,193.0,86.0
194997,-0.489,0.167,0.160,-4.832,-64.130,85.198,191.0,66.0
195056,-0.450,0.229,0.195,-0.786,-43.397,30.618,0.0,90.0
195115,-0.542,0.253,0.248,29.710,-23.389,-50.603,0.0,94.0
195173,-0.872,0.280,0.206,67.015,-5.992,-120.710,187.0,87.0
195228,-1.709,0.254,0.059,148.580,-15.748,-157.634,153.0,65.0
195286,-1.312,0.284,-0.070,202.504,-13.244,-107.267,153.0,63.0
195349,-1.260,0.562,-0.177,144.374,-16.962,-89.092,154.0,0.0
195411,-1.038,0.315,-0.094,99.137,-19.115,-90.191,157.0,0.0
195475,-0.718,0.242,-0.059,141.008,-7.443,-78.229,159.0,0.0
195537,-0.628,0.356,-0.074,140.244,-3.145,-74.802,161.0,0.0
195592,-0.696,0.367,-0.002,127.855,14.656,-86.313,58.0,140.0
195653,-0.810,0.375,0.022,106.099,38.443,-95.023,0.0,131.0
195715,-0.966,0.398,0.051,70.092,68.221,-93.084,0.0,131.0
195776,-1.362,0.321,0.070,9.321,71.061,-65.191,0.0,134.0
195842,-1.520,0.018,0.116,-2.977,24.763,23.847,0.0,140.0
195904,-1.212,-0.162,0.295,46.924,-42.298,179.580,0.0,150.0
195965,-1.503,0.213,0.085,44.008,-93.779,199.130,172.0,159.0
196027,-1.137,0.177,0.201,13.183,-104.130,182.435,162.0,172.0
196092,-0.995,0.214,0.151,-32.206,-101.565,150.969,0.0,194.0
196158,-0.805,0.099,0.179,-52.221,-105.305,106.382,200.0,0.0
196260,-0.482,0.128,0.280,52.008,-83.771,21.466,0.0,84.0
196319,-0.521,0.324,0.203,86.977,-47.809,-46.298,0.0,78.0
196380,-0.813,0.347,0.116,82.321,-16.870,-114.229,0.0,84.0
196435,-1.297,0.276,-0.013,121.290,2.771,-162.191,122.0,89.0
196495,-1.449,0.129,-0.118,163.771,10.382,-165.023,104.0,0.0
196555,-1.641,0.276,-0.243,169.679,1.664,-144.672,105.0,0.0
196616,-1.175,0.292,-0.170,173.939,-2.969,-136.359,111.0,0.0
196677,-0.799,0.349,-0.128,152.634,19.244,-122.840,124.0,0.0
196740,-0.702,0.383,-0.097,120.382,32.992,-108.573,162.0,176.0
196809,-0.941,0.424,0.021,51.718,54.137,-94.748,150.0,173.0
196880,-1.035,0.295,0.162,-7.145,61.542,-70.435,120.0,0.0
196937,-1.261,0.131,0.211,8.992,41.328,-15.145,57.0,0.0
196996,-1.415,0.206,0.169,34.565,17.916,54.244,101.0,187.0
197054,-1.488,0.187,0.043,-28.092,-27.863,116.672,96.0,0.0
197117,-1.799,-0.022,-0.091,-64.328,-78.702,210.931,166.0,0.0
197178,-1.583,0.073,-0.167,-74.947,-105.641,250.130,134.0,0.0
197232,-1.007,0.188,-0.159,-70.076,-100.076,219.542,133.0,80.0
197289,-0.636,0.130,-0.120,-63.748,-84.122,159.183,0.0,62.0
197348,-0.343,0.110,-0.050,-48.344,-62.000,97.878,0.0,90.0
197403,-0.392,0.127,0.008,-40.473,-34.885,42.824,114.0,61.0
197454,-0.688,0.289,0.035,-7.740,1.382,-20.290,112.0,57.0
197507,-0.988,0.382,-0.013,9.840,37.954,-109.336,114.0,58.0
197558,-1.382,0.318,-0.073,17.366,68.634,-179.153,114.0,57.0
197609,-1.370,0.184,-0.017,46.137,102.397,-220.466,103.0,50.0
197661,-1.417,0.141,-0.068,51.176,107.046,-214.695,115.0,76.0
197713,-1.539,0.063,0.010,41.244,80.794,-167.626,114.0,60.0
197767,-1.297,0.039,0.063,91.130,61.672,-121.382,115.0,75.0
197831,-0.984,0.232,0.064,123.611,54.466,-83.878,145.0,0.0
197891,-0.679,0.299,0.069,57.183,27.282,-57.588,113.0,0.0
197956,-0.671,0.219,0.208,24.588,16.954,-28.313,0.0,0.0
198017,-0.767,0.261,0.214,21.313,11.160,-19.130,120.0,0.0
198076,-0.988,0.245,0.174,18.076,8.084,-5.656,100.0,0.0
198134,-1.629,0.312,-0.027,4.794,5.489,23.756,95.0,0.0
198194,-1.459,0.207,-0.208,-87.718,-29.817,109.344,103.0,0.0
198253,-1.449,0.037,-0.184,-132.687,-59.412,194.229,110.0,0.0
198308,-1.336,0.157,-0.182,-95.305,-71.847,205.695,133.0,94.0
198366,-0.885,0.171,-0.104,-72.153,-79.336,178.557,133.0,65.0
198420,-0.533,0.158,-0.039,-61.550,-69.672,152.282,144.0,85.0
198474,-0.529,0.215,-0.028,-50.344,-50.053,118.664,138.0,57.0
198526,-0.672,0.266,-0.054,-41.840,-29.840,61.794,119.0,57.0
198578,-0.941,0.278,-0.036,-18.534,-7.733,-0.740,118.0,47.0
198630,-1.059,0.339,0.007,10.840,22.824,-69.076,117.0,57.0
198684,-1.161,0.302,0.002,20.840,49.786,-138.588,119.0,92.0
198736,-1.312,0.194,0.001,33.924,71.550,-172.992,117.0,60.0
198791,-1.397,0.083,0.031,50.137,64.893,-158.115,116.0,58.0
198852,-1.341,0.120,0.062,82.450,54.183,-137.931,124.0,0.0
198914,-1.028,0.257,0.037,90.359,53.321,-125.626,140.0,0.0
198977,-0.765,0.313,0.059,55.389,50.023,-114.076,175.0,0.0
199043,-0.697,0.208,0.125,8.237,32.298,-81.947,0.0,0.0
199107,-0.856,0.196,0.228,20.702,28.382,-45.313,0.0,0.0
199209,-1.097,0.295,0.143,4.969,12.618,-5.321,97.0,0.0
199269,-1.486,0.307,-0.018,-23.038,-8.153,37.122,88.0,0.0
199327,-1.611,0.104,-0.231,-108.107,-53.794,136.214,87.0,0.0
199383,-1.542,0.000,-0.155,-93.328,-82.740,227.031,121.0,53.0
199436,-1.372,0.151,-0.198,-48.122,-84.328,228.076,131.0,58.0
199497,-0.898,0.233,-0.133,-48.779,-81.298,203.008,131.0,0.0
199549,-0.465,0.202,-0.031,-63.374,-61.099,155.420,119.0,65.0
199607,-0.290,0.208,0.021,-58.519,-36.550,109.397,0.0,56.0
199659,-0.578,0.341,0.045,-35.458,-4.595,30.511,115.0,57.0
199711,-0.946,0.302,-0.026,-25.534,19.595,-48.466,114.0,57.0
199761,-1.273,0.286,-0.012,-29.336,42.931,-83.702,98.0,57.0
199816,-1.429,0.198,0.056,2.863,50.557,-141.916,98.0,57.0
199868,-1.278,0.035,0.068,50.366,57.626,-155.137,111.0,57.0
199920,-1.290,0.138,0.068,98.008,58.756,-143.252,103.0,70.0
199972,-1.221,0.184,0.051,98.153,53.168,-142.656,106.0,70.0
200034,-0.941,0.204,0.078,100.092,50.374,-138.427,134.0,0.0
200097,-0.707,0.273,0.049,90.031,51.672,-125.901,165.0,0.0
200158,-0.732,0.258,0.094,26.519,37.756,-94.290,116.0,0.0
200223,-1.047,0.202,0.191,30.794,38.672,-65.664,0.0,0.0
200288,-1.006,0.245,0.207,34.733,28.481,-31.748,0.0,0.0
200350,-1.225,0.270,0.153,-6.656,17.649,15.840,99.0,0.0
200410,-1.519,0.185,0.003,-33.206,-20.153,74.542,91.0,0.0
200469,-1.592,-0.015,-0.128,-49.000,-68.702,183.947,99.0,0.0
200530,-1.395,0.208,-0.111,-61.237,-65.557,237.527,124.0,0.0
200584,-1.008,0.284,-0.128,-103.115,-63.977,205.191,139.0,60.0
200637,-0.677,0.189,-0.039,-120.672,-62.954,168.786,119.0,59.0
200697,-0.584,0.157,0.021,-91.031,-52.527,131.771,115.0,0.0
200750,-0.607,0.216,0.025,-57.893,-37.290,81.122,115.0,51.0
200805,-0.898,0.269,-0.004,-33.237,-17.084,21.313,115.0,57.0
200857,-1.285,0.291,-0.012,6.351,4.580,-36.389,123.0,58.0
200910,-1.300,0.279,0.005,25.481,32.107,-91.015,113.0,73.0
200963,-1.146,0.291,0.012,36.870,69.924,-138.962,113.0,63.0
201015,-1.031,0.223,0.049,35.366,94.916,-162.931,113.0,59.0
201068,-1.309,0.212,0.031,18.481,98.366,-184.550,116.0,60.0
201120,-1.313,0.052,0.103,44.511,87.076,-176.359,122.0,57.0
201182,-1.038,0.036,0.176,102.313,83.366,-150.023,131.0,0.0
201250,-0.768,0.261,0.069,85.313,54.405,-103.389,0.0,0.0
201310,-0.787,0.195,0.205,20.046,27.710,-59.153,105.0,0.0
201370,-0.938,0.204,0.251,42.756,15.550,-45.718,106.0,0.0
201430,-1.007,0.219,0.186,62.412,4.389,-14.252,97.0,0.0
201489,-1.405,0.261,-0.010,34.397,-2.870,50.771,91.0,0.0
201548,-1.455,0.172,-0.134,-55.550,-33.534,145.336,85.0,0.0
201608,-1.538,0.080,-0.150,-99.481,-58.740,227.359,100.0,0.0
201663,-1.349,0.098,-0.103,-84.489,-74.366,240.748,136.0,77.0
201716,-0.848,0.215,-0.038,-71.580,-67.573,207.855,120.0,81.0
201776,-0.664,0.243,-0.035,-79.084,-51.206,151.756,158.0,67.0
201832,-0.519,0.187,0.035,-83.092,-34.237,105.679,153.0,88.0
201885,-0.600,0.220,0.029,-58.969,-13.107,44.237,115.0,67.0
201938,-1.027,0.285,-0.034,-16.840,7.328,-21.176,116.0,65.0
201991,-1.138,0.313,-0.004,5.733,33.099,-76.527,102.0,82.0
202086,-1.307,0.179,0.000,26.412,70.924,-163.847,101.0,57.0
202138,-1.285,0.024,0.095,45.786,68.580,-146.313,107.0,58.0
202199,-1.210,0.081,0.116,92.939,55.305,-134.252,113.0,0.0
202263,-0.969,0.216,0.098,119.244,46.618,-122.198,121.0,0.0
202326,-0.765,0.254,0.086,100.969,36.802,-112.519,141.0,0.0
202391,-0.696,0.285,0.119,48.885,29.115,-84.733,0.0,0.0
202451,-0.868,0.277,0.203,14.992,25.260,-61.458,107.0,0.0
202517,-1.011,0.191,0.230,13.527,14.443,-44.832,0.0,0.0
202576,-1.001,0.176,0.180,39.221,3.176,21.412,103.0,0.0
202636,-1.468,0.293,0.038,23.565,-8.214,71.611,89.0,0.0
202695,-1.616,0.152,-0.085,-28.542,-36.756,144.931,93.0,0.0
202758,-1.443,0.177,-0.093,-69.031,-46.679,213.153,139.0,0.0
202816,-1.211,0.210,-0.060,-92.298,-48.336,211.511,132.0,79.0
202870,-0.756,0.215,-0.010,-94.389,-43.092,179.573,126.0,71.0
202924,-0.502,0.203,0.018,-81.206,-31.000,140.458,121.0,71.0
202977,-0.439,0.248,0.037,-68.977,-14.450,97.802,123.0,57.0
203029,-0.586,0.270,0.037,-66.160,2.901,45.313,119.0,59.0
203081,-0.868,0.279,0.063,-44.191,21.084,-13.863,97.0,57.0
203132,-1.101,0.261,0.080,-14.626,39.206,-72.176,94.0,57.0
203185,-1.484,0.247,0.025,3.985,53.328,-123.198,104.0,57.0
203239,-1.352,0.236,0.082,57.298,79.542,-173.183,104.0,54.0
203291,-1.233,0.121,0.052,43.031,83.069,-171.641,106.0,59.0
203344,-1.365,0.089,0.087,40.214,63.328,-141.542,108.0,64.0
203399,-1.195,0.023,0.116,85.710,41.137,-103.115,111.0,92.0
203457,-0.881,0.130,0.119,142.588,36.794,-69.855,0.0,79.0
203521,-0.593,0.367,0.021,104.092,26.473,-56.153,0.0,160.0
203584,-0.516,0.230,0.117,33.107,17.191,-40.099,0.0,159.0
203648,-0.834,0.216,0.153,24.229,14.649,-24.611,0.0,160.0
203711,-1.125,0.183,0.201,37.733,17.504,-12.221,0.0,164.0
203779,-1.270,0.200,0.163,34.229,22.435,22.519,0.0,169.0
203843,-1.315,0.307,0.072,1.489,26.832,53.214,0.0,176.0
203902,-1.196,-0.002,0.052,-99.763,-26.328,118.153,0.0,87.0
203962,-1.597,-0.150,0.070,-31.366,-81.832,161.191,192.0,93.0
204021,-1.253,0.020,0.071,65.252,-108.328,180.931,189.0,99.0
204081,-0.825,0.248,0.064,48.313,-102.344,151.145,0.0,84.0
204147,-0.458,0.214,0.110,21.290,-79.031,96.878,0.0,123.0
204206,-0.339,0.195,0.122,19.450,-51.084,53.115,0.0,93.0
204264,-0.514,0.247,0.107,19.634,-29.031,10.733,0.0,95.0
204326,-0.796,0.264,0.128,41.290,-11.885,-47.985,0.0,98.0
204391,-0.900,0.253,0.124,47.817,4.153,-102.611,0.0,0.0
204455,-1.462,0.251,0.033,90.893,20.237,-168.298,0.0,0.0
204520,-1.259,0.207,-0.053,106.458,41.366,-160.176,0.0,0.0
204585,-1.402,0.125,-0.097,66.260,23.664,-118.756,0.0,0.0
204650,-1.065,0.117,-0.021,138.076,13.542,-63.076,0.0,0.0
204715,-0.771,0.333,-0.074,137.557,9.878,-44.878,0.0,0.0
204780,-0.638,0.299,0.027,102.076,12.519,-38.237,0.0,0.0
204848,-0.710,0.326,0.063,84.046,27.466,-34.435,0.0,0.0
204908,-0.812,0.295,0.136,53.305,40.611,-22.924,0.0,132.0
204969,-1.080,0.267,0.152,35.847,47.702,-11.015,0.0,135.0
205031,-1.398,0.183,0.191,25.618,39.695,25.786,0.0,140.0
205136,-1.243,-0.010,0.169,18.939,-34.099,156.252,193.0,156.0
205198,-1.631,0.128,0.065,36.489,-83.198,182.542,182.0,168.0
205261,-1.167,0.202,0.089,43.557,-95.939,156.786,175.0,187.0
205326,-0.862,0.278,0.096,-4.115,-86.626,120.069,0.0,0.0
205391,-0.741,0.185,0.147,-31.466,-82.908,85.366,0.0,0.0
205453,-0.605,0.193,0.212,-1.023,-80.435,46.832,0.0,96.0
205511,-0.558,0.254,0.196,49.664,-64.786,0.824,0.0,91.0
205570,-0.656,0.415,0.137,66.107,-38.817,-47.489,0.0,79.0
205628,-0.845,0.494,0.110,47.000,-17.786,-85.481,0.0,77.0
205692,-1.387,0.368,0.030,82.634,-8.786,-126.878,0.0,0.0
205752,-1.153,0.216,-0.071,128.725,2.061,-122.542,107.0,0.0
205811,-1.416,0.261,-0.103,139.611,-15.298,-109.634,106.0,0.0
205872,-1.226,0.239,-0.099,183.008,-22.710,-108.687,108.0,0.0
205935,-0.869,0.379,-0.125,183.466,-4.947,-114.847,123.0,0.0
205997,-0.716,0.416,-0.113,99.702,10.038,-109.542,128.0,0.0
206059,-0.703,0.251,0.012,42.435,24.145,-89.916,151.0,0.0
206123,-0.913,0.343,0.074,46.969,51.534,-82.076,180.0,0.0
206179,-0.995,0.320,0.118,-11.038,55.153,-69.870,52.0,0.0
206236,-1.366,0.120,0.214,-8.122,39.863,-40.878,57.0,0.0
206298,-1.340,-0.036,0.237,70.763,13.008,30.298,141.0,0.0
206354,-1.421,0.324,0.044,35.023,-1.466,85.130,51.0,0.0
206417,-1.492,0.085,-0.035,-73.824,-49.519,153.840,170.0,0.0
206482,-1.458,-0.073,-0.061,-77.466,-82.656,206.405,130.0,0.0
206546,-1.210,0.128,-0.113,-39.412,-73.595,205.382,0.0,0.0
206605,-0.865,0.266,-0.096,-65.947,-63.748,157.496,0.0,72.0
206661,-0.628,0.149,-0.028,-69.191,-62.603,93.802,159.0,88.0
206718,-0.457,0.111,0.052,-21.435,-52.779,54.450,0.0,63.0
206776,-0.601,0.241,0.060,17.008,-29.305,17.931,0.0,57.0
206832,-0.891,0.383,0.031,8.595,-0.916,-41.870,0.0,57.0
206883,-1.225,0.303,0.022,15.252,26.420,-108.076,96.0,57.0
206940,-1.321,0.240,0.010,38.191,51.679,-141.191,0.0,58.0
206999,-1.272,0.278,-0.030,49.565,68.137,-173.481,159.0,84.0
207054,-1.346,0.121,0.011,52.023,60.702,-167.672,138.0,78.0
207109,-1.340,0.108,0.012,85.344,51.809,-141.389,143.0,80.0
207170,-1.057,0.225,0.023,87.443,44.076,-109.145,127.0,0.0
207230,-0.752,0.272,0.059,62.733,34.321,-83.496,104.0,0.0
207290,-0.634,0.224,0.131,31.031,21.649,-52.290,106.0,0.0
207349,-0.842,0.204,0.164,34.198,14.038,-29.206,105.0,0.0
207409,-0.828,0.250,0.175,31.473,13.794,-17.344,95.0,0.0
207471,-1.010,0.241,0.139,-4.733,14.748,14.145,101.0,0.0
207532,-1.375,0.202,0.073,-10.977,-0.855,53.214,110.0,0.0
207590,-1.336,0.278,-0.037,-30.176,-23.336,92.519,89.0,0.0
207651,-1.655,0.240,-0.200,-83.359,-44.580,133.450,118.0,0.0
207712,-1.369,0.135,-0.165,-97.924,-52.008,177.702,124.0,0.0
207767,-1.018,0.165,-0.151,-104.832,-54.534,188.527,163.0,62.0
207826,-0.654,0.149,-0.073,-109.153,-59.603,177.168,0.0,89.0
207884,-0.432,0.144,0.020,-79.924,-46.542,138.527,0.0,60.0
207941,-0.519,0.275,0.037,-41.786,-20.137,65.931,0.0,59.0
208002,-0.762,0.339,0.045,-15.145,10.740,-33.412,0.0,59.0
208056,-1.048,0.346,0.034,1.191,44.214,-115.198,145.0,62.0
208150,-1.555,0.177,-0.034,29.817,80.947,-172.916,103.0,53.0
208202,-1.424,0.065,0.006,26.420,73.275,-140.771,105.0,51.0
208262,-1.332,0.004,0.108,62.275,47.313,-98.886,101.0,0.0
208322,-0.974,0.168,0.082,118.412,27.092,-71.466,124.0,0.0
208385,-0.662,0.283,0.059,105.901,22.031,-68.008,146.0,0.0
208447,-0.628,0.312,0.088,51.519,18.504,-64.443,138.0,0.0
208514,-0.746,0.272,0.172,20.305,27.595,-60.221,181.0,0.0
208579,-0.913,0.248,0.195,15.183,28.427,-61.260,0.0,0.0
208638,-1.024,0.148,0.187,30.420,27.756,-22.267,98.0,0.0
208699,-1.365,0.251,0.081,15.809,16.267,30.481,109.0,0.0
208758,-1.542,0.197,-0.006,-27.550,-25.099,90.656,95.0,0.0
208818,-1.519,0.063,-0.064,-29.771,-57.137,164.687,98.0,0.0
208879,-1.320,0.225,-0.094,-37.916,-54.626,197.427,125.0,0.0
208942,-0.912,0.270,-0.091,-86.023,-49.031,183.221,140.0,0.0
209007,-0.561,0.164,-0.009,-113.214,-42.237,152.611,0.0,0.0
209068,-0.418,0.159,0.054,-79.817,-23.756,104.489,0.0,64.0
209126,-0.619,0.251,0.020,-42.603,-5.351,32.130,0.0,65.0
209178,-0.958,0.309,0.013,-9.336,21.779,-48.282,94.0,80.0
209235,-1.323,0.337,-0.032,-0.748,49.282,-114.466,0.0,65.0
209288,-1.525,0.219,-0.002,14.710,67.107,-163.687,98.0,60.0
209338,-1.248,0.076,0.047,24.489,77.427,-156.527,93.0,58.0
209391,-1.332,0.077,0.067,45.542,64.466,-124.817,94.0,77.0
209451,-1.134,0.095,0.112,86.267,47.718,-108.626,97.0,0.0
209515,-0.825,0.176,0.104,116.221,42.145,-89.954,131.0,0.0
209577,-0.623,0.275,0.074,89.886,30.626,-68.748,147.0,0.0
209642,-0.632,0.216,0.177,52.611,15.931,-46.023,184.0,0.0
209702,-0.898,0.248,0.198,49.885,15.603,-30.611,120.0,0.0
209764,-0.987,0.244,0.152,36.420,18.489,-13.840,117.0,0.0
209824,-1.244,0.292,0.102,-5.366,22.130,26.695,115.0,0.0
209885,-1.526,0.163,0.055,-24.649,4.649,72.641,108.0,0.0
209944,-1.446,0.156,-0.058,-58.939,-31.527,130.023,101.0,0.0
210006,-1.323,0.110,-0.040,-64.977,-52.527,167.321,115.0,0.0
210072,-1.074,0.238,-0.079,-61.901,-42.084,159.290,164.0,0.0
210138,-0.758,0.255,-0.061,-101.099,-40.168,135.275,0.0,0.0
210196,-0.512,0.149,0.011,-92.725,-33.832,91.374,0.0,63.0
210253,-0.509,0.196,0.027,-50.901,-20.534,45.313,0.0,58.0
210311,-0.813,0.269,-0.012,-9.763,-4.588,-14.374,0.0,66.0
210369,-1.205,0.333,-0.069,12.290,22.557,-70.160,0.0,63.0
210426,-1.558,0.320,-0.087,2.603,49.008,-121.832,0.0,59.0
210480,-1.268,0.142,0.015,-0.313,67.046,-140.710,127.0,59.0
210545,-1.269,-0.017,0.137,35.069,53.031,-117.840,131.0,0.0
210606,-1.151,0.035,0.146,113.046,25.847,-88.382,117.0,0.0
210668,-0.837,0.252,0.099,115.260,22.298,-75.840,142.0,0.0
210732,-0.592,0.316,0.077,58.985,23.336,-66.771,154.0,0.0
210792,-0.549,0.215,0.167,10.756,18.779,-45.580,115.0,0.0
210852,-0.794,0.196,0.233,9.947,17.084,-28.275,114.0,0.0
210914,-0.989,0.206,0.208,27.656,18.664,-25.298,111.0,0.0
210973,-1.259,0.256,0.121,15.382,21.893,9.008,102.0,0.0
211034,-1.528,0.281,-0.009,-20.679,7.176,44.519,97.0,0.0
211096,-1.434,0.140,-0.127,-79.733,-32.481,116.641,98.0,0.0
