Timestamp(ms),AccelX(g),AccelY(g),AccelZ(g),GyroX(deg/s),GyroY(deg/s),GyroZ(deg/s),DistanceLeft(cm),DistanceRight(cm)
504601,-0.561,1.093,0.369,84.092,-58.244,-113.573,40.0,109.0
504653,-0.522,1.142,0.436,13.969,-98.641,-112.153,41.0,108.0
504705,-0.730,1.090,0.589,27.962,-147.511,-121.908,43.0,107.0
504756,-0.694,1.408,0.376,119.611,-198.786,-111.046,45.0,106.0
504808,-0.414,1.710,0.122,28.374,-220.893,-97.405,46.0,107.0
504870,-0.102,1.156,0.119,-39.267,-199.855,-61.450,191.0,111.0
504924,0.082,0.924,-0.011,-66.435,-165.595,-28.336,58.0,115.0
504977,0.227,0.705,-0.014,-95.359,-126.817,-11.267,57.0,119.0
505032,0.400,0.582,0.094,-72.496,-77.298,-3.931,47.0,181.0
505089,0.478,0.636,0.140,-23.580,-27.870,-20.252,46.0,180.0
505143,0.452,0.595,0.170,56.924,20.107,-46.015,47.0,148.0
505195,0.235,1.043,0.177,76.489,74.931,-37.374,59.0,113.0
505248,0.043,1.428,0.258,49.450,138.786,33.458,59.0,111.0
505303,-0.215,1.736,0.241,25.588,185.130,96.450,50.0,107.0
505355,-0.406,1.627,0.264,-0.267,202.221,139.130,45.0,107.0
505406,-0.404,1.254,0.296,-19.191,178.855,149.397,44.0,108.0
505466,-0.308,0.934,0.321,-26.481,147.122,146.313,189.0,111.0
505518,-0.275,0.634,0.312,-53.282,102.031,122.313,38.0,114.0
505570,-0.261,0.448,0.294,-40.969,70.748,94.779,37.0,116.0
505621,-0.201,0.520,0.289,-16.702,45.374,35.824,36.0,117.0
505673,-0.403,0.559,0.298,11.397,26.611,-46.244,46.0,115.0
505725,-0.592,0.666,0.390,52.275,2.183,-130.275,51.0,110.0
505782,-0.836,0.843,0.391,60.046,-25.305,-173.763,52.0,106.0
505842,-1.031,0.973,0.402,49.580,-47.450,-204.702,0.0,102.0
505908,-1.264,0.865,0.376,91.687,-81.847,-226.550,0.0,184.0
505972,-1.038,0.870,0.234,125.725,-111.023,-233.794,0.0,185.0
506039,-0.866,0.761,0.138,119.740,-118.046,-216.695,0.0,0.0
506109,-0.768,0.680,0.091,74.786,-116.733,-194.863,0.0,0.0
506175,-0.684,0.579,0.213,56.420,-85.275,-162.931,0.0,0.0
506240,-0.801,0.962,0.077,-8.084,-51.031,-123.763,0.0,0.0
506308,-0.784,0.761,0.187,-7.847,2.534,-33.496,0.0,0.0
506373,-0.487,0.879,0.143,-46.550,30.985,60.382,0.0,0.0
506437,-0.757,0.793,0.099,-53.534,43.664,132.260,0.0,0.0
506502,-1.346,1.068,-0.016,-21.878,78.992,207.092,0.0,185.0
506566,-1.679,1.273,-0.102,-73.878,126.580,250.130,0.0,194.0
506631,-1.457,0.952,-0.015,-58.099,150.969,250.130,0.0,0.0
506690,-0.976,0.788,0.037,-21.656,164.435,250.130,0.0,100.0
506741,-0.820,0.482,0.298,-102.908,104.267,249.168,48.0,106.0
506792,-0.797,0.373,0.349,-55.763,54.977,171.840,41.0,111.0
506846,-0.754,0.332,0.366,-23.458,15.824,92.130,39.0,0.0
506905,-0.776,0.447,0.254,-10.939,-12.237,1.565,187.0,115.0
506955,-0.659,0.362,0.281,21.305,-51.947,-79.733,37.0,107.0
507006,-0.796,0.850,0.182,78.809,-94.939,-125.511,45.0,103.0
507057,-0.810,1.535,0.069,78.328,-136.908,-142.473,47.0,100.0
507108,-0.619,1.696,0.010,-8.176,-148.450,-164.519,55.0,100.0
507158,-0.528,1.490,0.025,16.244,-145.466,-163.031,51.0,100.0
507209,-0.364,1.573,-0.105,-4.267,-140.145,-147.939,50.0,102.0
507264,-0.181,1.327,-0.096,-37.511,-123.160,-98.824,51.0,106.0
507320,0.185,0.978,-0.043,-43.779,-84.824,-63.084,51.0,0.0
507377,0.408,0.755,0.058,-54.511,-27.756,-38.099,51.0,0.0
507478,0.315,0.649,0.153,52.840,29.947,-0.267,58.0,0.0
507542,-0.032,1.329,-0.041,81.023,76.878,73.763,0.0,0.0
507593,-0.240,1.617,-0.036,-5.282,123.092,132.603,50.0,100.0
507643,-0.573,1.897,-0.018,29.305,160.901,171.542,51.0,99.0
507695,-0.721,2.000,-0.130,-21.305,191.107,190.504,59.0,99.0
507749,-0.650,1.367,-0.018,-75.687,193.237,176.427,45.0,104.0
507799,-0.549,0.773,0.093,-80.015,170.221,156.359,45.0,108.0
507850,-0.328,0.398,0.208,-86.878,138.099,140.076,35.0,115.0
507901,-0.207,0.171,0.240,-66.656,103.840,104.252,46.0,117.0
507953,-0.137,0.360,0.185,-12.794,74.588,29.954,31.0,118.0
508004,-0.463,0.818,0.138,14.634,36.328,-45.832,33.0,116.0
508054,-0.641,0.909,0.284,49.496,-25.023,-94.344,36.0,113.0
508104,-0.716,1.086,0.289,87.496,-67.305,-104.099,37.0,109.0
508155,-0.698,1.220,0.456,34.084,-116.740,-116.519,40.0,105.0
508210,-0.765,1.346,0.492,62.191,-160.321,-125.328,46.0,106.0
508260,-0.611,1.626,0.210,57.427,-186.656,-113.924,46.0,105.0
508320,-0.389,1.439,0.058,-6.405,-195.725,-86.229,194.0,108.0
508380,-0.133,0.907,0.057,-24.267,-194.191,-40.603,192.0,111.0
508432,0.074,0.795,-0.044,-11.695,-171.313,10.412,49.0,114.0
508483,0.246,0.754,-0.109,-64.756,-143.061,23.649,47.0,117.0
508535,0.446,0.524,-0.006,-50.481,-111.229,-2.878,44.0,118.0
508587,0.514,0.651,0.046,21.099,-72.542,-39.412,46.0,117.0
508642,0.427,0.838,0.070,93.878,-20.847,-57.733,53.0,113.0
508693,0.406,1.269,-0.012,96.634,55.481,-11.344,50.0,109.0
508744,0.296,1.584,-0.083,50.344,154.229,48.916,48.0,106.0
508795,-0.045,1.849,-0.060,43.977,226.992,91.908,50.0,105.0
508847,-0.364,2.000,0.014,6.137,250.130,123.176,49.0,106.0
508898,-0.468,1.262,0.413,-112.847,184.458,132.008,43.0,111.0
508949,-0.178,0.481,0.603,-31.221,129.542,147.771,39.0,115.0
509000,-0.088,0.531,0.350,4.863,119.481,149.771,35.0,119.0
509054,-0.108,0.483,0.206,-43.153,109.985,127.473,32.0,123.0
509110,-0.039,0.466,0.273,-34.840,79.313,66.924,30.0,0.0
509161,-0.116,0.611,0.324,45.046,35.053,-43.275,30.0,120.0
509212,-0.255,0.913,0.403,93.023,-14.588,-113.840,31.0,117.0
509262,-0.470,1.054,0.475,70.794,-64.275,-149.435,37.0,110.0
509315,-0.677,1.303,0.430,45.870,-115.176,-130.198,51.0,106.0
509366,-0.678,1.439,0.352,41.656,-162.534,-122.275,43.0,108.0
509417,-0.461,1.508,0.216,28.855,-199.817,-120.695,44.0,107.0
509468,-0.281,1.208,0.154,-8.374,-227.794,-116.542,46.0,109.0
509522,-0.146,0.950,0.048,26.733,-239.282,-81.145,47.0,111.0
509583,-0.040,1.038,-0.159,-4.305,-232.160,-41.221,0.0,113.0
509635,0.254,0.759,-0.165,-37.084,-186.206,-0.450,58.0,114.0
509687,0.481,0.717,-0.099,-37.863,-122.504,1.260,51.0,114.0
509740,0.566,0.662,-0.026,4.015,-59.115,-26.947,48.0,114.0
509791,0.462,0.834,-0.031,68.229,4.435,-64.427,47.0,111.0
509842,0.322,0.957,-0.014,51.122,78.359,-87.855,51.0,106.0
509901,0.059,1.364,-0.074,45.679,157.389,-38.511,198.0,101.0
509965,-0.591,1.951,-0.156,12.473,218.466,27.931,0.0,99.0
510024,-0.696,1.715,0.007,-61.580,217.542,92.076,200.0,100.0
510085,-0.468,0.871,0.470,-44.947,127.855,119.954,197.0,104.0
510180,-0.229,0.492,0.274,-22.527,35.840,87.168,46.0,109.0
510231,-0.240,0.520,0.175,-21.290,23.832,33.099,52.0,109.0
510283,-0.457,0.629,0.083,-6.084,14.962,-47.450,45.0,108.0
510334,-0.610,0.620,0.093,4.824,4.985,-101.130,52.0,106.0
510394,-0.736,0.852,0.243,15.359,-16.794,-103.183,197.0,102.0
510457,-0.875,1.268,0.565,-47.679,-20.664,-56.947,0.0,100.0
510509,-1.266,1.843,0.592,-13.489,-75.771,-20.115,51.0,99.0
510560,-0.922,1.710,0.482,0.450,-164.359,62.580,46.0,102.0
510611,-0.408,1.469,-0.021,28.458,-250.137,82.939,42.0,108.0
510662,0.110,0.784,-0.356,-97.061,-250.137,25.008,38.0,115.0
510714,0.435,0.323,-0.395,-159.122,-250.137,-78.985,39.0,121.0
510767,0.596,0.023,-0.254,-107.015,-175.786,-153.504,41.0,123.0
510819,0.742,0.169,-0.315,-37.916,-83.000,-185.832,45.0,121.0
510871,0.751,0.210,-0.220,28.053,10.756,-231.427,48.0,116.0
510934,0.271,0.797,-0.252,56.282,92.252,-233.389,0.0,107.0
511000,-0.609,1.624,-0.571,138.771,168.443,-176.137,0.0,0.0
511066,-1.163,1.467,-0.439,-39.634,245.679,-21.267,0.0,0.0
511131,-1.599,2.000,-0.721,-166.275,250.130,105.519,0.0,0.0
511191,-1.949,1.654,-0.477,-250.137,250.130,223.809,0.0,91.0
511251,-1.332,0.791,-0.104,-242.092,197.756,244.763,0.0,101.0
511311,-0.660,0.189,0.173,-179.313,89.061,202.000,192.0,110.0
511363,-0.231,-0.042,0.261,-111.565,40.740,142.962,38.0,116.0
511426,-0.195,0.046,0.219,-52.863,19.863,65.931,186.0,119.0
511488,-0.262,0.223,0.183,18.840,20.863,-48.817,0.0,117.0
511548,-0.640,0.290,0.127,68.237,26.153,-178.053,192.0,110.0
511607,-0.880,0.286,0.240,114.092,20.344,-250.137,0.0,103.0
511674,-1.242,0.274,0.308,124.366,-7.588,-250.137,0.0,0.0
511739,-2.000,-0.063,-0.026,250.130,-43.954,-250.137,0.0,200.0
511805,-2.000,-0.001,-0.589,250.130,-109.153,-202.802,0.0,0.0
511869,-1.612,0.959,-0.738,250.130,-201.305,-25.344,164.0,0.0
511938,-0.957,0.646,-0.465,46.443,-190.229,9.137,197.0,0.0
512002,-0.456,0.845,-0.527,-67.893,-139.847,-13.534,150.0,0.0
512064,-0.237,0.755,-0.238,-33.275,-52.908,-1.374,147.0,0.0
512126,-0.368,1.051,-0.285,48.237,23.702,69.305,143.0,0.0
512192,-0.535,1.073,-0.243,-46.603,108.115,109.168,0.0,0.0
512259,-0.747,0.944,-0.228,-129.412,183.412,139.298,0.0,0.0
512324,-1.739,1.434,-0.683,-250.137,241.321,143.511,0.0,0.0
512390,-2.000,0.994,-0.889,-250.137,217.107,216.595,0.0,189.0
512449,-2.000,0.343,-0.450,-250.137,120.809,250.130,0.0,92.0
512517,-1.212,0.106,-0.159,-250.137,47.878,250.130,0.0,160.0
512582,-0.778,0.052,-0.005,-209.221,19.763,233.084,0.0,0.0
512648,-0.667,0.155,0.168,-152.405,14.557,175.130,0.0,0.0
512714,-0.666,0.078,0.339,-107.275,-0.618,65.481,0.0,0.0
512780,-0.680,-0.111,0.563,17.786,4.290,-5.939,0.0,0.0
512845,-0.828,-0.002,0.322,146.191,-15.397,-60.557,0.0,0.0
512912,-0.998,0.472,0.287,195.061,-63.931,-127.802,0.0,0.0
512977,-1.062,0.969,0.478,201.519,-71.153,-172.466,0.0,0.0
513047,-0.925,1.146,0.240,200.672,-84.069,-182.870,0.0,0.0
513101,-0.479,0.902,0.140,155.809,-87.817,-163.389,25.0,170.0
513158,-0.514,0.875,0.080,134.145,-77.771,-139.992,37.0,0.0
513258,-0.367,1.111,0.303,69.023,-41.954,-100.664,48.0,0.0
513315,-0.414,1.284,0.395,66.115,-12.802,-52.229,49.0,0.0
513374,-0.454,1.319,0.356,30.641,7.924,8.679,55.0,0.0
513430,-0.430,1.148,0.394,11.855,22.763,73.504,48.0,0.0
513502,-0.587,0.969,0.402,-49.351,29.389,123.550,0.0,0.0
513566,-1.082,1.359,0.300,-45.969,6.878,124.153,0.0,0.0
513629,-1.008,0.963,0.308,-46.176,-18.794,129.092,0.0,105.0
513688,-0.282,0.558,0.323,-54.160,-13.382,128.855,0.0,106.0
513747,-0.160,0.478,0.246,-91.168,2.450,105.603,0.0,111.0
513807,-0.221,0.284,0.218,-84.443,5.397,58.153,0.0,102.0
513866,-0.438,0.369,0.177,-1.244,27.038,-38.809,0.0,101.0
513926,-0.784,0.394,0.011,9.573,69.321,-135.847,0.0,98.0
513985,-1.156,0.201,-0.067,4.710,93.595,-179.099,0.0,95.0
514046,-1.203,-0.023,-0.058,44.542,92.115,-191.008,0.0,138.0
514114,-1.703,0.159,-0.066,140.832,89.053,-214.519,0.0,0.0
514180,-1.796,0.323,-0.092,200.305,109.618,-250.137,0.0,0.0
514244,-1.542,0.524,-0.121,67.160,78.771,-250.137,0.0,0.0
514310,-1.002,0.054,0.219,59.084,64.878,-168.046,0.0,0.0
514374,-1.024,0.275,0.108,128.954,31.870,-77.763,0.0,0.0
514440,-0.954,0.559,0.137,109.588,14.779,-41.344,0.0,0.0
514504,-1.153,0.625,0.121,-2.153,0.519,26.863,0.0,0.0
514569,-1.205,0.428,0.112,-45.809,-10.695,123.000,0.0,0.0
514634,-1.462,0.409,-0.018,-85.191,-34.893,188.855,0.0,0.0
514702,-2.000,0.034,-0.189,-65.557,-72.985,250.130,0.0,0.0
514767,-1.619,0.197,-0.244,-86.008,-58.939,250.130,0.0,0.0
514833,-0.846,0.275,-0.160,-165.733,-34.756,250.130,0.0,0.0
514897,-0.534,0.191,-0.043,-189.412,-23.527,196.565,0.0,0.0
514963,-0.483,0.162,0.060,-96.840,-3.107,95.542,0.0,0.0
515025,-0.764,0.328,0.035,-26.260,28.763,-9.328,0.0,164.0
515091,-0.968,0.195,0.049,17.985,48.725,-95.580,0.0,0.0
515155,-0.949,0.132,0.063,73.366,73.015,-148.473,0.0,0.0
515220,-1.333,0.112,0.025,93.229,82.435,-224.481,0.0,189.0
515289,-1.663,0.048,0.035,178.229,86.229,-250.137,0.0,0.0
515354,-1.426,0.353,-0.116,170.282,70.198,-237.038,0.0,0.0
515419,-1.068,0.298,0.005,72.145,37.031,-176.214,0.0,0.0
515484,-1.069,0.265,0.037,71.481,36.969,-96.221,0.0,0.0
515549,-0.971,0.342,0.143,72.718,20.359,-41.954,0.0,0.0
515614,-0.985,0.438,0.152,46.244,13.672,-18.389,0.0,0.0
515680,-1.182,0.439,0.124,9.389,12.137,23.855,0.0,0.0
515744,-1.300,0.321,0.064,-47.298,-0.328,108.656,0.0,0.0
515810,-1.760,0.157,-0.075,-103.802,-36.504,210.260,0.0,0.0
515878,-1.559,0.107,-0.110,-87.672,-51.771,250.130,0.0,0.0
515943,-0.991,0.298,-0.121,-80.878,-38.817,245.695,0.0,0.0
516008,-0.819,0.321,-0.139,-118.206,-36.969,192.244,0.0,0.0
516074,-0.701,0.215,-0.023,-112.290,-34.313,126.038,0.0,0.0
516140,-0.817,0.259,-0.018,-67.344,-13.519,59.328,0.0,0.0
516204,-0.806,0.251,0.040,-27.214,13.740,-18.336,0.0,0.0
516270,-0.981,0.202,0.067,20.557,48.908,-85.473,0.0,0.0
516335,-1.005,0.194,0.060,50.489,72.519,-154.595,0.0,0.0
516403,-1.360,0.164,0.094,80.481,68.824,-199.603,0.0,0.0
516511,-1.240,0.275,0.000,166.626,56.336,-204.359,0.0,0.0
516577,-0.993,0.426,-0.041,69.023,35.733,-167.336,0.0,0.0
516642,-0.967,0.282,0.089,14.198,33.534,-109.489,0.0,0.0
516708,-1.000,0.253,0.167,32.649,24.229,-52.756,0.0,0.0
516773,-1.047,0.362,0.127,44.664,15.260,-17.176,0.0,0.0
516838,-1.166,0.469,0.081,5.748,10.664,25.939,0.0,0.0
516903,-1.228,0.327,0.058,-72.031,-10.794,92.252,0.0,0.0
516969,-1.820,0.009,-0.053,-78.244,-62.405,191.321,0.0,0.0
517038,-1.714,0.066,-0.138,-48.954,-78.046,250.130,0.0,0.0
517102,-0.990,0.228,-0.104,-69.511,-62.206,250.130,0.0,0.0
517168,-0.608,0.267,-0.075,-99.740,-47.931,210.893,0.0,0.0
517233,-0.548,0.259,-0.018,-86.336,-30.107,121.458,0.0,0.0
517299,-0.634,0.286,0.005,-56.328,-1.466,27.962,0.0,0.0
517364,-0.864,0.324,0.021,-22.878,35.580,-71.618,0.0,0.0
517430,-1.116,0.222,0.046,10.389,67.908,-131.901,0.0,0.0
517495,-1.115,0.135,0.073,37.893,76.565,-170.092,0.0,0.0
517560,-1.399,0.089,0.101,91.305,67.824,-180.603,0.0,0.0
517628,-1.289,0.207,0.046,160.229,67.534,-187.153,0.0,0.0
517694,-1.052,0.425,-0.031,97.298,51.863,-181.641,0.0,0.0
517760,-0.903,0.272,0.108,28.145,43.397,-139.534,0.0,0.0
517825,-1.003,0.240,0.171,40.252,33.618,-81.267,0.0,0.0
517891,-1.037,0.308,0.208,57.939,14.466,-29.466,0.0,0.0
517956,-1.047,0.366,0.136,40.374,1.611,15.443,0.0,0.0
518022,-1.262,0.398,0.049,-5.863,-6.099,70.588,0.0,0.0
518086,-1.438,0.270,-0.025,-62.878,-24.130,150.748,0.0,0.0
518153,-1.855,0.107,-0.121,-65.519,-62.107,232.092,0.0,0.0
518221,-1.530,0.139,-0.166,-84.008,-66.473,250.130,0.0,0.0
518287,-0.803,0.196,-0.055,-91.038,-50.931,250.130,0.0,0.0
518352,-0.467,0.255,-0.045,-97.466,-33.084,184.366,0.0,0.0
518418,-0.444,0.255,-0.005,-76.466,-10.130,83.718,0.0,0.0
518483,-0.659,0.359,0.024,-50.359,26.229,-24.473,0.0,0.0
518549,-1.056,0.249,0.029,-18.511,56.214,-119.496,0.0,0.0
518615,-1.098,0.167,0.067,38.412,83.008,-158.290,0.0,0.0
518680,-1.352,0.204,0.011,64.962,84.962,-178.588,0.0,0.0
518749,-1.523,0.111,0.056,128.031,67.443,-202.939,0.0,0.0
518814,-1.169,0.266,0.001,160.527,61.565,-185.878,0.0,0.0
518880,-1.000,0.429,-0.038,58.198,44.252,-156.565,0.0,0.0
518945,-0.898,0.253,0.136,10.198,41.450,-107.260,0.0,0.0
519011,-0.953,0.264,0.194,33.542,26.870,-61.870,0.0,0.0
519076,-1.058,0.374,0.167,44.282,13.527,-31.557,0.0,0.0
519142,-1.337,0.357,0.060,10.366,-4.656,25.725,0.0,0.0
519207,-1.427,0.189,0.021,-21.969,-26.969,146.618,0.0,0.0
519273,-1.770,0.139,-0.100,-68.901,-54.878,245.756,0.0,0.0
519342,-1.360,0.209,-0.152,-100.985,-71.695,250.130,0.0,0.0
519408,-0.796,0.254,-0.091,-92.626,-49.794,216.328,0.0,0.0
519474,-0.612,0.342,-0.113,-105.450,-34.183,145.786,0.0,0.0
519539,-0.722,0.301,-0.072,-104.031,-18.573,70.626,0.0,0.0
519605,-0.853,0.256,-0.029,-85.153,-0.366,20.008,0.0,0.0
519670,-1.040,0.193,-0.011,-38.061,20.809,-39.084,0.0,0.0
519736,-1.091,0.137,0.023,42.130,53.221,-79.756,0.0,0.0
519845,-1.228,0.295,-0.010,59.542,89.092,-155.008,0.0,0.0
519911,-1.302,0.130,0.078,85.969,87.870,-183.038,0.0,0.0
519980,-1.042,0.254,0.075,119.527,87.351,-170.015,0.0,0.0
520046,-1.013,0.311,0.056,55.733,61.244,-142.015,0.0,0.0
520112,-1.008,0.204,0.181,63.023,49.504,-95.687,0.0,0.0
520177,-0.984,0.358,0.167,52.962,26.412,-50.634,0.0,0.0
520243,-1.100,0.356,0.153,16.183,7.008,-15.000,0.0,0.0
520308,-1.308,0.351,0.082,-1.611,-10.664,43.962,0.0,0.0
520374,-1.285,0.206,0.047,-48.962,-43.557,135.855,0.0,0.0
520440,-1.945,0.031,-0.137,-44.557,-88.214,217.939,0.0,0.0
520506,-1.390,0.128,-0.168,-23.534,-84.519,250.130,0.0,0.0
520574,-0.838,0.336,-0.151,-53.603,-49.321,236.244,0.0,0.0
520641,-0.706,0.328,-0.136,-120.481,-38.153,172.122,0.0,0.0
520707,-0.666,0.196,-0.021,-106.802,-25.466,104.802,0.0,0.0
520772,-0.735,0.252,0.017,-63.855,1.366,35.366,0.0,0.0
520839,-0.883,0.212,0.050,-20.206,27.878,-49.282,0.0,0.0
520904,-1.013,0.191,0.050,58.466,62.702,-130.534,0.0,0.0
520970,-1.153,0.240,-0.021,90.122,86.931,-185.550,0.0,0.0
521035,-1.524,0.191,0.010,92.176,80.435,-237.725,0.0,0.0
521105,-1.327,0.184,0.032,128.802,75.679,-222.450,0.0,0.0
521170,-1.098,0.337,-0.013,69.145,53.137,-173.382,0.0,0.0
521237,-0.981,0.182,0.132,57.321,34.260,-99.977,0.0,0.0
521303,-0.947,0.230,0.120,93.290,10.061,-32.351,0.0,0.0
521368,-0.930,0.403,0.123,95.664,1.794,-2.802,0.0,0.0
521434,-1.056,0.405,0.075,58.023,-0.664,25.534,0.0,0.0
521500,-1.224,0.337,0.002,17.672,7.290,84.771,0.0,0.0
521566,-1.575,0.285,-0.033,-51.710,0.031,182.427,0.0,0.0
521631,-1.823,0.153,-0.084,-145.061,-20.580,250.130,0.0,0.0
521701,-1.192,0.150,0.025,-144.672,-46.656,248.519,0.0,0.0
521766,-0.767,0.178,0.074,-101.351,-41.183,194.450,0.0,0.0
521833,-0.622,0.206,0.080,-87.137,-36.466,129.603,0.0,0.0
521904,-0.591,0.170,0.105,-69.008,-30.863,46.260,0.0,0.0
521968,-0.698,0.192,0.140,5.824,-18.427,-38.771,0.0,0.0
522034,-0.928,0.186,0.107,100.221,-9.710,-112.534,0.0,0.0
522098,-1.043,0.188,0.048,176.389,3.992,-151.687,0.0,0.0
522164,-1.648,0.405,-0.114,174.855,9.771,-197.107,0.0,0.0
522228,-1.504,0.257,-0.077,147.504,10.641,-203.137,0.0,0.0
522296,-0.964,0.336,-0.034,113.137,27.031,-164.817,0.0,0.0
522361,-0.840,0.274,-0.032,63.954,21.160,-118.053,0.0,0.0
522426,-0.814,0.334,-0.025,83.870,36.611,-102.359,0.0,0.0
522491,-0.968,0.445,-0.041,76.664,48.565,-116.466,0.0,0.0
522556,-1.011,0.360,0.023,32.450,53.954,-58.466,0.0,0.0
522620,-1.241,0.170,0.050,21.985,33.939,60.435,0.0,0.0
522686,-1.389,0.107,0.055,33.076,5.008,208.893,0.0,0.0
522750,-1.763,0.270,-0.026,6.824,-30.863,250.130,0.0,0.0
522816,-1.557,0.265,0.064,-42.229,-59.328,250.130,0.0,0.0
522884,-1.235,0.222,0.154,-82.969,-100.160,230.763,0.0,0.0
522949,-0.794,0.135,0.221,-60.756,-114.718,170.748,0.0,0.0
523008,-0.474,0.096,0.203,5.588,-97.740,96.771,0.0,97.0
523067,-0.302,0.180,0.189,57.634,-66.672,21.626,0.0,97.0
523169,-0.859,0.354,-0.072,86.634,-40.779,-176.466,0.0,93.0
523235,-1.425,0.279,-0.199,140.412,-53.061,-250.137,0.0,0.0
523299,-1.765,0.152,-0.337,173.771,-41.229,-232.550,193.0,0.0
523363,-1.760,0.228,-0.373,199.107,-57.252,-209.221,183.0,0.0
523430,-1.136,0.263,-0.295,223.328,-67.008,-161.183,190.0,0.0
523496,-0.863,0.428,-0.294,186.382,-57.786,-119.160,192.0,0.0
523560,-0.791,0.499,-0.269,87.282,-42.962,-101.015,198.0,0.0
523626,-0.767,0.396,-0.100,30.908,0.656,-81.076,0.0,0.0
523692,-0.959,0.422,-0.044,26.374,39.962,-65.886,0.0,0.0
523756,-1.164,0.457,0.007,-7.115,68.748,-20.802,0.0,0.0
523822,-1.092,0.311,0.156,-87.282,63.359,79.176,0.0,0.0
523886,-1.613,0.182,0.186,-138.954,27.847,175.473,0.0,0.0
523949,-1.997,-0.083,0.065,-156.237,-42.511,250.130,151.0,0.0
524013,-1.304,0.061,0.100,-109.817,-73.260,250.130,139.0,0.0
524075,-0.875,0.094,0.066,-97.954,-76.504,224.824,130.0,0.0
524140,-0.552,0.148,0.089,-68.695,-61.496,155.725,0.0,0.0
524206,-0.430,0.176,0.086,-42.328,-42.710,56.389,0.0,0.0
524270,-0.646,0.235,0.062,12.527,-21.542,-63.053,0.0,0.0
524331,-0.966,0.209,-0.009,81.160,5.481,-145.443,112.0,0.0
524391,-1.299,0.237,-0.113,132.534,17.260,-206.809,110.0,0.0
524451,-1.382,0.210,-0.174,113.588,32.313,-201.504,111.0,0.0
524514,-1.570,0.242,-0.141,75.389,21.534,-185.191,115.0,0.0
524575,-1.308,0.082,0.020,133.260,16.107,-155.908,119.0,0.0
524637,-1.042,0.244,-0.031,186.542,13.870,-120.305,129.0,0.0
524695,-0.933,0.382,-0.037,136.504,-6.282,-91.664,88.0,0.0
524754,-0.791,0.328,0.062,98.214,-1.298,-70.397,88.0,0.0
524813,-0.828,0.363,0.104,72.710,3.695,-53.947,86.0,0.0
524871,-0.912,0.327,0.108,56.160,8.313,-32.107,84.0,0.0
524930,-1.132,0.294,0.078,43.954,16.145,8.198,78.0,0.0
524988,-1.175,0.307,0.044,-0.511,16.534,68.107,71.0,0.0
525048,-1.348,0.172,-0.017,-85.458,7.069,145.504,62.0,0.0
525105,-1.560,0.153,-0.124,-131.779,1.313,200.588,57.0,0.0
525162,-1.297,0.109,-0.056,-124.336,-0.504,208.076,60.0,0.0
525220,-1.162,0.171,-0.141,-104.985,5.191,176.214,78.0,0.0
525279,-1.009,0.085,-0.094,-84.954,5.664,139.702,69.0,0.0
525336,-0.817,0.094,-0.074,-36.252,2.130,81.695,51.0,0.0
525392,-0.719,0.249,-0.030,-6.198,9.298,22.893,44.0,0.0
525449,-0.810,0.340,-0.091,-37.374,6.931,-26.947,44.0,0.0
525505,-0.712,0.241,0.164,-11.649,8.260,-32.046,48.0,0.0
525565,-0.877,0.532,0.161,39.954,35.053,-75.298,51.0,0.0
525623,-1.002,0.505,0.118,16.527,19.924,-52.015,59.0,0.0
525679,-0.925,0.429,0.152,6.702,-4.115,-41.130,49.0,0.0
525735,-0.911,0.414,0.157,36.511,-20.435,-39.099,49.0,0.0
525793,-0.987,0.497,0.170,37.702,-32.031,-22.137,51.0,0.0
525849,-0.907,0.528,0.218,30.008,-31.282,-5.641,49.0,0.0
525906,-0.880,0.581,0.210,5.405,-22.550,4.832,50.0,0.0
525964,-0.795,0.557,0.256,-14.336,-27.191,15.511,62.0,0.0
526021,-0.722,0.518,0.319,-10.176,-22.832,27.023,49.0,0.0
526075,-0.656,0.555,0.316,-10.450,-9.840,39.641,57.0,0.0
526133,-0.694,0.561,0.297,-28.954,1.824,43.473,47.0,0.0
526233,-0.644,0.530,0.340,-45.130,15.656,52.870,51.0,0.0
526289,-0.684,0.685,0.347,-36.908,36.916,54.489,51.0,0.0
526347,-0.631,0.759,0.290,-48.191,53.901,43.924,61.0,0.0
526400,-0.926,0.839,0.161,-60.702,62.718,43.305,39.0,133.0
526455,-0.783,0.576,0.097,-32.763,43.802,52.397,36.0,0.0
526512,-0.583,0.661,0.045,-4.802,48.076,37.924,36.0,0.0
526580,-0.719,0.685,0.037,-20.015,45.405,10.664,0.0,0.0
526646,-0.660,0.511,0.158,-1.382,26.244,0.489,0.0,0.0
526711,-0.718,0.625,0.174,21.695,15.473,-9.130,0.0,0.0
526777,-0.657,0.675,0.157,41.053,7.053,-10.634,0.0,0.0
526842,-0.637,0.776,0.133,32.962,-0.824,-21.664,0.0,0.0
526908,-0.677,0.850,0.088,38.725,-5.649,-28.824,0.0,0.0
526973,-0.722,0.865,0.061,29.992,-7.672,-30.107,0.0,0.0
527031,-0.734,0.833,0.016,6.061,10.489,-15.550,58.0,0.0
527088,-0.750,0.726,0.009,-39.000,10.740,-11.611,58.0,0.0
527157,-0.699,0.539,0.089,-43.725,10.618,-4.542,0.0,0.0
527214,-0.920,0.611,0.063,-45.847,6.069,-21.412,58.0,0.0
527280,-1.024,0.535,0.085,-15.863,-9.641,-19.855,0.0,0.0
527345,-0.849,0.411,0.121,-1.687,-25.191,3.290,199.0,0.0
527420,-0.595,0.462,0.277,17.763,-27.359,28.824,0.0,0.0
527484,-0.509,0.662,0.346,29.336,-24.351,8.443,0.0,0.0
527539,-0.606,0.757,0.359,-7.397,-16.832,13.321,16.0,0.0
527593,-0.721,0.709,0.347,-8.542,-14.191,35.519,16.0,0.0
527654,-0.756,0.839,0.264,23.595,-0.649,33.168,0.0,129.0
527718,-0.847,1.025,0.069,-22.359,18.527,18.084,0.0,132.0
527779,-0.876,0.948,0.097,-83.008,26.756,22.588,0.0,132.0
527840,-0.934,0.709,0.123,-60.908,-6.893,24.504,0.0,121.0
527901,-0.546,0.520,0.218,12.183,-35.740,48.168,0.0,130.0
527959,-0.273,0.557,0.144,17.427,-27.542,48.214,0.0,69.0
528016,-0.321,0.566,0.095,-20.069,-3.015,16.298,0.0,67.0
528073,-0.481,0.450,0.090,-27.000,10.290,-29.557,0.0,67.0
528131,-0.729,0.452,0.080,-8.511,23.305,-93.634,0.0,66.0
528188,-1.192,0.294,0.009,31.626,31.130,-169.443,0.0,63.0
528250,-1.319,0.207,-0.051,95.153,52.847,-193.183,0.0,111.0
528310,-1.291,0.366,-0.158,34.534,65.511,-163.420,189.0,110.0
528369,-1.466,0.215,-0.097,-36.076,46.947,-127.779,189.0,108.0
528429,-1.095,0.003,0.102,44.710,40.992,-74.168,191.0,107.0
528488,-0.884,0.267,0.006,116.015,32.481,-51.061,0.0,107.0
528547,-0.664,0.317,0.062,91.069,11.611,-46.290,0.0,107.0
528608,-0.755,0.320,0.085,81.710,17.420,-39.252,0.0,109.0
528672,-0.848,0.354,0.131,52.634,20.443,-33.237,0.0,190.0
528735,-1.041,0.413,0.098,-13.496,22.824,-16.336,0.0,116.0
528800,-1.138,0.203,0.156,-42.481,3.115,25.855,0.0,0.0
528861,-1.364,0.238,0.056,0.718,-13.748,71.924,0.0,123.0
528926,-1.397,0.205,0.030,-20.328,-40.954,131.916,0.0,0.0
528988,-1.806,0.207,-0.133,-47.168,-67.893,172.718,0.0,145.0
529049,-1.242,0.121,-0.048,-66.267,-80.893,197.733,164.0,162.0
529113,-0.642,0.171,0.039,-39.435,-61.802,185.786,0.0,176.0
529171,-0.394,0.271,-0.011,-50.878,-40.069,134.557,0.0,74.0
529228,-0.440,0.288,0.021,-64.466,-22.382,68.725,0.0,71.0
529333,-0.833,0.246,0.072,2.565,18.046,-100.603,185.0,75.0
529390,-1.229,0.163,0.004,77.313,32.901,-152.794,191.0,75.0
529453,-1.236,0.213,-0.068,127.206,47.206,-177.351,149.0,0.0
529516,-1.332,0.321,-0.129,75.130,45.863,-160.931,0.0,178.0
529581,-1.344,0.139,-0.014,74.344,29.893,-148.725,193.0,196.0
529646,-0.991,0.150,0.014,175.031,33.695,-106.931,195.0,0.0
529712,-0.827,0.443,-0.071,130.397,21.145,-79.336,0.0,0.0
529776,-0.813,0.407,0.077,40.802,24.679,-70.969,0.0,0.0
529845,-0.837,0.368,0.188,-5.122,30.870,-61.176,0.0,0.0
529909,-1.148,0.291,0.203,-5.618,18.901,-40.290,0.0,0.0
529975,-1.393,0.274,0.131,15.115,5.244,23.168,0.0,0.0
530040,-1.360,0.295,0.039,-29.145,-20.817,101.534,0.0,0.0
530103,-1.623,0.151,-0.052,-85.206,-56.450,176.702,0.0,163.0
530168,-1.440,0.159,-0.117,-95.847,-80.275,208.710,0.0,0.0
530234,-0.823,0.176,-0.058,-78.000,-68.656,196.130,0.0,0.0
530299,-0.646,0.311,-0.114,-87.115,-54.542,146.954,0.0,0.0
530364,-0.682,0.259,-0.074,-94.443,-47.221,82.626,0.0,0.0
530430,-0.766,0.210,-0.015,-56.763,-23.351,30.275,0.0,170.0
530492,-0.944,0.241,0.001,-3.115,6.069,-35.916,0.0,131.0
530553,-1.027,0.215,0.026,50.504,33.527,-79.595,0.0,134.0
530619,-0.976,0.247,0.034,70.130,65.527,-121.886,0.0,0.0
530684,-1.264,0.288,0.031,39.000,78.886,-154.641,0.0,0.0
530749,-1.353,0.096,0.096,68.504,70.481,-158.412,0.0,181.0
530814,-0.996,0.183,0.089,121.626,62.191,-131.290,0.0,0.0
530879,-0.881,0.365,0.028,94.382,51.260,-109.527,0.0,0.0
530945,-0.849,0.339,0.097,28.672,42.641,-89.168,0.0,0.0
531013,-0.971,0.283,0.153,22.824,38.069,-49.023,0.0,0.0
531079,-1.049,0.267,0.150,20.504,21.023,-3.443,0.0,0.0
531143,-1.344,0.289,0.118,17.191,3.107,56.267,200.0,0.0
531208,-1.170,0.197,0.090,-16.473,-36.053,128.099,187.0,0.0
531272,-1.727,0.121,-0.003,-39.931,-70.672,203.076,173.0,0.0
531336,-1.523,0.220,0.004,-53.191,-91.840,210.962,159.0,0.0
531398,-1.106,0.290,0.110,-58.611,-113.267,189.725,160.0,0.0
531464,-0.850,0.521,0.299,-68.840,-123.130,174.092,195.0,0.0
531529,-0.778,0.635,0.367,-123.344,-151.626,139.824,0.0,152.0
531593,-0.708,0.487,0.553,-135.275,-180.992,108.733,0.0,154.0
531653,-0.417,0.665,0.567,-163.870,-164.397,64.550,0.0,122.0
531715,-0.224,0.349,0.708,-224.260,-137.443,4.519,0.0,116.0
531774,-0.079,-0.003,0.900,-114.794,-93.649,-11.336,180.0,114.0
531830,-0.054,0.216,0.867,-116.916,-79.786,-11.107,126.0,111.0
531887,0.062,-0.124,0.960,-83.137,-49.802,-41.580,125.0,108.0
531942,0.285,-0.055,0.866,-51.496,-19.191,-48.977,124.0,106.0
531998,0.242,-0.155,0.798,-59.412,-8.260,-51.855,123.0,103.0
532057,0.298,-0.125,0.758,-59.824,-11.878,-43.863,126.0,100.0
532112,0.403,-0.217,0.779,-43.863,-17.229,-52.031,127.0,97.0
532167,0.375,-0.107,0.833,-47.023,-20.855,-43.305,128.0,94.0
532224,0.457,-0.254,0.907,-49.198,-15.771,-24.489,131.0,91.0
532279,0.474,-0.273,0.963,-55.855,-25.061,-20.824,132.0,87.0
532334,0.434,-0.245,0.990,-21.221,-19.954,-29.023,133.0,84.0
532386,0.400,-0.213,0.943,-32.221,-14.313,-32.885,88.0,79.0
532481,0.339,-0.217,0.950,-25.061,11.550,-39.374,76.0,75.0
532535,0.403,-0.251,0.916,-31.153,23.076,-37.893,77.0,70.0
532586,0.334,-0.236,0.903,-25.099,22.481,-41.229,75.0,69.0
532636,0.341,-0.237,0.866,-29.771,18.389,-44.359,75.0,67.0
532687,0.367,-0.222,0.804,-23.397,17.901,-49.038,75.0,65.0
532738,0.363,-0.268,0.872,-28.267,18.511,-55.863,76.0,64.0
532790,0.330,-0.235,0.838,-24.130,19.847,-57.756,77.0,81.0
532848,0.361,-0.312,0.904,-34.031,28.733,-62.901,77.0,0.0
532907,0.337,-0.302,1.001,-32.710,32.130,-74.344,79.0,0.0
532969,0.393,-0.307,1.024,-40.130,40.229,-74.511,81.0,0.0
533027,0.268,-0.297,1.035,-67.427,33.634,-72.649,83.0,0.0
533087,0.147,-0.289,0.978,-46.351,23.237,-83.740,85.0,0.0
533146,0.203,-0.318,0.958,-39.924,26.771,-88.145,88.0,0.0
533206,0.201,-0.336,0.931,-41.885,33.931,-91.763,91.0,0.0
533263,0.266,-0.379,0.898,-39.550,32.580,-90.351,58.0,0.0
533320,0.360,-0.382,0.865,-38.214,29.710,-87.313,57.0,0.0
533378,0.337,-0.398,0.845,-33.328,26.214,-80.183,57.0,0.0
533436,0.359,-0.369,0.836,-35.565,18.344,-72.076,59.0,0.0
533497,0.446,-0.324,0.813,-29.397,14.626,-53.214,84.0,0.0
533556,0.354,-0.379,0.996,-20.023,16.733,-47.679,57.0,0.0
533615,0.459,-0.233,0.887,-18.221,13.351,-36.366,89.0,0.0
533678,0.430,-0.217,0.950,-21.664,10.618,-24.885,140.0,0.0
533736,0.254,-0.178,0.982,-14.679,2.832,-31.160,76.0,0.0
533794,0.354,-0.210,0.925,0.679,0.740,-32.786,73.0,0.0
533853,0.396,-0.272,0.900,-15.397,3.847,-26.000,73.0,0.0
533911,0.380,-0.297,0.872,-16.718,6.534,-33.374,75.0,0.0
533970,0.411,-0.285,0.847,-6.679,8.198,-42.641,79.0,0.0
534032,0.453,-0.213,0.781,-14.756,12.870,-35.023,82.0,0.0
534091,0.433,-0.267,0.781,-5.321,17.031,-32.168,85.0,0.0
534151,0.345,-0.391,0.746,13.344,18.275,-39.550,88.0,0.0
534210,0.314,-0.361,0.578,53.687,35.107,-54.794,92.0,0.0
534270,0.147,-0.386,0.447,167.000,79.595,-90.450,96.0,200.0
534330,-0.138,0.163,0.426,122.412,139.916,-148.412,103.0,193.0
534390,-0.514,0.291,0.527,136.725,175.893,-175.130,109.0,185.0
534451,-1.018,-0.037,0.601,233.534,223.595,-244.557,115.0,185.0
534516,-1.385,0.656,0.196,250.130,208.718,-250.137,124.0,0.0
534579,-1.995,0.890,-0.089,183.557,148.939,-250.137,0.0,143.0
534640,-1.877,0.056,0.158,229.550,138.473,-250.137,0.0,129.0
534702,-1.735,0.430,-0.202,250.130,39.000,-201.656,0.0,119.0
534763,-1.221,0.607,-0.068,155.084,-5.534,-114.405,0.0,114.0
534829,-0.990,0.548,0.046,91.992,-11.023,-87.863,0.0,0.0
534895,-0.741,0.576,0.097,18.725,2.244,-62.817,0.0,0.0
534960,-0.886,0.432,0.098,-33.076,11.763,-4.870,0.0,176.0
535021,-1.187,0.308,0.051,-47.328,13.076,88.565,0.0,125.0
535087,-1.521,0.217,-0.021,-69.626,4.168,182.802,0.0,137.0
535149,-1.611,0.213,-0.069,-117.214,-10.427,245.198,0.0,149.0
535220,-1.327,0.224,-0.062,-159.679,-22.412,234.137,0.0,167.0
535284,-0.955,0.221,0.002,-132.420,-14.847,175.221,0.0,0.0
535350,-0.738,0.310,-0.046,-114.237,-4.473,111.611,0.0,0.0
535414,-0.693,0.280,-0.011,-116.924,0.496,53.962,0.0,0.0
535523,-0.832,0.245,0.079,-51.817,16.145,-10.389,0.0,0.0
535587,-1.011,0.226,0.096,-12.443,31.153,-51.733,0.0,0.0
535655,-1.134,0.177,0.141,36.580,52.664,-87.573,0.0,0.0
535720,-1.004,0.197,0.117,61.038,65.366,-107.122,0.0,0.0
535785,-1.182,0.169,0.104,41.878,56.290,-111.863,0.0,0.0
535851,-1.212,0.088,0.144,92.214,42.374,-101.305,0.0,0.0
535915,-0.964,0.268,0.061,122.511,39.366,-95.008,0.0,0.0
535980,-0.786,0.396,0.044,55.550,36.870,-92.672,0.0,0.0
536045,-0.836,0.332,0.097,-23.206,38.519,-82.344,0.0,0.0
536110,-0.943,0.201,0.236,-33.397,32.298,-50.939,0.0,0.0
536175,-1.090,0.188,0.249,-6.206,11.840,-14.450,0.0,0.0
536231,-1.238,0.267,0.162,17.893,-9.443,32.000,16.0,0.0
536293,-1.379,0.290,0.016,-9.076,-29.840,61.786,126.0,0.0
536357,-1.310,0.188,-0.021,-47.618,-52.443,122.481,0.0,0.0
536416,-1.532,0.206,-0.171,-75.489,-65.740,162.023,0.0,82.0
536475,-1.151,0.184,-0.124,-94.313,-65.473,175.267,0.0,93.0
536537,-0.733,0.258,-0.082,-91.115,-48.115,150.672,0.0,129.0
536598,-0.561,0.294,-0.081,-104.374,-30.489,97.954,0.0,137.0
536657,-0.711,0.252,-0.058,-93.786,-16.534,48.885,0.0,97.0
536717,-0.890,0.218,-0.023,-59.489,-0.817,15.618,0.0,102.0
536775,-1.037,0.255,-0.019,-21.550,23.718,-25.992,0.0,43.0
536836,-1.120,0.262,0.028,-8.191,44.565,-63.023,0.0,113.0
536895,-0.915,0.141,0.111,4.817,75.534,-84.840,0.0,100.0
536954,-1.040,0.195,0.139,-12.389,85.840,-85.481,0.0,89.0
537013,-1.228,0.029,0.182,7.550,68.244,-90.267,0.0,90.0
537073,-1.008,0.069,0.229,90.573,61.130,-74.031,0.0,110.0
537133,-0.903,0.319,0.114,89.664,57.336,-74.221,0.0,116.0
537197,-0.892,0.354,0.135,-0.366,37.756,-72.740,0.0,178.0
537264,-0.902,0.196,0.229,-35.504,28.847,-47.855,0.0,173.0
537317,-0.999,0.216,0.259,-25.863,10.756,-24.153,17.0,176.0
537367,-1.071,0.198,0.208,-21.344,-11.237,-6.618,17.0,127.0
537414,-1.129,0.252,0.153,-13.443,-21.687,20.969,17.0,68.0
537460,-1.188,0.429,-0.003,-36.305,-21.359,36.603,16.0,57.0
537518,-1.244,0.482,-0.155,-108.084,-32.656,56.130,0.0,54.0
537575,-1.358,0.382,-0.350,-162.886,-51.427,97.649,0.0,68.0
537633,-1.301,0.465,-0.510,-210.740,-38.832,130.985,0.0,71.0
537690,-1.045,0.192,-0.200,-159.046,-48.878,168.542,195.0,57.0
537750,-0.801,0.266,-0.084,-59.015,-54.847,167.756,188.0,65.0
537808,-0.687,0.442,0.004,-39.687,-36.481,128.748,183.0,100.0
537873,-0.687,0.372,0.173,-32.847,-27.237,95.435,177.0,0.0
537938,-0.737,0.358,0.273,-11.290,-17.183,54.191,0.0,0.0
537997,-0.719,0.355,0.277,36.740,4.099,-4.733,0.0,93.0
538056,-0.795,0.444,0.192,24.328,22.962,-55.366,0.0,92.0
538113,-0.914,0.340,0.178,0.450,30.603,-100.931,161.0,93.0
538173,-0.950,0.207,0.188,13.298,27.603,-108.176,159.0,143.0
538235,-1.126,0.270,0.133,77.000,19.992,-101.573,160.0,138.0
538295,-1.330,0.334,-0.002,91.748,6.573,-84.786,160.0,137.0
538354,-1.082,0.351,0.001,66.244,9.702,-56.122,162.0,135.0
538413,-0.803,0.359,0.024,37.748,14.015,-51.695,163.0,116.0
538471,-0.726,0.302,0.019,23.878,19.771,-51.550,164.0,115.0
538572,-0.803,0.345,0.050,32.817,38.969,-65.504,165.0,113.0
538632,-0.973,0.384,0.085,11.924,50.397,-78.908,167.0,114.0
538692,-1.079,0.338,0.128,-22.954,52.771,-77.351,0.0,116.0
538754,-1.329,0.272,0.165,-31.359,38.015,-46.962,200.0,136.0
538808,-1.262,0.136,0.171,-28.603,-17.260,9.649,17.0,124.0
538865,-1.393,0.006,0.129,5.053,-66.672,83.931,187.0,84.0
538920,-1.523,0.067,-0.044,44.718,-99.588,154.137,152.0,79.0
538977,-1.286,0.196,-0.094,29.725,-104.679,191.733,147.0,86.0
539033,-1.155,0.224,-0.130,-29.511,-103.611,197.756,142.0,94.0
539089,-0.941,0.189,-0.044,-52.679,-102.092,165.588,139.0,104.0
539147,-0.754,0.159,0.009,-32.481,-95.000,111.389,136.0,121.0
539205,-0.635,0.131,0.033,-0.298,-88.656,55.618,138.0,128.0
539266,-0.644,0.226,0.024,47.847,-76.176,-27.450,0.0,57.0
539327,-0.746,0.255,0.010,94.809,-60.076,-117.763,0.0,125.0
539386,-1.023,0.401,0.003,153.557,-46.382,-201.580,188.0,109.0
539439,-1.188,0.403,-0.014,193.015,-27.504,-250.137,66.0,106.0
539497,-1.284,0.456,-0.050,178.298,3.038,-250.137,70.0,0.0
539555,-1.500,0.437,-0.121,106.901,26.427,-250.137,67.0,0.0
539614,-1.343,0.167,0.046,29.053,31.115,-232.511,74.0,0.0
539671,-1.207,-0.043,0.167,72.832,36.542,-125.198,60.0,0.0
539741,-0.988,0.157,0.144,110.832,14.382,-26.435,65.0,0.0
539799,-0.810,0.199,0.218,72.656,7.885,13.908,69.0,0.0
539857,-0.722,0.127,0.325,22.466,4.992,33.099,87.0,0.0
539917,-0.766,-0.042,0.403,-37.214,5.740,39.908,82.0,0.0
539975,-0.834,-0.261,0.477,-47.473,9.015,36.618,84.0,0.0
540035,-0.924,-0.336,0.439,-44.939,-3.130,38.115,86.0,0.0
540093,-1.019,-0.311,0.429,-21.298,-17.206,53.702,84.0,0.0
540152,-0.987,-0.101,0.364,-28.840,-25.557,70.084,83.0,0.0
540211,-0.869,-0.035,0.362,-43.160,-28.061,54.878,83.0,0.0
540274,-0.817,0.004,0.354,-36.321,-16.046,42.962,91.0,0.0
540333,-0.729,0.130,0.320,-30.374,3.344,35.931,83.0,0.0
540392,-0.749,0.245,0.263,-38.206,32.542,24.649,81.0,0.0
540450,-0.999,0.328,0.145,-58.855,53.527,6.084,83.0,0.0
540509,-1.086,0.267,0.028,-69.588,48.008,-11.786,77.0,0.0
540567,-1.073,0.167,-0.004,-70.969,15.435,7.565,71.0,0.0
540625,-0.956,0.284,-0.031,-39.031,3.733,13.931,72.0,0.0
540684,-1.001,0.467,-0.136,-69.886,2.099,8.702,68.0,0.0
540741,-1.014,0.398,-0.105,-96.992,10.519,26.000,61.0,0.0
540796,-1.121,0.528,-0.231,-138.679,12.969,55.840,57.0,96.0
540848,-1.040,0.398,-0.165,-147.366,13.603,74.954,51.0,99.0
540899,-1.001,0.425,-0.161,-133.153,19.893,87.840,51.0,105.0
540951,-0.962,0.392,-0.145,-117.061,28.015,90.672,51.0,111.0
541003,-0.927,0.455,-0.160,-113.580,40.153,80.069,51.0,120.0
541068,-0.850,0.434,-0.118,-113.626,49.870,63.695,0.0,177.0
541125,-0.783,0.462,-0.048,-107.870,54.206,39.710,0.0,45.0
541181,-0.744,0.508,0.002,-90.176,57.008,20.847,0.0,47.0
541233,-0.801,0.492,0.031,-92.374,53.954,4.771,52.0,36.0
541281,-0.833,0.402,0.045,-71.504,51.802,-8.748,51.0,36.0
541329,-0.967,0.357,0.040,-31.573,45.496,-13.267,50.0,38.0
541376,-1.112,0.409,-0.018,-14.656,41.588,-27.099,50.0,40.0
