Timestamp(ms),AccelX(g),AccelY(g),AccelZ(g),GyroX(deg/s),GyroY(deg/s),GyroZ(deg/s),DistanceLeft(cm),DistanceRight(cm)
562756,-1.042,0.409,-0.069,-5.443,15.664,-41.489,0.0,62.0
562810,-1.521,0.373,-0.191,-0.733,48.878,-129.481,145.0,59.0
562863,-1.389,0.228,-0.081,20.649,68.878,-154.191,106.0,57.0
562913,-1.323,0.137,-0.015,48.092,76.626,-169.489,97.0,51.0
562965,-1.361,0.129,0.013,83.214,64.076,-168.931,121.0,58.0
563025,-1.189,0.116,0.105,131.397,55.214,-171.397,112.0,0.0
563086,-0.892,0.189,0.072,147.679,46.855,-158.847,123.0,0.0
563149,-0.710,0.269,0.051,123.977,26.969,-131.450,173.0,0.0
563212,-0.816,0.307,0.158,61.137,15.695,-89.763,107.0,0.0
563272,-1.163,0.299,0.212,52.931,13.672,-71.511,107.0,0.0
563332,-1.050,0.303,0.171,51.969,17.733,-18.366,104.0,0.0
563391,-1.284,0.519,-0.065,-45.954,22.756,38.137,100.0,0.0
563450,-1.594,0.261,-0.238,-166.771,-6.817,127.267,100.0,0.0
563511,-1.698,-0.077,-0.224,-178.626,-56.504,232.015,111.0,0.0
563572,-1.378,-0.016,-0.086,-80.656,-79.771,250.130,130.0,0.0
563629,-0.805,0.222,-0.089,-57.427,-70.916,250.130,155.0,89.0
563685,-0.507,0.234,-0.058,-102.916,-52.160,205.015,160.0,81.0
563744,-0.633,0.231,-0.089,-103.427,-24.985,127.237,190.0,58.0
563802,-0.956,0.275,-0.179,-60.160,7.939,35.321,186.0,66.0
563852,-1.253,0.365,-0.231,-35.038,37.099,-67.695,91.0,57.0
563906,-1.430,0.225,-0.190,-5.252,45.122,-132.580,141.0,57.0
563956,-1.268,0.174,-0.061,57.344,59.794,-181.427,91.0,57.0
564007,-1.265,0.086,0.024,115.481,67.702,-199.359,96.0,60.0
564060,-1.242,0.236,0.019,149.450,69.992,-216.771,101.0,68.0
564121,-1.138,0.251,-0.010,123.000,62.481,-222.351,126.0,0.0
564187,-0.892,0.109,0.084,116.389,49.580,-181.748,152.0,0.0
564246,-0.825,0.232,0.063,121.878,29.496,-111.229,107.0,0.0
564303,-1.021,0.307,0.137,82.290,12.824,-63.389,50.0,0.0
564363,-0.979,0.244,0.171,75.664,13.634,-22.687,103.0,0.0
564422,-0.995,0.394,0.081,48.153,26.634,28.237,89.0,0.0
564481,-1.539,0.429,-0.046,-43.183,31.298,60.939,95.0,0.0
564546,-1.630,0.177,-0.196,-152.847,2.023,152.557,0.0,0.0
564608,-1.714,-0.047,-0.140,-197.672,-45.878,250.130,136.0,0.0
564672,-1.136,0.041,-0.036,-114.313,-68.313,250.130,125.0,0.0
564733,-0.638,0.203,-0.034,-89.076,-65.290,215.198,122.0,0.0
564786,-0.460,0.165,-0.021,-100.534,-56.450,158.840,115.0,57.0
564838,-0.619,0.248,-0.043,-78.603,-35.626,91.214,115.0,65.0
564891,-0.883,0.359,-0.055,-28.160,-1.542,-6.756,114.0,59.0
564943,-1.229,0.464,-0.118,-14.687,38.298,-100.450,110.0,61.0
564995,-1.470,0.253,-0.155,-50.878,54.664,-142.000,94.0,58.0
565045,-1.272,0.121,0.002,-4.267,77.908,-156.374,94.0,56.0
565096,-1.230,0.039,0.051,59.573,84.122,-143.763,97.0,57.0
565152,-1.148,0.140,0.075,102.878,67.076,-136.382,107.0,67.0
565204,-0.953,0.166,0.092,134.908,56.122,-140.863,112.0,68.0
565258,-0.797,0.171,0.081,152.366,48.374,-132.916,115.0,79.0
565316,-0.712,0.225,0.053,151.198,36.863,-108.534,0.0,74.0
565380,-0.806,0.327,0.085,89.145,25.214,-68.344,0.0,156.0
565442,-1.168,0.230,0.190,42.214,16.641,-34.985,0.0,157.0
565506,-1.051,0.150,0.223,71.298,11.168,2.015,0.0,160.0
565571,-1.271,0.169,0.133,82.916,10.885,51.664,0.0,0.0
565683,-1.191,0.244,0.007,-74.107,8.053,118.840,0.0,0.0
565741,-1.056,0.083,0.098,-103.634,-17.969,152.000,0.0,84.0
565800,-1.085,0.239,0.020,-48.153,-23.504,132.351,0.0,90.0
565860,-1.023,0.243,-0.034,-41.748,-39.397,104.382,0.0,91.0
565919,-0.823,0.158,0.038,-25.588,-37.267,102.198,0.0,82.0
565977,-0.702,0.205,0.079,-28.542,-36.290,103.595,0.0,71.0
566040,-0.649,0.189,0.210,-23.870,-44.198,78.061,200.0,151.0
566098,-0.734,0.239,0.205,-7.893,-37.710,34.298,193.0,95.0
566157,-0.831,0.318,0.213,36.969,-29.275,-22.000,189.0,84.0
566220,-1.030,0.388,0.197,63.710,-10.588,-70.992,186.0,109.0
566278,-1.128,0.394,0.073,84.344,1.924,-110.168,175.0,86.0
566335,-0.971,0.399,-0.003,61.863,7.618,-111.076,175.0,87.0
566393,-1.260,0.199,-0.013,52.176,-12.695,-90.053,173.0,91.0
566457,-1.048,0.020,0.032,150.038,-22.656,-38.420,175.0,0.0
566521,-0.778,0.309,-0.081,186.382,-25.763,-15.840,177.0,0.0
566586,-0.609,0.317,-0.001,168.740,-33.412,-25.489,179.0,0.0
566650,-0.685,0.435,-0.066,140.397,-5.809,-48.176,182.0,0.0
566719,-0.767,0.444,0.004,59.435,20.046,-81.824,184.0,0.0
566781,-1.014,0.359,0.049,41.977,43.611,-91.664,0.0,156.0
566845,-1.627,0.349,0.039,57.824,49.099,-84.718,0.0,154.0
566908,-1.243,0.168,0.097,34.969,12.099,-6.832,0.0,158.0
566972,-1.376,0.094,0.119,31.214,-39.695,116.565,0.0,166.0
567036,-1.411,0.067,0.080,40.298,-86.351,192.878,0.0,177.0
567102,-1.131,0.221,0.077,15.878,-116.595,199.053,0.0,197.0
567160,-0.869,0.230,0.177,-13.672,-131.947,138.069,0.0,77.0
567219,-0.682,0.166,0.240,-12.679,-127.519,77.756,0.0,68.0
567280,-0.438,0.111,0.272,32.962,-108.252,22.206,0.0,77.0
567340,-0.448,0.204,0.220,84.313,-70.939,-26.924,0.0,80.0
567398,-0.527,0.327,0.121,102.634,-37.382,-83.130,0.0,77.0
567456,-0.924,0.390,-0.030,93.534,-21.069,-148.435,0.0,75.0
567518,-1.484,0.293,-0.161,122.557,-11.847,-190.916,120.0,0.0
567578,-1.319,0.150,-0.104,149.954,19.626,-157.664,100.0,0.0
567639,-1.649,0.255,-0.256,181.481,5.092,-138.305,103.0,0.0
567699,-1.093,0.199,-0.070,213.023,-6.603,-85.809,122.0,0.0
567766,-0.794,0.498,-0.175,155.947,-3.649,-68.374,153.0,0.0
567829,-0.767,0.415,-0.067,36.000,2.252,-67.290,145.0,0.0
567892,-0.858,0.318,0.037,22.519,22.740,-68.886,168.0,198.0
567953,-0.908,0.352,0.118,7.015,38.840,-62.115,117.0,0.0
568015,-1.213,0.305,0.153,-12.183,41.321,-54.351,139.0,0.0
568074,-1.368,0.187,0.200,27.099,44.092,-25.076,58.0,0.0
568133,-1.314,0.335,0.063,-16.511,18.252,25.290,99.0,0.0
568197,-1.491,0.029,0.026,-92.779,-42.183,125.756,163.0,0.0
568259,-1.615,-0.027,-0.093,-55.779,-87.382,208.038,124.0,0.0
568315,-1.205,0.152,-0.098,-41.702,-92.267,224.260,111.0,66.0
568368,-0.827,0.233,-0.091,-52.351,-81.794,192.824,109.0,67.0
568421,-0.727,0.227,-0.071,-66.122,-68.542,144.748,107.0,71.0
568474,-0.642,0.158,-0.020,-64.137,-50.229,101.931,104.0,70.0
568526,-0.737,0.220,-0.034,-42.954,-23.641,48.427,102.0,63.0
568580,-0.921,0.288,-0.037,-29.718,-5.618,-17.496,105.0,70.0
568632,-1.093,0.214,-0.006,-0.359,-1.015,-86.641,88.0,77.0
568729,-1.084,0.156,0.117,95.366,61.916,-162.466,107.0,89.0
568786,-1.243,0.290,-0.000,76.763,79.267,-186.344,102.0,83.0
568841,-1.148,0.104,0.096,74.565,66.344,-199.611,108.0,86.0
568902,-0.978,0.124,0.111,140.847,73.985,-193.137,123.0,0.0
568967,-0.858,0.355,-0.007,106.015,55.740,-173.344,182.0,0.0
569027,-0.964,0.153,0.204,36.214,36.542,-101.924,106.0,0.0
569089,-1.073,0.198,0.199,59.198,18.221,-30.679,106.0,0.0
569146,-1.090,0.317,0.125,57.382,11.702,23.534,50.0,0.0
569205,-1.450,0.383,-0.010,9.939,16.824,60.489,95.0,0.0
569266,-1.427,0.272,-0.021,-46.588,0.542,116.298,103.0,0.0
569324,-1.471,0.081,-0.129,-110.649,-40.962,191.122,100.0,0.0
569391,-1.341,0.149,-0.107,-92.809,-51.351,226.534,121.0,0.0
569452,-0.916,0.244,-0.153,-89.450,-51.824,196.588,146.0,0.0
569510,-0.629,0.223,-0.085,-112.504,-43.733,156.771,140.0,136.0
569565,-0.587,0.185,-0.081,-95.985,-31.412,107.328,150.0,59.0
569617,-0.875,0.222,-0.119,-59.725,-19.076,55.244,115.0,62.0
569670,-0.938,0.228,-0.071,-16.802,-0.145,3.641,127.0,57.0
569721,-1.138,0.398,-0.111,-0.282,29.031,-73.580,110.0,57.0
569779,-1.239,0.256,-0.032,10.473,54.397,-138.855,129.0,86.0
569839,-1.217,0.146,0.028,37.626,80.588,-181.519,125.0,0.0
569899,-1.391,0.097,0.006,65.962,75.901,-180.000,107.0,0.0
569959,-1.197,0.078,0.099,99.115,55.366,-164.076,112.0,0.0
570020,-0.893,0.170,0.098,123.985,46.725,-135.244,136.0,0.0
570080,-0.696,0.303,0.068,78.527,30.710,-103.137,114.0,0.0
570141,-0.977,0.224,0.225,22.374,19.092,-69.443,122.0,0.0
570201,-1.080,0.081,0.317,24.893,-8.053,-32.580,107.0,0.0
570263,-0.899,0.167,0.259,87.481,-9.794,-5.863,105.0,0.0
570322,-1.257,0.387,-0.035,70.115,8.641,14.344,100.0,0.0
570382,-1.318,0.425,-0.252,-62.840,13.901,62.802,95.0,0.0
570440,-1.475,0.101,-0.272,-170.305,-3.832,152.229,94.0,0.0
570502,-1.364,-0.012,-0.120,-157.038,-24.244,225.344,123.0,0.0
570555,-0.997,0.116,-0.062,-110.947,-42.145,228.473,127.0,74.0
570609,-0.654,0.160,-0.024,-103.908,-49.435,197.053,122.0,83.0
570667,-0.557,0.150,0.051,-87.275,-44.435,153.267,0.0,63.0
570719,-0.901,0.247,-0.030,-41.748,-33.450,67.328,98.0,65.0
570773,-1.527,0.265,-0.184,43.939,-28.336,-29.351,111.0,57.0
570831,-1.642,0.211,-0.324,55.198,-0.260,-66.824,0.0,81.0
570892,-1.072,0.247,-0.052,12.855,32.771,-125.725,112.0,0.0
570944,-1.031,0.232,0.033,-25.595,78.878,-183.901,110.0,66.0
571003,-1.180,0.057,0.144,-5.351,91.595,-206.718,98.0,0.0
571064,-1.068,-0.046,0.094,98.191,97.740,-197.305,112.0,0.0
571126,-0.946,0.161,-0.004,86.901,65.466,-169.008,167.0,0.0
571192,-0.742,0.058,0.145,74.878,33.435,-99.359,0.0,0.0
571251,-0.920,0.206,0.153,116.084,0.893,-36.565,51.0,0.0
571312,-1.060,0.304,0.135,127.206,-1.244,-13.107,105.0,0.0
571371,-1.053,0.497,-0.005,50.802,19.588,35.595,98.0,0.0
571429,-1.458,0.378,-0.119,-108.359,17.969,91.061,95.0,0.0
571491,-1.733,0.020,-0.259,-192.595,-25.519,191.290,121.0,0.0
571552,-1.503,-0.096,-0.130,-125.878,-65.046,250.130,137.0,0.0
571614,-1.030,0.202,-0.132,-59.244,-49.046,246.389,125.0,0.0
571710,-0.510,0.167,-0.057,-129.725,-29.496,143.748,127.0,61.0
571762,-0.583,0.099,-0.006,-96.069,-18.550,84.366,107.0,57.0
571816,-0.905,0.209,-0.076,-17.985,1.931,1.527,105.0,57.0
571869,-1.143,0.344,-0.097,30.366,29.046,-81.359,106.0,58.0
571920,-1.417,0.333,-0.161,12.405,35.702,-159.275,105.0,61.0
571972,-1.396,0.136,-0.018,37.061,38.840,-189.794,105.0,57.0
572023,-1.408,0.042,0.022,95.389,46.137,-190.145,107.0,57.0
572084,-1.325,0.136,-0.010,129.328,43.298,-162.672,116.0,0.0
572144,-0.984,0.237,0.013,113.351,37.038,-136.573,115.0,0.0
572208,-0.710,0.239,0.068,103.687,31.824,-117.443,157.0,0.0
572270,-0.633,0.307,0.104,50.901,23.244,-81.679,105.0,0.0
572329,-0.860,0.227,0.198,16.260,13.817,-51.107,97.0,0.0
572390,-1.111,0.177,0.232,57.191,11.847,-30.756,96.0,0.0
572448,-1.090,0.235,0.157,67.649,17.588,19.313,92.0,0.0
572508,-1.465,0.355,-0.005,5.053,17.603,66.359,88.0,0.0
572567,-1.680,0.176,-0.174,-88.374,-4.924,140.641,99.0,0.0
572626,-1.439,0.006,-0.093,-137.031,-29.366,239.855,99.0,0.0
572684,-1.085,0.111,-0.043,-120.023,-38.687,250.130,166.0,80.0
572744,-0.678,0.170,-0.024,-112.962,-46.313,216.870,160.0,95.0
572802,-0.501,0.125,0.015,-97.664,-43.794,160.405,166.0,91.0
572860,-0.549,0.211,0.031,-59.748,-25.435,85.733,0.0,80.0
572918,-0.681,0.294,0.021,-11.771,2.366,-24.504,0.0,80.0
572974,-1.000,0.336,-0.029,21.107,39.916,-108.626,145.0,79.0
573028,-1.508,0.332,-0.162,15.878,65.466,-181.191,111.0,79.0
573088,-1.583,0.205,-0.103,18.473,83.649,-212.420,114.0,0.0
573149,-1.386,0.081,0.013,18.275,90.397,-196.748,108.0,0.0
573209,-1.334,0.041,0.109,27.015,70.282,-138.886,119.0,0.0
573275,-0.899,0.069,0.188,82.718,42.809,-96.298,141.0,0.0
573337,-0.585,0.206,0.137,107.137,20.962,-69.107,158.0,0.0
573399,-0.621,0.260,0.112,70.374,-2.427,-37.244,122.0,0.0
573464,-0.964,0.229,0.161,63.626,-6.351,-15.084,0.0,0.0
573530,-0.948,0.245,0.125,71.817,6.153,8.542,0.0,0.0
573589,-1.197,0.423,0.046,-15.786,34.008,47.992,101.0,0.0
573648,-1.586,0.279,-0.069,-113.603,16.580,81.321,96.0,0.0
573711,-1.396,-0.036,-0.013,-137.947,-32.031,162.092,144.0,0.0
573773,-1.441,0.067,-0.059,-73.099,-55.130,191.229,137.0,0.0
573838,-0.967,0.209,-0.096,-22.626,-57.893,169.099,132.0,0.0
573892,-0.628,0.300,-0.077,-44.748,-45.137,130.496,132.0,59.0
573946,-0.498,0.242,-0.052,-75.718,-33.985,92.237,131.0,70.0
574001,-0.543,0.215,-0.008,-67.771,-17.664,51.977,129.0,70.0
574054,-0.833,0.272,-0.011,-28.168,3.008,-8.267,127.0,68.0
574107,-1.128,0.326,-0.024,0.122,28.260,-71.328,117.0,60.0
574159,-1.448,0.304,-0.074,-4.489,46.550,-118.893,115.0,60.0
574213,-1.349,0.254,0.026,8.649,62.901,-154.557,115.0,71.0
574269,-1.293,0.101,0.014,25.092,70.855,-159.626,116.0,65.0
574322,-1.294,0.068,0.039,33.252,56.710,-110.962,118.0,69.0
574384,-0.995,0.086,0.070,58.198,32.840,-75.634,128.0,0.0
574450,-0.646,0.119,0.118,98.321,13.244,-40.962,0.0,0.0
574516,-0.467,0.215,0.063,111.832,1.229,-22.145,0.0,0.0
574581,-0.694,0.266,0.063,87.282,-7.351,-17.931,0.0,0.0
574690,-1.045,0.234,0.074,104.519,15.542,-15.786,0.0,0.0
574755,-1.177,0.191,-0.038,52.817,37.664,11.290,0.0,0.0
574821,-1.335,-0.090,-0.158,17.649,57.931,9.695,0.0,0.0
574891,-1.055,-0.350,-0.111,-9.198,18.130,35.634,0.0,0.0
574956,-1.173,-0.502,-0.097,127.366,-33.595,73.969,0.0,0.0
575022,-0.988,-0.077,-0.256,229.855,-51.176,81.359,0.0,0.0
575087,-0.833,0.136,-0.314,196.466,-51.595,52.031,0.0,0.0
575153,-0.843,0.182,-0.320,132.565,-36.252,23.061,0.0,0.0
575219,-0.760,0.046,-0.230,119.527,-34.931,-0.901,0.0,0.0
575277,-0.978,0.047,-0.226,145.115,-60.748,3.412,69.0,0.0
575328,-1.268,0.096,-0.215,200.679,-90.649,2.969,58.0,72.0
575380,-0.842,0.268,-0.075,231.664,-68.924,-11.328,57.0,64.0
575430,-0.756,0.490,-0.033,176.397,-30.336,-46.748,62.0,58.0
575479,-0.787,0.383,0.043,88.504,-21.366,-68.817,67.0,53.0
575529,-0.828,0.156,0.194,126.229,-22.649,-72.977,72.0,47.0
575580,-0.886,0.194,0.045,238.229,-15.489,-57.435,77.0,44.0
575629,-0.885,0.545,-0.128,231.061,-4.115,-50.870,83.0,43.0
575687,-0.882,0.645,-0.039,99.916,14.099,-55.458,0.0,58.0
575745,-0.911,0.428,0.139,6.015,36.679,-61.374,0.0,57.0
575807,-1.021,0.219,0.242,3.466,43.031,-52.802,0.0,151.0
575868,-1.134,0.112,0.273,65.130,41.344,-21.634,0.0,60.0
575926,-1.180,0.266,0.174,77.863,29.527,3.382,0.0,57.0
575989,-1.094,0.158,0.102,17.076,1.977,42.252,0.0,154.0
576053,-0.979,0.054,0.091,14.206,-17.794,75.489,0.0,158.0
576111,-1.114,0.056,-0.056,43.740,-34.504,77.580,0.0,63.0
576175,-1.068,0.120,-0.115,45.977,-32.061,84.992,0.0,167.0
576233,-0.911,0.195,-0.118,10.237,-14.198,66.550,0.0,68.0
576291,-0.846,0.124,-0.122,-17.710,0.420,22.221,0.0,69.0
576350,-0.858,0.072,-0.111,-11.229,13.489,-15.420,0.0,62.0
576411,-0.890,0.137,-0.108,3.824,18.382,-39.641,0.0,60.0
576470,-0.993,0.187,-0.112,3.550,13.519,-51.214,0.0,72.0
576527,-0.978,0.148,-0.048,26.771,4.076,-48.420,0.0,57.0
576585,-0.802,0.175,-0.071,71.947,-6.076,-33.885,0.0,62.0
576645,-0.501,0.333,-0.112,112.298,-6.206,-33.878,0.0,79.0
576704,-0.086,0.292,0.051,31.618,-8.504,3.450,0.0,84.0
576762,-0.490,0.183,0.260,-53.191,-20.122,37.656,0.0,75.0
576822,-2.000,0.195,0.249,22.473,5.046,-8.916,0.0,79.0
576885,-1.182,0.221,0.334,24.359,39.137,23.458,0.0,96.0
576949,-0.968,0.449,0.287,-128.214,16.382,-17.282,0.0,70.0
577006,-0.725,0.057,0.394,-85.221,-12.580,-5.939,0.0,76.0
577063,-2.000,0.135,-0.506,65.450,-7.840,-20.023,0.0,68.0
577121,-1.522,0.006,-0.659,-36.809,-48.466,66.969,0.0,66.0
577179,-0.101,-0.251,-0.044,8.366,-6.634,72.702,0.0,78.0
577238,0.267,0.049,0.008,-26.863,1.053,28.931,0.0,88.0
577296,0.014,-0.070,0.187,-41.359,-35.779,5.260,0.0,81.0
577354,-0.811,-0.036,0.342,85.863,-47.710,32.321,0.0,93.0
577416,-2.000,1.302,0.196,215.420,-12.237,-36.389,0.0,90.0
577474,-1.198,1.178,0.229,-68.588,27.718,6.008,0.0,77.0
577531,-1.148,0.355,0.255,-211.489,33.878,-28.893,0.0,70.0
577589,-2.000,-0.177,-0.548,-91.176,6.672,-9.679,0.0,57.0
577689,-0.277,-0.267,-0.209,88.092,-22.634,41.733,0.0,69.0
577746,0.295,0.064,-0.030,73.954,-7.160,-17.672,0.0,69.0
577805,0.030,0.117,0.099,17.916,-14.053,-49.130,0.0,71.0
577862,-0.956,0.129,0.353,102.260,-31.702,-16.221,0.0,75.0
577922,-1.973,1.221,0.266,187.779,2.382,-48.412,0.0,89.0
577982,-1.025,1.114,0.438,-179.618,32.763,31.359,0.0,84.0
578040,-0.441,0.014,0.620,-180.260,-2.076,11.550,0.0,65.0
578098,-1.941,0.561,-0.027,42.641,-9.252,-39.275,0.0,75.0
578155,-2.000,0.203,-0.771,-85.252,-32.397,21.351,0.0,57.0
578212,-1.165,-0.506,-0.234,-80.198,-7.160,110.351,0.0,61.0
578270,-0.268,-0.278,-0.252,82.107,0.824,63.168,0.0,63.0
578328,0.223,-0.119,-0.057,31.702,4.580,-2.618,0.0,87.0
578385,0.101,-0.065,0.229,13.618,3.511,-38.206,0.0,74.0
578444,-0.709,0.151,0.301,51.565,10.053,-59.885,0.0,67.0
578504,-2.000,0.771,0.236,135.908,20.702,-136.588,0.0,73.0
578562,-1.709,1.394,0.185,-36.084,66.588,33.878,0.0,71.0
578621,-0.805,0.415,0.334,-141.603,33.763,54.282,0.0,98.0
578679,0.269,0.239,0.531,48.817,-26.237,31.916,0.0,75.0
578737,0.767,0.405,0.362,-52.260,-26.908,48.267,0.0,72.0
578794,0.544,0.187,0.354,-53.985,-39.595,-18.130,0.0,57.0
578851,-2.000,1.398,-0.487,104.634,-24.595,-152.947,0.0,59.0
578909,-2.000,-0.154,-0.629,-146.947,6.221,90.618,0.0,62.0
578969,-1.025,-0.136,-0.262,-51.115,-7.069,102.779,0.0,71.0
579028,0.374,-0.557,0.276,32.496,-34.069,-14.710,0.0,84.0
579086,-0.047,-0.074,0.107,59.160,-1.672,-62.893,0.0,67.0
579143,-0.276,0.153,0.159,-15.038,-15.794,-81.481,0.0,62.0
579201,-1.928,-0.042,0.343,-10.168,-9.718,-88.969,0.0,63.0
579259,-2.000,-0.042,0.589,68.221,56.786,-90.382,0.0,69.0
579316,-1.812,0.993,0.163,-65.115,15.214,13.832,0.0,66.0
579374,-0.389,0.126,0.688,12.977,-46.527,32.649,0.0,65.0
579432,0.640,1.038,0.461,79.687,-9.878,58.626,0.0,76.0
579492,-0.061,0.780,0.194,-93.817,-11.855,28.305,0.0,64.0
579551,-1.381,0.213,-0.078,-50.435,-24.573,52.969,0.0,75.0
579608,-2.000,0.888,-0.894,-25.588,34.313,-80.344,0.0,71.0
579665,-1.634,0.547,0.057,-250.137,94.344,19.046,193.0,70.0
579725,-0.986,0.325,-0.203,-250.137,24.137,-59.733,0.0,86.0
579784,-0.772,-0.252,0.243,-250.137,-41.893,0.679,0.0,100.0
579846,-1.655,-0.030,-0.092,-151.053,-93.824,41.260,0.0,124.0
579907,-1.689,0.285,-0.293,-59.191,-122.641,-13.405,0.0,134.0
579973,-1.693,0.128,-0.504,-113.305,-119.740,-19.611,0.0,148.0
580035,-0.979,0.096,-0.288,-129.122,-85.779,-34.206,0.0,146.0
580099,-0.775,0.129,-0.245,-105.603,-56.893,-28.107,0.0,162.0
580162,-0.679,0.143,-0.097,-110.015,-63.794,-13.244,0.0,169.0
580226,-0.622,0.090,0.098,-86.977,-65.649,21.145,191.0,170.0
580284,-0.553,0.229,0.276,-34.924,-40.321,62.824,182.0,83.0
580341,-0.802,0.304,0.234,-23.962,-30.855,78.565,175.0,88.0
580399,-0.953,0.200,0.153,10.214,-14.832,122.832,160.0,90.0
580454,-1.871,0.462,-0.196,35.389,40.061,150.160,134.0,99.0
580513,-2.000,0.180,-0.361,-107.336,87.969,229.000,117.0,110.0
580571,-1.568,0.168,-0.125,-136.763,141.053,250.130,127.0,126.0
580677,-1.451,0.387,-0.242,-249.649,131.740,153.191,0.0,159.0
580739,-1.172,-0.091,0.037,-250.137,49.260,146.084,158.0,170.0
580796,-1.011,-0.174,0.178,-173.405,8.168,127.061,146.0,120.0
580848,-1.195,0.105,0.095,-65.565,2.695,80.450,72.0,85.0
580899,-1.128,0.158,0.119,-20.832,3.275,22.855,69.0,90.0
580951,-1.066,0.126,0.192,9.412,16.832,-16.214,70.0,84.0
581009,-0.929,0.236,0.166,56.863,48.977,-83.130,123.0,96.0
581063,-0.714,0.224,0.152,41.313,76.496,-112.137,128.0,79.0
581117,-1.170,0.330,0.038,-18.153,69.763,-145.519,103.0,90.0
581172,-1.357,0.004,0.119,2.397,40.641,-153.924,122.0,82.0
581226,-1.218,-0.055,0.206,98.092,37.252,-108.466,132.0,79.0
581281,-1.051,0.237,0.057,111.725,36.382,-63.809,132.0,80.0
581344,-0.849,0.387,0.060,6.229,23.992,-45.649,135.0,201.0
581398,-0.648,0.162,0.177,-73.992,29.351,-29.229,133.0,77.0
581459,-0.777,0.092,0.224,-78.313,30.336,-11.321,0.0,62.0
581517,-1.006,-0.004,0.246,-49.313,3.427,8.840,0.0,61.0
581564,-1.020,0.034,0.211,7.191,-41.794,54.260,16.0,62.0
581620,-0.808,0.109,0.219,73.198,-54.847,96.779,194.0,59.0
581678,-0.323,0.422,0.041,77.397,-46.092,123.191,188.0,59.0
581734,0.488,0.261,0.167,-56.420,-14.344,114.198,182.0,61.0
581790,0.686,-0.054,0.292,-93.481,-3.542,84.008,177.0,60.0
581849,0.681,0.245,0.197,-72.282,-1.092,3.969,0.0,54.0
581905,-2.000,2.000,-0.306,200.855,27.626,-113.298,0.0,52.0
581966,-2.000,0.824,0.141,3.527,-6.038,106.122,0.0,61.0
582025,-1.276,0.036,0.076,-68.443,-31.786,105.206,0.0,80.0
582081,0.216,-0.704,0.326,-3.878,-7.298,-24.443,160.0,82.0
582136,-0.249,-0.287,0.073,32.153,-6.168,-43.321,158.0,58.0
582195,-0.135,-0.121,0.039,59.626,-27.427,-37.687,0.0,57.0
582253,-0.494,0.264,0.100,24.794,-22.397,-32.947,0.0,86.0
582311,-2.000,1.038,0.437,107.824,3.382,-160.763,0.0,62.0
582370,-1.690,0.517,0.281,-34.809,34.725,97.359,0.0,73.0
582428,-0.272,0.378,0.402,-51.878,18.763,36.328,0.0,66.0
582510,0.074,0.579,0.283,16.985,1.870,56.069,0.0,78.0
582568,0.487,0.366,0.382,-57.985,-10.221,75.000,0.0,76.0
582628,0.261,0.183,0.390,-40.962,12.992,25.481,0.0,87.0
582686,-2.000,1.913,-0.924,36.618,-2.611,-142.809,0.0,61.0
582745,-2.000,0.698,-0.050,-65.748,25.786,175.443,0.0,77.0
582804,-0.224,-0.163,0.141,-4.206,-15.412,12.939,0.0,82.0
582862,0.150,-0.431,0.283,11.641,-12.802,-32.412,0.0,82.0
582921,-0.245,-0.094,-0.007,84.542,-10.176,-86.137,0.0,62.0
582983,-0.210,0.037,0.111,15.321,-8.527,-77.374,0.0,76.0
583041,-2.000,0.366,0.312,55.496,-5.176,-128.305,0.0,57.0
583100,-2.000,0.410,0.162,211.809,22.214,2.053,0.0,93.0
583159,-0.621,0.908,0.165,-105.359,7.962,45.763,0.0,76.0
583218,0.743,0.489,0.542,8.275,-7.618,91.328,0.0,76.0
583276,0.760,0.395,0.424,-65.817,7.412,69.389,0.0,76.0
583334,-0.570,0.509,0.361,-30.557,28.290,10.130,0.0,64.0
583392,-2.000,0.326,-0.826,27.748,-1.183,-109.076,0.0,64.0
583450,-1.932,0.052,-0.187,-28.122,2.573,25.305,0.0,66.0
583512,0.004,-0.233,0.061,-19.122,-10.626,10.702,0.0,63.0
583614,-0.088,0.078,0.087,-2.031,-6.405,-34.595,0.0,75.0
583672,-0.662,0.138,0.181,-15.466,-1.939,-52.076,0.0,60.0
583732,-2.000,0.953,0.434,145.718,15.916,-136.786,0.0,94.0
583790,-1.104,1.157,0.305,-111.992,7.580,97.015,0.0,59.0
583848,-0.121,0.316,0.542,-52.817,-23.534,-5.710,0.0,78.0
583907,0.109,0.502,0.428,106.901,-28.611,24.534,0.0,63.0
583965,-2.000,1.451,-0.359,-70.702,0.351,-9.023,0.0,65.0
584023,-2.000,0.010,-0.534,-243.473,37.450,2.290,0.0,58.0
584085,-1.271,0.364,0.079,-143.229,64.076,64.229,0.0,71.0
584143,-0.766,0.318,-0.033,-87.046,51.336,5.069,0.0,82.0
584204,-0.324,0.206,0.020,-117.008,26.550,20.893,0.0,95.0
584265,-0.588,0.078,-0.038,-126.817,4.092,59.023,0.0,119.0
584333,-1.037,0.138,-0.145,-87.420,-25.076,48.855,0.0,127.0
584394,-1.142,0.323,0.000,2.084,-24.214,-29.916,0.0,133.0
584453,-1.010,0.451,0.006,-48.893,19.756,-59.611,0.0,93.0
584512,-1.415,0.545,-0.141,-162.649,23.634,-100.206,0.0,92.0
584570,-1.405,0.133,-0.059,-163.992,-6.702,-120.664,0.0,94.0
584633,-1.168,0.069,0.037,-44.885,-6.351,-74.000,0.0,102.0
584693,-0.900,0.273,-0.130,-52.885,-17.084,-29.420,0.0,111.0
584754,-0.548,0.189,-0.008,-144.847,-13.473,6.832,0.0,123.0
584815,-0.528,0.204,0.032,-167.145,-11.939,22.374,0.0,141.0
584878,-0.802,0.132,0.092,-144.893,-32.588,35.099,0.0,156.0
584941,-1.007,0.122,0.063,-54.321,-45.748,67.893,193.0,171.0
585005,-1.126,0.420,-0.179,0.977,-16.489,102.863,176.0,0.0
585067,-1.484,0.654,-0.461,-94.672,16.565,101.840,155.0,0.0
585127,-1.914,0.351,-0.648,-237.588,29.023,100.198,143.0,124.0
585189,-1.904,-0.187,-0.352,-211.336,23.641,160.687,0.0,133.0
585251,-1.052,0.027,-0.104,-100.634,13.145,205.725,0.0,149.0
585316,-0.675,0.280,-0.151,-132.206,-0.031,186.908,0.0,193.0
585379,-0.648,0.207,-0.061,-144.443,-9.672,136.275,0.0,171.0
585444,-0.793,0.334,0.009,-67.786,-11.893,84.733,0.0,177.0
585507,-0.744,0.390,0.048,-46.817,6.794,44.466,0.0,182.0
585572,-0.851,0.434,0.136,-46.786,37.748,-11.832,0.0,185.0
585634,-1.082,0.357,0.177,-68.939,79.580,-75.924,134.0,165.0
585694,-1.005,0.167,0.253,-51.496,99.221,-108.878,132.0,164.0
585752,-0.947,0.082,0.246,-24.092,97.305,-109.954,131.0,164.0
585811,-1.297,0.109,0.152,10.481,70.679,-111.611,133.0,164.0
585872,-1.362,0.099,0.091,46.901,38.519,-97.824,135.0,164.0
585931,-1.142,0.129,0.104,74.573,28.053,-59.824,136.0,163.0
585991,-0.929,0.268,0.072,41.053,27.779,-28.840,136.0,163.0
586049,-0.729,0.267,0.127,-18.618,26.702,-20.321,0.0,89.0
586108,-0.529,0.144,0.191,-42.046,31.580,-14.656,0.0,90.0
586169,-0.570,0.117,0.216,-47.916,29.115,-11.794,0.0,62.0
586225,-0.976,0.047,0.232,-33.351,6.656,-9.802,0.0,57.0
586272,-0.816,0.080,0.263,36.160,-20.305,23.794,17.0,56.0
586317,-0.596,0.367,0.202,32.733,-26.313,72.489,16.0,47.0
586374,-0.081,0.343,0.139,12.443,-36.298,92.557,192.0,54.0
586431,0.837,0.254,0.315,52.939,-29.649,81.427,188.0,61.0
586487,0.299,0.473,0.151,54.313,5.336,35.580,0.0,57.0
586545,-2.000,1.766,-0.556,66.160,-8.504,-103.573,0.0,60.0
586649,-2.000,0.281,-0.362,-69.397,-16.053,199.084,0.0,69.0
586707,-0.536,-0.317,-0.192,-128.809,-32.962,83.366,0.0,77.0
586766,-0.006,-0.504,-0.064,56.687,-19.794,-9.832,0.0,78.0
586824,0.123,-0.157,-0.005,53.206,-10.954,-10.130,0.0,77.0
586882,0.038,0.069,0.059,21.153,-5.840,-55.565,0.0,68.0
586939,-0.598,0.166,0.220,-10.496,4.221,-76.092,0.0,63.0
586996,-2.000,0.849,0.282,162.534,55.275,-225.511,0.0,62.0
587054,-2.000,1.073,-0.023,-29.962,50.763,36.863,0.0,60.0
587112,-0.856,0.316,0.361,-74.748,8.389,10.634,0.0,66.0
587172,-0.191,0.911,0.196,76.191,-4.038,48.450,0.0,58.0
587230,0.154,0.533,0.348,-122.931,-17.115,94.916,0.0,66.0
587287,0.417,0.035,0.416,-116.603,-18.374,96.099,0.0,60.0
587344,0.172,0.018,0.367,-44.397,-12.573,43.763,0.0,69.0
587402,-2.000,2.000,-0.670,154.344,-23.160,-167.298,0.0,58.0
587459,-2.000,0.927,-0.256,-72.168,-16.359,114.794,0.0,57.0
587516,-0.509,-0.075,-0.043,-55.359,-5.588,3.595,0.0,57.0
587574,0.161,-0.349,0.105,-8.718,-7.252,-2.160,0.0,57.0
587631,0.123,-0.096,0.012,76.336,-1.550,-45.550,0.0,62.0
587692,-0.195,0.213,0.053,30.573,4.748,-65.809,0.0,62.0
587749,-2.000,0.660,0.334,57.206,35.687,-108.069,0.0,64.0
587806,-2.000,0.314,0.217,53.985,44.794,25.260,0.0,57.0
587865,-0.653,0.542,0.540,-84.290,11.641,44.282,0.0,65.0
587923,0.492,0.448,0.680,25.740,-5.786,33.397,0.0,74.0
587979,0.643,0.503,0.466,-60.672,-24.328,30.176,0.0,57.0
588038,0.163,0.387,0.337,-44.779,-28.725,5.588,0.0,62.0
588095,-2.000,1.120,-0.216,-29.244,-23.275,-11.130,0.0,64.0
588155,-2.000,0.014,-0.546,20.924,-7.015,-5.313,0.0,54.0
588213,-1.258,0.414,-0.075,-84.863,18.893,91.611,0.0,59.0
588270,0.287,-0.924,0.344,-121.511,-7.733,17.779,0.0,57.0
588327,0.031,-0.375,0.215,74.305,6.092,-28.794,0.0,53.0
588385,-0.260,0.252,0.026,72.382,-9.710,-68.115,0.0,59.0
588442,-1.768,0.317,0.127,-17.168,-5.412,-68.886,0.0,56.0
588499,-2.000,0.275,0.467,133.664,57.550,-138.053,0.0,57.0
588557,-1.369,0.999,0.205,-106.366,18.427,30.733,0.0,59.0
588614,-0.260,-0.029,0.649,41.000,-23.450,-9.229,0.0,52.0
588675,0.003,0.817,0.312,146.794,-13.756,8.237,0.0,60.0
588732,-1.022,0.965,0.087,-54.015,-23.756,19.206,0.0,55.0
588789,-2.000,0.508,-0.119,-96.481,7.198,15.229,0.0,57.0
588847,-1.912,0.841,-0.051,-118.466,50.084,67.130,0.0,59.0
588904,-1.350,0.465,-0.150,-159.626,45.962,37.061,0.0,64.0
588962,-0.792,0.228,-0.084,-156.160,26.115,45.420,0.0,70.0
589021,-0.651,-0.014,-0.152,-118.870,-13.672,55.794,0.0,76.0
589080,-0.653,0.011,-0.194,-85.000,-27.336,56.733,0.0,83.0
589139,-0.796,0.099,-0.298,-58.221,-24.969,28.290,0.0,89.0
589202,-0.790,0.569,-0.152,3.977,37.504,-80.122,0.0,95.0
589262,-1.122,0.400,-0.232,-131.817,108.252,-96.496,0.0,101.0
589323,-1.478,0.308,-0.204,-250.137,54.221,-94.076,0.0,109.0
589384,-1.337,-0.321,0.165,-172.679,13.046,-79.847,0.0,117.0
589446,-1.061,-0.108,-0.002,53.053,15.168,-6.389,0.0,126.0
589507,-0.871,0.258,-0.320,-19.366,7.885,-1.740,196.0,135.0
589615,-0.670,-0.210,-0.093,-212.359,32.023,-41.977,0.0,163.0
589673,-0.732,-0.171,0.110,-202.130,0.198,-5.229,0.0,82.0
589725,-0.894,-0.014,0.348,-59.412,-27.664,7.916,16.0,83.0
589784,-0.933,0.368,0.213,17.214,-31.366,6.069,0.0,84.0
589843,-1.019,0.761,-0.020,-68.977,-22.099,15.740,0.0,88.0
589903,-1.575,0.471,-0.389,-168.221,-42.511,48.779,0.0,94.0
589963,-2.000,0.466,-0.778,-171.450,-83.519,131.656,0.0,104.0
590024,-1.375,-0.037,-0.324,-81.634,-59.649,196.611,0.0,116.0
590087,-0.875,0.325,-0.296,-43.664,-15.634,216.672,0.0,131.0
590149,-0.557,0.460,-0.225,-131.115,-7.160,172.588,0.0,147.0
590214,-0.648,0.345,-0.101,-162.565,-3.038,119.580,0.0,179.0
590282,-0.948,0.438,-0.042,-87.450,11.061,51.504,0.0,191.0
590340,-1.056,0.351,0.013,-64.466,5.718,16.359,138.0,120.0
590402,-1.039,0.291,0.108,-43.489,24.458,-15.595,134.0,0.0
590464,-0.905,0.206,0.195,-0.771,55.527,-63.435,129.0,0.0
590525,-0.801,0.196,0.214,-4.977,86.427,-83.550,127.0,193.0
590586,-1.296,0.193,0.127,-39.748,74.840,-101.511,125.0,194.0
590648,-1.219,-0.008,0.222,17.893,58.992,-96.740,127.0,195.0
590709,-1.010,0.235,0.140,42.214,64.794,-82.763,127.0,195.0
590771,-0.828,0.255,0.122,-17.878,52.336,-73.031,128.0,144.0
590822,-0.613,0.129,0.206,-35.069,42.290,-52.779,58.0,81.0
590874,-0.663,0.106,0.259,-25.046,30.481,-13.206,16.0,147.0
590932,-0.953,0.212,0.236,-20.267,11.924,9.489,0.0,65.0
590990,-1.313,0.139,0.191,-15.389,-19.313,50.817,198.0,57.0
591048,-1.046,0.240,0.216,25.229,-41.076,105.214,194.0,65.0
591106,-0.555,0.352,0.149,32.053,-44.061,128.893,188.0,63.0
591162,0.125,0.219,0.166,3.076,-36.084,124.550,183.0,61.0
591221,0.744,0.089,0.237,-66.046,-9.534,117.229,0.0,79.0
591277,0.451,-0.094,0.315,-24.435,-11.496,46.992,0.0,57.0
591336,-2.000,2.000,-0.568,98.359,-5.679,-112.649,0.0,86.0
591394,-2.000,0.874,0.337,24.481,-65.519,140.672,0.0,67.0
591454,-1.035,0.792,-0.242,54.206,4.458,137.328,0.0,78.0
591512,-0.156,-0.087,-0.124,-151.573,3.321,53.481,0.0,68.0
591570,0.094,-0.634,0.082,-46.565,-4.672,-7.267,0.0,66.0
591630,0.089,-0.093,0.103,79.527,-7.267,-33.328,0.0,96.0
591689,-0.248,0.220,0.134,36.908,-25.328,-64.099,0.0,84.0
591752,-2.000,1.932,0.364,183.366,-17.550,-154.779,0.0,71.0
591810,-1.971,1.744,-0.091,77.000,53.870,38.389,0.0,71.0
591868,-0.726,0.602,0.144,-226.916,37.740,-30.008,0.0,72.0
591933,-0.503,0.387,0.456,21.580,23.679,3.977,0.0,74.0
591990,0.068,0.416,0.277,50.237,4.267,59.824,0.0,77.0
592049,0.629,0.120,0.418,-8.557,19.740,66.947,0.0,76.0
592106,0.555,0.111,0.332,-45.344,-8.237,35.244,0.0,72.0
592163,-0.393,1.160,0.302,22.198,-9.389,-21.954,0.0,68.0
592221,-2.000,1.414,-0.448,-55.817,-19.069,94.046,0.0,68.0
592282,-1.312,0.989,-0.191,-6.634,5.206,135.038,0.0,80.0
592340,-0.324,-0.118,0.024,-66.198,14.443,49.130,0.0,88.0
592392,0.185,-0.478,0.165,-6.099,14.786,15.389,58.0,95.0
592450,0.114,-0.160,0.052,22.145,10.504,-42.069,0.0,87.0
592507,-0.014,0.074,0.085,4.145,4.954,-79.504,0.0,73.0
592609,-2.000,1.846,0.236,162.939,-62.504,-141.076,0.0,75.0
592666,-1.367,2.000,-0.087,148.313,22.344,15.519,0.0,74.0
592724,-0.007,0.597,0.269,-84.878,20.725,-38.504,0.0,76.0
592782,0.732,0.426,0.508,-5.412,7.969,-9.443,0.0,73.0
592843,0.706,0.364,0.421,-59.756,0.107,13.221,0.0,73.0
592900,-0.474,0.395,0.378,-13.969,-8.198,-20.924,0.0,60.0
592958,-2.000,1.415,-1.446,-63.664,-23.359,-20.779,0.0,78.0
593015,-1.543,0.685,-0.295,-22.000,52.893,112.710,0.0,62.0
593073,-0.361,-0.097,0.099,-59.359,2.771,13.779,0.0,71.0
593131,-0.098,-0.439,0.140,-14.779,-15.725,-13.153,0.0,76.0
593188,-0.104,-0.090,0.047,33.641,-39.473,-44.794,0.0,64.0
593246,-0.030,0.181,0.078,10.206,-40.786,-69.947,0.0,61.0
593303,-0.555,0.087,0.281,-38.397,-33.099,-66.809,0.0,73.0
593364,-2.000,1.363,0.412,250.130,-17.382,-140.099,0.0,71.0
593422,-0.710,1.705,0.143,-67.260,24.038,51.122,0.0,72.0
593480,-0.181,0.094,0.419,-44.092,-6.489,-19.695,0.0,73.0
593538,-0.027,0.192,0.220,132.855,-48.275,-5.534,0.0,72.0
593596,-0.594,0.484,0.164,124.718,-51.908,5.336,0.0,73.0
593648,-2.000,1.380,-0.334,98.588,-40.733,-91.763,98.0,84.0
593701,-2.000,-0.216,0.020,1.389,-30.313,80.924,91.0,89.0
593760,-1.105,0.672,0.086,-9.550,-0.863,66.382,0.0,94.0
593822,-0.637,0.291,0.123,29.252,-21.832,-60.481,0.0,99.0
593882,-0.422,0.091,0.150,102.992,-36.115,-75.344,0.0,100.0
593935,-0.574,0.052,-0.014,146.779,-74.542,-23.443,75.0,103.0
593995,-0.604,0.117,-0.083,144.374,-115.298,32.901,0.0,122.0
594050,-0.939,0.042,-0.058,168.038,-161.000,43.435,71.0,142.0
594104,-1.624,0.209,-0.142,218.618,-173.771,-9.656,68.0,129.0
594160,-1.491,0.525,-0.051,250.130,-118.260,-104.344,104.0,129.0
594215,-1.110,0.862,-0.211,240.176,-51.847,-132.962,110.0,124.0
594274,-0.919,0.680,-0.067,42.947,-64.886,-173.420,118.0,94.0
594335,-0.812,0.136,0.115,158.420,-57.740,-144.542,127.0,0.0
594396,-0.878,0.521,-0.264,248.649,-55.870,-79.847,112.0,0.0
594456,-0.983,0.632,-0.245,139.298,-43.794,-43.244,120.0,0.0
594518,-0.756,0.427,-0.048,87.641,-13.443,-23.672,126.0,0.0
594579,-0.837,0.505,-0.037,66.458,16.893,-46.809,132.0,0.0
594640,-0.890,0.385,0.043,64.435,29.786,-76.863,136.0,0.0
594702,-0.906,0.468,0.081,61.779,53.794,-64.863,139.0,0.0
594766,-1.048,0.388,0.318,28.557,57.840,-47.206,188.0,0.0
594830,-1.031,0.272,0.498,-7.580,53.771,-13.634,105.0,0.0
594889,-0.984,0.175,0.502,-29.237,30.710,4.573,101.0,0.0
594949,-1.240,0.103,0.295,14.260,-8.237,10.374,96.0,0.0
595008,-1.098,0.085,0.095,65.450,-45.634,57.466,90.0,0.0
595072,-1.030,0.456,-0.182,20.802,-29.183,109.649,175.0,0.0
595134,-1.124,0.329,-0.211,-86.305,-35.573,106.145,144.0,0.0
595200,-1.011,0.250,-0.100,-43.122,-33.863,110.038,0.0,0.0
595265,-0.899,0.377,-0.123,-29.786,-28.710,99.344,0.0,0.0
595334,-0.830,0.416,-0.105,-29.290,-17.481,73.618,0.0,0.0
595399,-0.708,0.380,-0.087,-30.565,3.198,47.618,0.0,0.0
595464,-0.641,0.379,0.127,-9.588,20.863,29.817,0.0,0.0
595529,-0.807,0.693,0.379,-65.198,11.313,5.000,0.0,0.0
595636,-1.357,0.553,0.295,14.656,-20.076,-8.878,152.0,0.0
595697,-1.536,0.292,0.003,43.588,-5.374,-54.855,136.0,0.0
595756,-1.112,0.164,-0.304,27.229,41.824,-106.176,129.0,146.0
595815,-1.296,-0.047,-0.391,-96.344,40.420,-107.626,152.0,134.0
595867,-1.075,-0.367,-0.032,8.794,16.489,-105.092,119.0,43.0
595923,-0.866,-0.040,0.013,155.878,30.489,-76.687,119.0,68.0
595978,-0.791,0.280,-0.084,114.473,16.885,-78.710,147.0,64.0
596028,-0.871,0.214,0.030,48.802,7.985,-75.069,62.0,64.0
596085,-0.717,0.099,0.117,57.084,9.107,-55.718,63.0,0.0
596143,-0.687,0.278,0.116,56.740,13.145,-38.885,64.0,0.0
596201,-0.888,0.274,0.125,15.595,9.061,-38.824,68.0,0.0
596259,-0.933,0.128,0.206,5.847,8.992,-11.427,66.0,0.0
596323,-0.973,0.125,0.188,1.817,9.466,22.427,176.0,0.0
596383,-1.072,0.100,0.154,1.382,7.328,37.832,115.0,0.0
596447,-1.365,0.077,0.007,20.649,7.931,56.321,111.0,0.0
596501,-1.380,0.158,-0.092,-4.588,0.237,96.221,119.0,84.0
596555,-1.258,0.272,-0.104,-51.305,-2.351,114.229,147.0,57.0
596619,-1.147,0.271,-0.123,-61.221,-0.481,114.336,155.0,0.0
596674,-0.772,0.323,-0.107,-42.382,9.939,94.481,170.0,57.0
596731,-0.410,0.345,-0.051,-52.435,17.092,73.595,0.0,52.0
596790,-0.240,0.249,0.039,-85.603,15.008,54.359,0.0,62.0
596846,-0.164,0.164,0.215,-82.359,5.649,43.756,176.0,58.0
596907,-0.494,0.436,0.297,-65.695,-3.275,54.260,0.0,57.0
596965,-1.795,1.573,0.207,-61.519,8.710,69.870,0.0,68.0
597017,-1.973,1.347,0.030,-113.397,11.802,47.656,108.0,57.0
597069,-1.448,0.409,-0.128,21.015,36.275,-31.969,110.0,57.0
597127,-1.377,-0.191,-0.621,118.466,27.252,-97.969,0.0,57.0
597190,-0.814,-0.038,-0.240,79.771,-3.931,-92.298,156.0,57.0
597246,-1.248,0.170,0.285,85.313,-51.092,-80.969,190.0,70.0
597301,-2.000,0.980,0.212,116.015,-80.206,-3.756,139.0,61.0
597359,-1.030,0.987,0.020,79.275,-61.359,75.863,0.0,90.0
597427,0.126,0.674,-0.005,72.015,-47.580,29.168,0.0,0.0
597492,0.690,0.436,0.087,3.664,-15.252,38.962,0.0,0.0
597549,0.513,0.173,0.205,-39.046,11.802,66.092,0.0,58.0
597606,0.354,0.173,0.364,-34.771,48.305,74.374,0.0,57.0
597662,-2.000,2.000,-0.235,32.137,111.397,46.084,0.0,63.0
597722,-2.000,2.000,-0.661,-191.931,92.130,189.229,0.0,93.0
597770,-0.817,0.438,-0.376,-41.481,57.641,102.366,44.0,57.0
597818,-0.047,-0.120,-0.150,-30.275,38.954,-4.137,42.0,63.0
597866,0.225,-0.680,-0.036,-64.496,44.023,-33.832,40.0,71.0
597925,0.115,-0.477,0.037,-2.359,33.916,-59.344,0.0,57.0
597983,-0.515,-0.133,-0.057,18.389,-25.130,-86.527,0.0,71.0
598040,-2.000,1.115,0.331,25.450,-147.458,-51.542,0.0,57.0
598099,-2.000,2.000,0.432,97.580,-173.786,-26.885,0.0,96.0
598158,-0.529,1.470,0.090,-13.031,-76.931,-48.656,0.0,84.0
598223,0.840,0.263,0.273,82.290,-2.740,-52.550,0.0,0.0
598282,0.808,0.041,0.160,-5.496,36.626,17.328,0.0,94.0
598342,0.331,0.189,0.200,9.954,27.351,35.977,0.0,126.0
598403,0.086,0.320,0.192,-4.244,39.458,94.092,0.0,64.0
598460,-0.724,2.000,0.656,23.389,85.756,99.664,0.0,72.0
