Timestamp(ms),AccelX(g),AccelY(g),AccelZ(g),GyroX(deg/s),GyroY(deg/s),GyroZ(deg/s),DistanceLeft(cm),DistanceRight(cm)
17992,-0.174,0.113,0.974,7.550,1.718,-2.260,0.0,57.0
18048,-0.183,0.091,0.964,3.031,4.122,-4.374,0.0,57.0
18099,-0.187,0.103,0.986,4.275,4.038,-4.824,0.0,57.0
18154,-0.172,0.138,0.998,6.573,4.008,-3.779,0.0,57.0
18206,-0.185,0.089,1.011,1.679,2.282,-2.023,0.0,57.0
18262,-0.154,0.132,0.995,2.107,3.031,-2.099,0.0,57.0
18314,-0.190,0.070,1.030,6.000,0.588,-2.763,0.0,57.0
18369,-0.175,0.143,0.994,1.504,0.153,-2.099,0.0,57.0
18423,-0.182,0.090,0.995,0.328,-1.092,-0.817,0.0,57.0
18479,-0.183,0.125,0.983,-0.634,0.122,-1.008,0.0,57.0
18531,-0.187,0.100,1.001,-0.198,-0.931,-1.214,0.0,57.0
18586,-0.182,0.115,0.990,2.168,-1.015,-0.137,0.0,57.0
18637,-0.169,0.092,0.995,-0.687,0.198,0.802,0.0,57.0
18693,-0.189,0.113,0.994,1.740,0.863,0.244,0.0,57.0
18745,-0.179,0.081,1.010,-1.061,-1.366,-1.344,0.0,57.0
18800,-0.199,0.128,0.974,6.885,-2.580,0.893,0.0,56.0
18852,-0.188,0.102,0.983,0.374,-0.275,2.260,0.0,57.0
18907,-0.189,0.070,0.960,8.405,2.527,1.931,0.0,56.0
18962,-0.176,0.119,0.976,6.870,5.931,-0.550,0.0,56.0
19014,-0.221,0.116,0.993,11.809,4.947,0.893,0.0,56.0
19069,-0.196,0.170,0.962,15.580,0.405,1.084,0.0,57.0
19122,-0.179,0.132,0.974,9.855,2.611,2.748,0.0,57.0
19177,-0.173,0.170,0.923,20.756,7.977,3.863,0.0,56.0
19229,-0.184,0.171,0.965,6.977,12.366,-2.000,0.0,56.0
19284,-0.195,0.195,0.938,36.382,15.489,-1.687,0.0,56.0
19337,-0.199,0.266,0.961,13.420,20.427,-1.878,0.0,57.0
19392,-0.182,0.198,0.967,42.191,24.328,2.466,0.0,56.0
19447,-0.212,0.351,0.909,24.603,25.389,-3.229,0.0,54.0
19503,-0.160,0.291,0.975,27.473,26.557,-0.863,0.0,55.0
19554,-0.243,0.398,0.954,20.817,25.290,-7.046,0.0,53.0
19609,-0.224,0.289,0.990,35.824,19.061,-3.641,0.0,53.0
19661,-0.220,0.344,0.934,55.740,15.885,-4.389,0.0,52.0
19717,-0.261,0.506,0.823,48.076,9.321,-14.244,0.0,50.0
19769,-0.273,0.374,0.857,15.405,14.626,-24.481,0.0,51.0
19821,-0.305,0.307,0.762,66.473,24.107,-26.412,0.0,60.0
19872,-0.303,0.307,0.665,83.038,43.519,-52.603,0.0,54.0
19928,-0.402,0.290,0.516,115.221,69.489,-86.069,0.0,61.0
19980,-0.719,0.422,0.354,99.015,77.557,-139.481,0.0,58.0
20032,-1.028,0.290,0.305,86.542,90.634,-164.977,0.0,58.0
20085,-1.372,0.219,0.146,83.794,88.252,-163.183,0.0,68.0
20139,-1.362,0.183,0.085,69.687,69.695,-127.588,0.0,66.0
20191,-1.208,0.169,0.064,49.061,44.214,-75.969,0.0,65.0
20244,-1.186,0.185,0.064,48.649,40.718,-50.794,0.0,65.0
20300,-1.043,0.246,0.083,58.412,46.649,-50.832,0.0,64.0
20361,-0.870,0.258,0.127,51.229,58.443,-63.000,0.0,0.0
20424,-0.840,0.216,0.158,42.290,63.137,-67.954,0.0,0.0
20485,-0.906,0.197,0.204,47.221,63.969,-62.695,0.0,0.0
20535,-0.942,0.219,0.225,37.298,55.344,-49.855,16.0,0.0
20595,-1.006,0.204,0.253,27.534,41.550,-32.443,0.0,0.0
20656,-1.124,0.202,0.219,18.061,20.122,-6.718,0.0,0.0
20759,-1.331,0.184,0.059,3.695,-28.389,58.130,0.0,0.0
20812,-1.174,0.203,0.026,-20.282,-51.901,111.954,0.0,85.0
20867,-1.320,0.242,-0.057,-63.916,-70.733,130.832,0.0,86.0
20920,-1.190,0.224,-0.051,-85.931,-73.947,125.160,0.0,61.0
20976,-1.040,0.195,-0.037,-85.214,-70.153,112.374,0.0,64.0
21040,-0.829,0.211,-0.009,-81.992,-64.672,96.344,0.0,0.0
21101,-0.705,0.189,0.028,-68.405,-62.137,69.924,0.0,0.0
21155,-0.718,0.225,0.072,-38.977,-45.969,39.779,0.0,97.0
21216,-0.766,0.236,0.085,-20.863,-26.908,5.176,0.0,0.0
21277,-0.938,0.269,0.102,2.351,8.122,-38.061,0.0,0.0
21338,-1.050,0.256,0.131,8.031,46.153,-70.458,0.0,0.0
21398,-1.151,0.191,0.092,10.107,73.076,-92.443,0.0,0.0
21458,-1.156,0.112,0.100,24.076,75.557,-88.015,0.0,0.0
21522,-1.217,0.079,0.129,56.977,56.206,-70.443,0.0,0.0
21577,-0.940,0.153,0.142,97.450,45.718,-54.824,0.0,90.0
21638,-0.765,0.243,0.137,78.137,35.145,-45.939,0.0,0.0
21692,-0.715,0.221,0.204,53.947,30.634,-40.550,0.0,93.0
21742,-0.818,0.240,0.212,34.832,33.756,-38.046,16.0,0.0
21796,-0.814,0.222,0.240,18.527,33.702,-34.634,16.0,0.0
21857,-0.973,0.220,0.244,12.595,32.496,-30.374,0.0,0.0
21912,-1.258,0.181,0.208,21.015,17.824,-15.611,0.0,112.0
21974,-1.336,0.226,0.113,21.023,-5.626,14.160,0.0,0.0
22037,-1.435,0.249,0.014,-34.412,-47.481,66.534,0.0,0.0
22097,-1.404,0.232,-0.015,-60.183,-67.924,92.191,0.0,0.0
22159,-1.187,0.122,-0.048,-72.443,-85.664,119.786,0.0,0.0
22219,-0.808,0.182,-0.020,-82.519,-89.634,134.992,0.0,0.0
22281,-0.592,0.231,0.010,-79.374,-77.290,109.374,0.0,0.0
22341,-0.660,0.249,0.023,-75.382,-62.153,66.351,0.0,0.0
22403,-0.809,0.218,0.095,-40.916,-36.206,16.328,0.0,0.0
22463,-1.021,0.247,0.103,2.412,6.252,-36.061,0.0,0.0
22523,-1.189,0.194,0.076,38.282,42.855,-70.366,0.0,0.0
22588,-1.078,0.138,0.081,21.595,52.519,-62.809,0.0,0.0
22648,-1.107,0.040,0.190,49.794,44.863,-55.435,0.0,0.0
22710,-0.964,0.139,0.167,102.191,55.000,-61.336,0.0,0.0
22770,-0.794,0.299,0.122,70.183,70.420,-76.603,0.0,0.0
22832,-0.748,0.224,0.162,11.947,65.504,-86.000,0.0,0.0
22892,-0.834,0.109,0.229,35.885,63.511,-78.382,0.0,0.0
22953,-0.931,0.235,0.202,41.641,57.649,-64.718,0.0,0.0
23004,-1.047,0.222,0.258,29.420,43.977,-57.664,17.0,0.0
23064,-1.170,0.205,0.226,38.504,28.099,-44.160,0.0,0.0
23118,-1.380,0.257,0.144,49.748,8.771,-2.420,16.0,0.0
23179,-1.332,0.274,0.030,-5.351,-29.267,55.382,0.0,0.0
23239,-1.545,0.227,-0.016,-65.786,-62.832,107.221,0.0,0.0
23301,-1.233,0.152,-0.030,-66.351,-81.985,131.153,0.0,0.0
23362,-0.911,0.193,-0.042,-65.878,-82.748,147.542,0.0,0.0
23422,-0.767,0.208,-0.034,-83.748,-83.435,143.740,0.0,0.0
23484,-0.763,0.203,0.022,-74.779,-74.008,118.221,0.0,0.0
23544,-0.790,0.246,0.066,-66.786,-55.366,76.672,0.0,0.0
23605,-0.971,0.246,0.116,-26.130,-22.359,10.733,0.0,179.0
23667,-1.038,0.196,0.135,4.389,15.489,-31.893,170.0,0.0
23770,-0.975,0.152,0.135,24.466,58.725,-81.931,171.0,0.0
23829,-1.179,0.147,0.144,34.374,67.580,-100.366,172.0,0.0
23890,-1.000,0.137,0.155,71.382,76.389,-108.832,0.0,0.0
23952,-0.791,0.248,0.115,63.656,83.260,-113.672,0.0,0.0
24008,-0.787,0.227,0.170,25.718,76.023,-111.809,51.0,0.0
24069,-0.954,0.187,0.206,29.092,77.985,-103.702,0.0,0.0
24120,-0.987,0.165,0.238,36.885,60.061,-79.443,18.0,0.0
24184,-1.135,0.188,0.230,46.168,42.725,-50.053,0.0,0.0
24245,-1.332,0.267,0.155,34.305,14.786,1.191,0.0,0.0
24306,-1.399,0.185,0.069,-5.969,-24.290,64.366,0.0,0.0
24367,-1.491,0.167,0.003,-59.695,-76.718,136.779,0.0,0.0
24428,-1.418,0.114,-0.031,-68.290,-105.489,161.565,0.0,0.0
24489,-0.902,0.129,0.012,-43.267,-102.992,164.672,0.0,0.0
24551,-0.688,0.291,-0.024,-47.015,-84.366,139.702,0.0,0.0
24612,-0.699,0.276,-0.001,-82.695,-68.588,94.290,0.0,0.0
24672,-0.794,0.211,0.061,-77.649,-49.275,56.794,180.0,0.0
24735,-1.070,0.211,0.089,-35.840,-22.710,1.985,179.0,200.0
24796,-1.073,0.159,0.128,6.603,6.847,-25.496,179.0,0.0
24855,-1.086,0.160,0.160,35.718,36.664,-64.206,179.0,0.0
24915,-0.922,0.192,0.137,51.794,74.176,-91.817,182.0,0.0
24977,-1.092,0.213,0.104,23.878,87.099,-119.962,0.0,0.0
25038,-1.037,0.080,0.169,57.115,84.611,-129.641,0.0,0.0
25098,-0.916,0.201,0.126,86.382,81.107,-120.412,58.0,0.0
25153,-0.879,0.242,0.146,55.298,65.450,-108.947,58.0,0.0
25213,-0.930,0.191,0.187,41.527,53.916,-86.947,0.0,0.0
25276,-0.911,0.210,0.225,34.015,37.382,-47.542,0.0,0.0
25336,-1.034,0.211,0.227,31.031,16.450,-15.763,0.0,0.0
25396,-1.143,0.216,0.199,49.237,0.565,27.664,0.0,0.0
25456,-1.334,0.281,0.087,18.237,-19.198,65.718,0.0,0.0
25517,-1.485,0.154,0.038,-32.611,-61.893,125.840,0.0,0.0
25576,-1.571,0.123,0.012,-33.557,-83.672,160.664,0.0,0.0
25636,-1.239,0.141,0.013,-39.160,-95.794,170.031,0.0,0.0
25697,-0.837,0.141,0.045,-56.656,-100.168,166.237,0.0,0.0
25757,-0.667,0.175,0.097,-51.626,-86.130,133.824,0.0,0.0
25820,-0.597,0.264,0.085,-57.107,-59.252,69.489,0.0,0.0
25880,-0.606,0.221,0.162,-31.565,-28.511,-0.008,0.0,0.0
25940,-0.768,0.204,0.175,17.305,9.931,-64.542,0.0,0.0
26000,-1.009,0.177,0.175,57.359,42.565,-120.702,0.0,0.0
26060,-1.165,0.114,0.145,77.313,62.603,-135.527,0.0,0.0
26121,-1.344,0.105,0.119,104.046,57.008,-138.252,0.0,0.0
26181,-1.363,0.130,0.086,146.260,49.160,-134.489,0.0,0.0
26242,-1.069,0.212,0.074,148.870,40.237,-117.122,0.0,0.0
26301,-0.866,0.323,0.096,100.351,26.023,-104.756,0.0,0.0
26364,-0.838,0.284,0.179,79.679,25.992,-99.405,0.0,0.0
26425,-0.867,0.387,0.193,51.641,28.153,-79.313,0.0,0.0
26485,-1.002,0.343,0.270,20.328,23.710,-57.275,0.0,0.0
26546,-1.031,0.326,0.252,22.229,20.656,-19.267,0.0,0.0
26605,-1.179,0.383,0.156,-9.298,14.580,25.878,0.0,0.0
26665,-1.258,0.262,0.079,-104.321,-10.420,82.130,0.0,0.0
26726,-1.541,0.135,0.042,-112.275,-32.771,125.969,0.0,0.0
26829,-1.087,0.186,-0.053,-91.069,-56.817,154.656,0.0,0.0
26890,-0.915,0.218,-0.023,-109.107,-64.305,154.313,0.0,0.0
26953,-0.865,0.234,-0.012,-103.450,-66.198,118.924,0.0,0.0
27014,-0.866,0.247,0.031,-74.718,-54.076,81.382,0.0,0.0
27074,-0.885,0.312,0.025,-54.885,-33.542,49.053,0.0,0.0
27134,-0.801,0.260,0.126,-28.053,-7.015,14.847,0.0,0.0
27195,-0.900,0.278,0.149,-18.435,28.672,-27.802,0.0,0.0
27255,-0.906,0.171,0.215,-2.748,58.611,-67.718,0.0,0.0
27316,-1.051,0.134,0.222,-4.008,75.489,-79.351,0.0,0.0
27376,-1.145,0.025,0.279,22.099,74.916,-89.305,0.0,0.0
27436,-0.976,0.145,0.223,54.107,81.305,-92.886,0.0,0.0
27491,-0.885,0.219,0.212,28.679,73.168,-98.000,57.0,0.0
27547,-0.876,0.188,0.248,15.618,66.847,-102.649,58.0,0.0
27608,-0.904,0.163,0.268,24.573,63.122,-94.550,0.0,0.0
27661,-0.924,0.205,0.286,24.969,46.427,-76.359,17.0,0.0
27721,-1.039,0.268,0.252,22.550,30.595,-58.496,0.0,0.0
27782,-1.163,0.256,0.163,19.458,9.679,-16.573,0.0,0.0
27842,-1.471,0.355,0.015,-17.130,-6.473,41.191,0.0,0.0
27902,-1.304,0.242,-0.005,-92.244,-47.382,121.260,0.0,0.0
27963,-1.605,0.165,-0.041,-126.252,-75.099,150.603,0.0,0.0
28026,-1.166,0.094,-0.025,-107.908,-93.237,154.695,0.0,0.0
28087,-0.824,0.152,-0.022,-62.733,-90.817,145.977,0.0,0.0
28147,-0.687,0.262,-0.044,-71.282,-78.122,121.580,0.0,0.0
28208,-0.681,0.252,0.019,-87.145,-60.702,84.443,196.0,0.0
28268,-0.737,0.221,0.062,-74.496,-31.031,37.473,193.0,0.0
28325,-0.945,0.204,0.118,-24.214,5.076,-22.344,192.0,159.0
28386,-1.104,0.200,0.104,17.092,43.565,-55.901,192.0,0.0
28446,-1.055,0.138,0.145,34.687,64.733,-79.099,192.0,0.0
28506,-1.182,0.138,0.169,45.328,73.206,-94.229,193.0,0.0
28570,-1.173,0.096,0.140,92.519,74.267,-100.534,0.0,0.0
28631,-0.862,0.223,0.115,101.794,78.924,-104.198,0.0,0.0
28686,-0.753,0.279,0.130,50.198,71.557,-106.466,58.0,0.0
28739,-0.844,0.208,0.192,28.840,69.611,-102.427,58.0,0.0
28800,-0.977,0.193,0.219,32.344,66.519,-88.298,0.0,0.0
28860,-1.114,0.231,0.273,38.802,49.672,-61.458,0.0,0.0
28920,-1.111,0.263,0.251,28.008,26.924,-29.153,0.0,0.0
28975,-1.446,0.322,0.163,15.168,2.656,6.901,17.0,0.0
29035,-1.298,0.227,0.053,-32.366,-38.939,73.634,0.0,0.0
29099,-1.623,0.197,-0.059,-94.275,-80.687,132.710,0.0,0.0
29159,-1.360,0.065,-0.058,-87.336,-110.992,161.267,0.0,0.0
29219,-0.950,0.136,-0.054,-55.290,-109.420,175.969,0.0,0.0
29281,-0.711,0.259,-0.056,-64.733,-98.580,152.649,0.0,0.0
29341,-0.675,0.212,-0.002,-73.893,-79.908,115.115,196.0,0.0
29400,-0.715,0.217,0.042,-58.031,-53.023,75.771,195.0,161.0
29460,-0.869,0.287,0.093,-28.237,-12.084,8.916,193.0,0.0
29519,-1.053,0.182,0.129,-1.023,30.504,-44.786,192.0,0.0
29583,-0.985,0.145,0.123,26.496,68.481,-81.779,192.0,0.0
29641,-1.063,0.221,0.137,29.107,88.023,-107.076,193.0,160.0
29702,-1.339,0.086,0.177,62.145,93.626,-147.031,194.0,0.0
29762,-1.153,0.079,0.133,123.153,97.794,-153.702,0.0,0.0
29867,-0.845,0.312,0.126,55.824,72.977,-125.916,0.0,0.0
29927,-0.934,0.242,0.180,15.183,66.817,-102.611,0.0,0.0
29988,-0.973,0.164,0.262,11.420,45.298,-59.901,0.0,0.0
30049,-1.133,0.141,0.240,42.771,17.565,-11.656,0.0,0.0
30109,-1.351,0.291,0.133,48.206,-5.237,43.031,0.0,0.0
30174,-1.336,0.251,0.037,-21.107,-36.359,92.359,0.0,0.0
30234,-1.558,0.181,-0.055,-89.099,-73.237,143.840,0.0,0.0
30296,-1.461,0.097,-0.060,-78.092,-96.244,159.344,0.0,0.0
30356,-1.042,0.132,-0.079,-59.336,-90.794,175.748,0.0,0.0
30416,-0.736,0.266,-0.070,-84.985,-79.740,158.038,0.0,0.0
30478,-0.628,0.201,-0.004,-92.038,-65.985,109.427,0.0,0.0
30538,-0.608,0.181,0.044,-54.511,-42.374,62.374,196.0,0.0
30597,-0.775,0.323,0.084,-28.092,-1.298,-0.305,194.0,161.0
30651,-1.010,0.229,0.112,-22.702,33.748,-62.748,192.0,88.0
30712,-1.284,0.124,0.128,12.977,63.748,-101.779,191.0,161.0
30767,-1.135,0.120,0.123,48.649,88.076,-101.168,191.0,90.0
30821,-1.239,0.139,0.124,43.076,81.450,-105.985,192.0,91.0
30875,-1.154,0.080,0.161,75.573,67.947,-107.832,0.0,90.0
30937,-0.882,0.181,0.144,100.000,72.015,-96.855,0.0,0.0
30997,-0.791,0.319,0.098,45.115,64.206,-90.336,0.0,0.0
31057,-0.853,0.192,0.209,9.565,58.511,-82.198,0.0,0.0
31119,-0.931,0.161,0.226,20.977,49.756,-54.580,0.0,0.0
31179,-1.009,0.205,0.243,21.198,31.344,-29.321,0.0,0.0
31244,-1.145,0.161,0.207,33.076,7.122,1.924,0.0,0.0
31294,-1.408,0.284,0.097,32.863,-7.137,34.282,16.0,0.0
31354,-1.349,0.248,0.026,-33.863,-39.023,81.550,0.0,0.0
31415,-1.561,0.159,-0.037,-85.145,-74.672,127.168,0.0,0.0
31476,-1.309,0.049,-0.012,-77.053,-102.679,154.550,0.0,0.0
31535,-0.802,0.140,0.013,-36.084,-95.206,159.328,0.0,160.0
31596,-0.671,0.322,-0.051,-60.023,-75.168,132.443,0.0,0.0
31649,-0.652,0.219,0.021,-94.084,-60.305,88.328,0.0,62.0
31702,-0.721,0.192,0.064,-73.519,-36.756,48.382,0.0,54.0
31758,-0.929,0.283,0.085,-29.634,1.496,-14.733,0.0,54.0
31809,-1.071,0.181,0.094,-12.847,27.206,-58.840,186.0,55.0
31861,-1.213,0.111,0.091,16.412,45.252,-81.405,185.0,55.0
31913,-0.995,0.083,0.106,61.145,67.053,-84.328,0.0,56.0
31967,-1.136,0.212,0.076,53.870,79.649,-91.656,0.0,56.0
32019,-1.132,0.151,0.135,62.137,77.115,-105.260,0.0,56.0
32071,-0.936,0.173,0.139,86.794,83.168,-109.771,0.0,56.0
32124,-0.820,0.202,0.116,69.718,73.695,-95.748,0.0,57.0
32178,-0.836,0.181,0.171,52.115,59.420,-75.695,0.0,57.0
32233,-0.920,0.232,0.197,47.282,55.328,-60.550,0.0,59.0
32291,-0.962,0.234,0.242,29.221,46.763,-51.481,0.0,82.0
32333,-1.101,0.235,0.271,17.153,34.885,-40.382,17.0,59.0
32387,-1.267,0.186,0.244,14.588,14.099,-19.053,0.0,62.0
32443,-1.483,0.151,0.148,27.786,-17.168,23.969,0.0,63.0
32497,-1.287,0.223,0.057,-10.565,-56.855,96.290,0.0,68.0
32549,-1.505,0.259,-0.052,-66.076,-83.947,124.130,0.0,57.0
32606,-1.396,0.130,-0.055,-81.954,-99.000,129.573,0.0,57.0
32667,-0.934,0.122,-0.027,-53.481,-100.588,150.160,0.0,61.0
32771,-0.712,0.251,-0.047,-75.573,-81.359,122.275,0.0,0.0
32830,-0.724,0.217,0.009,-77.397,-63.763,87.130,0.0,0.0
32890,-0.808,0.234,0.086,-49.771,-30.718,36.771,0.0,0.0
32950,-0.983,0.203,0.107,-18.611,8.893,-26.084,0.0,0.0
33010,-1.062,0.153,0.144,37.611,47.924,-68.992,193.0,0.0
33070,-0.977,0.151,0.125,62.947,73.832,-95.817,193.0,0.0
33124,-1.168,0.177,0.148,60.718,86.565,-117.863,0.0,107.0
33178,-1.140,0.127,0.147,81.244,96.328,-133.206,0.0,103.0
33236,-0.972,0.218,0.115,70.603,100.344,-132.176,0.0,104.0
33291,-0.872,0.230,0.120,23.260,84.420,-117.611,0.0,105.0
33345,-0.933,0.135,0.215,20.198,70.771,-94.802,0.0,105.0
33400,-0.995,0.175,0.200,37.198,54.153,-66.649,0.0,107.0
33456,-0.958,0.208,0.233,30.260,33.672,-32.969,0.0,109.0
33510,-1.086,0.227,0.214,18.908,14.168,-4.458,0.0,111.0
33565,-1.267,0.231,0.201,12.023,-4.176,27.908,0.0,117.0
33622,-1.421,0.179,0.079,-8.420,-36.771,69.023,0.0,127.0
33678,-1.468,0.129,0.013,-45.885,-74.481,129.260,0.0,134.0
33738,-1.468,0.187,-0.037,-74.443,-96.687,153.366,0.0,146.0
33798,-1.146,0.136,-0.032,-79.008,-98.130,143.176,0.0,0.0
33858,-0.754,0.156,-0.003,-66.275,-88.886,139.481,0.0,0.0
33918,-0.548,0.245,0.001,-62.832,-69.840,106.382,0.0,0.0
33979,-0.709,0.287,0.020,-59.824,-43.153,53.466,200.0,0.0
34038,-0.808,0.224,0.055,-46.099,-16.359,9.130,198.0,0.0
34095,-0.989,0.226,0.081,-16.191,18.748,-29.756,0.0,121.0
34150,-1.150,0.176,0.100,0.641,37.489,-51.817,0.0,121.0
34206,-1.000,0.124,0.148,45.511,63.985,-73.733,0.0,123.0
34265,-1.029,0.240,0.132,30.992,82.504,-76.809,0.0,123.0
34325,-1.249,0.114,0.167,39.130,71.580,-100.481,0.0,0.0
34385,-1.084,0.160,0.190,80.511,72.886,-100.733,0.0,0.0
34445,-0.868,0.304,0.157,33.992,69.481,-91.092,0.0,0.0
34505,-0.888,0.235,0.209,-39.878,55.008,-77.344,0.0,0.0
34566,-0.886,0.128,0.278,-47.458,43.107,-46.389,0.0,0.0
34615,-0.939,0.151,0.271,-34.511,21.229,-18.885,16.0,0.0
34668,-0.991,0.172,0.219,-34.588,0.420,-0.504,12.0,0.0
34718,-1.071,0.188,0.144,-43.626,-15.962,17.977,16.0,0.0
34767,-1.392,0.277,0.014,-61.870,-23.229,37.954,13.0,151.0
34814,-1.267,0.182,-0.092,-100.992,-53.710,56.817,16.0,150.0
34872,-1.187,0.119,-0.033,-98.321,-72.573,78.153,0.0,151.0
34930,-1.240,0.291,-0.085,-56.405,-63.756,61.916,0.0,152.0
34988,-1.033,0.400,-0.180,-108.756,-52.305,40.824,0.0,154.0
35046,-0.942,0.344,-0.185,-165.863,-36.435,19.107,0.0,158.0
35104,-0.941,0.312,-0.194,-185.664,-24.374,-1.336,0.0,163.0
35165,-0.980,0.273,-0.238,-173.687,-20.351,-13.405,0.0,0.0
35228,-0.969,0.262,-0.240,-150.840,-16.450,-6.641,0.0,0.0
35288,-0.932,0.261,-0.217,-111.260,-4.443,7.664,0.0,0.0
35348,-0.938,0.336,-0.234,-92.779,10.908,23.183,0.0,0.0
35408,-0.945,0.323,-0.204,-106.458,23.008,35.504,0.0,0.0
35469,-1.029,0.272,-0.163,-105.611,30.160,48.954,0.0,0.0
35529,-1.064,0.262,-0.152,-106.443,26.481,62.000,0.0,0.0
35590,-1.051,0.243,-0.115,-108.374,18.275,70.458,0.0,0.0
35693,-1.117,0.177,-0.043,-98.344,5.924,70.473,0.0,0.0
35753,-0.966,0.177,0.026,-99.557,10.824,76.481,0.0,0.0
35817,-0.940,0.192,0.100,-128.916,19.298,74.366,0.0,0.0
35877,-1.258,0.064,0.112,-157.794,16.260,49.336,0.0,0.0
35938,-1.198,-0.286,0.265,-90.931,11.107,15.664,0.0,0.0
35998,-1.034,-0.112,0.177,-12.023,34.565,-14.206,0.0,0.0
36059,-0.828,0.049,0.104,-30.290,42.206,-44.115,0.0,0.0
36119,-0.778,0.050,0.128,-38.298,46.496,-68.931,0.0,0.0
36171,-0.799,0.125,0.146,-20.260,52.099,-75.779,47.0,0.0
36222,-0.827,0.214,0.125,-28.237,55.740,-76.084,49.0,0.0
36275,-0.874,0.194,0.159,-39.298,52.855,-75.557,52.0,0.0
36338,-0.877,0.173,0.200,-26.809,48.069,-62.733,0.0,0.0
36399,-1.136,0.223,0.154,-6.527,31.679,-39.725,0.0,0.0
36459,-1.470,0.319,0.002,-28.122,-1.458,2.298,0.0,0.0
36519,-1.672,0.284,-0.103,-99.023,-53.626,84.076,0.0,0.0
36581,-1.552,0.096,-0.107,-106.924,-90.809,149.435,0.0,0.0
36641,-1.000,0.119,-0.031,-71.267,-103.863,183.656,0.0,0.0
36700,-0.640,0.246,-0.021,-75.145,-101.458,180.588,0.0,156.0
36755,-0.579,0.251,0.038,-87.916,-87.145,147.595,0.0,108.0
36810,-0.681,0.289,0.058,-85.023,-65.275,88.542,0.0,104.0
36869,-0.916,0.299,0.113,-40.214,-25.198,9.870,0.0,120.0
36925,-1.079,0.233,0.095,1.634,18.740,-46.519,0.0,125.0
36981,-1.061,0.203,0.067,31.832,52.931,-78.733,0.0,112.0
37037,-1.068,0.169,0.054,23.260,75.641,-82.435,0.0,113.0
37092,-1.210,0.111,0.101,32.573,77.725,-94.962,0.0,112.0
37147,-1.053,0.077,0.158,94.298,85.191,-109.305,0.0,111.0
37203,-0.835,0.213,0.108,121.794,94.191,-124.237,0.0,111.0
37259,-0.785,0.288,0.085,72.733,86.588,-128.802,0.0,111.0
37314,-0.873,0.209,0.177,34.527,78.931,-125.053,0.0,112.0
37376,-1.064,0.181,0.197,45.840,73.298,-103.756,0.0,146.0
37433,-1.120,0.225,0.229,41.405,52.061,-74.145,198.0,148.0
37490,-1.328,0.275,0.192,25.550,25.710,-32.473,184.0,153.0
37549,-1.422,0.229,0.122,-4.557,-12.183,35.336,0.0,158.0
37597,-1.523,0.208,0.009,-52.695,-68.000,119.443,16.0,165.0
37653,-1.750,0.201,-0.093,-85.046,-99.084,154.000,0.0,136.0
37710,-1.282,0.060,-0.079,-86.679,-124.840,185.527,0.0,129.0
37764,-0.863,0.087,-0.069,-66.084,-126.878,207.916,138.0,138.0
37822,-0.790,0.227,-0.071,-72.321,-119.366,189.542,144.0,157.0
37876,-0.799,0.246,-0.041,-81.511,-103.969,138.397,0.0,81.0
37931,-0.759,0.229,0.018,-65.015,-69.076,82.260,0.0,81.0
37984,-0.834,0.299,0.051,-35.511,-14.466,9.046,0.0,81.0
38038,-0.936,0.229,0.070,-21.863,35.557,-41.015,0.0,82.0
38092,-1.024,0.182,0.042,-11.305,77.748,-79.076,0.0,81.0
38144,-1.069,0.146,0.069,9.031,111.588,-102.595,124.0,117.0
38196,-1.265,0.102,0.090,36.924,114.893,-132.420,126.0,117.0
38248,-1.169,0.028,0.166,104.656,115.656,-151.878,126.0,128.0
38305,-0.959,0.131,0.107,144.191,115.275,-152.672,140.0,128.0
38365,-0.943,0.287,0.082,96.527,97.244,-141.321,0.0,180.0
38424,-0.991,0.250,0.184,31.412,83.740,-121.886,0.0,181.0
38484,-0.991,0.193,0.229,12.359,65.221,-84.023,0.0,190.0
38585,-1.216,0.147,0.223,35.771,5.076,9.702,0.0,133.0
38642,-1.359,0.206,0.122,25.374,-29.847,70.053,0.0,147.0
38690,-1.495,0.186,-0.003,-25.473,-77.061,136.061,16.0,151.0
38748,-1.747,0.155,-0.094,-55.122,-105.626,169.405,0.0,151.0
38810,-1.323,0.116,-0.085,-59.115,-114.076,181.031,0.0,161.0
38870,-0.924,0.146,-0.074,-62.153,-106.542,188.336,0.0,181.0
38931,-0.600,0.227,-0.043,-88.198,-96.359,167.099,0.0,0.0
38992,-0.588,0.205,0.030,-76.985,-71.672,114.328,0.0,0.0
39050,-0.622,0.262,0.062,-51.962,-34.427,50.710,0.0,153.0
39106,-0.834,0.320,0.071,-35.809,13.092,-24.153,0.0,120.0
39160,-1.098,0.251,0.089,-18.206,57.672,-80.931,0.0,83.0
39217,-1.178,0.135,0.107,8.534,90.107,-111.855,0.0,120.0
39273,-1.229,0.096,0.112,19.977,103.305,-108.947,0.0,120.0
39333,-1.244,0.026,0.168,68.328,94.046,-112.672,0.0,121.0
39392,-1.006,0.135,0.137,132.992,100.565,-119.992,0.0,153.0
39450,-0.801,0.292,0.080,94.496,91.687,-125.397,0.0,153.0
39512,-0.861,0.250,0.163,30.664,76.611,-115.840,0.0,0.0
39572,-1.033,0.173,0.208,32.336,69.053,-93.916,0.0,0.0
39633,-1.066,0.202,0.213,28.550,44.824,-52.176,0.0,0.0
39694,-1.167,0.214,0.231,14.389,16.084,-12.397,0.0,0.0
39753,-1.505,0.236,0.144,12.763,-15.466,43.496,17.0,0.0
39803,-1.329,0.171,0.050,-30.084,-58.580,106.092,16.0,0.0
39866,-1.676,0.152,-0.055,-79.626,-88.443,157.237,0.0,0.0
39926,-1.407,0.121,-0.070,-89.244,-114.122,169.656,0.0,0.0
39987,-1.005,0.091,-0.055,-60.702,-111.084,171.702,0.0,0.0
40046,-0.653,0.175,-0.052,-65.275,-104.641,169.466,0.0,0.0
40107,-0.648,0.241,0.006,-73.450,-82.924,125.931,0.0,0.0
40167,-0.730,0.240,0.057,-61.244,-51.580,58.870,0.0,0.0
40222,-0.869,0.233,0.106,-17.473,-4.496,-19.221,0.0,129.0
40279,-1.052,0.193,0.122,26.473,37.725,-66.886,0.0,130.0
40341,-1.037,0.192,0.084,35.664,72.931,-99.847,0.0,0.0
40401,-1.132,0.192,0.116,34.084,89.626,-121.481,0.0,0.0
40462,-1.342,0.061,0.152,77.886,97.992,-151.412,0.0,0.0
40521,-1.071,0.140,0.105,120.267,102.763,-152.466,0.0,0.0
40582,-0.812,0.256,0.065,81.863,84.779,-132.305,0.0,0.0
40641,-0.868,0.228,0.171,26.573,68.817,-108.618,0.0,0.0
40691,-0.981,0.232,0.208,29.473,63.206,-84.145,17.0,0.0
40752,-1.042,0.236,0.243,21.565,41.656,-52.298,0.0,0.0
40811,-1.213,0.218,0.201,19.298,12.802,-5.206,0.0,0.0
40875,-1.444,0.211,0.090,11.786,-18.748,56.588,0.0,0.0
40934,-1.473,0.176,-0.023,-44.061,-69.107,138.344,0.0,0.0
40994,-1.644,0.178,-0.074,-78.176,-95.069,168.015,0.0,0.0
41055,-1.122,0.109,-0.065,-77.557,-102.053,170.061,0.0,0.0
41115,-0.736,0.179,-0.063,-72.176,-92.901,168.466,0.0,0.0
41175,-0.679,0.241,-0.036,-84.878,-82.038,137.153,0.0,0.0
41235,-0.702,0.229,0.008,-81.534,-59.718,89.611,0.0,0.0
41291,-0.837,0.261,0.044,-64.992,-24.802,34.924,0.0,130.0
41348,-0.995,0.218,0.076,-36.847,10.511,-27.260,0.0,129.0
41407,-1.185,0.175,0.093,23.580,50.458,-72.313,0.0,130.0
41462,-1.020,0.177,0.054,48.176,92.931,-94.389,0.0,130.0
41562,-1.248,0.015,0.175,52.458,85.748,-129.275,0.0,131.0
41622,-0.911,0.074,0.159,138.947,98.519,-124.756,0.0,0.0
41682,-0.741,0.374,0.050,86.840,83.817,-125.557,0.0,0.0
41743,-0.840,0.236,0.180,9.031,71.626,-118.008,0.0,0.0
41796,-1.066,0.160,0.229,22.748,65.939,-89.298,16.0,0.0
41857,-1.079,0.164,0.248,31.855,37.809,-51.557,0.0,0.0
41916,-1.275,0.207,0.178,44.954,11.511,-2.405,0.0,0.0
41979,-1.419,0.314,0.100,18.626,-10.427,47.267,0.0,0.0
42040,-1.470,0.158,0.007,-59.435,-64.466,119.412,0.0,0.0
42100,-1.687,0.085,-0.073,-80.198,-100.595,168.771,0.0,0.0
42161,-1.113,0.071,-0.063,-70.931,-113.695,188.412,0.0,0.0
42221,-0.684,0.135,-0.047,-63.679,-106.595,188.840,0.0,0.0
42280,-0.662,0.231,-0.007,-72.695,-92.672,149.855,0.0,0.0
42341,-0.601,0.193,0.050,-64.954,-66.763,91.840,0.0,0.0
42401,-0.783,0.334,0.055,-40.076,-11.740,20.573,0.0,0.0
42459,-0.976,0.277,0.061,-25.679,42.847,-60.641,0.0,138.0
42518,-1.188,0.162,0.038,-6.458,79.191,-101.412,0.0,137.0
42574,-1.213,0.100,0.079,14.031,95.137,-98.489,0.0,137.0
42632,-1.361,0.042,0.134,69.298,87.656,-117.198,0.0,137.0
42692,-1.122,0.082,0.125,142.145,85.214,-127.076,0.0,0.0
42753,-0.781,0.259,0.079,127.305,79.519,-120.511,0.0,0.0
42813,-0.714,0.341,0.120,37.977,64.618,-107.695,0.0,0.0
42866,-0.922,0.198,0.238,21.359,62.870,-91.122,17.0,0.0
42916,-1.017,0.246,0.252,26.008,50.725,-68.046,16.0,0.0
42976,-1.135,0.223,0.239,17.878,27.595,-37.893,0.0,0.0
43039,-1.531,0.180,0.173,20.061,-6.878,25.756,0.0,0.0
43094,-1.397,0.154,0.039,-10.931,-49.130,101.382,16.0,0.0
43154,-1.523,0.191,-0.033,-61.450,-79.626,157.290,0.0,0.0
43214,-1.384,0.149,-0.067,-83.198,-104.099,159.076,0.0,0.0
43275,-0.861,0.075,0.025,-48.267,-99.695,159.954,0.0,0.0
43335,-0.622,0.241,-0.021,-36.679,-83.756,143.389,0.0,0.0
43396,-0.590,0.289,0.001,-62.557,-62.672,97.031,0.0,0.0
43456,-0.663,0.246,0.056,-70.115,-31.344,53.244,0.0,0.0
43520,-0.958,0.278,0.069,-55.603,7.824,-11.466,0.0,0.0
43576,-1.179,0.168,0.067,-25.908,38.771,-57.107,0.0,132.0
43632,-1.060,0.103,0.110,24.374,64.008,-75.443,0.0,131.0
43688,-1.214,0.177,0.063,43.382,77.924,-90.191,0.0,131.0
43750,-1.329,0.084,0.114,72.191,70.244,-114.977,0.0,0.0
43810,-1.044,0.128,0.122,141.397,80.252,-125.389,0.0,0.0
43871,-0.748,0.322,0.058,101.634,74.168,-119.168,0.0,0.0
43931,-0.762,0.265,0.151,17.695,59.786,-103.305,0.0,0.0
43992,-0.969,0.170,0.232,24.679,56.061,-81.870,0.0,0.0
44055,-1.070,0.212,0.252,24.908,34.389,-49.725,0.0,0.0
44115,-1.137,0.174,0.235,21.595,8.336,-10.275,0.0,0.0
44169,-1.464,0.228,0.110,27.076,-18.947,41.313,16.0,0.0
44219,-1.400,0.187,0.014,-21.504,-55.969,100.145,16.0,0.0
44279,-1.561,0.167,-0.054,-59.405,-81.649,145.092,0.0,0.0
44341,-1.319,0.153,-0.065,-74.634,-93.069,154.389,0.0,0.0
44401,-0.839,0.121,-0.023,-68.855,-92.901,163.626,0.0,0.0
44462,-0.580,0.221,-0.011,-68.076,-82.473,145.511,0.0,0.0
44565,-0.672,0.318,0.033,-55.924,-38.191,60.725,0.0,0.0
44628,-0.886,0.331,0.072,-51.794,3.053,-1.527,0.0,0.0
44685,-1.061,0.204,0.089,-34.824,35.214,-51.481,0.0,119.0
44741,-1.248,0.142,0.110,22.626,66.336,-83.198,0.0,119.0
44797,-1.028,0.138,0.059,42.908,88.588,-83.886,0.0,121.0
44858,-1.220,0.154,0.103,26.099,81.191,-87.695,0.0,0.0
44918,-1.081,0.019,0.181,97.656,73.382,-99.733,0.0,0.0
44979,-0.860,0.203,0.116,128.366,73.282,-95.443,0.0,0.0
45039,-0.799,0.341,0.100,60.473,61.664,-94.672,0.0,0.0
45101,-0.873,0.220,0.199,11.710,59.809,-85.160,0.0,0.0
45164,-1.022,0.190,0.237,11.420,44.588,-54.176,0.0,0.0
45224,-1.134,0.196,0.267,18.290,19.321,-22.260,0.0,0.0
45285,-1.184,0.207,0.229,24.679,-6.977,18.969,0.0,0.0
45346,-1.403,0.259,0.087,1.511,-30.053,47.870,0.0,0.0
45407,-1.353,0.179,0.028,-53.290,-66.649,106.160,0.0,0.0
45467,-1.491,0.175,-0.041,-74.298,-90.046,133.534,0.0,0.0
45528,-0.998,0.122,0.002,-63.244,-93.763,143.656,0.0,0.0
45589,-0.684,0.210,-0.018,-50.214,-84.160,139.038,0.0,0.0
45649,-0.667,0.257,-0.023,-72.382,-71.359,109.252,0.0,0.0
45714,-0.745,0.228,0.031,-65.061,-47.344,69.855,0.0,0.0
45769,-0.852,0.270,0.082,-40.817,-10.198,14.328,0.0,116.0
45826,-1.069,0.210,0.084,-16.534,22.802,-41.298,0.0,116.0
45882,-1.166,0.118,0.096,26.573,46.450,-71.328,0.0,117.0
45942,-0.995,0.123,0.098,59.275,69.580,-78.947,0.0,0.0
46004,-1.261,0.163,0.115,58.298,66.664,-106.992,0.0,0.0
46064,-1.141,0.071,0.164,114.916,63.565,-117.954,0.0,0.0
46125,-0.847,0.232,0.111,125.336,64.466,-108.405,0.0,0.0
46186,-0.790,0.290,0.124,61.763,47.664,-99.985,0.0,0.0
46249,-0.980,0.256,0.206,64.954,44.534,-77.000,0.0,0.0
46311,-0.982,0.444,0.251,10.053,35.733,-51.634,0.0,0.0
46371,-1.147,0.252,0.309,-32.237,13.450,-37.908,0.0,0.0
46432,-1.343,0.112,0.254,8.069,-15.916,20.641,0.0,0.0
46493,-1.294,0.196,0.062,14.389,-48.954,86.061,0.0,0.0
46554,-1.266,0.288,-0.010,-50.214,-57.160,134.076,0.0,0.0
46615,-1.305,0.209,-0.008,-99.771,-66.542,134.748,0.0,0.0
46670,-1.105,0.084,0.035,-68.634,-69.771,134.183,43.0,0.0
46722,-0.866,0.134,0.014,-52.031,-76.443,141.824,36.0,0.0
46786,-0.649,0.180,0.051,-43.962,-69.061,126.267,0.0,0.0
46846,-0.590,0.270,0.094,-22.473,-44.137,79.405,0.0,0.0
46908,-0.699,0.356,0.124,-12.756,-14.351,17.496,0.0,0.0
46968,-0.792,0.299,0.174,-8.504,22.359,-48.908,0.0,0.0
47030,-1.121,0.221,0.136,7.786,49.908,-100.748,0.0,0.0
47090,-1.125,0.129,0.127,55.061,73.916,-117.069,0.0,0.0
47152,-1.309,0.152,0.072,62.374,71.855,-125.679,0.0,0.0
47212,-1.243,0.112,0.130,84.740,60.504,-122.992,0.0,0.0
47273,-0.937,0.229,0.101,96.427,63.779,-113.817,0.0,0.0
47338,-0.778,0.283,0.121,33.511,49.878,-95.527,0.0,0.0
47404,-0.839,0.199,0.181,21.618,44.916,-76.771,0.0,0.0
47464,-0.878,0.228,0.184,25.214,36.557,-50.145,0.0,0.0
47523,-0.973,0.254,0.189,5.229,23.847,-20.084,0.0,0.0
47627,-1.407,0.286,0.113,-16.977,0.573,42.687,0.0,0.0
47680,-1.421,0.075,0.036,-62.366,-50.191,108.580,17.0,0.0
47729,-1.671,-0.030,-0.012,-78.687,-93.931,185.855,16.0,0.0
47790,-1.567,0.099,-0.022,-62.000,-111.901,200.840,0.0,0.0
47849,-1.035,0.121,0.000,-63.053,-110.809,173.947,0.0,0.0
47912,-0.587,0.136,0.063,-55.076,-92.328,146.137,0.0,0.0
47972,-0.521,0.194,0.071,-51.969,-69.573,100.603,0.0,0.0
48032,-0.558,0.189,0.087,-45.794,-42.832,35.786,0.0,0.0
48093,-0.759,0.205,0.140,1.275,-3.969,-38.031,0.0,0.0
48152,-0.988,0.211,0.110,44.855,38.435,-102.084,0.0,0.0
48212,-1.188,0.153,0.064,86.084,63.160,-145.244,0.0,0.0
48272,-1.240,0.153,0.002,91.969,79.565,-146.534,0.0,0.0
48332,-1.499,0.134,0.034,96.183,70.107,-145.840,0.0,0.0
48393,-1.223,0.123,0.060,148.824,72.244,-138.099,0.0,0.0
48455,-0.855,0.259,0.005,129.344,58.939,-109.176,0.0,0.0
48516,-0.791,0.299,0.062,82.489,42.061,-79.580,0.0,0.0
48575,-0.903,0.296,0.127,63.779,45.122,-65.939,0.0,0.0
48635,-0.918,0.296,0.197,32.855,47.496,-46.519,0.0,0.0
48696,-1.123,0.218,0.229,4.267,36.641,-16.008,0.0,0.0
48755,-1.488,0.149,0.197,19.954,8.527,28.061,0.0,0.0
48816,-1.345,0.115,0.114,4.863,-37.237,112.145,0.0,0.0
48875,-1.546,0.208,0.027,-67.115,-76.023,164.656,0.0,0.0
48935,-1.375,0.064,0.026,-93.160,-110.344,161.695,0.0,0.0
48999,-1.001,0.013,0.055,-36.176,-123.779,159.595,0.0,0.0
49059,-0.688,0.149,0.025,-9.702,-114.115,154.336,0.0,0.0
49119,-0.620,0.254,0.036,-38.687,-95.527,118.275,0.0,0.0
49179,-0.681,0.237,0.102,-46.069,-67.359,46.603,0.0,0.0
49240,-0.782,0.210,0.161,13.061,-17.863,-29.534,0.0,0.0
49300,-1.000,0.271,0.097,36.603,24.023,-83.061,0.0,0.0
49359,-1.016,0.186,0.073,50.420,60.840,-123.748,0.0,0.0
49420,-1.236,0.240,0.048,48.931,78.847,-135.252,0.0,0.0
49480,-1.485,0.122,0.075,81.824,75.969,-148.092,0.0,0.0
49544,-1.089,0.181,0.057,125.656,75.748,-121.519,0.0,0.0
49599,-0.811,0.310,0.034,83.595,55.618,-99.191,58.0,0.0
49651,-0.797,0.219,0.115,62.794,40.069,-83.687,69.0,0.0
49709,-0.852,0.190,0.137,90.130,32.374,-67.137,144.0,0.0
49766,-0.922,0.216,0.129,101.893,22.069,-43.855,142.0,0.0
49822,-0.967,0.278,0.105,88.412,14.198,-15.870,139.0,0.0
49879,-1.231,0.328,0.071,56.718,11.954,8.397,133.0,0.0
49935,-1.264,0.215,0.040,-8.924,-15.916,57.115,126.0,0.0
49988,-1.578,0.055,0.036,-22.893,-50.336,121.924,18.0,0.0
50044,-1.430,0.103,0.013,-14.191,-71.191,166.595,74.0,0.0
50099,-1.189,0.197,0.022,-41.237,-76.740,169.763,100.0,0.0
50155,-0.949,0.141,0.059,-74.420,-85.916,154.916,60.0,0.0
50207,-0.924,0.156,0.089,-57.847,-82.985,124.168,58.0,0.0
50263,-0.798,0.208,0.123,-45.305,-79.145,89.954,56.0,0.0
50315,-0.789,0.287,0.124,-38.458,-70.046,30.237,53.0,0.0
50370,-0.874,0.238,0.116,-14.702,-64.015,-19.893,51.0,0.0
50422,-0.919,0.162,0.184,31.626,-58.824,-43.847,51.0,0.0
50478,-0.873,0.103,0.276,109.092,-45.786,-62.084,51.0,0.0
50573,-0.750,0.390,0.343,98.573,8.282,-93.168,57.0,0.0
50628,-0.790,0.259,0.392,62.206,30.794,-121.954,60.0,0.0
50681,-0.852,0.234,0.382,72.710,52.679,-142.092,61.0,0.0
50734,-0.972,0.293,0.352,72.183,63.473,-149.099,74.0,0.0
50788,-1.055,0.310,0.360,59.282,61.679,-149.924,76.0,0.0
50841,-1.113,0.435,0.326,37.260,67.321,-123.847,79.0,0.0
50894,-1.066,0.420,0.303,-33.076,50.458,-93.481,81.0,0.0
50949,-0.985,0.239,0.297,-41.840,37.847,-45.740,79.0,0.0
51005,-1.020,0.335,0.203,-24.809,23.702,-12.008,77.0,0.0
51058,-0.973,0.396,0.118,-46.649,8.580,-3.260,74.0,0.0
51110,-1.052,0.243,0.074,-56.191,-1.107,16.924,71.0,0.0
51168,-0.969,0.246,0.037,-40.977,-6.099,51.748,66.0,0.0
51220,-0.987,0.415,-0.042,-73.779,-7.573,55.824,61.0,0.0
51276,-1.011,0.313,-0.044,-102.122,-8.618,48.458,59.0,0.0
51329,-1.089,0.308,-0.062,-100.756,-14.489,57.298,58.0,0.0
51384,-1.072,0.310,-0.069,-93.733,-21.405,69.183,57.0,0.0
51436,-1.086,0.384,-0.100,-100.863,-23.595,73.573,56.0,0.0
51513,-1.055,0.358,-0.056,-101.160,-25.260,78.221,57.0,0.0
51568,-0.997,0.369,0.015,-83.389,-27.702,80.649,58.0,0.0
51632,-0.919,0.366,0.129,-52.748,-37.450,83.954,0.0,0.0
51686,-0.831,0.515,0.180,-35.786,-34.008,83.031,63.0,0.0
51741,-0.696,0.483,0.239,-51.427,-26.885,70.664,65.0,0.0
51788,-0.605,0.384,0.276,-39.305,-16.328,42.817,64.0,55.0
51835,-0.640,0.364,0.260,-19.412,-2.855,15.969,64.0,57.0
51883,-0.700,0.338,0.223,-3.931,12.137,-15.626,64.0,57.0
51930,-0.831,0.327,0.150,14.473,30.061,-54.634,64.0,58.0
51979,-0.914,0.285,0.096,31.855,53.977,-93.458,58.0,57.0
52025,-1.083,0.235,0.022,37.099,68.809,-121.626,56.0,58.0
52072,-1.125,0.133,0.024,51.008,73.809,-128.679,56.0,60.0
52123,-1.304,0.158,0.031,75.244,77.481,-131.969,57.0,136.0
52173,-1.200,0.139,0.055,83.206,79.527,-127.702,47.0,129.0
52224,-1.037,0.166,0.098,76.084,74.756,-110.756,50.0,122.0
52276,-0.926,0.148,0.124,70.450,58.366,-94.244,100.0,118.0
52336,-0.895,0.116,0.180,93.870,43.084,-75.122,149.0,0.0
52396,-0.858,0.204,0.127,110.847,29.641,-50.710,147.0,0.0
52462,-0.868,0.309,0.114,77.183,28.740,-24.290,0.0,0.0
52526,-1.029,0.299,0.096,26.435,33.725,-0.458,0.0,0.0
52588,-1.366,0.281,0.055,-17.939,31.679,33.687,0.0,0.0
52647,-1.393,-0.005,0.069,-48.275,-17.489,108.511,0.0,128.0
52707,-1.503,-0.045,0.130,-41.855,-75.863,192.817,0.0,143.0
52764,-1.554,0.084,0.063,-42.008,-121.038,183.870,0.0,95.0
52816,-1.084,0.118,0.108,-28.718,-123.664,150.702,0.0,17.0
52874,-0.746,0.177,0.113,-26.031,-101.924,125.878,0.0,23.0
52927,-0.629,0.201,0.094,-40.137,-88.336,100.649,91.0,74.0
52980,-0.563,0.239,0.104,-34.885,-74.473,71.710,92.0,137.0
53033,-0.590,0.250,0.146,-6.649,-47.611,25.321,92.0,138.0
53093,-0.727,0.352,0.129,20.221,-8.137,-39.344,0.0,140.0
53147,-1.052,0.314,0.061,25.252,32.206,-110.832,97.0,139.0
53206,-1.159,0.134,0.065,68.489,53.084,-151.107,0.0,112.0
53258,-1.349,0.177,-0.023,99.481,73.099,-151.832,163.0,53.0
