Timestamp(ms),AccelX(g),AccelY(g),AccelZ(g),GyroX(deg/s),GyroY(deg/s),GyroZ(deg/s),DistanceLeft(cm),DistanceRight(cm)
31550,-1.240,0.357,-0.144,154.229,1.763,-117.588,0.0,0.0
31610,-0.830,0.363,-0.091,172.084,4.260,-76.916,0.0,0.0
31662,-0.704,0.570,-0.182,155.244,9.237,-60.992,0.0,49.0
31717,-0.649,0.599,-0.119,86.870,10.298,-75.420,0.0,50.0
31760,-0.783,0.526,-0.019,55.550,27.023,-112.153,52.0,51.0
31820,-0.964,0.455,0.067,43.328,42.305,-127.107,0.0,0.0
31880,-1.196,0.454,0.187,38.672,47.771,-117.069,0.0,0.0
31943,-1.391,0.476,0.167,21.733,30.137,-60.840,0.0,0.0
32004,-1.319,0.397,0.089,-18.275,-2.237,10.740,0.0,0.0
32063,-1.477,0.315,0.047,-51.832,-35.015,104.603,0.0,0.0
32123,-1.671,0.116,-0.042,-61.466,-73.298,189.611,0.0,0.0
32177,-1.195,0.191,-0.063,-52.939,-80.664,248.908,0.0,78.0
32234,-0.783,0.257,-0.095,-70.977,-77.969,227.687,0.0,92.0
32294,-0.576,0.228,-0.075,-88.496,-76.489,168.733,0.0,0.0
32355,-0.583,0.186,-0.031,-57.504,-66.779,96.702,0.0,0.0
32409,-0.664,0.235,-0.021,-8.947,-38.588,19.298,0.0,110.0
32465,-0.770,0.272,-0.012,23.687,-5.878,-57.145,0.0,74.0
32529,-0.966,0.234,-0.039,46.947,27.664,-113.122,0.0,0.0
32589,-0.958,0.273,-0.081,78.191,86.779,-185.588,0.0,0.0
32650,-1.359,0.351,-0.242,24.885,118.023,-212.641,0.0,0.0
32709,-1.366,0.102,-0.037,-24.710,86.252,-185.450,0.0,0.0
32770,-1.130,-0.025,0.164,115.740,78.580,-156.221,0.0,0.0
32829,-0.945,0.193,0.099,180.130,50.244,-109.107,180.0,0.0
32889,-0.879,0.318,0.078,168.084,26.137,-66.855,0.0,0.0
32949,-0.971,0.422,0.018,122.420,18.618,-37.092,0.0,0.0
33012,-1.072,0.482,-0.014,49.840,27.977,-13.672,0.0,0.0
33071,-1.147,0.379,0.038,-26.008,36.771,39.298,171.0,0.0
33128,-1.574,0.271,0.069,-72.244,20.366,101.359,159.0,0.0
33185,-1.877,-0.316,0.060,-53.092,-63.237,223.771,145.0,0.0
33244,-1.814,-0.015,0.037,23.168,-78.359,250.130,0.0,170.0
33299,-1.185,0.322,-0.062,-31.786,-80.664,250.130,0.0,107.0
33349,-0.696,0.213,0.035,-117.313,-84.962,213.878,0.0,30.0
33400,-0.476,0.079,0.110,-100.435,-81.824,146.924,0.0,38.0
33455,-0.414,0.113,0.088,-40.458,-71.832,66.504,0.0,43.0
33510,-0.412,0.188,0.071,4.023,-57.031,-8.931,0.0,103.0
33561,-0.649,0.330,0.049,36.954,-26.664,-102.015,0.0,51.0
33612,-0.964,0.227,-0.049,63.168,1.977,-182.023,0.0,45.0
33664,-1.362,0.183,-0.162,113.695,32.840,-236.290,0.0,43.0
33716,-1.415,0.265,-0.218,120.115,75.878,-250.137,0.0,44.0
33779,-1.720,0.344,-0.362,20.435,76.328,-250.137,0.0,0.0
33840,-1.380,-0.047,0.157,3.916,43.252,-192.947,0.0,0.0
33900,-1.018,-0.208,0.178,228.679,52.847,-127.626,0.0,0.0
33964,-0.906,0.323,-0.150,250.130,11.198,-86.038,0.0,0.0
34024,-0.875,0.633,-0.059,164.176,-0.321,-75.198,0.0,0.0
34083,-0.892,0.565,0.070,24.664,14.519,-68.198,0.0,0.0
34144,-1.016,0.378,0.140,-34.298,27.298,-31.626,0.0,0.0
34204,-1.358,0.226,0.114,-37.092,23.863,52.847,0.0,0.0
34265,-1.505,0.122,0.026,-67.405,5.779,176.656,0.0,0.0
34325,-1.870,0.129,-0.019,-135.550,-8.244,250.130,0.0,0.0
34385,-1.629,0.108,-0.094,-174.809,-52.000,250.130,0.0,0.0
34482,-0.695,0.072,0.051,-92.573,-69.389,199.107,0.0,79.0
34539,-0.586,0.197,0.022,-59.847,-53.130,140.008,0.0,99.0
34599,-0.592,0.258,-0.035,-58.481,-39.740,63.817,192.0,0.0
34652,-0.751,0.266,0.007,-29.336,-13.061,-21.237,189.0,70.0
34705,-0.883,0.251,-0.013,1.458,17.740,-89.389,0.0,71.0
34757,-1.183,0.198,-0.078,40.855,45.237,-131.809,192.0,70.0
34814,-1.119,0.180,-0.047,72.000,76.954,-161.901,0.0,142.0
34875,-1.325,0.309,-0.084,51.290,98.344,-175.282,0.0,0.0
34930,-1.398,0.131,0.045,8.176,73.664,-170.588,0.0,104.0
34991,-1.094,-0.049,0.244,92.817,62.046,-145.206,0.0,0.0
35054,-0.828,0.137,0.122,198.878,47.733,-110.290,0.0,0.0
35115,-0.907,0.479,-0.009,148.000,24.611,-103.374,0.0,0.0
35175,-0.977,0.448,0.103,33.542,18.718,-95.802,0.0,0.0
35235,-1.083,0.333,0.166,-4.611,18.328,-62.328,0.0,0.0
35296,-1.087,0.224,0.142,-1.351,1.435,4.802,0.0,0.0
35356,-1.395,0.320,0.054,-6.756,-1.298,87.359,0.0,0.0
35417,-1.528,0.210,-0.043,-64.908,-29.656,168.038,0.0,0.0
35477,-1.834,0.067,-0.141,-107.382,-53.191,244.710,0.0,0.0
35537,-1.408,0.099,-0.118,-108.237,-63.214,250.130,0.0,0.0
35601,-0.761,0.159,-0.043,-101.603,-56.466,232.267,0.0,0.0
35661,-0.612,0.232,-0.082,-103.305,-49.053,173.382,0.0,0.0
35718,-0.569,0.219,-0.038,-78.763,-38.221,93.557,0.0,114.0
35776,-0.677,0.254,-0.013,-41.298,-7.069,16.573,0.0,170.0
35832,-0.783,0.315,-0.001,-12.305,38.771,-74.931,0.0,126.0
35890,-1.083,0.235,-0.025,-6.550,74.107,-133.504,126.0,0.0
35942,-1.140,0.173,0.033,21.519,99.611,-180.496,125.0,145.0
35995,-1.267,0.134,0.050,28.366,116.450,-188.260,125.0,144.0
36052,-1.444,0.080,0.026,24.687,95.779,-175.504,126.0,145.0
36113,-1.247,0.021,0.154,101.160,84.076,-160.893,0.0,0.0
36173,-0.952,0.156,0.083,148.191,64.008,-123.191,0.0,0.0
36234,-0.900,0.334,0.055,115.840,40.099,-81.137,0.0,0.0
36294,-0.914,0.350,0.132,54.626,30.321,-54.870,0.0,0.0
36356,-0.963,0.382,0.189,9.733,24.580,-28.260,0.0,0.0
36416,-1.070,0.337,0.196,-16.397,9.656,-6.656,0.0,0.0
36476,-1.463,0.265,0.135,-15.023,-8.618,42.504,0.0,0.0
36537,-1.531,0.038,-0.012,-21.618,-47.893,141.695,0.0,0.0
36600,-1.825,0.051,-0.219,-65.107,-61.023,250.130,0.0,0.0
36662,-1.503,0.165,-0.212,-99.588,-70.351,250.130,0.0,0.0
36722,-0.838,0.152,-0.112,-93.412,-70.206,230.305,0.0,0.0
36783,-0.447,0.165,-0.035,-77.084,-55.901,171.420,0.0,0.0
36844,-0.415,0.240,-0.050,-55.870,-31.702,92.527,0.0,0.0
36904,-0.584,0.272,-0.011,-43.191,-9.229,7.664,0.0,0.0
36965,-0.772,0.314,0.016,-20.198,30.534,-82.901,0.0,0.0
37022,-1.106,0.230,-0.009,-7.489,66.122,-147.198,0.0,145.0
37084,-1.290,0.134,0.022,38.733,87.153,-190.389,0.0,0.0
37147,-1.385,0.183,-0.003,64.382,104.985,-201.916,0.0,0.0
37208,-1.597,0.120,-0.028,21.863,71.649,-166.282,0.0,0.0
37269,-1.191,0.023,0.208,81.053,50.702,-116.786,0.0,0.0
37329,-0.774,0.163,0.130,132.527,32.122,-80.031,0.0,0.0
37390,-0.711,0.297,0.066,121.672,14.878,-60.397,0.0,0.0
37494,-0.840,0.414,0.099,25.443,22.527,-51.267,0.0,0.0
37555,-1.084,0.304,0.161,-13.092,21.435,-33.863,0.0,0.0
37615,-1.269,0.139,0.183,4.939,8.924,31.740,0.0,0.0
37677,-1.371,0.214,0.044,-0.328,-7.947,109.359,0.0,0.0
37740,-1.700,0.113,-0.036,-66.756,-34.443,200.115,0.0,0.0
37801,-1.710,0.090,-0.083,-93.183,-55.153,243.351,0.0,0.0
37862,-1.065,0.141,-0.032,-89.817,-63.672,219.511,0.0,0.0
37915,-0.517,0.154,0.024,-81.939,-50.802,185.260,0.0,71.0
37971,-0.456,0.219,-0.000,-68.496,-35.351,129.176,0.0,112.0
38028,-0.555,0.255,-0.008,-54.298,-22.153,56.122,0.0,117.0
38088,-0.673,0.269,0.012,-36.031,-1.641,-21.038,0.0,0.0
38150,-0.946,0.272,0.010,-3.847,30.840,-102.351,0.0,0.0
38210,-1.296,0.182,0.001,36.221,57.573,-156.344,0.0,0.0
38275,-1.137,0.212,0.012,52.450,92.099,-173.954,0.0,0.0
38328,-1.497,0.183,-0.048,-3.885,77.076,-155.321,0.0,73.0
38381,-1.245,0.009,0.192,33.160,48.969,-132.260,0.0,72.0
38435,-0.984,0.025,0.199,119.099,41.298,-100.740,0.0,72.0
38496,-0.802,0.210,0.089,144.542,22.458,-71.893,0.0,0.0
38557,-0.752,0.318,0.075,112.588,9.206,-49.840,0.0,0.0
38618,-0.780,0.368,0.074,57.481,16.840,-31.626,0.0,0.0
38679,-0.938,0.330,0.115,2.008,24.366,-18.473,0.0,0.0
38739,-1.013,0.183,0.143,-3.374,23.061,14.519,0.0,0.0
38804,-1.416,0.242,0.144,18.832,27.321,60.328,0.0,0.0
38864,-1.499,0.076,0.002,-50.901,-28.924,130.473,0.0,0.0
38926,-1.825,-0.190,0.145,-17.282,-85.656,235.931,0.0,115.0
38986,-1.455,0.089,0.059,15.847,-96.550,232.511,0.0,0.0
39046,-0.758,0.151,0.112,-18.305,-102.191,180.573,0.0,0.0
39106,-0.430,0.126,0.164,-20.290,-84.802,117.206,0.0,0.0
39166,-0.448,0.174,0.124,0.931,-63.626,35.481,0.0,0.0
39226,-0.514,0.219,0.116,25.511,-38.527,-41.672,0.0,0.0
39286,-0.781,0.283,0.071,61.611,-10.763,-112.565,0.0,0.0
39349,-1.030,0.262,-0.053,85.107,2.878,-152.924,0.0,0.0
39408,-1.389,0.255,-0.158,145.038,14.160,-197.397,191.0,0.0
39468,-1.243,0.173,-0.169,136.015,39.618,-174.489,193.0,0.0
39528,-1.575,0.217,-0.239,102.733,24.031,-159.214,197.0,0.0
39588,-1.160,0.075,-0.006,173.366,20.160,-122.931,200.0,0.0
39648,-0.850,0.224,-0.113,219.931,23.618,-85.443,0.0,0.0
39708,-0.745,0.425,-0.076,157.206,10.924,-63.084,0.0,0.0
39769,-0.824,0.410,0.042,88.840,22.229,-60.435,0.0,0.0
39831,-0.956,0.424,0.129,38.855,39.664,-61.405,0.0,0.0
39890,-1.122,0.345,0.163,-3.191,45.809,-40.153,0.0,0.0
39951,-1.424,0.158,0.180,-14.298,28.771,30.435,0.0,0.0
40011,-1.322,0.097,0.193,-15.611,-2.916,135.511,0.0,0.0
40071,-1.629,0.125,0.099,-59.985,-39.595,219.290,0.0,0.0
40131,-1.625,0.102,-0.003,-88.901,-81.023,230.038,0.0,0.0
40192,-1.012,0.140,0.006,-78.534,-95.557,193.824,0.0,0.0
40251,-0.581,0.127,0.043,-60.870,-80.389,157.099,0.0,0.0
40311,-0.464,0.183,0.023,-48.366,-55.962,105.221,0.0,0.0
40375,-0.589,0.237,0.022,-39.672,-35.336,26.069,0.0,0.0
40434,-0.784,0.282,0.066,6.252,0.183,-63.977,0.0,0.0
40538,-1.264,0.161,-0.057,63.015,44.885,-166.420,0.0,0.0
40598,-1.243,0.173,-0.041,86.878,62.206,-180.756,0.0,0.0
40657,-1.430,0.191,-0.094,40.412,64.496,-150.076,0.0,0.0
40718,-1.323,0.078,0.088,50.160,41.580,-122.031,0.0,0.0
40778,-0.877,0.075,0.151,138.771,35.244,-92.718,0.0,0.0
40839,-0.712,0.308,0.061,151.435,28.160,-69.023,0.0,0.0
40898,-0.734,0.479,0.096,76.519,24.435,-71.809,0.0,0.0
40962,-0.852,0.422,0.192,4.008,28.824,-69.496,0.0,0.0
41022,-1.132,0.333,0.216,-15.099,19.962,-43.015,0.0,0.0
41081,-1.336,0.139,0.221,5.374,-2.901,34.962,0.0,0.0
41142,-1.513,0.195,0.017,13.771,-19.053,126.695,0.0,0.0
41202,-1.458,0.247,-0.068,-30.282,-35.397,199.282,0.0,0.0
41263,-1.575,0.241,-0.192,-98.053,-43.458,226.489,0.0,0.0
41323,-1.072,0.138,-0.079,-116.160,-48.756,213.481,0.0,0.0
41383,-0.729,0.199,-0.060,-90.679,-41.076,176.282,0.0,0.0
41444,-0.584,0.257,-0.058,-78.588,-27.412,125.527,0.0,0.0
41502,-0.577,0.247,-0.012,-65.786,-9.252,58.137,0.0,124.0
41559,-0.701,0.328,0.022,-37.687,17.824,-12.641,0.0,120.0
41614,-0.940,0.289,0.015,-23.710,44.344,-84.679,0.0,124.0
41668,-1.150,0.194,0.043,-9.840,53.481,-118.588,0.0,85.0
41721,-1.239,0.095,0.053,57.351,60.275,-151.947,0.0,83.0
41782,-1.197,0.189,0.048,110.962,73.763,-162.000,0.0,0.0
41842,-1.408,0.273,-0.027,64.344,61.107,-167.534,0.0,0.0
41903,-1.166,0.143,0.135,58.641,37.130,-152.634,0.0,0.0
41963,-0.857,0.175,0.185,97.260,35.626,-116.878,0.0,0.0
42025,-0.847,0.352,0.130,68.191,19.305,-94.740,0.0,0.0
42086,-0.875,0.331,0.167,25.847,9.786,-77.450,0.0,0.0
42146,-0.966,0.266,0.198,27.397,3.748,-46.298,0.0,0.0
42207,-1.066,0.267,0.114,27.603,-4.313,17.954,0.0,0.0
42267,-1.325,0.325,-0.015,1.603,-0.420,93.137,0.0,0.0
42328,-1.537,0.290,-0.132,-81.969,-15.756,164.542,0.0,0.0
42383,-1.762,0.068,-0.176,-138.458,-36.321,228.656,0.0,108.0
42438,-1.414,0.103,-0.098,-109.443,-42.351,232.191,0.0,122.0
42493,-0.867,0.140,-0.062,-94.634,-43.954,209.863,0.0,103.0
42557,-0.560,0.184,-0.036,-88.824,-39.740,168.107,0.0,0.0
42617,-0.539,0.217,-0.043,-68.886,-29.595,98.634,0.0,0.0
42675,-0.622,0.225,0.003,-39.840,-13.298,29.534,0.0,136.0
42735,-0.788,0.335,0.008,-9.802,15.687,-47.550,0.0,0.0
42796,-1.098,0.257,0.016,16.496,49.626,-125.496,0.0,0.0
42856,-1.044,0.204,0.044,56.397,88.641,-184.435,0.0,0.0
42915,-1.317,0.219,-0.001,11.382,94.878,-181.359,0.0,182.0
42975,-1.413,0.023,0.118,15.786,58.038,-157.969,0.0,182.0
43034,-1.129,0.066,0.134,125.405,63.305,-119.702,0.0,182.0
43097,-0.857,0.392,0.003,100.191,43.626,-81.832,0.0,182.0
43157,-0.732,0.395,0.085,4.939,31.290,-65.626,0.0,186.0
43216,-0.853,0.300,0.171,-17.290,31.359,-52.076,0.0,190.0
43277,-0.952,0.290,0.206,-19.962,16.840,-29.115,0.0,0.0
43337,-1.198,0.250,0.146,-13.214,-1.992,6.153,0.0,0.0
43398,-1.512,0.290,0.007,-14.046,-18.885,59.466,0.0,0.0
43459,-1.560,0.221,-0.083,-51.504,-54.626,136.916,0.0,0.0
43557,-1.501,0.106,-0.223,-100.908,-87.282,206.809,111.0,0.0
43608,-1.048,0.014,-0.092,-66.939,-95.450,230.832,116.0,53.0
43656,-0.956,0.347,-0.118,-61.748,-103.901,238.107,111.0,63.0
43708,-0.838,0.541,0.061,-161.443,-140.573,209.069,0.0,53.0
43759,-0.690,0.553,0.233,-157.374,-162.321,167.992,0.0,43.0
43812,-0.538,0.805,0.401,-202.435,-158.092,117.679,0.0,61.0
43858,-0.249,0.283,0.645,-250.137,-130.191,48.198,83.0,67.0
43906,-0.218,-0.046,0.925,-194.779,-96.092,30.061,82.0,73.0
43953,-0.030,0.147,0.878,-120.863,-58.214,21.336,81.0,94.0
44007,-0.148,-0.049,0.999,-136.115,-40.061,2.550,83.0,0.0
44064,-0.334,-0.081,0.927,-56.031,-26.679,-8.008,84.0,0.0
44118,0.021,-0.135,0.845,-53.969,-18.794,2.634,82.0,0.0
44171,0.187,-0.172,0.722,-40.260,-14.718,0.557,58.0,0.0
44223,0.193,-0.225,0.698,-26.084,-23.153,-9.229,55.0,0.0
44277,0.178,-0.211,0.701,-7.275,-20.809,-14.985,85.0,0.0
44332,0.268,-0.218,0.786,12.382,-22.931,-20.710,87.0,0.0
44386,0.288,-0.212,0.943,-7.809,-15.450,-11.260,92.0,0.0
44446,0.287,-0.260,0.983,-12.298,-20.527,-2.649,0.0,0.0
44498,0.317,-0.255,1.195,27.794,-14.137,-16.496,51.0,0.0
44563,0.159,-0.158,1.110,-2.779,-10.649,-18.290,0.0,0.0
44623,0.139,-0.044,1.033,18.466,0.710,-23.786,0.0,0.0
44684,0.137,-0.201,0.890,35.420,29.618,-28.595,0.0,197.0
44744,0.084,-0.177,0.629,62.916,52.260,-44.092,0.0,0.0
44805,0.106,-0.216,0.554,125.321,82.443,-72.611,0.0,0.0
44865,-0.064,0.089,0.459,149.168,100.939,-100.344,191.0,0.0
44925,-0.386,0.203,0.456,182.351,124.565,-142.954,191.0,0.0
44986,-0.902,0.097,0.514,244.282,140.985,-172.282,194.0,0.0
45042,-1.486,0.671,-0.074,250.130,108.588,-200.435,0.0,59.0
45088,-1.643,0.954,-0.280,250.130,58.534,-225.817,108.0,35.0
45134,-1.272,1.338,-0.219,110.489,44.824,-237.099,109.0,30.0
45180,-1.356,0.605,-0.018,75.336,62.756,-196.977,112.0,29.0
45231,-1.450,0.763,-0.192,87.092,52.443,-152.405,106.0,118.0
45287,-1.095,0.431,-0.010,87.008,21.183,-108.183,116.0,0.0
45340,-0.799,0.274,0.047,174.435,4.122,-57.084,119.0,149.0
45398,-0.715,0.491,-0.061,193.611,-8.008,-47.023,183.0,146.0
45454,-0.719,0.547,0.044,134.908,-3.908,-61.962,183.0,146.0
45514,-0.847,0.572,0.077,87.038,19.099,-78.427,181.0,148.0
45572,-1.134,0.450,0.074,23.855,24.786,-66.618,177.0,153.0
45628,-1.443,0.370,0.087,6.244,21.214,0.580,170.0,160.0
45685,-1.298,0.168,0.113,-10.450,1.168,118.053,161.0,171.0
45743,-1.608,0.183,0.052,-35.397,-20.450,221.107,149.0,183.0
45800,-1.676,0.243,-0.071,-65.634,-49.412,250.130,137.0,0.0
45851,-1.031,0.188,-0.020,-83.534,-62.634,226.061,126.0,103.0
45902,-0.650,0.181,0.031,-75.664,-52.298,195.565,111.0,108.0
45953,-0.554,0.210,0.017,-75.832,-41.015,139.382,105.0,50.0
45999,-0.516,0.244,-0.007,-64.176,-33.870,73.359,101.0,52.0
46046,-0.549,0.243,0.031,-31.260,-24.359,-2.252,98.0,56.0
46093,-0.688,0.271,0.047,16.252,-7.580,-80.252,97.0,57.0
46138,-0.827,0.278,-0.010,49.412,8.985,-145.115,82.0,57.0
46184,-1.212,0.260,-0.068,83.565,22.290,-197.137,83.0,56.0
46274,-1.450,0.358,-0.147,54.321,58.435,-217.321,92.0,57.0
46334,-1.536,0.156,-0.064,-15.382,33.893,-172.725,92.0,0.0
46388,-1.152,-0.020,0.211,61.985,23.328,-111.321,93.0,0.0
46445,-0.799,0.147,0.116,167.137,23.634,-66.267,98.0,0.0
46505,-0.724,0.456,-0.017,133.847,5.344,-54.565,0.0,0.0
46565,-0.739,0.482,0.104,58.443,10.687,-60.282,0.0,0.0
46625,-0.857,0.482,0.102,-4.351,14.412,-47.748,0.0,0.0
46685,-1.057,0.378,0.138,-20.748,15.939,-13.458,0.0,0.0
46744,-1.332,0.337,0.041,-23.427,10.847,46.634,193.0,0.0
46803,-1.476,0.240,-0.020,-40.733,-5.885,126.435,181.0,0.0
46855,-1.571,0.277,-0.150,-96.031,-15.336,190.046,167.0,80.0
46906,-1.715,0.202,-0.233,-137.191,-30.130,208.107,157.0,93.0
46966,-1.246,0.055,-0.134,-125.557,-54.534,215.573,145.0,0.0
47016,-0.807,0.102,-0.048,-75.809,-58.046,204.328,149.0,82.0
47070,-0.594,0.190,-0.059,-43.916,-52.954,162.603,0.0,86.0
47116,-0.443,0.247,-0.036,-25.191,-38.023,100.748,88.0,54.0
47163,-0.453,0.286,-0.026,-24.336,-20.679,39.870,87.0,90.0
47208,-0.612,0.326,0.014,-13.733,7.649,-36.282,90.0,56.0
47253,-0.755,0.350,0.013,-3.618,40.511,-114.550,89.0,56.0
47298,-1.255,0.281,-0.103,13.000,62.450,-181.748,71.0,54.0
47344,-1.392,0.139,-0.067,58.763,71.397,-225.443,69.0,53.0
47397,-1.492,0.183,-0.138,95.443,90.450,-245.870,71.0,0.0
47449,-1.522,0.175,-0.252,47.634,64.855,-215.366,102.0,146.0
47504,-1.439,0.049,-0.067,60.687,33.084,-165.366,104.0,0.0
47558,-1.101,-0.005,-0.058,185.473,35.359,-115.550,107.0,0.0
47619,-0.929,0.291,-0.195,203.298,18.916,-71.275,0.0,0.0
47679,-0.791,0.354,-0.116,129.779,1.710,-45.634,0.0,0.0
47739,-0.782,0.325,-0.090,88.458,20.649,-20.840,0.0,0.0
47799,-0.795,0.350,-0.015,49.748,33.496,-6.450,0.0,0.0
47856,-0.889,0.278,0.073,25.557,47.969,6.214,0.0,95.0
47910,-1.085,0.254,0.077,20.176,51.336,33.634,0.0,98.0
47965,-1.333,0.312,0.098,-2.756,54.473,65.099,0.0,103.0
48020,-1.452,-0.008,0.155,-54.664,13.679,151.450,0.0,114.0
48076,-1.460,-0.118,0.373,26.595,-56.641,200.954,0.0,123.0
48133,-0.987,0.447,0.067,56.756,-60.206,196.267,0.0,135.0
48190,-0.824,0.763,-0.100,-73.519,-36.221,155.954,0.0,149.0
48249,-0.900,0.589,-0.127,-138.176,-19.145,150.763,183.0,0.0
48311,-0.743,0.427,-0.048,-111.779,-18.863,149.817,172.0,0.0
48360,-0.645,0.420,-0.040,-59.252,-20.924,107.031,162.0,46.0
48409,-0.646,0.433,-0.014,-38.282,-14.229,55.344,155.0,48.0
48458,-0.753,0.412,-0.010,-21.962,1.611,-15.351,148.0,51.0
48506,-1.026,0.360,-0.004,18.718,23.061,-98.122,144.0,53.0
48556,-0.824,0.220,0.083,32.954,67.221,-144.565,142.0,53.0
48604,-1.354,0.335,-0.060,-8.107,91.863,-163.206,140.0,54.0
48651,-1.335,0.159,0.069,-25.084,61.061,-190.893,119.0,55.0
48698,-1.071,0.052,0.244,19.908,70.557,-183.649,117.0,57.0
48750,-0.973,0.173,0.155,47.824,69.893,-162.481,116.0,77.0
48803,-0.928,0.270,0.136,20.252,41.740,-137.420,0.0,79.0
48857,-0.952,0.192,0.219,19.595,20.649,-112.992,0.0,81.0
48910,-0.967,0.247,0.226,57.733,16.351,-86.916,0.0,85.0
49008,-0.865,0.331,0.134,-13.573,-10.725,-34.366,0.0,100.0
49063,-1.186,0.265,0.084,13.061,1.221,13.183,0.0,106.0
49119,-1.416,0.424,-0.130,-35.504,-4.427,51.901,0.0,115.0
49175,-1.646,0.172,-0.154,-119.275,-34.588,147.916,0.0,129.0
49229,-1.939,-0.158,-0.227,-147.771,-66.557,250.130,0.0,104.0
49288,-1.312,-0.095,-0.074,-72.420,-82.435,250.130,191.0,0.0
49348,-0.664,0.187,-0.042,-19.641,-62.008,250.130,200.0,0.0
49408,-0.476,0.281,-0.050,-48.725,-37.763,180.328,190.0,0.0
49459,-0.453,0.199,-0.010,-76.260,-34.359,86.221,121.0,111.0
49507,-0.559,0.194,0.041,-35.382,-17.344,3.924,121.0,57.0
49561,-0.754,0.271,0.015,19.305,7.267,-82.321,0.0,105.0
49615,-1.164,0.239,-0.122,72.847,26.679,-170.977,173.0,106.0
49670,-1.155,0.210,-0.118,101.092,59.099,-221.504,175.0,117.0
49730,-1.547,0.294,-0.276,55.809,88.328,-226.282,148.0,0.0
49787,-1.514,0.152,-0.165,-6.382,60.489,-209.298,148.0,0.0
49846,-1.133,-0.024,0.143,86.649,63.786,-165.260,151.0,0.0
49906,-0.934,0.159,0.047,163.076,47.206,-110.069,0.0,197.0
49966,-0.793,0.305,0.015,154.313,24.802,-67.092,0.0,194.0
50026,-0.865,0.392,-0.028,111.237,27.435,-34.290,0.0,196.0
50086,-0.999,0.487,0.019,60.748,35.397,-23.710,0.0,201.0
50147,-1.068,0.385,0.104,-7.023,39.008,7.137,0.0,0.0
50207,-1.485,0.333,0.185,-49.672,23.061,75.008,0.0,0.0
50271,-1.630,-0.110,0.126,-36.985,-46.099,179.634,0.0,0.0
50332,-1.926,-0.003,-0.041,0.382,-68.359,250.130,0.0,0.0
50393,-1.484,0.313,-0.130,-59.191,-79.099,250.130,0.0,0.0
50445,-0.891,0.177,-0.061,-116.374,-84.481,229.237,0.0,54.0
50497,-0.571,0.101,0.075,-86.031,-69.832,167.382,0.0,61.0
50555,-0.400,0.158,0.037,-47.649,-49.687,91.649,0.0,99.0
50611,-0.397,0.234,0.029,-20.496,-30.473,0.435,0.0,104.0
50666,-0.457,0.244,0.067,12.153,-6.771,-85.336,0.0,104.0
50723,-0.747,0.322,-0.005,50.611,25.069,-170.282,0.0,98.0
50785,-1.417,0.350,-0.147,105.763,38.405,-232.924,0.0,0.0
50845,-1.251,0.208,-0.096,141.122,60.962,-244.389,0.0,0.0
50905,-1.608,0.509,-0.293,53.672,68.183,-223.160,0.0,183.0
50957,-1.367,0.055,0.025,-5.427,42.954,-158.527,0.0,45.0
51016,-1.069,-0.073,0.171,135.672,47.122,-96.504,0.0,175.0
51075,-0.832,0.221,-0.042,215.573,19.260,-38.160,0.0,173.0
51132,-0.765,0.426,-0.051,165.122,6.000,-15.076,0.0,142.0
51189,-0.824,0.498,0.049,86.298,13.794,-20.565,0.0,142.0
51251,-0.898,0.455,0.134,15.267,22.366,-21.969,0.0,145.0
51308,-1.139,0.343,0.166,-13.679,16.595,-3.824,0.0,152.0
51366,-1.315,0.201,0.187,7.954,4.870,54.779,0.0,161.0
51426,-1.458,0.268,0.074,0.107,-10.595,125.496,0.0,172.0
51479,-1.614,0.187,0.003,-56.015,-30.863,202.672,0.0,72.0
51533,-1.661,0.190,-0.096,-93.481,-47.595,231.855,0.0,83.0
51594,-1.106,0.152,-0.062,-98.603,-63.817,220.198,0.0,0.0
51654,-0.588,0.158,-0.010,-68.374,-58.153,188.489,0.0,0.0
51709,-0.361,0.204,0.014,-47.931,-46.153,125.786,0.0,105.0
51767,-0.384,0.291,0.000,-26.603,-30.511,34.931,0.0,77.0
51822,-0.598,0.329,0.034,-2.267,-7.763,-58.733,0.0,99.0
51926,-1.131,0.239,-0.001,38.969,38.977,-176.481,0.0,0.0
51986,-1.218,0.241,-0.011,65.458,60.221,-215.130,0.0,0.0
52047,-1.416,0.286,-0.055,23.191,78.802,-203.359,0.0,0.0
52104,-1.482,0.092,-0.036,-26.985,59.008,-150.733,0.0,119.0
52164,-1.099,0.013,0.198,65.405,45.031,-93.588,0.0,0.0
52225,-0.767,0.247,0.097,132.595,30.267,-56.725,0.0,0.0
52286,-0.730,0.448,0.077,95.321,21.779,-54.275,0.0,0.0
52349,-0.799,0.473,0.136,11.000,20.092,-57.405,0.0,0.0
52411,-0.991,0.316,0.198,-35.061,7.664,-20.802,0.0,0.0
52471,-1.262,0.216,0.137,-26.794,-10.252,32.947,0.0,0.0
52532,-1.410,0.272,0.050,-16.763,-21.618,107.084,0.0,0.0
52588,-1.535,0.224,-0.203,-55.252,-34.237,170.550,106.0,0.0
52648,-1.495,0.280,-0.320,-120.084,-20.466,218.183,0.0,0.0
52710,-1.226,0.307,-0.363,-173.214,-18.771,184.802,0.0,0.0
52770,-0.732,0.073,-0.123,-107.176,-34.710,148.534,0.0,0.0
52835,-0.467,0.205,-0.086,-4.466,-18.664,130.969,0.0,0.0
52895,-0.434,0.404,-0.157,0.695,-1.389,79.916,0.0,0.0
52957,-0.575,0.429,-0.129,-15.962,12.740,20.046,0.0,0.0
53017,-0.692,0.463,-0.026,11.542,45.939,-41.916,0.0,0.0
53078,-1.101,0.928,-0.072,28.939,66.588,-59.153,0.0,0.0
53139,-1.149,0.854,0.196,4.626,66.267,-75.336,0.0,0.0
53199,-1.367,0.629,0.322,8.618,4.611,-2.145,0.0,0.0
53261,-1.169,0.654,0.242,35.489,-16.313,75.427,0.0,0.0
53313,-0.660,0.586,0.209,-36.725,-38.275,92.847,0.0,57.0
53369,-0.535,0.408,0.201,-48.305,-49.344,77.000,0.0,59.0
53422,-0.418,0.384,0.257,-7.771,-52.374,63.534,0.0,53.0
53475,-0.431,0.628,0.176,13.069,-43.901,44.878,0.0,54.0
53531,-0.418,0.684,0.200,4.695,-30.481,26.351,0.0,53.0
53588,-0.483,0.682,0.152,13.275,-13.298,-2.511,0.0,50.0
53644,-0.691,0.792,0.085,37.290,-8.878,-25.496,0.0,50.0
53695,-0.802,0.957,0.112,59.443,-9.405,-52.489,0.0,51.0
53749,-0.781,1.042,0.202,15.840,-18.137,-24.458,0.0,51.0
53801,-0.780,0.941,0.231,2.450,-39.191,-20.153,0.0,54.0
53856,-0.573,0.753,0.240,25.374,-59.786,-1.458,0.0,54.0
53911,-0.435,0.665,0.141,32.443,-66.634,8.916,0.0,57.0
53964,-0.393,0.597,0.028,11.832,-66.527,1.206,0.0,90.0
54019,-0.435,0.480,-0.009,14.046,-59.244,-21.176,0.0,90.0
54071,-0.530,0.497,-0.091,30.901,-30.985,-69.435,0.0,62.0
54134,-0.843,0.521,-0.218,22.878,-1.626,-141.641,0.0,0.0
54194,-1.184,0.339,-0.219,10.328,22.779,-216.290,0.0,0.0
54254,-1.337,0.171,-0.108,49.550,46.786,-243.023,0.0,0.0
54315,-1.573,0.210,-0.105,67.015,51.130,-218.519,0.0,0.0
54377,-1.545,0.021,0.041,91.840,22.153,-149.237,0.0,0.0
54437,-1.021,0.059,0.014,218.702,10.168,-70.702,0.0,0.0
54497,-0.712,0.390,-0.105,208.954,-10.435,-32.573,0.0,0.0
54557,-0.654,0.722,-0.055,74.969,-3.275,-19.939,0.0,0.0
54618,-0.709,0.552,0.135,-23.824,8.634,-18.198,0.0,0.0
54677,-0.850,0.426,0.167,-12.229,22.260,6.672,0.0,0.0
54737,-1.000,0.440,0.112,-16.328,16.840,32.267,0.0,0.0
54789,-1.247,0.396,0.050,-27.817,23.466,73.771,0.0,57.0
54885,-1.777,0.186,-0.222,-177.939,5.695,186.298,0.0,79.0
54948,-1.726,0.022,-0.144,-185.847,-12.084,250.130,0.0,0.0
55009,-1.162,0.156,-0.062,-110.298,-31.031,225.092,0.0,0.0
55061,-0.655,0.187,0.015,-91.886,-33.252,179.076,0.0,59.0
55113,-0.491,0.208,0.005,-100.496,-28.153,122.504,0.0,68.0
55170,-0.448,0.160,0.071,-83.527,-25.809,55.641,0.0,73.0
55224,-0.590,0.174,0.076,-21.779,-8.305,-30.031,0.0,88.0
55276,-0.785,0.218,0.030,65.031,16.466,-111.183,0.0,66.0
55332,-1.067,0.243,-0.068,105.466,32.321,-164.763,0.0,71.0
55386,-1.360,0.215,-0.218,164.947,48.580,-220.115,0.0,69.0
55446,-1.445,0.313,-0.345,131.275,67.679,-212.053,0.0,154.0
55506,-1.585,0.317,-0.376,24.351,58.229,-177.618,0.0,0.0
55567,-1.206,0.031,-0.042,54.756,56.695,-114.466,0.0,0.0
55620,-0.796,0.114,-0.044,142.458,48.069,-51.695,16.0,0.0
55681,-0.717,0.300,-0.139,165.840,31.771,-35.672,0.0,0.0
55738,-0.810,0.381,-0.121,133.145,32.473,-35.229,151.0,0.0
55795,-0.871,0.369,-0.016,99.641,35.130,-36.649,148.0,0.0
55856,-1.024,0.405,0.074,73.565,42.618,-22.389,0.0,0.0
55915,-1.160,0.316,0.175,44.489,33.405,24.000,0.0,0.0
55979,-1.407,0.298,0.136,-9.305,-2.008,99.435,0.0,0.0
56039,-1.838,-0.018,0.161,-17.580,-45.687,233.214,0.0,0.0
56099,-1.923,0.174,-0.076,-10.519,-77.954,250.130,198.0,0.0
56160,-1.146,0.311,-0.104,-68.695,-86.389,250.130,0.0,0.0
56213,-0.677,0.163,-0.012,-97.366,-78.527,195.695,0.0,86.0
56265,-0.497,0.163,-0.009,-71.305,-59.779,132.427,0.0,57.0
56317,-0.454,0.169,0.012,-41.481,-45.038,70.443,0.0,58.0
56371,-0.499,0.262,0.010,-17.687,-23.275,-5.282,0.0,60.0
56426,-0.731,0.328,-0.021,8.466,7.374,-99.954,0.0,60.0
56478,-1.214,0.251,-0.154,62.534,29.511,-191.595,0.0,58.0
56530,-1.200,0.146,-0.153,97.901,65.763,-221.626,0.0,57.0
56589,-1.674,0.335,-0.258,78.008,78.282,-227.824,0.0,112.0
56648,-1.501,0.139,-0.081,32.198,51.832,-216.947,177.0,0.0
56709,-1.139,0.023,0.124,109.718,47.641,-169.359,0.0,0.0
56769,-0.807,0.141,0.063,207.595,29.412,-103.908,0.0,0.0
56829,-0.837,0.509,-0.020,150.450,13.969,-77.489,0.0,0.0
56890,-0.866,0.494,0.091,46.679,10.634,-74.328,0.0,0.0
56953,-1.044,0.372,0.141,32.107,15.061,-49.824,0.0,0.0
57014,-1.365,0.336,0.071,27.183,13.947,22.099,0.0,0.0
57074,-1.431,0.226,0.021,-25.260,1.397,134.153,0.0,0.0
57135,-1.806,0.195,-0.126,-95.588,-16.466,238.687,0.0,0.0
57195,-1.853,0.098,-0.202,-142.954,-41.260,250.130,0.0,0.0
57249,-1.091,0.078,-0.110,-123.137,-57.748,250.130,0.0,95.0
57305,-0.545,0.134,-0.064,-88.573,-49.137,212.733,0.0,99.0
57360,-0.333,0.237,-0.071,-68.779,-28.908,145.824,0.0,113.0
57420,-0.458,0.323,-0.116,-72.443,-12.366,57.550,0.0,0.0
57480,-0.715,0.315,-0.086,-67.878,14.389,-25.656,0.0,128.0
57533,-0.909,0.320,-0.067,-31.534,42.550,-102.435,0.0,57.0
57593,-1.166,0.210,-0.051,13.328,67.611,-148.870,0.0,139.0
57654,-1.143,0.216,-0.013,66.168,88.756,-185.771,0.0,0.0
57714,-1.444,0.248,-0.028,33.366,89.756,-181.382,0.0,0.0
57818,-1.088,0.035,0.184,92.206,50.214,-110.542,0.0,0.0
57878,-0.813,0.239,0.063,135.931,35.405,-75.130,0.0,0.0
57939,-0.750,0.384,0.034,99.137,19.695,-66.824,0.0,0.0
58000,-0.845,0.397,0.108,54.198,22.031,-62.000,0.0,0.0
58063,-0.985,0.333,0.154,8.855,17.649,-36.908,0.0,0.0
58124,-1.134,0.295,0.155,-4.229,8.939,0.763,0.0,0.0
58184,-1.547,0.350,0.025,-18.389,-6.069,49.641,0.0,0.0
58245,-1.478,0.133,-0.049,-75.420,-41.466,147.985,0.0,0.0
58305,-1.831,0.058,-0.181,-84.542,-61.282,218.924,0.0,0.0
58361,-1.102,0.137,-0.104,-62.847,-68.397,226.840,0.0,121.0
58418,-0.582,0.218,-0.057,-60.321,-53.985,198.817,0.0,120.0
58471,-0.441,0.245,-0.077,-75.130,-42.672,149.328,0.0,67.0
58527,-0.551,0.267,-0.091,-75.160,-27.840,85.748,0.0,74.0
58587,-0.764,0.275,-0.104,-48.901,-1.916,1.939,0.0,113.0
58641,-0.880,0.308,-0.070,-20.756,30.481,-72.626,0.0,82.0
58694,-1.137,0.252,-0.061,-14.099,55.313,-117.153,0.0,85.0
58748,-1.091,0.211,0.025,23.695,75.122,-162.733,0.0,85.0
58803,-1.171,0.232,0.063,17.145,100.053,-162.015,0.0,80.0
58861,-1.452,0.203,-0.029,-24.626,76.000,-141.405,0.0,163.0
58923,-1.139,-0.046,0.233,35.725,45.389,-95.954,0.0,0.0
58983,-0.855,0.146,0.135,136.260,40.885,-60.191,0.0,0.0
59046,-0.811,0.456,0.033,89.992,28.557,-53.405,0.0,0.0
59107,-0.787,0.385,0.133,-7.840,21.908,-51.168,0.0,0.0
59168,-0.950,0.278,0.210,-31.252,20.015,-30.710,0.0,0.0
59229,-1.053,0.272,0.202,-26.611,-0.473,-6.214,0.0,0.0
59289,-1.278,0.271,0.134,-5.733,-16.282,25.290,0.0,0.0
59351,-1.414,0.276,-0.089,-15.015,-40.817,51.985,0.0,0.0
59411,-1.461,0.255,-0.209,-51.817,-34.130,121.817,0.0,0.0
59471,-1.442,0.208,-0.357,-103.321,-31.664,157.237,0.0,0.0
59533,-0.957,0.173,-0.240,-120.565,-35.328,162.695,0.0,0.0
59596,-0.667,0.191,-0.182,-109.985,-28.336,153.130,0.0,0.0
59658,-0.603,0.298,-0.152,-84.985,-12.397,126.626,0.0,0.0
59711,-0.754,0.462,-0.286,-66.802,3.901,79.939,0.0,73.0
59764,-0.747,0.405,-0.142,-46.557,20.038,29.260,0.0,73.0
59819,-0.699,0.475,0.024,-41.061,58.779,-20.221,0.0,73.0
59872,-0.872,0.571,0.106,-112.985,73.115,-81.336,0.0,75.0
59926,-0.832,0.188,0.318,-153.557,84.504,-112.931,0.0,73.0
59979,-1.324,0.075,0.283,-100.641,83.023,-137.863,0.0,74.0
60034,-1.358,0.060,0.165,-18.382,71.206,-124.557,0.0,81.0
60098,-1.121,0.303,0.035,-15.282,57.359,-103.076,0.0,0.0
60153,-0.883,0.357,0.037,-108.328,36.588,-77.679,52.0,0.0
60215,-0.771,0.208,0.129,-130.817,26.313,-53.290,0.0,0.0
60275,-0.884,0.247,0.152,-115.443,15.931,-39.267,0.0,0.0
60337,-0.931,0.290,0.196,-104.443,-7.634,-30.908,0.0,0.0
60397,-0.884,0.347,0.034,-123.344,-35.252,-8.794,0.0,0.0
60459,-1.171,0.359,-0.153,-85.198,-40.458,16.573,0.0,0.0
60519,-1.479,0.524,-0.626,-128.412,-46.076,48.496,0.0,0.0
60578,-1.535,0.274,-0.761,-217.275,-62.695,121.962,176.0,0.0
60641,-1.226,-0.138,-0.327,-75.290,-31.687,187.221,164.0,0.0
60699,-0.886,0.293,-0.335,-6.511,-3.450,202.107,154.0,0.0
60801,-0.888,0.403,-0.414,-166.092,-5.557,107.840,137.0,0.0
60857,-0.879,0.211,-0.241,-123.832,20.977,80.412,129.0,0.0
60914,-0.819,0.351,-0.154,-64.244,56.756,52.847,123.0,0.0
60969,-0.856,0.440,-0.061,-56.809,92.427,-18.252,117.0,0.0
61026,-0.870,0.500,0.066,-100.298,108.847,-83.565,112.0,0.0
61092,-0.910,0.194,0.235,-211.748,72.718,-134.221,0.0,0.0
61155,-1.354,-0.497,0.376,-97.481,54.504,-133.832,0.0,0.0
61215,-1.277,-0.261,0.142,103.748,45.107,-107.198,0.0,0.0
61270,-1.040,0.148,-0.022,82.046,4.611,-101.847,95.0,0.0
61323,-0.756,0.241,0.004,-12.298,-6.664,-96.824,91.0,0.0
61377,-0.812,0.214,-0.034,-52.458,0.947,-79.634,88.0,0.0
61430,-0.824,0.268,-0.035,-57.160,11.061,-48.145,85.0,0.0
61490,-0.784,0.299,0.021,-42.725,18.748,-21.321,0.0,0.0
61550,-0.916,0.318,-0.020,-63.870,13.092,15.802,0.0,0.0
61607,-1.113,0.230,-0.062,-70.725,12.008,75.802,0.0,149.0
61668,-1.603,0.181,-0.160,-19.771,-3.069,144.954,0.0,154.0
61725,-1.697,0.221,-0.274,-69.443,-17.366,211.603,0.0,163.0
61785,-1.534,0.169,-0.229,-112.359,-14.145,250.130,0.0,173.0
61844,-1.125,0.156,-0.075,-95.221,-19.763,234.886,0.0,0.0
61904,-0.712,0.198,-0.040,-71.756,-26.878,175.092,0.0,0.0
61965,-0.569,0.200,-0.004,-53.771,-22.038,103.160,0.0,0.0
62017,-0.562,0.227,-0.005,-33.305,-5.954,25.382,0.0,59.0
62072,-0.682,0.314,-0.027,-17.076,8.008,-47.939,0.0,58.0
62125,-0.913,0.286,-0.035,3.664,24.771,-127.198,0.0,61.0
62178,-1.213,0.249,-0.071,39.565,42.282,-170.290,0.0,37.0
62229,-1.234,0.273,-0.125,50.008,48.267,-195.366,0.0,35.0
62279,-1.330,0.270,-0.111,31.397,55.153,-173.924,0.0,31.0
62329,-1.404,0.199,-0.106,34.160,49.229,-143.611,0.0,30.0
62381,-1.139,0.127,0.061,78.481,33.740,-98.664,0.0,28.0
62431,-0.811,0.179,0.058,133.321,19.450,-66.634,0.0,27.0
62481,-0.719,0.338,0.002,137.511,7.962,-50.679,0.0,29.0
62544,-0.753,0.406,0.016,98.947,4.824,-49.046,0.0,0.0
62608,-0.903,0.394,0.089,56.763,14.221,-49.412,0.0,0.0
62659,-1.064,0.463,0.083,10.458,22.382,-44.115,0.0,44.0
62713,-1.332,0.370,0.062,-36.832,12.817,-15.718,0.0,40.0
62765,-1.425,0.158,0.083,-44.947,-5.244,48.863,0.0,41.0
62820,-1.406,0.120,0.042,-36.214,-30.412,145.450,0.0,48.0
62871,-1.575,0.129,-0.086,-61.504,-47.305,212.527,0.0,51.0
62927,-1.281,0.165,-0.093,-81.344,-59.038,229.328,0.0,57.0
62980,-0.725,0.172,-0.029,-77.802,-53.252,209.122,0.0,61.0
63038,-0.520,0.241,-0.043,-57.695,-40.198,160.099,0.0,116.0
63096,-0.610,0.316,-0.080,-58.397,-24.779,82.046,0.0,114.0
63153,-0.831,0.250,-0.055,-43.183,-11.473,11.985,0.0,122.0
63213,-0.927,0.311,-0.061,-11.832,16.145,-53.992,0.0,0.0
63266,-1.153,0.242,-0.041,-0.977,35.863,-106.634,0.0,80.0
63320,-0.961,0.210,0.002,48.718,57.649,-149.542,0.0,78.0
63373,-1.120,0.321,-0.053,30.542,75.565,-159.802,0.0,77.0
63426,-1.372,0.178,-0.071,-2.840,54.779,-153.618,0.0,75.0
63479,-1.150,-0.018,0.161,70.878,43.962,-117.611,0.0,75.0
63537,-0.840,0.168,0.088,147.466,40.450,-84.779,0.0,75.0
63638,-0.763,0.370,0.085,69.221,18.137,-65.527,0.0,111.0
63693,-0.930,0.287,0.287,81.748,14.015,-48.015,0.0,116.0
63749,-1.153,0.523,0.112,84.290,1.786,-9.931,0.0,122.0
63799,-1.097,0.577,-0.001,24.641,2.573,32.496,78.0,135.0
63852,-1.260,0.545,-0.089,-37.962,11.550,66.740,71.0,0.0
63912,-1.414,0.458,-0.193,-110.802,6.718,107.626,0.0,0.0
63967,-1.558,0.234,-0.244,-167.534,-15.954,155.435,0.0,97.0
64021,-1.433,0.166,-0.250,-154.794,-33.237,170.847,0.0,102.0
64072,-1.067,0.052,-0.144,-114.824,-46.084,185.809,0.0,36.0
64136,-0.751,0.149,-0.074,-57.305,-43.237,183.580,0.0,45.0
64190,-0.544,0.276,-0.014,-48.863,-29.542,140.985,199.0,50.0
64244,-0.548,0.337,0.019,-59.687,-16.115,69.176,195.0,55.0
64299,-0.629,0.332,0.060,-48.527,1.626,-16.809,193.0,55.0
64353,-0.820,0.315,0.083,-30.893,27.473,-90.191,194.0,55.0
64408,-1.014,0.215,0.092,-17.496,45.252,-133.679,0.0,71.0
64463,-1.161,0.166,0.075,50.023,60.260,-172.489,0.0,68.0
64519,-1.208,0.268,-0.007,83.061,61.832,-186.603,0.0,65.0
64577,-1.426,0.212,-0.037,60.053,39.229,-172.977,0.0,62.0
64632,-1.175,0.049,0.088,105.573,27.840,-115.122,0.0,60.0
64688,-0.814,0.355,0.024,131.664,33.580,-79.191,0.0,75.0
64750,-0.796,0.464,0.085,33.366,15.748,-75.481,0.0,0.0
64814,-0.821,0.366,0.259,6.832,19.069,-77.618,0.0,0.0
64876,-1.051,0.380,0.221,-6.420,5.298,-62.191,0.0,0.0
64934,-1.098,0.303,0.170,-13.015,-6.511,-5.115,0.0,119.0
64997,-1.397,0.341,0.007,-25.328,-13.863,65.511,0.0,0.0
65056,-1.356,0.315,-0.099,-68.893,-30.580,125.229,0.0,128.0
65115,-1.585,0.148,-0.303,-97.779,-43.008,189.321,0.0,60.0
65170,-1.231,0.115,-0.230,-85.198,-25.496,221.321,0.0,69.0
65226,-0.775,0.267,-0.188,-89.779,-11.504,215.313,0.0,79.0
65283,-0.587,0.257,-0.137,-116.939,-14.481,171.405,0.0,88.0
65346,-0.506,0.197,-0.042,-81.374,-12.473,103.191,0.0,0.0
65409,-0.798,0.249,-0.109,-16.313,7.084,22.069,0.0,0.0
65471,-0.956,0.382,-0.091,0.198,39.779,-53.237,0.0,0.0
65534,-1.175,0.356,-0.018,-25.260,70.496,-120.886,0.0,194.0
65592,-0.760,0.280,0.136,-35.939,117.573,-172.863,0.0,101.0
65652,-1.512,0.382,-0.115,-126.634,103.969,-173.824,0.0,103.0
65715,-1.383,-0.282,0.241,-78.198,39.924,-129.061,0.0,188.0
65777,-0.779,0.217,0.051,175.046,45.489,-49.359,0.0,185.0
65840,-0.878,0.617,-0.060,115.756,18.046,-42.473,0.0,186.0
65902,-0.776,0.438,0.125,-52.916,-0.374,-55.382,0.0,189.0
65965,-0.979,0.337,0.171,-36.473,-6.794,-21.779,0.0,194.0
66028,-1.026,0.468,0.078,-14.061,-16.664,55.305,0.0,0.0
66087,-1.105,0.565,-0.106,-31.191,-20.931,100.664,0.0,138.0
66153,-1.386,0.624,-0.272,-75.137,-11.412,124.061,0.0,0.0
66208,-1.415,0.458,-0.404,-149.176,-6.275,159.450,0.0,59.0
66272,-1.253,0.342,-0.244,-141.924,-4.069,173.672,0.0,0.0
66335,-0.879,0.278,-0.134,-99.817,-14.466,155.756,0.0,0.0
66390,-0.614,0.212,-0.055,-70.962,-15.634,124.931,0.0,54.0
66445,-0.492,0.306,-0.024,-45.153,-1.595,84.863,0.0,58.0
66500,-0.574,0.462,0.037,-50.809,16.420,43.916,0.0,59.0
