Timestamp(ms),AccelX(g),AccelY(g),AccelZ(g),GyroX(deg/s),GyroY(deg/s),GyroZ(deg/s),DistanceLeft(cm),DistanceRight(cm)
70855,-1.482,0.068,-0.161,42.931,37.565,-166.107,105.0,0.0
70915,-1.113,0.113,0.036,93.336,42.130,-117.214,131.0,0.0
70974,-0.857,0.282,0.037,106.031,35.023,-104.679,130.0,0.0
71032,-0.606,0.249,0.115,79.847,24.229,-83.786,115.0,0.0
71091,-0.651,0.243,0.163,48.511,16.771,-41.176,124.0,0.0
71149,-0.794,0.280,0.209,34.160,13.115,-15.107,108.0,0.0
71207,-0.860,0.268,0.201,23.779,14.718,4.092,114.0,0.0
71265,-1.215,0.335,0.146,9.832,19.084,25.817,103.0,0.0
71323,-1.608,0.312,-0.043,-42.313,-0.496,61.779,107.0,0.0
71384,-1.581,0.046,-0.088,-114.664,-54.298,150.595,103.0,0.0
71436,-1.548,0.068,-0.038,-63.649,-74.366,186.763,118.0,82.0
71490,-1.091,0.208,-0.043,-28.359,-73.908,174.779,165.0,81.0
71543,-0.578,0.274,-0.022,-34.687,-59.229,144.229,115.0,93.0
71601,-0.451,0.238,-0.010,-64.595,-42.366,119.687,0.0,99.0
71656,-0.553,0.210,0.034,-79.924,-25.992,89.802,0.0,66.0
71708,-0.839,0.233,0.046,-59.916,-11.817,29.458,107.0,96.0
71759,-1.199,0.334,0.031,-19.985,12.794,-48.580,106.0,87.0
71811,-1.316,0.231,0.053,22.603,38.076,-116.733,104.0,88.0
71872,-1.181,0.142,0.060,49.702,67.275,-137.519,106.0,0.0
71925,-1.305,0.195,0.012,41.473,67.260,-128.000,106.0,109.0
71984,-1.141,0.123,0.098,74.145,51.137,-133.840,120.0,0.0
72043,-0.876,0.171,0.085,127.382,46.695,-134.595,119.0,0.0
72102,-0.748,0.337,0.028,111.214,40.275,-130.313,140.0,0.0
72162,-0.681,0.286,0.135,46.740,35.435,-107.916,121.0,0.0
72219,-0.900,0.265,0.207,30.076,33.588,-84.160,103.0,0.0
72278,-1.188,0.266,0.232,42.153,25.198,-59.267,97.0,0.0
72338,-1.334,0.337,0.177,34.695,23.664,5.908,94.0,0.0
72400,-1.465,0.340,0.011,-46.321,-2.511,82.466,89.0,0.0
72457,-1.501,0.081,-0.092,-119.519,-44.763,169.107,98.0,0.0
72515,-1.523,0.036,-0.091,-96.405,-69.000,221.954,126.0,0.0
72573,-0.981,0.170,-0.090,-58.580,-71.931,212.679,129.0,0.0
72632,-0.591,0.221,-0.057,-82.771,-58.237,184.580,129.0,0.0
72684,-0.487,0.166,-0.040,-101.603,-44.962,143.359,124.0,93.0
72735,-0.710,0.181,-0.059,-76.015,-29.359,95.328,128.0,72.0
72784,-0.803,0.235,-0.035,-31.962,-8.786,26.366,110.0,60.0
72838,-1.144,0.407,-0.079,0.992,21.481,-67.275,124.0,66.0
72888,-1.398,0.267,-0.054,5.580,47.840,-139.977,124.0,57.0
72938,-1.287,0.070,0.077,46.198,58.313,-166.466,116.0,73.0
72995,-1.377,0.127,0.089,90.611,63.916,-163.504,109.0,0.0
73053,-1.232,0.186,0.069,91.282,52.504,-157.290,117.0,0.0
73111,-0.897,0.223,0.085,77.756,46.985,-141.687,137.0,0.0
73171,-0.678,0.261,0.083,56.183,39.557,-115.053,154.0,0.0
73229,-0.680,0.222,0.137,38.145,31.443,-81.237,119.0,0.0
73294,-0.908,0.282,0.206,31.962,26.878,-58.427,0.0,0.0
73352,-1.099,0.156,0.281,68.886,12.389,-45.198,111.0,0.0
73409,-1.107,0.311,0.168,67.588,18.466,12.176,106.0,0.0
73465,-1.379,0.347,0.065,-21.466,9.763,65.374,101.0,0.0
73523,-1.583,0.165,-0.051,-72.275,-18.244,123.168,97.0,0.0
73579,-1.558,0.084,-0.104,-105.252,-46.641,191.153,104.0,0.0
73638,-1.205,0.085,-0.044,-90.053,-62.198,210.221,130.0,0.0
73736,-0.583,0.199,-0.012,-68.611,-51.221,158.878,156.0,102.0
73790,-0.434,0.219,0.015,-67.336,-37.443,123.344,0.0,60.0
73848,-0.613,0.256,0.004,-53.695,-17.908,56.359,0.0,64.0
73904,-0.938,0.337,0.017,-14.710,11.038,-25.145,0.0,71.0
73957,-1.119,0.322,0.008,-1.397,45.573,-100.427,142.0,93.0
74008,-1.516,0.246,-0.060,9.351,57.618,-143.664,140.0,65.0
74060,-1.339,0.095,0.054,33.947,66.420,-146.687,141.0,71.0
74119,-1.338,0.149,0.035,52.244,60.229,-132.817,126.0,0.0
74177,-1.138,0.143,0.123,68.779,39.771,-120.710,125.0,0.0
74235,-0.850,0.198,0.124,95.977,36.824,-103.710,137.0,0.0
74294,-0.613,0.304,0.079,65.786,35.214,-85.473,125.0,0.0
74355,-0.540,0.230,0.144,10.649,24.397,-59.130,125.0,0.0
74414,-0.868,0.201,0.222,23.847,20.282,-38.130,122.0,0.0
74471,-1.148,0.236,0.236,43.985,19.328,-38.893,109.0,0.0
74528,-1.121,0.206,0.182,31.931,13.794,1.412,116.0,0.0
74586,-1.390,0.340,0.109,-28.168,4.908,49.702,101.0,0.0
74643,-1.445,0.141,-0.000,-44.107,-22.672,79.076,105.0,0.0
74700,-1.606,0.128,-0.125,-61.145,-48.244,146.824,105.0,0.0
74759,-1.264,0.092,-0.085,-57.611,-65.840,194.817,133.0,0.0
74817,-0.743,0.238,-0.021,-46.908,-54.382,188.000,0.0,59.0
74871,-0.508,0.280,-0.027,-68.496,-47.992,160.221,188.0,65.0
74926,-0.457,0.224,0.022,-83.183,-35.084,123.382,199.0,57.0
74981,-0.513,0.232,0.073,-51.183,-15.366,72.031,0.0,62.0
75031,-0.839,0.320,0.020,-14.237,4.718,4.099,129.0,58.0
75082,-1.403,0.478,-0.055,13.725,26.260,-59.053,123.0,69.0
75132,-1.479,0.332,-0.028,3.481,41.893,-96.481,127.0,61.0
75187,-1.267,0.332,0.083,14.679,55.130,-134.168,187.0,57.0
75237,-1.027,0.176,0.107,36.962,58.740,-159.618,138.0,56.0
75291,-1.268,0.190,0.104,62.710,48.916,-161.275,134.0,66.0
75352,-1.181,0.180,0.091,98.679,41.344,-159.893,144.0,0.0
75412,-0.877,0.243,0.087,92.672,38.626,-132.641,156.0,0.0
75469,-0.639,0.299,0.064,42.893,30.931,-90.389,107.0,0.0
75527,-0.637,0.227,0.124,4.511,21.458,-46.435,108.0,0.0
75584,-0.956,0.239,0.213,4.740,14.473,-22.916,98.0,0.0
75640,-1.025,0.154,0.248,25.534,7.458,-4.000,98.0,0.0
75697,-1.054,0.246,0.149,18.504,1.969,37.840,92.0,0.0
75754,-1.416,0.256,0.080,4.931,-2.405,60.847,96.0,0.0
75820,-1.654,0.137,-0.113,-23.336,-29.046,121.641,0.0,0.0
75880,-1.528,0.107,-0.108,-73.397,-43.901,200.481,158.0,0.0
75940,-1.090,0.226,-0.044,-73.489,-37.511,197.725,156.0,0.0
75994,-0.661,0.222,-0.012,-87.832,-28.405,159.603,151.0,68.0
76045,-0.443,0.142,0.026,-84.275,-25.466,124.802,146.0,61.0
76098,-0.478,0.170,0.022,-65.344,-13.817,89.886,142.0,78.0
76149,-0.666,0.216,0.001,-38.061,0.626,32.389,148.0,58.0
76201,-0.975,0.308,-0.037,-8.290,22.344,-38.817,148.0,57.0
76257,-1.237,0.324,-0.016,16.565,46.824,-116.275,0.0,67.0
76306,-1.418,0.232,-0.017,36.122,63.191,-181.122,137.0,71.0
76358,-1.302,0.103,0.029,51.008,76.565,-175.351,136.0,72.0
76418,-1.396,0.140,0.006,45.359,55.153,-152.695,137.0,0.0
76477,-1.116,0.047,0.125,82.084,25.023,-112.656,138.0,0.0
76583,-0.675,0.439,0.058,61.351,25.344,-66.252,0.0,0.0
76646,-0.708,0.246,0.229,-42.740,21.534,-44.466,0.0,0.0
76709,-0.940,0.168,0.294,-21.298,13.229,-27.008,0.0,0.0
76772,-1.028,0.163,0.244,7.511,-12.298,0.901,0.0,0.0
76838,-1.377,0.278,0.068,15.855,-9.977,44.435,0.0,0.0
76901,-1.521,0.288,-0.190,-53.053,-33.672,84.206,0.0,0.0
76956,-1.362,0.261,-0.211,-88.626,-34.832,128.115,0.0,65.0
77011,-1.022,0.312,-0.230,-111.008,-20.870,133.359,0.0,57.0
77066,-0.661,0.264,-0.140,-153.649,-17.160,130.916,0.0,57.0
77125,-0.516,0.208,-0.076,-147.939,-16.626,114.962,124.0,0.0
77175,-0.463,0.272,-0.049,-129.656,-8.550,92.557,111.0,61.0
77225,-0.710,0.473,-0.042,-110.443,3.298,59.687,108.0,81.0
77274,-1.047,0.750,-0.071,-102.962,17.458,39.153,97.0,43.0
77326,-1.223,0.831,-0.002,-108.206,32.015,22.046,93.0,50.0
77373,-1.258,0.687,0.019,-88.908,50.107,-3.794,89.0,51.0
77421,-0.850,0.602,0.035,-98.168,73.145,2.557,84.0,56.0
77469,-0.781,0.582,0.038,-161.756,81.863,25.962,79.0,60.0
77526,-0.882,0.410,0.052,-194.038,67.893,25.427,75.0,0.0
77583,-0.953,0.314,0.143,-131.344,65.206,8.588,95.0,0.0
77639,-0.837,0.344,0.057,-108.542,73.076,-2.634,85.0,0.0
77702,-0.898,0.342,-0.060,-120.176,79.336,-21.863,0.0,0.0
77758,-0.757,0.302,-0.131,-167.282,78.344,-29.237,78.0,0.0
77825,-0.634,0.156,-0.049,-172.420,72.229,-29.443,0.0,0.0
77888,-0.559,0.240,-0.002,-135.634,66.458,-32.656,0.0,0.0
77950,-0.752,0.424,-0.053,-139.550,63.504,-61.183,0.0,0.0
78011,-1.001,0.328,-0.085,-134.435,59.947,-69.870,0.0,149.0
78071,-1.119,0.295,-0.201,-168.214,41.069,-28.069,0.0,150.0
78133,-1.302,0.053,-0.196,-153.000,-19.519,31.153,0.0,154.0
78193,-1.510,0.198,-0.393,-96.618,-62.748,69.405,0.0,160.0
78248,-1.176,0.071,-0.225,-49.206,-54.244,102.725,0.0,59.0
78314,-0.876,0.160,-0.184,-29.908,-50.916,133.374,0.0,174.0
78368,-0.669,0.253,-0.157,-51.794,-62.824,110.443,0.0,57.0
78424,-0.603,0.099,-0.084,-51.412,-52.924,91.679,0.0,58.0
78479,-0.670,0.117,-0.100,-18.557,-31.573,71.702,0.0,52.0
78533,-0.655,0.125,-0.073,-12.046,-17.084,49.771,0.0,55.0
78588,-0.713,0.260,0.012,6.214,-6.130,-7.840,0.0,56.0
78644,-0.765,0.185,0.202,29.359,-1.580,-59.809,0.0,57.0
78699,-1.211,0.349,0.325,77.260,10.427,-83.947,0.0,61.0
78755,-1.415,0.986,0.403,139.206,33.198,-135.519,0.0,82.0
78814,-1.356,0.581,0.111,-14.802,69.160,-154.870,0.0,57.0
78869,-0.911,0.294,0.124,-78.740,67.000,-133.748,0.0,56.0
78924,-0.583,0.156,0.200,-66.779,48.031,-71.702,0.0,53.0
78979,-0.234,0.261,0.280,-38.779,18.679,-15.382,0.0,43.0
79033,-0.196,0.266,0.250,-27.252,-1.397,14.939,0.0,40.0
79086,-0.540,0.397,0.124,-18.244,-1.450,18.809,0.0,36.0
79141,-2.000,0.541,-0.152,-39.344,5.366,10.290,0.0,47.0
79196,-2.000,0.009,-0.563,-116.466,-45.588,55.260,0.0,45.0
79250,-1.824,-0.061,0.020,-27.924,-62.901,157.130,0.0,38.0
79308,-0.885,0.218,-0.093,57.153,-48.618,121.779,0.0,57.0
79364,-0.366,0.155,-0.058,-1.885,-43.130,89.015,0.0,56.0
79462,-0.333,-0.022,-0.025,0.656,-42.939,51.198,0.0,59.0
79518,-0.327,0.022,-0.000,20.817,-37.809,26.649,0.0,75.0
79575,-0.591,0.144,0.064,25.366,-23.466,-4.260,0.0,74.0
79630,-1.435,0.428,0.187,33.489,-14.954,-42.885,0.0,64.0
79691,-1.860,0.796,0.465,250.130,-57.000,-89.634,0.0,67.0
79747,-1.046,1.024,0.034,-49.351,-5.992,-159.115,0.0,78.0
79801,-0.899,0.409,0.104,-204.550,55.145,-179.015,0.0,58.0
79857,-0.695,-0.138,0.269,-58.733,58.206,-123.725,0.0,50.0
79911,-0.397,0.277,0.131,-20.176,31.672,-55.443,0.0,51.0
79966,-0.200,0.163,0.301,-13.191,-1.542,-8.947,0.0,57.0
80019,-0.300,0.438,0.058,-2.977,6.817,19.366,0.0,44.0
80072,-1.173,0.471,-0.060,-55.092,5.695,14.809,0.0,39.0
80129,-2.000,0.340,-0.453,-104.992,0.450,47.198,0.0,43.0
80182,-2.000,-0.129,-0.100,-97.061,-53.282,157.954,0.0,41.0
80236,-1.170,0.072,0.068,47.710,-54.473,136.962,0.0,45.0
80293,-0.479,0.276,0.002,54.298,-29.595,98.000,0.0,57.0
80348,-0.383,0.198,-0.099,-21.985,-29.023,52.153,0.0,62.0
80402,-0.353,-0.056,-0.036,-33.901,-34.176,28.595,0.0,62.0
80457,-0.373,-0.070,-0.020,8.504,-28.916,17.565,0.0,67.0
80512,-0.457,0.017,0.059,51.008,-28.443,-6.947,0.0,60.0
80566,-0.981,0.258,0.197,64.397,-13.763,-46.305,0.0,62.0
80621,-2.000,0.749,0.253,104.687,23.855,-128.504,0.0,65.0
80675,-1.660,0.463,0.126,40.061,80.962,-144.519,0.0,61.0
80730,-1.354,0.521,0.179,-132.809,55.786,-113.695,0.0,57.0
80787,-0.888,-0.136,0.403,14.038,24.931,-89.412,0.0,57.0
80841,-0.422,0.340,0.179,90.031,21.115,-22.328,0.0,57.0
80896,-0.290,0.375,0.194,-20.336,-5.092,13.115,0.0,58.0
80950,-0.376,0.333,0.222,-32.542,3.809,30.718,0.0,57.0
81004,-0.717,0.519,0.121,-47.656,7.656,7.893,0.0,57.0
81058,-1.187,0.296,0.104,-78.420,-13.595,33.771,0.0,50.0
81113,-2.000,0.239,-0.167,-20.504,-35.191,74.802,0.0,53.0
81167,-2.000,0.008,-0.256,-16.282,-62.313,157.359,0.0,57.0
81221,-1.320,0.357,-0.051,12.924,-52.527,136.863,0.0,58.0
81278,-0.460,0.272,-0.041,-38.489,-27.046,80.573,0.0,59.0
81333,-0.176,0.035,0.065,-75.366,-16.450,33.275,0.0,50.0
81387,-0.288,-0.074,0.065,-16.725,-15.015,-0.954,0.0,50.0
81440,-0.468,0.059,0.008,41.527,-15.427,-16.435,0.0,50.0
81496,-0.603,0.200,-0.022,47.672,-3.992,-33.832,0.0,60.0
81550,-0.760,0.323,0.050,57.450,14.679,-72.664,0.0,56.0
81604,-1.219,0.420,0.096,38.840,24.718,-113.237,0.0,52.0
81658,-2.000,0.550,0.197,62.450,49.595,-156.779,0.0,56.0
81713,-1.788,0.275,0.093,8.443,69.298,-135.832,0.0,50.0
81769,-1.314,0.318,0.220,-92.580,34.305,-75.672,0.0,49.0
81823,-0.605,-0.041,0.350,-19.718,14.504,-29.084,0.0,53.0
81879,-0.316,0.276,0.204,28.702,2.191,8.710,0.0,57.0
81932,-0.223,0.319,0.157,-8.916,-2.267,18.916,0.0,50.0
81986,-0.483,0.413,0.122,-30.328,4.076,12.366,0.0,50.0
82039,-0.620,0.260,0.112,-66.137,-6.954,26.000,0.0,41.0
82094,-0.992,0.193,0.111,-38.580,-19.924,54.611,0.0,53.0
82148,-1.926,0.191,-0.086,4.702,-37.595,90.511,0.0,43.0
82244,-1.760,0.249,-0.178,-23.382,-48.695,124.870,0.0,45.0
82302,-0.995,0.340,-0.007,4.840,-32.168,67.573,0.0,57.0
82358,-0.528,0.232,-0.037,-10.916,-13.832,37.359,0.0,75.0
82413,-0.306,0.115,-0.035,-31.687,-10.412,14.305,0.0,60.0
82467,-0.258,-0.025,-0.009,-14.939,-11.817,2.634,0.0,50.0
82522,-0.443,0.040,0.020,37.863,-15.603,-14.908,0.0,65.0
82578,-0.652,0.146,0.040,71.886,-24.824,-41.771,0.0,74.0
82633,-1.577,-0.202,0.557,236.145,-56.153,-6.198,0.0,72.0
82689,-1.850,1.088,-0.196,89.313,-2.931,-149.901,0.0,70.0
82748,-1.368,0.619,0.023,-133.130,100.130,-140.023,0.0,80.0
82810,-1.161,0.096,0.203,-139.771,80.122,-121.038,0.0,55.0
82854,-0.859,-0.003,0.338,4.664,50.389,-69.214,16.0,57.0
82902,-0.574,0.182,0.269,46.855,23.450,-19.435,77.0,58.0
82945,-0.302,0.276,0.289,13.870,5.969,26.359,17.0,56.0
82999,-0.344,0.343,0.266,-32.840,-2.015,39.679,0.0,55.0
83042,-0.490,0.309,0.237,-44.779,-15.282,26.664,16.0,55.0
83096,-1.047,0.284,0.111,-18.298,-29.405,20.137,0.0,57.0
83150,-1.913,0.295,-0.170,-4.130,-47.870,46.000,0.0,50.0
83207,-2.000,0.187,-0.322,-50.450,-61.634,109.420,0.0,50.0
83261,-1.718,0.175,-0.129,-10.802,-72.313,137.977,0.0,57.0
83315,-0.810,0.268,0.005,43.031,-51.229,92.351,0.0,58.0
83369,-0.341,0.298,-0.002,-15.595,-28.412,76.733,0.0,57.0
83424,-0.145,0.156,0.000,-68.122,-24.031,46.580,0.0,61.0
83478,-0.240,-0.007,0.045,-37.870,-27.527,22.000,0.0,53.0
83532,-0.393,0.096,-0.003,30.557,-25.954,-7.412,0.0,57.0
83587,-0.679,0.240,0.021,61.252,-11.000,-54.870,0.0,59.0
83641,-1.117,0.281,0.173,45.916,16.359,-90.763,0.0,58.0
83698,-1.970,0.387,0.406,73.122,58.756,-191.282,0.0,60.0
83752,-1.865,0.283,0.083,21.351,100.099,-193.298,0.0,58.0
83807,-1.467,0.348,0.059,-99.542,68.496,-173.847,0.0,57.0
83861,-0.919,-0.111,0.302,-40.718,46.130,-114.382,0.0,51.0
83905,-0.551,0.183,0.197,48.351,37.191,-24.893,16.0,57.0
83949,-0.380,0.281,0.164,7.282,12.649,14.328,19.0,58.0
83996,-0.337,0.262,0.227,-9.473,6.641,35.405,84.0,57.0
84043,-0.483,0.382,0.189,-23.718,6.565,27.870,73.0,57.0
84086,-0.610,0.330,0.144,-40.542,-4.924,6.710,17.0,54.0
84144,-1.188,0.143,0.142,-9.214,-22.550,24.626,0.0,50.0
84198,-2.000,0.144,-0.047,55.595,-50.374,71.481,0.0,55.0
84251,-2.000,0.125,-0.202,7.748,-69.809,161.893,0.0,52.0
84306,-1.570,0.347,-0.108,-41.901,-66.870,196.183,0.0,58.0
84361,-0.812,0.344,-0.007,-38.191,-46.382,131.794,0.0,63.0
84417,-0.387,0.303,0.028,-60.740,-23.298,90.969,0.0,86.0
84472,-0.195,0.208,0.042,-77.855,-7.611,64.969,0.0,67.0
84527,-0.273,0.196,0.066,-67.458,3.573,40.061,0.0,70.0
84582,-0.458,0.282,0.079,-34.481,15.069,-13.954,0.0,66.0
84642,-0.752,0.318,0.140,-11.863,37.779,-75.038,0.0,104.0
84697,-1.525,0.356,0.230,-27.511,57.031,-114.443,0.0,67.0
84752,-1.989,0.339,0.349,6.015,74.603,-179.977,199.0,67.0
84806,-1.647,0.198,0.088,-105.634,32.763,-88.725,195.0,65.0
84861,-1.070,0.221,0.163,-56.137,11.282,-80.382,191.0,70.0
84959,-0.648,0.539,-0.003,-88.115,21.511,-64.237,182.0,78.0
85015,-0.546,0.296,0.088,-170.489,13.679,-45.290,0.0,81.0
85071,-0.738,0.190,0.172,-145.275,3.053,-14.595,0.0,89.0
85131,-1.066,0.346,0.088,-109.817,-13.779,3.756,0.0,99.0
85189,-1.530,0.322,-0.074,-62.947,-32.031,33.702,0.0,112.0
85248,-1.594,0.475,-0.557,-136.107,-42.298,100.099,0.0,131.0
85308,-1.471,0.286,-0.535,-219.153,-59.427,135.183,0.0,146.0
85368,-1.164,0.241,-0.437,-125.870,-22.870,144.107,0.0,163.0
85430,-0.758,0.271,-0.360,-116.244,-9.893,155.763,0.0,171.0
85488,-0.562,0.308,-0.248,-101.916,-10.947,126.840,199.0,125.0
85547,-0.524,0.390,-0.148,-79.908,-0.389,74.282,0.0,124.0
85605,-0.833,0.464,-0.062,-61.015,14.863,29.397,0.0,125.0
85666,-1.149,0.510,-0.079,-74.366,27.931,17.740,0.0,120.0
85725,-1.195,0.461,0.052,-56.405,43.641,-14.893,0.0,122.0
85783,-1.038,0.453,0.142,-43.939,64.977,-49.191,0.0,126.0
85841,-0.843,0.273,0.215,-83.824,60.557,-45.275,0.0,129.0
85901,-1.155,0.179,0.262,-67.550,46.275,-51.481,0.0,131.0
85959,-1.140,0.146,0.160,-24.183,32.336,-58.786,0.0,133.0
86019,-0.876,0.192,0.093,-22.443,41.458,-55.885,0.0,136.0
86078,-0.818,0.258,0.003,-80.115,41.092,-58.947,0.0,138.0
86140,-0.719,0.089,0.158,-78.435,35.458,-47.542,0.0,141.0
86201,-0.746,0.164,0.208,-48.344,25.389,-26.542,0.0,145.0
86260,-0.763,0.225,0.252,-31.809,13.107,-19.557,0.0,150.0
86321,-0.804,0.334,0.217,-22.695,3.496,-18.954,0.0,156.0
86381,-1.153,0.337,0.069,-1.237,-6.718,-18.015,0.0,163.0
86441,-1.629,0.414,-0.258,-17.649,-9.504,25.489,0.0,159.0
86503,-1.613,0.337,-0.410,-142.916,-21.542,120.947,0.0,164.0
86562,-1.495,0.034,-0.219,-142.473,-28.321,163.443,156.0,173.0
86622,-0.986,0.122,-0.157,-78.229,-29.802,179.237,152.0,183.0
86680,-0.676,0.191,-0.159,-60.824,-36.374,149.420,0.0,72.0
86735,-0.671,0.139,-0.116,-57.336,-33.168,116.557,0.0,61.0
86790,-0.662,0.158,-0.090,-44.069,-32.214,78.023,0.0,58.0
86845,-0.608,0.151,-0.021,-16.137,-29.863,32.260,0.0,68.0
86901,-0.490,0.166,0.041,4.351,-16.916,-2.725,0.0,70.0
86957,-0.470,0.224,0.104,33.908,0.000,-52.985,0.0,72.0
87012,-0.495,0.311,0.120,73.992,17.817,-114.939,0.0,60.0
87068,-0.920,0.421,0.170,47.863,31.901,-136.038,0.0,85.0
87122,-2.000,0.900,0.344,88.206,44.779,-196.740,0.0,64.0
87189,-2.000,0.382,0.113,60.962,69.985,-168.565,0.0,0.0
87244,-1.147,0.392,0.167,-82.244,51.176,-108.893,0.0,65.0
87300,-0.666,0.197,0.275,-68.557,42.145,-76.397,0.0,58.0
87354,-0.423,0.242,0.207,-41.183,32.718,-35.435,0.0,59.0
87399,-0.253,0.191,0.240,-51.748,7.023,-1.458,19.0,57.0
87453,-0.303,0.214,0.227,-20.542,-2.046,20.794,0.0,52.0
87507,-0.588,0.360,0.085,1.824,-19.092,21.534,0.0,51.0
87562,-0.977,0.281,0.053,16.641,-27.092,46.458,0.0,57.0
87617,-2.000,0.282,-0.243,7.664,-22.481,99.008,0.0,57.0
87675,-2.000,0.119,-0.289,-98.740,-30.466,180.076,0.0,57.0
87731,-1.549,0.118,-0.031,-64.000,-59.069,173.389,0.0,72.0
87786,-0.636,0.083,0.033,14.206,-55.168,103.771,0.0,66.0
87885,-0.240,0.016,-0.013,-19.237,-32.748,30.221,0.0,83.0
87943,-0.341,-0.052,0.008,-1.649,-35.786,11.870,0.0,82.0
87998,-0.538,-0.014,0.039,66.679,-34.229,-33.756,0.0,79.0
88054,-0.906,0.315,0.122,96.000,-10.328,-89.893,0.0,76.0
88111,-1.454,0.662,0.223,72.198,33.115,-165.725,0.0,83.0
88170,-1.799,0.415,0.250,41.183,69.687,-192.084,0.0,71.0
88225,-1.398,0.462,0.235,28.847,40.466,-155.107,0.0,75.0
88283,-0.827,0.567,0.147,35.992,36.878,-111.962,0.0,100.0
88339,-0.437,0.520,0.143,-79.382,29.649,-58.733,0.0,71.0
88394,-0.414,0.230,0.243,-85.496,20.084,0.763,0.0,69.0
88439,-0.659,0.363,0.189,-56.198,6.092,25.763,16.0,68.0
88495,-0.905,0.237,0.171,-41.038,-21.252,47.962,0.0,57.0
88549,-2.000,0.176,-0.064,1.099,-51.550,90.710,0.0,58.0
88605,-2.000,0.068,-0.280,-41.664,-67.481,189.214,0.0,75.0
88666,-1.481,0.265,-0.157,-65.069,-67.977,186.954,0.0,87.0
88721,-0.622,0.052,-0.059,-19.282,-49.519,102.824,0.0,62.0
88776,-0.316,0.032,-0.026,-23.779,-25.588,60.420,0.0,70.0
88834,-0.298,-0.057,-0.016,-7.916,-24.015,25.954,0.0,81.0
88889,-0.424,-0.002,0.007,28.817,-26.351,-1.863,0.0,75.0
88945,-0.570,0.154,0.034,78.809,-18.336,-51.519,0.0,77.0
89001,-0.866,0.337,0.113,73.687,4.740,-102.473,0.0,74.0
89059,-1.674,0.616,0.187,59.901,35.435,-151.359,0.0,91.0
89114,-1.698,0.593,0.211,-4.733,83.244,-196.779,0.0,70.0
89174,-1.498,0.325,0.127,-119.359,74.061,-151.618,0.0,67.0
89229,-0.870,-0.027,0.295,-58.359,42.168,-86.122,0.0,57.0
89283,-0.458,0.146,0.273,34.595,22.718,-13.527,0.0,58.0
89328,-0.324,0.277,0.225,3.763,-4.290,21.183,16.0,57.0
89382,-0.297,0.319,0.273,3.099,-6.718,25.282,0.0,55.0
89438,-0.702,0.564,0.118,-46.733,1.840,-2.611,0.0,57.0
89493,-1.640,0.262,-0.005,-109.573,-22.588,5.328,0.0,50.0
89547,-2.000,-0.089,-0.406,-95.893,-77.534,111.260,0.0,44.0
89603,-1.982,-0.115,-0.172,-16.290,-115.130,236.031,0.0,53.0
89662,-0.902,0.311,-0.138,65.267,-96.947,190.931,0.0,77.0
89718,-0.391,0.256,-0.078,-32.015,-73.702,123.244,0.0,78.0
89775,-0.185,-0.039,-0.013,-59.076,-58.420,76.435,0.0,84.0
89829,-0.255,-0.097,0.026,-13.962,-46.756,52.870,0.0,36.0
89884,-0.374,0.069,-0.002,17.802,-38.954,10.725,0.0,53.0
89945,-0.665,0.203,0.117,37.176,-8.282,-68.771,0.0,66.0
90000,-1.280,0.346,0.307,80.794,25.779,-138.443,0.0,74.0
90054,-1.542,0.537,0.402,152.427,85.260,-250.137,0.0,57.0
90112,-1.909,0.634,0.022,12.924,112.763,-250.137,0.0,57.0
90166,-1.562,0.130,0.063,-105.542,76.588,-244.275,0.0,59.0
90220,-0.805,-0.162,0.384,-1.534,66.519,-111.679,0.0,59.0
90274,-0.497,0.300,0.216,42.748,36.458,-27.939,0.0,57.0
90329,-0.417,0.412,0.226,-4.099,12.427,-12.076,0.0,58.0
90383,-0.597,0.431,0.185,-19.458,9.038,-22.870,0.0,57.0
90437,-0.851,0.273,0.107,-41.855,-12.992,-1.412,0.0,67.0
90491,-1.150,0.103,0.100,-19.275,-32.496,90.947,0.0,50.0
90546,-2.000,0.166,-0.198,-5.496,-54.229,166.473,0.0,55.0
90602,-2.000,-0.050,-0.330,-78.687,-101.748,250.130,0.0,50.0
90700,-0.857,0.116,-0.109,-19.290,-105.718,197.656,0.0,76.0
90757,-0.199,-0.070,-0.036,-66.748,-61.053,123.786,0.0,82.0
90811,-0.156,-0.146,-0.050,-6.641,-18.832,58.252,0.0,57.0
90865,-0.318,-0.007,-0.112,5.832,-3.206,3.099,0.0,64.0
90921,-0.540,0.070,-0.069,17.099,-2.405,-60.916,0.0,83.0
90976,-0.564,0.076,0.111,65.115,14.076,-118.252,0.0,68.0
91032,-1.150,0.190,0.151,107.221,36.290,-164.336,0.0,88.0
91087,-2.000,0.761,0.094,174.061,101.763,-250.137,0.0,74.0
91145,-2.000,0.514,-0.392,-90.198,121.847,-250.137,0.0,63.0
91200,-1.452,-0.253,0.310,-191.435,65.710,-145.229,0.0,67.0
91245,-0.822,-0.055,0.422,57.221,57.351,-29.305,16.0,74.0
91290,-0.486,0.423,0.172,61.519,22.107,0.450,17.0,75.0
91344,-0.258,0.388,0.237,-10.206,5.038,20.733,0.0,65.0
91389,-0.304,0.302,0.288,-23.092,4.313,36.382,17.0,74.0
91433,-0.553,0.325,0.228,-43.351,-16.221,28.802,16.0,63.0
91488,-0.745,0.138,0.246,-17.397,-44.092,33.313,0.0,57.0
91532,-1.876,0.024,0.060,52.695,-69.313,92.023,17.0,58.0
91588,-2.000,0.172,-0.486,46.511,-88.397,175.313,0.0,57.0
91643,-2.000,0.065,-0.362,-94.435,-109.023,250.130,0.0,60.0
91700,-1.115,0.164,-0.046,-65.412,-94.634,189.756,0.0,96.0
91756,-0.447,-0.041,-0.037,-26.985,-55.282,118.076,0.0,87.0
91813,-0.244,0.032,-0.062,-17.115,-29.733,60.618,0.0,101.0
91869,-0.175,-0.035,-0.073,-34.847,-24.870,22.466,0.0,67.0
91924,-0.402,-0.019,-0.017,-4.916,-21.779,-11.435,0.0,71.0
91978,-0.524,0.115,0.053,62.511,-10.565,-57.878,0.0,70.0
92038,-1.033,0.397,0.111,92.260,-23.695,-133.115,0.0,76.0
92093,-1.877,0.853,0.429,123.053,41.511,-228.191,0.0,77.0
92148,-1.611,0.553,0.285,62.802,123.931,-242.832,0.0,69.0
92203,-1.482,0.472,0.085,-106.260,76.191,-248.740,0.0,60.0
92258,-0.802,-0.114,0.448,-34.397,54.458,-131.458,0.0,63.0
92313,-0.520,0.319,0.279,-9.191,8.679,-38.137,0.0,64.0
92368,-0.247,0.408,0.256,-49.634,-14.069,5.107,0.0,71.0
92423,-0.370,0.434,0.132,-94.244,-9.809,11.794,0.0,53.0
92477,-1.477,0.297,0.037,-79.649,-26.023,11.267,0.0,55.0
92534,-2.000,0.116,-0.377,-37.977,-65.817,86.107,0.0,56.0
92589,-2.000,-0.074,-0.229,-72.351,-89.603,226.275,0.0,57.0
92643,-1.265,0.190,-0.061,-10.191,-84.908,234.427,0.0,57.0
92698,-0.583,0.338,-0.050,-22.252,-60.931,191.076,0.0,63.0
92755,-0.278,0.339,-0.036,-84.786,-42.252,136.733,0.0,94.0
92810,-0.244,0.178,0.006,-101.832,-28.092,80.886,0.0,63.0
92865,-0.312,0.177,0.046,-55.435,-4.901,31.435,0.0,69.0
92921,-0.578,0.365,0.056,-42.519,38.031,-30.550,0.0,74.0
92977,-1.272,0.448,0.196,-65.725,96.847,-111.450,0.0,82.0
93036,-1.878,0.122,0.246,-37.351,144.473,-205.168,0.0,85.0
93092,-1.715,0.183,0.093,-117.634,78.427,-125.489,0.0,88.0
93150,-1.045,0.135,0.263,-63.511,70.382,-112.267,0.0,92.0
93206,-0.720,0.365,0.168,-63.389,63.863,-104.573,0.0,97.0
93263,-0.624,0.382,0.169,-124.389,43.565,-96.893,0.0,105.0
93323,-0.651,0.258,0.199,-167.863,18.412,-62.511,0.0,134.0
93370,-1.031,0.176,0.168,-144.550,-27.519,-11.351,17.0,107.0
93471,-1.690,0.238,-0.132,-0.214,-85.832,92.115,0.0,113.0
93533,-1.883,0.754,-0.799,-119.153,-101.252,137.382,0.0,124.0
93593,-1.612,0.181,-0.458,-217.557,-69.702,144.206,200.0,147.0
93656,-0.973,0.182,-0.282,-98.931,-50.733,158.305,188.0,0.0
93717,-0.638,0.362,-0.340,-118.641,-46.863,141.756,179.0,0.0
93778,-0.586,0.326,-0.274,-108.718,-20.725,119.298,166.0,0.0
93841,-0.751,0.373,-0.189,-101.939,9.847,80.832,0.0,0.0
93902,-0.932,0.339,-0.024,-89.031,24.221,31.527,0.0,169.0
93962,-1.117,0.229,0.089,-53.977,35.992,-9.634,0.0,141.0
94022,-1.018,0.268,0.288,-4.832,52.412,-49.557,0.0,144.0
94085,-0.917,0.167,0.289,-53.214,60.130,-51.809,0.0,149.0
94145,-1.165,0.061,0.284,-52.985,52.435,-53.672,0.0,145.0
94204,-1.105,0.126,0.202,6.550,51.458,-48.290,0.0,147.0
94265,-0.926,0.324,0.127,-15.992,61.405,-51.366,0.0,151.0
94325,-0.810,0.297,0.129,-77.893,65.305,-54.153,0.0,154.0
94386,-0.758,0.183,0.172,-89.435,63.656,-44.718,0.0,158.0
94446,-0.771,0.211,0.241,-68.053,52.115,-29.977,0.0,162.0
94509,-0.831,0.284,0.250,-64.046,29.954,-24.794,0.0,175.0
94571,-0.972,0.286,0.204,-25.145,5.962,-13.611,0.0,137.0
94624,-1.394,0.406,-0.064,-31.382,-9.252,13.885,96.0,140.0
94678,-1.642,0.198,-0.261,-84.366,-55.908,87.420,90.0,145.0
94738,-1.777,0.118,-0.326,-82.931,-70.328,155.611,0.0,153.0
94799,-1.254,0.126,-0.218,-63.031,-67.328,188.672,0.0,163.0
94861,-0.851,0.217,-0.281,-107.519,-52.023,153.137,0.0,175.0
94916,-0.528,-0.029,-0.194,-131.603,-39.939,81.557,200.0,57.0
94971,-0.545,-0.178,-0.083,-27.084,-22.618,52.153,196.0,57.0
95026,-0.497,0.111,-0.091,14.420,-13.634,11.443,192.0,57.0
95083,-0.584,0.091,-0.042,14.321,-1.802,-16.855,189.0,59.0
95137,-0.566,0.147,0.040,46.336,10.908,-43.878,188.0,57.0
95193,-0.673,0.227,0.146,54.466,35.863,-81.298,187.0,75.0
95249,-1.564,0.402,0.308,70.252,61.649,-120.183,0.0,70.0
95303,-1.880,0.449,0.338,103.275,89.275,-212.588,188.0,70.0
95358,-1.597,0.523,0.153,-46.992,81.527,-158.947,190.0,69.0
95415,-0.970,0.136,0.277,-74.733,55.565,-104.840,0.0,68.0
95470,-0.597,0.126,0.289,10.420,40.626,-49.298,0.0,68.0
95528,-0.381,0.312,0.204,3.344,15.359,-8.191,0.0,71.0
95584,-0.415,0.269,0.243,21.328,0.145,13.313,0.0,60.0
95629,-0.697,0.380,0.118,-7.687,-10.435,25.847,16.0,60.0
95683,-1.643,0.306,0.063,-15.115,-20.672,46.931,0.0,59.0
95738,-2.000,-0.021,-0.298,8.992,-59.084,119.450,0.0,62.0
95794,-1.868,0.003,-0.136,-18.840,-81.863,237.641,0.0,60.0
95850,-1.036,0.358,-0.060,10.084,-72.214,183.954,0.0,82.0
95907,-0.462,0.164,-0.082,-71.794,-55.817,133.313,0.0,85.0
95964,-0.151,-0.170,0.007,-68.534,-47.916,68.626,0.0,87.0
96023,-0.223,-0.215,-0.012,-1.809,-38.374,26.542,0.0,80.0
96078,-0.464,0.040,0.014,42.298,-24.046,-18.023,159.0,86.0
96135,-0.795,0.266,0.135,59.489,2.832,-88.580,0.0,80.0
96190,-1.755,0.723,0.311,79.595,54.802,-170.008,0.0,75.0
96246,-1.850,0.506,0.268,21.084,93.420,-231.641,0.0,80.0
96303,-1.372,0.411,0.244,-69.756,88.947,-185.916,0.0,74.0
96402,-0.691,0.157,0.269,-1.855,62.237,-107.878,0.0,76.0
96447,-0.480,0.210,0.261,2.092,36.947,-44.321,17.0,60.0
96502,-0.389,0.318,0.268,3.000,21.679,-8.023,0.0,65.0
96550,-0.407,0.268,0.226,-52.420,-3.214,16.198,17.0,60.0
96595,-0.850,0.146,0.251,-27.618,-23.351,39.015,17.0,58.0
96640,-2.000,0.335,-0.229,18.580,-40.992,63.313,16.0,58.0
96695,-2.000,-0.149,-0.502,-72.069,-94.420,179.221,0.0,57.0
96750,-1.993,-0.049,-0.105,-33.603,-118.702,250.130,0.0,64.0
96806,-0.848,0.116,-0.096,61.244,-102.672,168.359,0.0,62.0
96863,-0.243,0.088,-0.079,2.977,-69.863,138.702,0.0,79.0
96919,-0.199,0.010,-0.085,-17.031,-50.344,80.176,0.0,85.0
96975,-0.335,-0.046,-0.071,-11.397,-42.260,41.427,0.0,73.0
97036,-0.453,0.021,-0.045,28.527,-25.656,-8.260,0.0,81.0
97092,-0.628,0.185,0.086,53.847,3.069,-59.008,0.0,83.0
97154,-1.420,0.556,0.361,39.748,47.565,-138.000,0.0,87.0
97210,-1.706,0.699,0.553,100.618,90.832,-250.137,0.0,85.0
97264,-1.754,0.643,0.184,-49.725,76.511,-184.099,0.0,71.0
97319,-1.176,0.194,0.215,-14.237,61.122,-187.092,0.0,67.0
97374,-0.579,0.362,0.193,4.588,51.282,-95.405,0.0,67.0
97429,-0.398,0.321,0.191,-54.954,26.786,-39.710,0.0,67.0
97483,-0.420,0.290,0.260,-34.244,15.427,0.771,0.0,69.0
97540,-0.708,0.324,0.179,-42.382,-2.649,15.206,0.0,63.0
97584,-0.794,0.152,0.193,-33.771,-29.840,65.237,16.0,60.0
97638,-1.597,0.119,0.060,5.427,-45.183,103.023,0.0,60.0
97692,-2.000,0.230,-0.305,43.221,-55.191,156.221,0.0,66.0
97746,-2.000,0.167,-0.281,-63.351,-68.168,213.336,0.0,62.0
97802,-1.244,0.192,-0.019,-58.985,-83.183,180.969,0.0,75.0
97856,-0.448,0.029,0.041,-27.275,-66.076,136.107,0.0,58.0
97912,-0.057,-0.048,0.023,-20.504,-41.046,90.000,0.0,88.0
97972,-0.145,-0.030,-0.078,-9.046,-24.634,23.771,0.0,86.0
98027,-0.412,0.019,-0.081,-2.939,-18.031,-20.817,0.0,83.0
98083,-0.605,0.165,0.052,34.901,3.527,-80.595,0.0,90.0
98138,-1.121,0.192,0.247,35.038,28.115,-135.817,0.0,62.0
98193,-2.000,0.909,0.356,100.511,71.107,-250.137,0.0,66.0
98248,-2.000,0.215,0.107,41.160,93.916,-246.389,0.0,71.0
98302,-1.478,0.404,0.154,-28.954,70.382,-194.130,0.0,62.0
98358,-0.673,0.044,0.354,-11.565,42.092,-119.183,0.0,69.0
98412,-0.446,0.393,0.240,54.466,13.985,-42.672,0.0,66.0
98469,-0.353,0.433,0.203,16.573,-5.603,11.420,0.0,57.0
98524,-0.351,0.457,0.125,-28.305,-9.534,47.557,0.0,50.0
98577,-0.761,0.352,0.104,-81.511,-20.145,76.206,0.0,49.0
98631,-2.000,0.216,0.026,-26.947,-39.382,105.344,0.0,50.0
98685,-2.000,-0.074,-0.548,-65.015,-75.962,205.794,0.0,44.0
98739,-1.850,0.016,-0.089,-60.053,-85.763,250.130,0.0,51.0
98794,-0.750,0.229,-0.072,0.443,-61.588,188.886,0.0,57.0
98849,-0.386,0.065,-0.057,-42.420,-47.519,110.786,0.0,79.0
98904,-0.270,-0.110,-0.069,-16.176,-35.260,47.023,0.0,50.0
98960,-0.408,-0.037,-0.092,10.901,-24.191,5.466,0.0,50.0
99016,-0.484,0.072,-0.042,19.107,-13.756,-42.542,0.0,76.0
99070,-0.667,0.182,0.095,50.427,7.038,-105.687,0.0,57.0
99168,-1.805,0.621,0.307,76.870,67.916,-237.443,0.0,59.0
99223,-1.768,0.435,0.113,-9.313,122.260,-250.137,0.0,60.0
99270,-1.590,0.175,0.095,-159.672,83.954,-222.954,79.0,56.0
99317,-1.118,-0.269,0.382,-62.702,66.664,-139.817,80.0,51.0
99361,-0.605,0.114,0.265,37.511,52.130,-43.015,17.0,50.0
99411,-0.330,0.274,0.267,-6.786,8.305,5.931,81.0,55.0
99456,-0.313,0.250,0.272,-33.099,-3.878,32.366,17.0,54.0
99499,-0.498,0.304,0.218,-33.634,-12.542,27.374,17.0,46.0
99545,-0.921,0.125,0.156,-10.710,-34.809,32.244,80.0,44.0
99589,-1.986,-0.009,-0.018,52.977,-60.313,86.756,17.0,45.0
99643,-2.000,-0.075,-0.255,33.481,-78.008,198.740,0.0,52.0
99697,-2.000,0.139,-0.267,-32.397,-97.786,250.130,0.0,50.0
99751,-1.128,0.191,-0.052,-23.947,-91.672,201.580,0.0,53.0
99806,-0.526,0.049,-0.020,-14.542,-59.359,140.053,0.0,60.0
99874,-0.394,0.082,-0.077,-5.229,-32.969,73.031,0.0,80.0
99932,-0.367,0.017,-0.077,-16.450,-25.328,27.099,0.0,69.0
99989,-0.451,0.009,0.027,5.427,-15.458,-11.397,0.0,57.0
100045,-0.584,0.106,0.176,51.534,0.290,-63.214,0.0,60.0
100103,-1.120,0.354,0.247,86.695,4.656,-139.756,0.0,60.0
100160,-1.677,0.757,0.257,103.351,53.618,-250.137,0.0,59.0
100217,-1.677,0.532,-0.042,-38.725,101.924,-242.878,0.0,58.0
100275,-1.185,0.090,0.086,-128.298,76.580,-185.282,0.0,57.0
100332,-0.783,-0.012,0.277,-11.649,58.344,-66.099,0.0,57.0
100391,-0.612,0.141,0.290,39.435,14.725,15.099,0.0,58.0
100449,-0.571,0.350,0.275,41.389,-3.496,38.511,0.0,60.0
100506,-0.606,0.424,0.208,-12.588,-10.679,28.359,0.0,52.0
100552,-1.297,0.361,0.098,-68.305,-22.679,32.626,16.0,52.0
100609,-2.000,0.123,-0.066,-54.794,-53.840,61.351,0.0,50.0
100666,-2.000,-0.083,-0.223,-18.046,-92.939,155.435,0.0,57.0
100723,-1.449,0.312,-0.156,27.893,-74.214,196.458,0.0,57.0
100781,-0.756,0.528,-0.133,-11.588,-38.992,140.916,0.0,59.0
100841,-0.394,0.347,-0.032,-99.786,-19.977,96.443,0.0,71.0
100899,-0.258,0.180,0.070,-99.817,-8.947,67.008,0.0,71.0
100957,-0.302,0.222,0.095,-59.832,2.672,27.641,0.0,57.0
101014,-0.525,0.350,0.094,-25.092,17.542,-44.702,0.0,59.0
101071,-0.721,0.217,0.189,8.046,46.489,-103.763,0.0,59.0
101129,-1.214,0.235,0.266,15.168,75.069,-112.366,0.0,67.0
101186,-2.000,0.625,0.128,7.947,67.756,-203.473,0.0,59.0
101243,-1.567,0.051,0.117,-161.656,21.290,-83.863,0.0,63.0
101301,-1.005,0.076,0.227,-97.115,18.756,-33.389,0.0,65.0
101362,-0.614,0.344,0.139,-67.237,11.344,-25.321,0.0,68.0
101421,-0.443,0.359,0.148,-92.008,13.405,-30.924,0.0,72.0
101479,-0.571,0.396,0.083,-131.542,12.580,-53.595,0.0,77.0
101537,-0.920,0.325,0.049,-120.573,2.802,-70.603,0.0,83.0
101597,-1.438,0.160,-0.066,-73.374,-20.519,-27.832,0.0,92.0
101646,-1.754,0.470,-0.543,-155.023,-48.969,75.771,17.0,101.0
101706,-1.859,0.211,-0.510,-235.725,-85.397,141.298,0.0,110.0
101767,-1.501,0.012,-0.403,-167.863,-91.603,184.687,199.0,113.0
101830,-0.803,0.213,-0.288,-79.427,-60.252,214.038,0.0,165.0
101894,-0.640,0.476,-0.250,-139.832,-58.786,166.542,199.0,101.0
101996,-0.902,0.404,-0.030,-88.763,-36.779,90.794,0.0,91.0
102055,-0.836,0.448,-0.000,-56.382,-5.397,77.145,0.0,94.0
102115,-0.792,0.514,0.056,-50.840,37.290,28.260,0.0,99.0
102175,-0.736,0.455,0.145,-34.977,93.672,-36.435,0.0,103.0
102236,-0.745,0.323,0.179,-62.206,135.267,-42.595,0.0,108.0
102296,-1.083,0.274,0.218,-105.786,131.603,-69.809,0.0,112.0
102356,-1.171,0.061,0.268,-55.878,107.916,-75.802,0.0,115.0
102421,-1.050,0.127,0.258,-11.771,78.847,-63.183,0.0,119.0
102473,-0.943,0.247,0.217,-19.443,54.481,-59.855,50.0,122.0
102535,-0.830,0.243,0.211,-48.122,41.656,-48.496,0.0,126.0
102596,-0.803,0.208,0.219,-81.237,22.580,-25.695,0.0,132.0
102659,-0.835,0.132,0.267,-59.305,1.618,-1.290,0.0,138.0
102721,-0.802,0.311,0.174,-21.840,-4.290,5.908,0.0,146.0
102784,-1.073,0.530,0.023,-33.557,1.145,-10.397,0.0,152.0
102847,-1.821,0.404,-0.436,-94.794,-17.565,12.359,0.0,158.0
102907,-1.745,0.078,-0.320,-134.534,-43.641,114.252,150.0,168.0
102972,-1.318,-0.014,-0.172,-63.473,-54.099,201.962,142.0,180.0
103034,-0.757,0.202,-0.169,-57.427,-51.061,207.252,138.0,192.0
103089,-0.590,0.090,-0.122,-71.634,-46.092,142.244,135.0,71.0
103148,-0.624,0.093,-0.045,-35.099,-31.756,92.511,0.0,94.0
103206,-0.614,0.208,-0.026,-13.076,-19.458,32.290,0.0,75.0
103265,-0.604,0.215,0.050,-18.496,-13.542,-9.763,0.0,59.0
103323,-0.552,0.184,0.141,22.053,-7.282,-50.351,0.0,75.0
103382,-0.609,0.307,0.132,72.168,6.137,-94.519,0.0,80.0
103443,-0.665,0.334,0.185,75.191,22.863,-153.901,0.0,62.0
103500,-1.588,0.515,0.219,26.420,57.122,-186.542,0.0,66.0
103559,-1.918,0.160,0.279,33.565,86.092,-215.809,0.0,60.0
103616,-1.501,0.344,0.210,-14.916,67.809,-94.328,0.0,58.0
103673,-1.120,0.232,0.191,-4.962,48.344,-79.214,0.0,57.0
103731,-0.674,0.261,0.234,4.511,33.748,-38.374,0.0,60.0
103789,-0.454,0.238,0.221,-13.740,15.588,4.565,0.0,66.0
103846,-0.321,0.200,0.226,-30.008,1.962,40.160,0.0,61.0
103905,-0.537,0.314,0.205,-31.725,-6.267,42.443,0.0,57.0
103965,-0.889,0.257,0.132,-14.550,-19.046,24.015,0.0,57.0
104023,-1.355,0.264,0.014,-0.313,-25.076,60.931,0.0,54.0
104080,-2.000,0.369,-0.246,-16.130,-37.420,95.115,0.0,58.0
104138,-2.000,0.027,-0.271,-90.817,-63.511,168.206,0.0,71.0
104198,-1.186,0.094,0.023,4.084,-68.504,162.115,0.0,72.0
104256,-0.421,0.251,-0.023,33.046,-39.130,126.427,0.0,78.0
104321,-0.208,0.196,-0.078,-17.817,-2.672,56.405,0.0,74.0
104378,-0.393,0.034,-0.042,-50.840,3.305,7.939,0.0,72.0
104438,-0.447,0.011,0.090,-1.992,-9.771,-22.855,0.0,66.0
104496,-0.569,0.173,0.116,75.534,-14.893,-70.962,0.0,76.0
104553,-0.742,0.408,0.071,109.878,-4.557,-145.443,0.0,79.0
104611,-1.311,0.407,0.042,62.099,13.969,-180.542,0.0,82.0
104669,-2.000,0.595,0.159,49.756,62.290,-217.183,0.0,71.0
104726,-1.601,0.308,0.059,-42.412,69.405,-145.794,0.0,68.0
104783,-1.133,0.145,0.200,-60.885,41.015,-95.618,0.0,67.0
104840,-0.646,0.169,0.239,6.901,29.710,-26.595,0.0,61.0
104897,-0.369,0.313,0.163,-30.229,10.115,8.679,0.0,68.0
