Timestamp(ms),AccelX(g),AccelY(g),AccelZ(g),GyroX(deg/s),GyroY(deg/s),GyroZ(deg/s),DistanceLeft(cm),DistanceRight(cm)
316851,-0.154,1.106,0.220,85.305,10.183,-32.977,0.0,0.0
316916,0.688,0.774,0.261,33.992,22.649,62.473,0.0,0.0
316982,0.486,0.173,0.486,-18.435,29.313,90.664,0.0,0.0
317050,-0.137,0.251,0.408,0.527,-0.153,75.229,0.0,0.0
317116,-0.918,1.144,0.210,-14.664,8.198,97.977,0.0,0.0
317174,-1.811,1.423,0.029,-99.458,15.931,154.847,0.0,73.0
317233,-1.850,1.267,-0.120,-95.435,23.573,169.947,0.0,84.0
317291,-1.588,0.977,-0.216,-85.878,8.008,127.863,0.0,57.0
317339,-0.936,0.536,-0.093,8.099,-1.893,20.863,48.0,61.0
317398,-0.246,0.146,-0.037,26.740,13.977,-58.420,0.0,77.0
317457,0.051,-0.342,0.036,-15.992,41.649,-93.290,0.0,80.0
317515,-0.131,0.118,0.179,-24.771,35.229,-64.015,0.0,81.0
317578,-1.264,0.905,0.125,-20.420,-21.618,-34.069,0.0,82.0
317635,-1.401,0.801,0.374,32.366,-84.099,-24.389,198.0,59.0
317694,-1.015,0.487,0.400,76.603,-78.832,3.992,195.0,86.0
317753,-0.764,0.523,0.278,72.550,-50.046,-16.702,0.0,76.0
317815,-0.541,0.284,0.310,72.954,-63.160,-29.023,0.0,137.0
317875,-0.290,0.277,0.289,97.580,-75.031,-9.069,0.0,93.0
317940,-0.274,0.399,0.282,77.412,-67.237,-3.405,0.0,0.0
318000,-0.561,0.509,0.316,93.183,-68.031,-14.260,0.0,86.0
318063,-0.620,0.635,0.275,156.664,-43.916,-9.847,0.0,108.0
318125,-1.519,1.810,-0.197,97.802,-24.947,-16.374,0.0,120.0
318184,-1.457,0.850,0.284,-67.176,-107.023,32.305,0.0,87.0
318243,-1.122,0.441,0.427,87.328,-115.847,5.672,0.0,90.0
318303,-0.558,0.626,0.187,91.122,-89.733,5.328,0.0,94.0
318363,-0.290,0.477,0.117,9.221,-72.214,-22.580,0.0,98.0
318423,-0.263,0.313,0.132,32.427,-65.389,-40.802,0.0,96.0
318482,-0.429,0.449,0.017,71.260,-55.771,-60.550,0.0,95.0
318542,-0.698,0.473,-0.027,64.237,-47.107,-94.977,0.0,93.0
318611,-0.930,0.455,0.009,80.603,-31.557,-140.679,0.0,192.0
318673,-1.256,0.274,0.026,156.863,-12.962,-182.038,153.0,181.0
318735,-1.435,0.327,-0.113,180.908,24.137,-139.641,152.0,176.0
318796,-1.602,0.344,-0.248,79.611,8.733,-110.458,154.0,174.0
318859,-1.057,0.197,-0.037,141.191,16.053,-64.916,155.0,174.0
318925,-0.715,0.436,-0.060,143.718,17.565,-37.863,156.0,172.0
318987,-0.616,0.374,0.070,122.458,14.183,-31.298,160.0,175.0
319042,-0.697,0.391,0.217,130.618,0.649,-4.176,57.0,179.0
319109,-0.800,0.577,0.328,124.000,-3.427,-5.191,172.0,0.0
319172,-0.788,0.792,0.323,117.916,19.977,0.130,179.0,0.0
319233,-0.645,0.969,0.184,17.496,39.634,30.191,166.0,155.0
319293,-0.766,0.757,0.324,-35.603,30.802,96.023,155.0,166.0
319354,-1.382,0.955,0.658,-132.076,-53.924,202.641,143.0,0.0
319410,-2.000,1.750,0.761,-67.008,-133.412,250.130,152.0,84.0
319467,-2.000,2.000,0.047,-111.160,-96.847,250.130,0.0,57.0
319515,-2.000,1.459,-0.853,-218.595,14.435,250.130,50.0,64.0
319564,-0.546,-0.519,-0.496,-71.679,41.977,88.969,38.0,74.0
319614,0.089,-1.284,-0.511,75.191,20.817,-41.000,38.0,72.0
319664,-0.216,-0.591,-0.519,116.756,11.519,-103.267,40.0,74.0
319721,-1.006,-0.182,-0.565,129.076,-16.168,-208.412,0.0,76.0
319779,-1.385,0.122,-0.283,64.313,-14.985,-249.015,0.0,86.0
319877,-2.000,0.984,0.001,224.031,-23.290,-250.137,120.0,79.0
319927,-2.000,1.694,-0.199,184.603,-60.290,-128.351,63.0,79.0
319989,-0.765,1.676,-0.282,138.824,-12.351,-48.687,157.0,0.0
320052,0.656,0.929,0.304,106.099,-25.802,16.435,160.0,0.0
320117,1.035,0.514,0.375,38.206,-10.573,52.771,153.0,0.0
320181,0.368,0.765,0.210,42.328,44.489,56.824,166.0,0.0
320244,-0.564,1.108,0.061,-84.137,60.481,79.450,183.0,0.0
320308,-2.000,2.000,-0.483,-199.893,70.756,199.893,0.0,179.0
320366,-2.000,2.000,-0.959,-161.718,61.168,250.130,0.0,70.0
320414,-1.868,1.070,-0.914,-228.664,52.985,239.924,51.0,63.0
320473,-0.319,-0.362,-0.409,-153.748,58.534,83.893,0.0,78.0
320521,-0.025,-1.362,-0.471,-93.763,66.252,23.687,38.0,75.0
320573,-0.365,-0.707,-0.502,69.954,47.244,-80.962,42.0,73.0
320630,-0.982,-0.105,-0.445,123.511,13.916,-185.092,0.0,68.0
320688,-1.278,0.032,-0.115,75.359,5.489,-243.336,0.0,65.0
320741,-1.978,0.187,-0.107,153.359,16.733,-250.137,132.0,71.0
320803,-2.000,1.227,-0.152,172.069,-11.504,-250.137,141.0,0.0
320860,-2.000,1.189,-0.041,57.947,-24.214,-63.221,54.0,0.0
320917,-0.636,0.863,0.051,110.550,-31.382,26.351,58.0,0.0
320974,0.281,0.916,0.083,93.672,-29.046,47.481,58.0,0.0
321031,0.749,0.417,0.306,46.198,-18.511,86.153,58.0,0.0
321091,0.390,0.548,0.324,27.313,21.573,80.443,58.0,0.0
321156,-0.189,0.919,0.337,-68.519,41.985,107.863,0.0,0.0
321221,-1.592,2.000,0.010,-90.817,53.771,214.412,0.0,0.0
321278,-2.000,2.000,-0.622,-201.229,23.954,250.130,0.0,72.0
321327,-1.297,0.569,-0.176,-184.893,48.450,153.023,48.0,58.0
321376,-0.697,0.271,-0.375,-134.763,75.168,66.427,51.0,57.0
321432,-0.288,-0.961,-0.403,-110.260,36.023,29.092,0.0,57.0
321490,-0.288,-0.697,-0.483,87.191,11.489,-44.527,0.0,76.0
321549,-0.709,-0.088,-0.334,104.855,17.412,-174.466,0.0,73.0
321604,-1.310,-0.001,-0.017,109.374,35.092,-250.137,110.0,76.0
321658,-2.000,0.099,0.016,161.763,32.427,-250.137,147.0,59.0
321716,-2.000,0.783,-0.302,210.153,-8.061,-250.137,54.0,0.0
321773,-1.917,1.183,-0.239,80.710,12.344,-165.511,60.0,0.0
321839,-0.836,0.966,0.144,135.870,40.740,-28.664,0.0,0.0
321903,0.525,0.944,0.333,63.191,7.374,19.626,0.0,0.0
321969,0.097,0.661,0.282,33.802,25.779,52.115,0.0,0.0
322033,-0.829,0.472,0.113,-69.565,19.191,68.145,0.0,0.0
322102,-2.000,0.205,-0.264,-66.099,-10.947,98.855,0.0,0.0
322167,-1.571,0.166,-0.246,-83.954,-17.176,153.282,0.0,0.0
322226,-0.686,0.299,-0.090,-62.924,8.267,115.061,0.0,86.0
322283,-0.400,0.333,-0.057,-103.954,19.847,75.214,0.0,59.0
322340,-0.342,0.163,-0.018,-130.023,7.435,57.031,0.0,57.0
322393,-0.422,0.158,0.093,-75.763,-4.473,54.573,122.0,58.0
322451,-0.801,0.459,0.060,-32.458,-6.305,44.878,0.0,68.0
322508,-1.317,0.736,0.022,-10.977,-13.443,16.275,0.0,62.0
322566,-1.543,0.730,0.061,25.191,-16.122,-30.374,0.0,61.0
322626,-1.225,0.566,0.146,74.534,-9.939,-67.405,0.0,67.0
322682,-1.021,0.424,0.162,29.542,-8.649,-42.145,185.0,57.0
322740,-1.013,0.391,0.215,8.542,-18.878,-35.221,182.0,71.0
322840,-0.699,0.292,0.206,103.992,-44.198,-37.847,0.0,59.0
322897,-0.520,0.359,0.157,122.664,-58.061,-36.427,0.0,57.0
322955,-0.411,0.294,0.134,95.046,-67.412,-6.687,0.0,57.0
323014,-0.365,0.313,0.153,105.412,-60.885,4.794,0.0,101.0
323073,-0.456,0.446,0.186,92.351,-42.076,-11.947,0.0,65.0
323134,-0.637,0.532,0.225,84.153,-7.229,-39.626,0.0,90.0
323192,-0.815,0.575,0.225,78.954,21.985,-65.267,0.0,63.0
323257,-1.369,0.733,0.236,91.992,35.412,-71.687,0.0,0.0
323322,-1.601,0.604,0.155,12.527,-18.870,-23.183,0.0,0.0
323388,-1.502,0.366,0.256,34.061,-76.412,103.702,0.0,0.0
323447,-0.999,0.337,0.175,35.618,-108.740,125.466,0.0,95.0
323507,-0.651,0.242,0.165,12.511,-125.832,107.046,0.0,91.0
323566,-0.476,0.207,0.130,55.267,-115.779,57.626,0.0,93.0
323625,-0.425,0.304,0.021,74.954,-92.153,14.191,0.0,94.0
323688,-0.494,0.381,-0.015,84.427,-61.878,-57.679,0.0,92.0
323747,-0.721,0.369,-0.061,102.420,-27.160,-122.573,0.0,98.0
323813,-0.995,0.377,-0.113,123.031,-4.664,-185.198,0.0,0.0
323878,-1.727,0.451,-0.214,126.214,5.168,-227.160,0.0,188.0
323941,-1.633,0.217,-0.224,131.359,30.122,-150.740,170.0,179.0
324002,-1.508,0.338,-0.346,80.908,13.397,-78.908,158.0,175.0
324065,-0.976,0.217,-0.143,168.908,1.237,-58.282,161.0,175.0
324127,-0.650,0.413,-0.182,250.130,6.008,-36.687,167.0,183.0
324191,-0.397,0.602,-0.101,164.176,9.893,-42.763,160.0,0.0
324258,-0.371,0.380,0.112,96.817,28.435,-10.908,189.0,0.0
324323,-1.137,0.686,0.175,72.328,33.466,0.947,182.0,0.0
324387,-1.378,0.534,0.353,35.565,20.504,37.511,186.0,0.0
324452,-0.945,0.683,0.312,70.886,26.435,69.099,178.0,0.0
324515,-0.425,0.578,0.386,-23.885,23.344,92.870,166.0,0.0
324579,-0.976,0.685,0.488,-63.374,-25.626,152.992,151.0,0.0
324644,-2.000,1.917,0.165,-34.359,-123.359,250.130,0.0,0.0
324702,-2.000,2.000,-0.105,-66.000,-51.145,250.130,0.0,66.0
324755,-1.768,1.148,-0.325,-250.137,34.221,250.130,50.0,64.0
324804,-0.408,-0.407,-0.365,-192.504,60.679,75.603,40.0,76.0
324853,-0.048,-1.031,-0.544,-5.534,51.099,-39.137,37.0,73.0
324902,-0.418,-0.521,-0.648,112.702,35.687,-83.718,38.0,73.0
324952,-1.054,-0.081,-0.569,167.420,9.099,-191.489,50.0,72.0
325011,-1.423,0.213,-0.260,89.153,-0.168,-224.084,0.0,86.0
325070,-2.000,0.529,0.242,176.435,-19.275,-236.992,0.0,98.0
325130,-2.000,1.601,0.290,132.817,-85.931,-162.786,0.0,91.0
325187,-1.390,1.714,-0.088,132.962,-47.031,-119.496,53.0,0.0
325249,-0.132,1.445,-0.034,109.298,6.275,-94.053,58.0,0.0
325306,0.903,0.636,0.407,40.969,-33.344,-4.947,57.0,0.0
325363,0.723,0.163,0.462,45.725,-26.351,41.992,57.0,0.0
325421,0.189,0.458,0.307,19.191,6.748,54.641,54.0,0.0
325486,-0.076,0.833,0.295,-34.519,34.756,97.603,0.0,0.0
325552,-1.141,2.000,0.308,-105.557,39.519,217.664,0.0,0.0
325610,-2.000,2.000,-0.056,-193.244,15.771,250.130,0.0,70.0
325660,-1.661,1.813,-0.575,-200.863,31.084,250.130,43.0,68.0
325712,-0.365,-0.105,-0.568,-171.313,74.450,124.237,35.0,74.0
325762,-0.470,-0.926,-0.773,-43.412,123.550,32.008,37.0,78.0
325855,-0.895,-0.341,-0.541,146.382,74.878,-190.191,37.0,81.0
325905,-1.212,-0.180,-0.366,148.992,35.771,-250.137,42.0,83.0
325958,-1.828,-0.010,-0.207,176.137,10.809,-250.137,86.0,101.0
326025,-2.000,0.120,-0.513,250.130,10.534,-250.137,0.0,0.0
326082,-2.000,2.000,-0.689,117.618,9.855,-250.137,57.0,0.0
326144,-1.166,1.059,0.354,96.420,25.053,-65.191,124.0,0.0
326205,0.192,1.810,0.154,107.603,-28.427,82.725,128.0,0.0
326283,1.032,0.483,0.379,42.748,-42.099,186.649,181.0,0.0
326340,0.584,0.638,0.251,-13.489,24.924,215.496,58.0,0.0
326406,-0.115,0.921,0.286,-38.336,51.740,250.130,0.0,0.0
326463,-1.331,2.000,-0.020,-74.076,79.550,250.130,61.0,83.0
326511,-2.000,2.000,-0.393,-206.122,83.817,250.130,47.0,72.0
326559,-1.845,1.908,-0.320,-218.427,71.382,250.130,37.0,71.0
326607,-0.562,0.390,-0.391,-209.092,70.221,127.908,31.0,73.0
326656,-0.256,-0.822,-0.690,-124.351,76.641,-10.405,30.0,77.0
326707,-0.354,-0.851,-0.684,42.260,86.496,-56.336,30.0,79.0
326755,-0.850,0.112,-0.757,172.290,90.840,-185.847,34.0,79.0
326811,-1.225,0.393,-0.333,89.626,85.198,-250.137,175.0,71.0
326861,-1.741,0.758,0.340,120.779,26.595,-250.137,58.0,85.0
326917,-2.000,1.551,0.488,192.557,-49.824,-242.405,138.0,102.0
326973,-2.000,2.000,0.332,130.886,-107.008,-158.252,51.0,0.0
327035,-0.489,1.399,0.276,105.969,-72.191,-97.748,145.0,0.0
327092,0.448,1.030,0.155,97.931,-41.786,-27.794,53.0,0.0
327159,0.927,0.247,0.124,29.076,-20.168,51.611,0.0,0.0
327224,0.562,0.235,0.266,43.298,11.015,50.901,0.0,0.0
327280,-0.385,0.801,0.426,7.649,39.710,71.031,48.0,0.0
327339,-1.587,1.504,0.217,-43.275,39.313,72.092,0.0,83.0
327398,-1.912,1.188,-0.115,18.626,24.298,91.550,0.0,100.0
327456,-0.750,0.695,-0.063,-49.763,37.893,82.344,0.0,89.0
327515,-0.330,0.401,0.028,-112.893,41.221,44.313,0.0,83.0
327572,-0.160,0.167,0.102,-134.992,31.382,25.565,0.0,63.0
327629,-0.131,0.070,0.171,-97.252,17.595,20.618,0.0,75.0
327691,-0.506,0.472,0.256,-26.733,13.450,8.992,0.0,74.0
327748,-1.208,1.009,0.230,-14.618,24.473,-37.061,0.0,80.0
327803,-1.481,0.778,0.176,49.466,31.962,-138.053,141.0,77.0
327860,-1.273,0.315,-0.008,111.763,41.855,-156.740,0.0,59.0
327918,-1.295,0.314,-0.154,96.252,30.053,-114.427,0.0,77.0
327975,-1.310,0.249,-0.114,74.832,-1.145,-114.519,0.0,59.0
328034,-0.984,0.126,0.043,138.328,-13.618,-87.771,0.0,86.0
328099,-0.747,0.318,-0.033,194.053,-3.710,-90.817,0.0,0.0
328159,-0.502,0.408,-0.057,127.740,-1.954,-92.870,200.0,102.0
328226,-0.466,0.263,0.045,103.031,2.809,-67.191,198.0,0.0
328284,-0.701,0.360,0.027,100.122,12.649,-42.992,58.0,0.0
328340,-0.774,0.368,0.086,73.893,32.496,-32.939,58.0,0.0
328406,-1.024,0.326,0.094,42.489,38.397,-12.527,198.0,0.0
328470,-1.612,0.333,0.073,31.420,23.611,31.893,195.0,0.0
328535,-1.515,-0.198,0.131,5.618,-55.282,150.122,188.0,0.0
328598,-1.868,0.109,0.022,72.550,-87.191,224.588,179.0,0.0
328663,-1.261,0.240,0.020,26.351,-112.206,205.740,177.0,0.0
328723,-0.599,0.181,0.165,-17.878,-105.244,145.183,181.0,94.0
328826,-0.219,0.263,0.148,33.176,-65.389,27.931,0.0,100.0
328886,-0.326,0.398,0.137,45.634,-51.595,-37.183,0.0,101.0
328945,-0.611,0.502,0.172,71.718,-36.595,-89.573,0.0,95.0
329004,-0.813,0.537,0.142,100.802,-27.878,-127.863,0.0,92.0
329068,-1.228,0.369,0.010,140.634,-30.489,-159.916,0.0,188.0
329131,-1.104,0.255,-0.033,197.863,-8.298,-160.656,159.0,179.0
329192,-1.383,0.552,-0.209,90.427,-1.794,-111.450,158.0,170.0
329252,-1.271,0.060,0.038,114.824,-35.168,-66.069,159.0,170.0
329317,-0.832,0.457,-0.152,192.740,-22.924,7.023,161.0,169.0
329378,-0.638,0.466,-0.054,105.756,-21.267,16.481,160.0,170.0
329440,-0.612,0.358,0.046,111.954,-5.534,10.153,159.0,173.0
329496,-0.729,0.481,0.107,121.282,-4.115,1.885,57.0,189.0
329553,-0.712,0.575,0.186,103.634,14.489,6.252,57.0,0.0
329611,-0.750,0.645,0.215,68.840,22.214,-11.321,57.0,0.0
329673,-0.776,0.555,0.189,71.130,31.275,-8.023,151.0,0.0
329736,-0.986,0.601,0.070,22.779,11.038,2.733,161.0,0.0
329801,-1.105,0.480,0.215,0.038,-27.107,96.519,157.0,188.0
329863,-1.484,0.882,0.118,-42.557,-52.496,149.221,139.0,197.0
329921,-1.890,1.157,0.212,-71.702,-83.244,207.282,0.0,77.0
329978,-2.000,1.874,0.014,-17.496,-84.916,250.130,0.0,63.0
330036,-1.501,1.747,-0.040,-62.466,-44.626,250.130,0.0,63.0
330094,-0.090,0.576,-0.215,-131.389,3.550,148.061,0.0,64.0
330142,0.024,-0.886,-0.250,-105.450,23.359,6.672,40.0,64.0
330190,-0.274,-0.652,-0.213,55.840,41.267,-23.725,36.0,68.0
330248,-0.721,0.084,-0.321,111.504,37.542,-91.405,0.0,65.0
330300,-1.158,1.014,0.132,29.244,11.450,-120.641,42.0,63.0
330357,-1.824,1.636,0.645,51.847,-59.626,-108.519,0.0,59.0
330404,-1.187,2.000,0.682,-1.420,-129.229,-5.000,42.0,51.0
330452,-0.494,1.756,0.667,8.214,-137.824,39.366,42.0,57.0
330509,0.185,1.210,0.275,-6.092,-88.336,20.229,0.0,46.0
330566,0.714,0.293,0.093,73.061,-40.420,-8.099,0.0,59.0
330614,0.525,0.239,0.031,46.145,5.916,7.802,47.0,44.0
330661,0.551,0.147,0.140,2.122,10.687,56.374,48.0,43.0
330712,0.542,0.058,0.233,59.038,33.511,79.573,37.0,95.0
330764,0.596,0.537,0.034,27.771,72.107,74.374,37.0,84.0
330812,0.112,1.025,-0.023,31.000,145.763,69.405,37.0,57.0
330860,-0.207,1.919,-0.262,4.908,137.053,28.679,39.0,58.0
330907,-0.389,1.929,-0.028,-46.847,94.221,77.573,38.0,55.0
330955,-0.054,2.000,0.024,-11.267,60.885,135.924,39.0,63.0
331003,-0.667,2.000,-0.358,-76.641,80.252,124.656,36.0,62.0
331053,-0.269,1.388,-0.262,-35.756,91.221,36.519,43.0,67.0
331101,0.085,0.334,-0.136,-21.282,83.603,-55.695,31.0,66.0
331153,0.290,-0.637,0.049,12.641,65.405,-82.229,33.0,75.0
331201,0.079,-0.253,0.186,71.687,67.053,-38.344,34.0,75.0
331250,-0.365,0.736,0.002,55.679,12.878,-56.168,36.0,67.0
331298,-0.528,0.937,0.167,-37.313,-6.397,-29.908,36.0,60.0
331345,-0.565,1.274,0.053,41.198,-37.756,-9.779,37.0,58.0
331395,-0.671,2.000,0.081,2.115,-77.588,-14.015,36.0,63.0
331442,0.082,1.612,0.435,29.031,-103.786,45.084,35.0,61.0
331491,0.387,1.930,0.215,-3.145,-92.725,65.565,33.0,67.0
331582,0.339,1.012,0.388,-15.710,-46.695,0.069,38.0,61.0
331633,0.298,0.001,-0.084,-26.290,-56.511,15.107,32.0,65.0
331681,0.448,-0.153,-0.133,-4.321,-33.725,38.992,31.0,66.0
331730,0.115,0.092,-0.061,37.145,26.046,17.649,44.0,64.0
331779,0.141,0.245,0.027,10.374,46.924,49.115,42.0,63.0
331828,0.249,1.038,0.109,73.649,36.473,12.473,36.0,67.0
331876,0.715,2.000,0.418,-1.084,50.191,26.679,37.0,64.0
331924,0.750,2.000,0.324,-70.618,51.489,88.489,36.0,66.0
331973,0.423,2.000,0.110,-116.015,87.977,95.107,45.0,64.0
332021,-0.040,1.162,-0.204,-129.580,103.656,24.458,30.0,70.0
332072,-0.199,-0.356,-0.393,-81.458,70.191,-58.359,30.0,71.0
332122,-0.318,-0.679,-0.336,-13.313,70.252,-85.427,32.0,72.0
332170,-0.378,-0.262,-0.149,87.053,79.954,-172.038,33.0,70.0
332228,-1.203,0.694,-0.083,94.221,69.786,-216.420,0.0,63.0
332285,-1.076,1.221,0.450,25.267,12.023,-171.099,0.0,52.0
332334,-1.191,2.000,0.233,85.008,-65.191,-138.840,45.0,45.0
332390,-0.977,1.993,0.445,-31.160,-104.550,-95.634,0.0,47.0
332446,-0.690,1.730,0.428,130.794,-106.954,-38.580,0.0,32.0
332506,0.071,0.925,0.417,141.763,-127.389,-46.954,0.0,37.0
332564,0.367,0.771,-0.132,62.023,-128.122,-63.237,0.0,58.0
332621,0.515,-0.246,0.023,-86.649,-62.870,-52.160,0.0,57.0
332668,0.359,-0.220,0.196,13.435,-12.191,-51.893,17.0,57.0
332726,0.038,0.094,0.310,76.450,19.511,-50.237,0.0,57.0
332783,-0.593,1.152,0.529,113.382,41.336,-6.962,0.0,53.0
332840,-0.956,2.000,0.086,81.824,61.069,32.481,0.0,57.0
332899,-1.279,1.836,-0.108,-159.481,76.405,71.771,0.0,57.0
332955,-0.624,0.772,0.093,-164.656,68.886,75.802,0.0,46.0
333016,-0.330,0.466,0.078,-81.282,62.878,70.733,0.0,52.0
333074,-0.146,0.180,0.018,-69.672,55.756,71.901,0.0,57.0
333132,-0.030,0.090,0.027,-72.603,47.160,67.336,0.0,81.0
333192,-0.157,0.381,0.183,-38.031,47.649,32.130,0.0,87.0
333251,-0.882,1.247,0.192,-44.870,61.664,-31.885,0.0,84.0
333310,-1.240,1.006,0.226,-37.122,72.176,-133.534,0.0,84.0
333365,-1.189,0.451,0.247,22.023,80.672,-203.802,102.0,95.0
333415,-1.252,0.193,-0.010,27.511,73.313,-202.656,83.0,55.0
333469,-1.294,0.044,0.005,45.695,53.282,-159.191,84.0,53.0
333517,-1.152,0.050,0.130,133.527,31.550,-140.069,40.0,39.0
333570,-1.016,0.248,0.087,186.618,21.336,-129.092,45.0,36.0
333617,-0.945,0.464,0.088,140.260,29.092,-124.130,49.0,44.0
333664,-0.825,0.593,0.163,12.389,34.542,-98.824,56.0,45.0
333712,-0.857,0.458,0.253,-91.008,28.908,-65.771,58.0,40.0
333759,-0.869,0.220,0.371,-94.595,6.305,-24.603,58.0,44.0
333813,-0.833,0.242,0.412,-49.573,-13.664,5.519,175.0,43.0
333861,-0.862,0.412,0.261,-42.145,-19.763,24.679,51.0,51.0
333917,-0.915,0.473,0.139,-96.595,-13.756,28.534,129.0,57.0
333970,-1.182,0.491,-0.083,-150.130,1.145,26.725,125.0,65.0
334022,-1.373,0.538,-0.492,-250.137,8.931,20.710,105.0,79.0
334082,-1.152,0.331,-0.627,-250.137,-11.115,23.649,101.0,0.0
334140,-1.006,0.212,-0.694,-250.137,-19.733,13.038,97.0,0.0
334199,-0.965,0.134,-0.637,-201.260,-24.084,15.550,91.0,0.0
334301,-0.968,0.321,-0.625,-159.977,4.061,16.244,86.0,0.0
334360,-0.917,0.137,-0.378,-132.092,13.214,22.565,92.0,0.0
334417,-0.731,0.147,-0.187,-77.779,10.031,42.176,90.0,134.0
334479,-0.801,0.261,-0.145,-53.145,9.489,24.328,0.0,138.0
334540,-1.083,0.334,-0.184,-87.244,13.168,-10.336,0.0,133.0
334602,-1.174,0.195,-0.164,-130.359,35.664,-44.412,0.0,137.0
334662,-1.016,-0.177,-0.181,-220.191,27.405,-3.115,0.0,119.0
334723,-1.014,-0.462,0.033,-77.565,6.565,-24.153,0.0,119.0
334783,-1.085,-0.094,-0.061,22.885,14.160,-12.756,0.0,121.0
334843,-1.003,0.094,0.038,-32.260,8.328,-18.374,0.0,123.0
334905,-0.851,0.105,0.144,-27.779,8.023,-17.489,0.0,126.0
334968,-0.797,0.195,0.155,-10.382,7.580,-2.344,0.0,129.0
335030,-0.665,0.292,0.144,-17.374,6.412,13.863,0.0,135.0
335091,-0.673,0.351,0.118,-41.252,13.641,17.947,0.0,140.0
335153,-1.251,0.289,0.066,-46.985,7.130,18.611,0.0,146.0
335215,-1.621,0.139,-0.147,-31.191,-27.107,36.939,0.0,153.0
335279,-1.449,0.082,-0.135,-67.137,-44.282,147.405,0.0,162.0
335342,-1.283,0.184,-0.267,-49.611,-45.641,130.740,0.0,171.0
335406,-0.832,0.047,-0.184,-24.924,-39.466,88.641,0.0,179.0
335473,-0.563,0.013,-0.198,1.748,-14.473,42.489,0.0,183.0
335538,-0.576,0.083,-0.168,15.496,1.603,-13.321,0.0,187.0
335595,-0.646,0.178,-0.094,2.603,8.931,-48.420,0.0,64.0
335652,-0.783,0.185,-0.019,15.366,3.748,-73.481,0.0,63.0
335710,-0.744,0.122,0.055,63.740,0.214,-69.076,0.0,63.0
335767,-0.749,0.343,0.042,85.069,6.122,-79.038,0.0,78.0
335832,-1.016,0.448,0.031,39.252,12.061,-110.908,0.0,187.0
335890,-1.890,0.240,0.141,7.321,27.687,-101.321,0.0,76.0
335947,-1.715,0.242,0.084,-31.267,45.237,-53.496,0.0,66.0
336007,-1.234,0.044,0.197,-82.328,4.992,8.840,0.0,57.0
336064,-0.685,-0.053,0.248,10.809,-12.282,27.702,0.0,57.0
336121,-0.377,0.156,0.136,49.794,-3.168,39.771,0.0,71.0
336179,-0.431,0.282,0.084,-34.634,-1.870,49.527,0.0,57.0
336236,-0.571,0.164,0.143,-54.420,-7.389,42.260,0.0,61.0
336293,-0.645,0.182,0.144,8.840,-10.695,25.611,0.0,61.0
336350,-1.608,0.435,-0.037,38.779,-10.878,-16.511,0.0,58.0
336407,-2.000,0.291,-0.331,-13.023,-16.725,3.267,0.0,57.0
336464,-1.743,0.106,-0.091,-52.664,-25.565,90.649,0.0,54.0
336524,-0.897,0.229,0.009,-26.053,-20.191,98.847,0.0,57.0
336581,-0.387,0.217,0.053,-30.328,-20.008,64.710,0.0,57.0
336638,-0.275,0.170,0.092,-24.305,-22.252,34.458,0.0,57.0
336696,-0.403,0.279,0.108,-17.061,-31.679,37.710,0.0,57.0
336753,-0.635,0.422,0.149,-7.336,-46.618,46.718,0.0,62.0
336812,-0.561,0.455,0.151,23.298,-49.374,44.237,0.0,77.0
336869,-0.348,0.439,0.165,31.550,-33.718,25.076,0.0,73.0
336927,-0.224,0.454,0.152,-1.313,-4.985,-3.542,0.0,71.0
336986,-0.344,0.211,0.221,-51.252,9.153,-20.107,0.0,73.0
337047,-2.000,0.643,0.329,124.328,54.107,-172.489,0.0,90.0
337104,-2.000,-0.147,-0.254,-39.916,100.466,-123.916,0.0,60.0
337162,-1.273,0.269,0.180,-139.176,27.489,-112.473,0.0,50.0
337219,-0.895,-0.073,0.353,57.733,36.031,-131.664,0.0,55.0
337319,-0.732,0.428,-0.025,82.046,19.458,-85.855,0.0,57.0
337377,-0.469,0.228,0.127,-23.947,26.267,-39.443,0.0,55.0
337433,-0.594,0.148,0.153,-59.656,29.015,-6.695,0.0,50.0
337490,-0.702,0.090,0.122,-66.198,22.931,2.695,0.0,56.0
337540,-0.826,-0.088,0.112,-46.176,-0.221,30.725,16.0,45.0
337586,-0.742,-0.030,0.128,-1.191,-12.137,67.305,17.0,47.0
337635,-0.526,0.168,0.140,22.565,-14.405,85.382,77.0,53.0
337681,-0.234,0.368,0.213,6.740,-3.046,69.557,16.0,49.0
337727,-0.351,0.349,0.213,-34.641,2.710,37.740,20.0,43.0
337783,-2.000,0.545,-0.023,9.969,-8.649,-9.466,0.0,49.0
337841,-2.000,-0.360,-0.407,-6.466,-83.573,105.099,0.0,47.0
337898,-1.913,0.370,-0.069,68.336,-49.847,186.901,0.0,59.0
337955,-1.164,0.559,-0.206,-7.053,-34.008,128.221,0.0,58.0
338016,-0.718,0.277,-0.046,-96.000,-15.740,88.878,0.0,57.0
338073,-0.460,0.084,0.044,-63.947,-1.382,67.809,0.0,57.0
338129,-0.389,0.191,0.053,-13.244,2.695,53.382,0.0,50.0
338187,-0.489,0.370,0.050,-33.511,-7.511,37.366,0.0,50.0
338243,-0.531,0.375,0.154,-46.435,-21.817,25.511,0.0,51.0
338300,-0.527,0.345,0.212,-8.916,-29.718,18.611,0.0,57.0
338358,-0.531,0.415,0.217,34.244,-36.534,-1.000,0.0,54.0
338416,-0.453,0.435,0.168,41.672,-28.344,-20.137,0.0,66.0
338473,-0.304,0.398,0.147,21.412,-16.565,-33.832,0.0,69.0
338535,-0.260,0.330,0.156,14.855,1.527,-63.435,0.0,65.0
338593,-0.708,0.214,0.289,-6.313,17.649,-79.878,0.0,71.0
338651,-2.000,0.887,0.252,132.855,60.809,-250.137,0.0,66.0
338709,-2.000,0.114,-0.111,-32.550,118.389,-215.321,0.0,64.0
338765,-1.508,-0.133,0.182,-227.229,70.565,-145.595,0.0,50.0
338817,-1.103,-0.362,0.324,78.450,95.702,-127.481,82.0,60.0
338864,-0.771,0.076,0.046,165.573,56.115,-103.786,17.0,57.0
338921,-0.556,0.241,0.052,102.557,20.733,-73.695,0.0,57.0
338981,-0.411,0.154,0.126,37.756,15.977,-28.588,0.0,61.0
339041,-0.568,0.100,0.128,8.336,11.824,-2.901,0.0,82.0
339098,-0.622,0.133,0.076,-27.817,11.588,1.305,0.0,57.0
339155,-0.573,0.076,0.115,-36.779,-2.443,24.565,0.0,55.0
339213,-0.473,0.082,0.159,19.443,-17.206,44.885,0.0,64.0
339270,-0.414,0.314,0.143,76.473,-14.290,54.931,0.0,57.0
339328,-0.898,0.397,0.023,18.168,-15.344,66.802,0.0,59.0
339386,-2.000,0.687,-0.314,-54.802,5.298,88.008,0.0,57.0
339442,-2.000,-0.554,-0.252,-157.397,-116.634,222.244,0.0,52.0
339504,-1.902,0.118,0.027,51.397,-77.969,243.626,0.0,57.0
339562,-0.955,0.477,-0.148,7.061,-22.931,212.832,0.0,71.0
339620,-0.633,0.403,-0.113,-114.756,-13.672,129.214,0.0,77.0
339678,-0.452,0.030,-0.028,-141.206,-20.092,100.344,0.0,56.0
339735,-0.307,0.024,0.079,-75.000,-23.053,84.443,0.0,40.0
339791,-0.312,0.198,0.078,-41.924,-22.450,55.672,0.0,43.0
339849,-0.333,0.259,0.120,-49.069,-28.244,32.603,0.0,45.0
339905,-0.401,0.245,0.205,-21.992,-30.718,0.649,0.0,46.0
339962,-0.279,0.234,0.229,36.855,-13.672,-17.397,0.0,44.0
340022,-0.087,0.294,0.166,24.298,4.344,-30.634,0.0,45.0
340080,-0.424,0.344,0.182,-20.725,30.069,-59.550,0.0,57.0
340182,-2.000,0.140,0.172,142.740,194.809,-250.137,0.0,76.0
340239,-2.000,0.451,-0.098,-142.458,153.397,-250.137,0.0,50.0
340286,-1.626,-0.314,0.421,-35.725,151.893,-216.466,17.0,50.0
340343,-1.422,-0.025,0.185,133.802,129.359,-148.886,0.0,56.0
340402,-0.750,0.254,0.149,153.145,54.733,-85.641,0.0,57.0
340452,-0.524,0.511,0.071,80.374,38.962,-24.160,63.0,78.0
340514,-0.478,0.400,0.211,1.656,24.901,-5.053,0.0,75.0
340566,-0.493,0.454,0.351,-19.115,22.145,15.489,63.0,78.0
340620,-0.780,0.475,0.294,-54.405,-5.588,14.321,143.0,72.0
340678,-1.080,0.184,0.299,-29.397,-37.672,63.725,0.0,62.0
340726,-2.000,0.424,-0.221,-41.885,-80.977,109.756,17.0,69.0
340773,-2.000,-0.183,-0.469,-50.908,-132.214,248.344,17.0,57.0
340832,-2.000,0.341,-0.696,-120.008,-111.763,250.130,0.0,62.0
340892,-1.309,0.300,-0.533,-142.542,-63.137,242.855,194.0,108.0
340957,-0.479,0.178,-0.195,-148.084,-43.321,196.901,0.0,100.0
341019,-0.390,0.591,-0.310,-235.405,-21.481,163.198,0.0,107.0
341080,-0.628,0.761,-0.167,-250.137,-9.641,122.527,0.0,118.0
341142,-0.973,0.561,0.296,-250.137,-16.076,75.405,0.0,151.0
341202,-0.834,0.309,0.667,-217.412,-37.076,68.351,0.0,120.0
341263,-0.476,-0.080,0.874,-132.443,-31.840,76.687,0.0,116.0
341322,-0.456,0.109,0.935,-115.527,-31.092,104.901,0.0,112.0
341383,-0.686,-0.004,0.958,-76.611,-41.260,82.527,0.0,110.0
341441,-0.473,-0.044,0.940,-54.779,-51.115,75.397,0.0,94.0
341494,-0.310,-0.020,0.872,-38.130,-54.954,71.298,57.0,88.0
341543,-0.165,-0.034,0.874,-33.634,-50.511,71.863,44.0,86.0
341593,-0.135,0.025,0.829,-33.916,-45.489,71.107,43.0,85.0
341642,-0.126,0.021,0.850,-32.489,-44.313,73.366,43.0,85.0
341692,-0.153,-0.034,0.885,-37.718,-38.954,78.237,43.0,87.0
341742,-0.072,-0.075,1.028,-29.573,-41.954,78.740,45.0,107.0
341793,-0.103,-0.108,1.044,-31.145,-41.206,81.084,46.0,110.0
341844,-0.050,-0.173,1.083,-14.496,-52.267,81.916,50.0,112.0
341899,-0.064,-0.076,1.135,-7.473,-41.290,90.359,52.0,115.0
341962,-0.095,-0.079,1.188,2.153,-35.145,86.015,0.0,166.0
342024,0.019,-0.004,1.055,-12.641,-32.458,92.679,0.0,149.0
342086,-0.029,0.108,0.934,-15.794,-6.954,96.115,0.0,140.0
342147,-0.075,0.039,0.908,-23.130,-7.344,97.260,0.0,133.0
342208,-0.094,-0.040,0.927,-15.885,-10.298,85.954,0.0,128.0
342268,-0.043,-0.007,0.870,-2.420,-9.573,73.641,0.0,123.0
342329,-0.069,-0.126,0.863,-4.977,-6.618,64.580,0.0,120.0
342388,-0.060,-0.183,0.889,-4.282,3.649,49.443,0.0,102.0
342450,-0.170,-0.186,0.981,17.695,26.511,28.366,0.0,92.0
342503,-0.329,-0.244,1.101,-9.679,48.237,32.527,104.0,88.0
342561,-0.506,-0.275,0.992,46.763,65.267,19.519,0.0,84.0
342615,-0.633,-0.124,0.732,22.107,78.267,18.557,103.0,81.0
342667,-0.693,-0.251,0.683,93.489,98.076,-3.450,103.0,78.0
342719,-0.679,-0.098,0.447,212.725,149.679,-20.962,105.0,65.0
342771,-0.684,0.029,0.244,250.130,202.618,-65.397,108.0,75.0
342832,-0.821,0.199,0.101,250.130,234.481,-134.443,159.0,163.0
342889,-1.214,0.575,-0.066,162.763,213.122,-219.511,48.0,160.0
342941,-1.414,0.468,0.028,-27.244,169.000,-241.115,17.0,158.0
343037,-1.218,-0.177,0.448,-14.053,77.733,-80.282,17.0,158.0
343100,-1.078,0.119,0.323,74.374,24.878,3.740,0.0,160.0
343163,-0.940,0.314,0.173,50.855,-8.519,56.847,0.0,165.0
343227,-1.159,0.358,0.078,12.847,-18.992,83.008,0.0,171.0
343280,-1.368,0.082,-0.138,-51.924,-70.847,137.076,16.0,179.0
343345,-1.676,0.059,-0.230,-45.939,-72.313,189.626,0.0,190.0
343406,-1.427,0.213,-0.324,-44.733,-53.656,193.565,136.0,0.0
343467,-0.965,0.190,-0.213,-89.969,-43.832,162.931,130.0,128.0
343525,-0.617,0.141,-0.104,-74.824,-33.649,133.511,197.0,80.0
343585,-0.463,0.222,-0.013,-42.000,-18.885,98.580,0.0,105.0
343644,-0.502,0.455,0.012,-56.359,-7.466,67.481,0.0,82.0
343701,-0.571,0.454,0.144,-67.595,-16.145,40.282,0.0,71.0
343758,-0.537,0.397,0.228,-50.389,-22.809,33.321,0.0,57.0
343816,-0.336,0.354,0.328,-9.183,-16.336,28.237,0.0,70.0
343874,-0.288,0.497,0.260,-5.252,1.427,-3.756,0.0,69.0
343934,-0.252,0.379,0.240,-25.969,5.832,-31.374,0.0,69.0
343987,-0.371,0.298,0.190,-11.649,11.939,-50.489,119.0,59.0
344045,-0.914,0.264,0.203,-18.160,12.954,-76.061,0.0,69.0
344103,-1.877,0.538,0.556,154.336,43.573,-250.137,0.0,78.0
344161,-2.000,-0.182,0.019,149.580,147.427,-250.137,0.0,64.0
344218,-1.908,0.544,-0.157,-66.733,108.656,-250.137,0.0,61.0
344275,-1.171,-0.033,0.237,-50.450,106.649,-228.496,0.0,63.0
344326,-0.979,0.074,0.165,87.893,96.870,-126.115,59.0,70.0
344384,-0.658,0.307,0.160,74.489,48.366,-55.740,0.0,70.0
344445,-0.537,0.319,0.198,14.435,32.771,20.267,0.0,81.0
344494,-0.404,0.276,0.197,-64.214,14.679,43.756,23.0,75.0
344541,-0.619,-0.005,0.149,-76.092,-3.214,38.679,22.0,63.0
344588,-0.769,-0.095,0.114,-19.305,-21.672,62.702,21.0,62.0
344645,-0.734,0.036,0.123,42.359,-33.427,95.779,0.0,63.0
344691,-0.277,0.404,0.234,51.313,-27.107,84.053,19.0,58.0
344750,-0.547,0.450,0.202,29.084,-9.779,42.053,0.0,73.0
344808,-2.000,0.388,-0.453,59.282,-54.275,27.794,0.0,70.0
344869,-2.000,-0.268,-0.146,-79.023,-74.947,250.130,0.0,82.0
344928,-1.785,0.365,-0.224,-47.290,-67.374,250.130,0.0,74.0
344986,-0.797,0.225,-0.064,-128.794,-63.794,224.664,0.0,81.0
345041,-0.420,0.107,-0.022,-112.405,-52.153,150.687,151.0,61.0
345099,-0.307,0.042,-0.008,-83.168,-48.405,110.985,0.0,66.0
345156,-0.250,0.081,-0.002,-70.107,-47.046,85.313,0.0,51.0
345212,-0.314,0.162,0.011,-60.115,-35.076,44.496,0.0,50.0
345267,-0.360,0.125,0.013,-28.099,-25.015,-5.069,138.0,51.0
345323,-0.307,0.101,0.067,39.908,-14.817,-41.137,0.0,50.0
345380,-0.308,0.272,0.144,76.756,27.122,-80.618,158.0,50.0
345440,-0.736,0.372,0.301,-21.809,66.855,-121.435,0.0,88.0
345498,-2.000,0.608,0.877,208.878,119.061,-250.137,0.0,71.0
345556,-2.000,0.801,-0.083,153.878,69.863,-250.137,0.0,72.0
345614,-2.000,0.434,0.175,2.855,51.229,-250.137,0.0,65.0
345672,-1.388,0.198,0.210,52.221,70.573,-216.939,0.0,67.0
345732,-0.721,0.419,0.056,13.809,46.099,-134.802,0.0,92.0
345791,-0.373,0.323,0.181,-38.344,39.573,-60.954,0.0,97.0
345852,-0.317,0.331,0.233,-40.290,35.618,-26.542,0.0,69.0
345954,-0.677,0.156,0.162,-60.878,3.137,16.618,0.0,67.0
346006,-0.615,-0.002,0.163,35.733,-26.695,76.473,113.0,58.0
346063,-0.213,0.476,0.167,68.511,-14.466,97.496,0.0,62.0
346110,-0.876,0.564,0.024,-9.137,-12.458,64.237,23.0,59.0
346168,-2.000,0.712,-0.533,-69.008,-10.763,93.107,0.0,57.0
346226,-2.000,-0.725,-0.176,-155.389,-136.115,250.130,0.0,58.0
346284,-2.000,0.147,-0.101,36.084,-120.420,250.130,0.0,68.0
346343,-0.934,0.312,-0.143,-17.374,-71.565,233.679,0.0,73.0
346404,-0.519,0.227,-0.093,-73.718,-44.542,144.718,0.0,70.0
346462,-0.262,0.009,-0.047,-92.863,-35.817,109.489,0.0,62.0
346519,-0.156,0.004,0.050,-57.565,-28.733,82.886,0.0,48.0
346578,-0.183,0.167,0.056,-39.305,-12.382,46.985,0.0,103.0
346636,-0.288,0.225,0.021,-44.466,-3.618,-6.809,0.0,48.0
346693,-0.346,0.181,0.099,-12.450,9.611,-51.817,0.0,47.0
346749,-0.386,0.198,0.171,10.351,28.565,-79.092,0.0,43.0
346807,-0.470,0.240,0.240,-32.260,47.595,-100.832,0.0,57.0
346865,-1.550,0.008,0.473,24.244,75.733,-156.397,0.0,62.0
346926,-2.000,0.135,0.349,250.130,147.237,-250.137,0.0,62.0
346983,-2.000,0.558,-0.075,7.756,81.061,-250.137,0.0,52.0
347040,-1.823,0.160,-0.004,-48.321,82.252,-225.878,0.0,55.0
347099,-1.240,0.151,0.148,42.359,94.557,-130.420,0.0,57.0
347157,-0.635,0.252,0.146,57.053,56.832,-58.473,0.0,75.0
347215,-0.381,0.375,0.180,33.824,48.794,-21.534,0.0,76.0
347275,-0.225,0.416,0.276,-11.344,41.496,-21.817,0.0,78.0
347330,-0.369,0.473,0.317,-45.412,27.733,-32.298,138.0,84.0
347392,-0.673,0.132,0.323,-23.824,-19.679,-0.198,0.0,74.0
347450,-0.587,0.126,0.198,81.893,-40.099,103.435,0.0,57.0
347508,-1.488,0.400,0.067,78.725,-32.504,159.618,0.0,68.0
347566,-2.000,0.327,-0.689,-130.901,-75.886,185.038,0.0,64.0
347623,-2.000,-0.206,-0.262,-134.412,-146.450,250.130,0.0,56.0
347682,-1.551,0.071,-0.173,49.046,-105.344,250.130,0.0,72.0
347742,-0.656,0.465,-0.129,-13.076,-38.580,231.130,0.0,84.0
347798,-0.392,0.298,-0.145,-144.626,-9.176,170.740,0.0,43.0
347855,-0.255,0.009,-0.054,-187.809,-10.069,151.664,0.0,46.0
347916,-0.139,-0.065,-0.016,-136.023,-10.542,128.893,0.0,49.0
347978,-0.190,0.157,-0.095,-78.908,4.122,77.786,0.0,136.0
348032,-0.260,0.287,-0.041,-15.008,34.435,-19.366,52.0,134.0
348094,-0.614,0.406,0.186,30.328,95.351,-86.015,0.0,129.0
348154,-1.230,1.170,0.413,71.832,207.069,-197.695,0.0,111.0
348214,-2.000,0.710,0.251,-135.267,182.076,-250.137,0.0,88.0
348273,-1.814,-0.115,0.409,-43.282,165.992,-242.458,0.0,86.0
348339,-1.447,0.453,0.099,-1.916,130.939,-188.618,0.0,86.0
348400,-0.830,0.325,0.145,-130.313,67.832,-138.053,0.0,90.0
348459,-0.633,0.212,0.266,-173.130,52.718,-57.450,0.0,98.0
348518,-0.689,0.090,0.323,-184.046,2.168,-6.176,0.0,101.0
348566,-1.187,-0.009,0.345,-87.588,-49.649,7.313,10.0,102.0
348615,-1.105,0.066,0.213,8.672,-87.756,32.496,17.0,106.0
348676,-1.320,0.448,0.020,16.817,-97.840,63.725,0.0,111.0
348736,-1.773,0.709,-0.535,-91.611,-88.649,90.771,0.0,126.0
348801,-1.813,0.305,-0.623,-192.061,-121.412,153.191,0.0,0.0
348909,-0.716,0.343,-0.239,-50.076,-36.817,205.435,0.0,0.0
348972,-0.480,0.448,-0.217,-127.634,-24.420,164.313,0.0,0.0
349037,-0.483,0.254,-0.078,-139.366,-13.527,100.573,0.0,0.0
349101,-0.930,0.342,-0.112,-59.580,23.718,14.969,0.0,178.0
349164,-1.027,0.352,-0.066,-67.084,61.573,-31.786,0.0,181.0
349227,-1.157,0.292,0.059,-110.863,78.626,-58.267,0.0,153.0
349289,-0.819,-0.004,0.318,-86.344,92.565,-84.344,0.0,155.0
349351,-1.187,-0.014,0.359,11.863,94.130,-93.000,0.0,157.0
349406,-1.240,0.139,0.204,0.634,82.649,-106.420,49.0,152.0
349462,-1.161,0.167,0.178,-27.282,79.328,-99.420,53.0,152.0
349524,-1.014,0.244,0.144,-66.947,58.496,-80.534,0.0,155.0
349577,-0.813,0.129,0.202,-79.641,31.084,-50.145,17.0,158.0
349639,-0.728,0.107,0.202,-54.779,4.534,-15.229,0.0,163.0
349703,-0.641,0.205,0.174,-20.679,-7.183,10.679,0.0,170.0
349764,-0.796,0.340,0.055,-14.038,-6.809,14.252,0.0,141.0
349816,-1.094,0.294,-0.052,-37.679,-12.649,35.397,17.0,142.0
349872,-1.495,0.386,-0.194,-81.687,-9.947,75.076,98.0,147.0
349937,-1.796,0.292,-0.345,-183.595,-47.000,125.641,0.0,157.0
349998,-1.785,0.018,-0.230,-149.389,-66.878,167.267,132.0,169.0
350057,-1.224,0.103,-0.162,-64.756,-67.886,186.084,127.0,180.0
350110,-0.724,0.236,-0.158,-59.595,-57.443,170.786,123.0,63.0
350162,-0.524,0.179,-0.081,-67.580,-48.664,141.214,119.0,65.0
350220,-0.499,0.245,0.027,-51.504,-33.115,107.992,0.0,50.0
350276,-0.529,0.377,0.040,-57.282,-29.252,67.519,0.0,51.0
350332,-0.497,0.359,0.199,-52.145,-32.168,39.389,0.0,52.0
350385,-0.275,0.271,0.329,-32.656,-21.802,42.473,110.0,52.0
350439,-0.162,0.369,0.311,-28.588,-4.427,36.351,111.0,53.0
350490,-0.187,0.365,0.307,-15.115,6.405,3.466,110.0,54.0
350541,-0.301,0.373,0.234,7.802,19.366,-28.992,109.0,53.0
350593,-0.334,0.292,0.208,-1.122,29.298,-42.015,105.0,51.0
350645,-1.363,0.365,0.330,-43.389,44.817,-92.824,106.0,57.0
350702,-2.000,0.083,0.629,179.580,119.237,-250.137,0.0,74.0
350760,-2.000,0.235,0.006,178.481,130.603,-246.878,0.0,74.0
350818,-1.829,0.477,-0.005,11.977,86.656,-250.137,0.0,59.0
350877,-1.224,-0.003,0.289,34.565,116.176,-228.802,0.0,58.0
350935,-0.893,0.316,0.082,37.221,76.573,-132.198,0.0,57.0
350984,-0.533,0.199,0.224,27.802,52.290,-48.725,62.0,57.0
351033,-0.563,0.272,0.180,23.160,39.359,1.534,67.0,57.0
351081,-0.529,0.283,0.221,4.504,18.313,29.534,24.0,74.0
351138,-0.611,0.203,0.261,4.122,2.344,39.496,0.0,64.0
351191,-0.636,0.160,0.230,74.008,-24.931,77.145,120.0,57.0
351244,-0.438,0.520,0.189,74.939,-14.061,93.611,126.0,65.0
351301,-0.683,0.412,0.120,-1.198,-5.824,103.916,0.0,63.0
351362,-2.000,0.834,-0.258,-12.763,-6.183,83.618,0.0,60.0
351419,-2.000,-0.429,-0.013,-131.145,-108.817,250.130,0.0,58.0
351476,-1.989,0.186,-0.183,-2.069,-87.626,250.130,0.0,65.0
351535,-0.798,0.345,-0.143,-64.366,-52.519,231.313,0.0,77.0
351592,-0.331,0.195,-0.071,-104.260,-23.550,153.573,0.0,58.0
351646,-0.224,0.077,-0.035,-98.565,-13.061,111.634,151.0,57.0
351699,-0.217,0.156,0.026,-77.084,-16.908,77.107,148.0,44.0
