Timestamp(ms),AccelX(g),AccelY(g),AccelZ(g),GyroX(deg/s),GyroY(deg/s),GyroZ(deg/s),DistanceLeft(cm),DistanceRight(cm)
238478,-2.000,1.035,-0.174,-51.313,19.710,24.450,180.0,0.0
238542,-1.100,0.668,-0.102,-8.679,3.733,22.351,190.0,0.0
238607,-0.341,0.320,0.004,-5.038,-12.756,-59.397,190.0,0.0
238671,-0.050,-0.077,0.097,-4.725,-20.573,-18.275,194.0,193.0
238734,-0.110,0.046,0.071,40.191,-27.038,24.687,162.0,191.0
238796,-0.337,0.203,0.345,29.931,-40.618,29.618,164.0,188.0
238863,-1.558,0.879,0.802,81.802,-32.656,13.214,164.0,0.0
238928,-1.067,0.984,0.704,-23.031,14.885,2.603,0.0,0.0
238993,-0.794,0.558,0.708,-76.618,50.450,-30.374,0.0,0.0
239057,-0.576,0.432,0.312,-11.557,55.771,-2.656,171.0,0.0
239122,-2.000,1.184,-0.238,-59.221,20.969,9.275,0.0,0.0
239187,-1.491,0.802,-0.143,-25.427,10.031,25.634,0.0,0.0
239253,-0.392,0.289,0.029,11.588,-20.237,-30.130,199.0,0.0
239319,0.134,-0.053,0.040,-33.725,0.366,-3.183,0.0,0.0
239386,-0.190,-0.068,0.033,2.763,-6.443,36.740,197.0,0.0
239452,-0.346,0.135,0.237,-4.954,-53.382,39.046,0.0,0.0
239517,-1.490,0.697,0.829,57.878,-56.366,34.443,0.0,0.0
239582,-1.167,0.922,0.724,9.191,5.794,23.015,189.0,0.0
239646,-0.749,0.542,0.771,-86.015,14.985,3.328,196.0,0.0
239712,-0.345,0.185,0.597,70.115,34.840,-12.817,200.0,0.0
239777,-0.950,1.176,0.071,26.573,43.832,17.580,0.0,0.0
239843,-2.000,1.440,-0.246,3.832,10.481,-8.702,0.0,0.0
239908,-0.791,0.780,-0.108,5.504,-7.130,-2.748,0.0,0.0
239976,-0.123,0.197,0.017,14.931,-18.076,-34.763,0.0,0.0
240035,0.102,-0.061,0.111,2.473,-14.061,22.351,0.0,77.0
240100,-0.054,0.098,0.101,4.969,-19.847,18.649,0.0,0.0
240156,-0.609,0.314,0.379,-18.595,-48.290,37.878,37.0,0.0
240222,-1.349,1.006,0.931,79.756,-34.557,19.061,0.0,0.0
240287,-1.115,1.223,0.636,-40.840,12.015,11.588,0.0,0.0
240344,-0.638,0.521,0.740,-52.496,20.534,-29.863,36.0,0.0
240409,-0.305,0.368,0.408,42.366,45.496,-28.893,0.0,0.0
240464,-0.639,0.761,0.109,-21.069,59.695,-13.237,36.0,0.0
240533,-2.000,1.707,-0.293,2.939,43.076,-42.748,0.0,0.0
240599,-0.989,0.840,-0.101,-10.954,-0.779,-22.221,0.0,0.0
240664,-0.133,0.225,0.050,17.145,-0.481,-84.244,0.0,0.0
240730,-0.018,-0.160,0.020,-73.618,3.122,-24.824,0.0,0.0
240795,-0.314,-0.342,0.058,-1.672,-32.855,-31.786,0.0,0.0
240858,-0.576,-0.030,0.309,92.275,-73.504,-24.878,150.0,200.0
240921,-1.749,1.013,0.615,111.221,-28.420,-36.908,152.0,0.0
240984,-1.228,0.700,0.647,-34.206,-16.550,6.756,153.0,196.0
241046,-0.727,0.358,0.816,-35.374,14.336,-16.206,153.0,0.0
241113,-0.444,0.284,0.415,68.107,50.985,1.565,152.0,196.0
241175,-0.891,0.523,0.183,-42.542,26.252,3.038,150.0,198.0
241239,-2.000,0.579,-0.052,-16.740,0.511,-52.260,168.0,199.0
241304,-1.710,0.590,-0.225,-18.122,-16.061,-46.092,0.0,198.0
241367,-0.456,0.320,-0.111,-6.420,-11.031,-78.405,155.0,196.0
241431,0.234,-0.014,-0.042,-34.466,-8.122,-14.153,176.0,196.0
241496,-0.001,-0.029,-0.083,37.718,-11.069,16.229,180.0,197.0
241561,-0.130,0.080,0.055,23.985,-11.405,26.443,0.0,195.0
241630,-1.747,0.355,0.575,23.153,-2.573,43.550,0.0,0.0
241739,-1.252,0.390,0.757,-102.687,6.374,68.351,0.0,0.0
241805,-0.897,0.086,0.917,-55.137,24.977,0.786,0.0,0.0
241870,-0.582,0.274,0.568,36.809,19.351,22.534,0.0,0.0
241936,-1.320,0.475,0.280,-13.557,4.115,32.458,0.0,0.0
242001,-2.000,1.158,-0.394,10.191,5.344,-22.351,0.0,0.0
242067,-1.181,0.424,-0.156,-5.099,1.893,-50.527,0.0,0.0
242132,-0.264,0.330,-0.152,17.282,-1.214,-34.504,0.0,0.0
242198,-0.020,-0.065,0.016,-36.550,-0.214,29.183,0.0,0.0
242267,-0.073,-0.100,0.118,21.389,-21.977,39.771,0.0,0.0
242333,-0.287,0.115,0.246,25.763,-49.099,46.282,0.0,0.0
242399,-1.610,0.542,0.850,43.641,-33.435,23.550,0.0,0.0
242464,-1.163,0.761,0.739,-58.496,40.977,16.084,0.0,0.0
242530,-1.059,0.136,0.947,-67.321,32.656,-28.435,0.0,0.0
242595,-0.771,0.472,0.667,62.183,-2.382,18.672,0.0,0.0
242661,-1.436,0.667,0.229,-19.244,-5.328,24.947,0.0,0.0
242726,-1.752,1.011,-0.201,13.641,-23.992,-36.863,0.0,0.0
242793,-0.965,0.636,-0.128,-9.878,-13.634,-67.053,0.0,0.0
242862,0.062,0.102,-0.083,-26.244,-5.397,-15.527,0.0,0.0
242927,0.051,-0.129,-0.040,-16.947,-27.298,26.031,0.0,0.0
242994,-0.161,-0.149,0.059,60.954,-43.221,17.557,0.0,0.0
243059,-0.830,0.400,0.438,64.702,-40.580,29.115,0.0,0.0
243125,-1.203,0.463,0.958,39.908,3.565,-9.534,0.0,0.0
243190,-0.841,0.633,0.808,-51.366,37.756,1.023,0.0,0.0
243262,-0.829,0.437,0.683,12.160,70.756,-40.473,0.0,0.0
243326,-1.032,0.519,0.277,-32.649,76.412,-15.145,0.0,0.0
243391,-1.855,0.504,-0.086,-5.672,34.252,26.321,0.0,0.0
243459,-1.719,0.919,-0.258,-4.931,18.656,-17.435,0.0,0.0
243524,-0.868,0.302,0.063,-22.733,-5.534,-53.229,0.0,0.0
243589,0.094,-0.013,0.106,-0.985,-3.901,-4.244,0.0,0.0
243653,0.087,-0.033,0.000,1.443,-12.099,30.031,0.0,0.0
243717,-0.208,-0.086,-0.022,3.214,-36.244,15.405,0.0,175.0
243780,-0.756,0.077,0.390,20.313,-52.931,20.687,0.0,171.0
243843,-1.717,0.628,0.728,84.191,-19.847,2.527,0.0,166.0
243907,-1.030,0.598,0.716,-52.405,-30.748,31.802,0.0,0.0
243973,-0.729,0.276,0.767,48.389,5.290,-27.015,0.0,0.0
244040,-0.674,0.648,0.200,43.924,60.160,-6.496,0.0,0.0
244105,-1.141,0.411,0.442,-107.763,22.718,9.115,0.0,0.0
244169,-2.000,0.951,-0.390,-12.435,40.176,-11.298,0.0,0.0
244231,-1.159,0.516,-0.085,-55.237,-7.901,-37.443,0.0,134.0
244291,-0.333,0.233,0.069,67.725,-9.740,-34.595,0.0,130.0
244353,-0.024,0.107,-0.021,3.374,-16.908,5.901,0.0,127.0
244413,-0.014,-0.100,0.126,4.092,-25.656,41.878,0.0,122.0
244472,-0.157,-0.009,0.183,27.824,-50.443,46.603,0.0,118.0
244533,-0.945,0.235,0.580,58.038,-54.099,39.145,0.0,113.0
244600,-1.578,0.839,0.628,107.672,-0.473,7.214,0.0,0.0
244661,-0.970,0.813,0.594,-84.649,20.221,2.573,0.0,109.0
244719,-0.864,0.344,0.636,-37.405,56.397,-58.710,0.0,99.0
244779,-0.637,0.456,0.271,-8.511,74.458,-20.244,0.0,94.0
244837,-1.080,0.426,0.578,-52.939,10.634,9.794,0.0,88.0
244895,-2.000,1.312,-0.466,5.107,18.695,4.542,0.0,87.0
244998,-0.431,0.210,-0.005,-19.336,-28.656,-32.084,0.0,88.0
245062,0.084,-0.052,0.012,13.832,-8.191,-1.885,0.0,0.0
245128,-0.010,0.023,-0.015,14.740,-17.878,32.901,0.0,0.0
245195,-0.202,-0.002,0.115,-8.450,-32.779,6.107,0.0,0.0
245260,-0.906,0.309,0.493,13.397,-58.901,24.580,0.0,0.0
245325,-1.457,0.589,0.853,24.427,-6.924,-21.885,0.0,0.0
245390,-1.073,0.667,0.652,-22.504,24.573,13.595,0.0,0.0
245455,-0.825,0.392,0.648,15.565,42.435,-26.344,0.0,0.0
245520,-0.626,0.487,0.290,22.099,70.450,17.099,0.0,0.0
245585,-1.777,0.376,0.240,-44.832,7.573,31.725,0.0,0.0
245650,-1.610,1.371,-0.317,33.115,8.527,-12.191,0.0,0.0
245714,-0.451,0.428,0.037,-84.366,4.565,-51.344,0.0,0.0
245783,-0.010,-0.114,-0.016,-5.779,-11.771,-6.031,0.0,0.0
245849,-0.037,-0.047,-0.097,8.534,-32.176,33.885,0.0,0.0
245913,-0.313,-0.060,0.084,22.008,-46.099,32.489,0.0,0.0
245979,-1.162,0.405,0.629,34.634,-70.458,24.786,0.0,0.0
246043,-1.383,0.601,0.854,43.344,11.069,-18.794,0.0,0.0
246109,-0.933,0.584,0.651,-85.176,27.634,-4.244,0.0,0.0
246164,-0.664,0.252,0.646,-0.992,55.321,-42.802,36.0,0.0
246230,-0.913,0.524,0.332,21.313,48.160,6.389,0.0,0.0
246285,-1.458,0.808,-0.067,37.626,26.603,29.947,32.0,0.0
246352,-1.854,1.309,-0.420,2.382,0.191,-43.679,0.0,0.0
246418,-0.721,0.301,0.083,0.588,-7.672,-29.855,0.0,0.0
246482,-0.011,0.181,-0.021,34.626,-8.809,-25.031,0.0,0.0
246548,-0.015,-0.027,0.002,10.641,-20.359,25.702,0.0,0.0
246614,-0.258,-0.042,-0.005,8.275,-27.458,22.809,0.0,0.0
246678,-0.771,0.075,0.404,36.702,-54.443,41.817,0.0,0.0
246744,-1.533,1.008,0.734,68.809,-13.840,3.221,0.0,0.0
246809,-0.953,0.778,0.680,-54.183,18.603,21.656,0.0,0.0
246877,-0.683,0.367,0.701,5.267,38.420,-36.794,0.0,0.0
246942,-0.741,0.604,0.250,14.275,60.198,-6.618,0.0,0.0
247007,-1.618,0.779,-0.246,-41.412,26.588,11.939,0.0,0.0
247072,-1.751,1.177,-0.425,-41.397,8.458,1.382,0.0,0.0
247138,-0.657,0.596,-0.005,-28.397,-0.565,-33.038,0.0,0.0
247203,0.062,0.156,0.005,-39.573,12.511,-11.534,0.0,0.0
247268,-0.050,-0.194,-0.042,-63.427,-10.985,26.313,0.0,0.0
247333,-0.227,-0.165,0.031,47.015,-55.237,26.740,0.0,0.0
247399,-0.735,0.331,0.319,43.321,-69.939,54.008,0.0,0.0
247457,-1.399,0.747,0.849,44.359,-9.634,-9.878,39.0,0.0
247523,-1.093,0.755,0.620,-19.931,48.145,6.802,0.0,0.0
247588,-0.889,0.535,0.728,-85.641,53.336,-26.557,0.0,0.0
247654,-0.625,0.251,0.509,9.473,66.565,5.656,0.0,0.0
247709,-1.069,0.592,0.339,-50.885,8.695,18.489,30.0,0.0
247775,-2.000,1.239,-0.172,94.115,-17.672,-23.420,0.0,0.0
247830,-0.927,0.979,-0.153,14.344,-12.611,5.885,36.0,0.0
247896,-0.321,0.428,-0.086,-17.947,-12.359,-32.603,0.0,0.0
247961,-0.038,-0.125,0.020,-27.328,-22.595,5.641,0.0,0.0
248030,-0.047,-0.031,-0.010,31.420,-21.969,44.008,0.0,0.0
248095,-0.371,0.110,0.046,1.550,-36.656,44.878,0.0,0.0
248161,-1.152,0.504,0.768,34.397,-69.916,46.275,0.0,0.0
248269,-0.829,1.084,0.685,-70.328,44.298,34.237,0.0,0.0
248325,-0.886,0.562,0.770,-16.870,36.313,-29.611,32.0,0.0
248381,-1.085,1.200,0.387,59.504,42.260,49.405,30.0,0.0
248445,-1.697,1.656,-0.054,-32.466,16.954,24.496,0.0,0.0
248502,-0.600,1.135,0.058,-42.611,5.061,-18.908,30.0,0.0
248567,-0.015,0.366,0.054,-100.183,17.977,-24.870,0.0,0.0
248626,0.092,-0.324,0.033,-85.000,8.481,25.771,31.0,0.0
248682,0.035,-0.153,-0.114,-12.092,-8.718,11.321,34.0,0.0
248748,-0.339,-0.116,-0.169,7.771,-32.664,-29.313,0.0,0.0
248813,-1.004,0.278,0.475,48.267,-60.962,-15.710,0.0,0.0
248869,-1.655,1.038,0.941,154.237,-32.924,-36.328,38.0,0.0
248935,-0.902,1.076,0.595,-35.634,5.809,6.534,0.0,0.0
249000,-0.678,0.219,0.804,-69.687,15.511,-60.443,0.0,0.0
249056,-0.164,0.117,0.541,75.763,59.511,-6.061,31.0,0.0
249112,-0.573,0.936,0.190,17.053,48.130,41.031,30.0,0.0
249181,-1.045,1.296,0.237,52.687,22.550,59.687,0.0,0.0
249246,-2.000,2.000,-0.439,-53.947,-20.160,-5.282,0.0,0.0
249302,-0.552,0.788,0.193,-42.802,-12.763,0.947,32.0,0.0
249358,-0.085,0.182,0.125,-24.527,-5.962,-9.290,37.0,0.0
249423,-0.082,-0.086,-0.109,-3.473,-5.656,15.733,0.0,0.0
249489,0.022,-0.147,-0.082,11.908,-12.031,9.252,0.0,0.0
249554,-0.251,-0.049,-0.051,41.763,-26.427,-11.321,0.0,0.0
249620,-0.871,0.508,0.581,47.412,-35.053,13.374,0.0,0.0
249686,-1.576,1.106,0.958,49.489,-16.550,-45.160,0.0,0.0
249754,-0.886,1.096,0.818,-31.092,19.565,-13.084,0.0,0.0
249810,-0.582,0.505,0.578,-20.557,3.198,-13.321,36.0,0.0
249876,-0.060,0.240,0.300,13.466,19.015,15.458,0.0,0.0
249932,-0.764,0.759,0.253,14.275,31.504,69.183,30.0,0.0
249998,-1.979,2.000,-0.349,40.710,41.374,27.252,0.0,0.0
250063,-1.069,1.182,-0.082,-115.588,1.198,12.595,0.0,0.0
250129,-0.089,0.230,0.105,-49.328,-9.977,-19.092,0.0,0.0
250194,-0.151,-0.190,-0.038,-43.695,-18.046,-9.939,0.0,0.0
250251,0.003,-0.197,-0.010,-5.611,-29.382,13.160,34.0,0.0
250310,-0.215,-0.046,0.030,28.634,-35.084,-35.519,35.0,0.0
250377,-0.695,0.325,0.377,55.511,-60.397,-0.282,0.0,0.0
250442,-1.355,1.198,0.839,123.038,-23.397,-53.924,0.0,0.0
250508,-0.769,1.046,0.718,-46.382,10.878,-8.145,0.0,0.0
250564,-0.790,0.615,0.858,-12.176,36.794,-49.687,36.0,0.0
250620,-0.542,0.528,0.495,44.634,39.527,-16.427,37.0,0.0
250686,-1.337,1.040,0.270,20.214,20.756,65.115,0.0,0.0
250752,-1.355,1.832,-0.280,34.160,3.611,-3.321,0.0,0.0
250817,-0.480,0.742,0.139,-89.076,7.290,-52.214,0.0,0.0
250887,-0.072,-0.016,0.114,-28.053,9.489,-34.328,0.0,0.0
250952,-0.047,-0.078,-0.056,-6.893,-17.336,10.382,0.0,0.0
251018,-0.344,-0.024,-0.129,11.176,-43.176,20.298,0.0,0.0
251083,-0.667,-0.021,0.288,48.832,-82.542,17.099,0.0,0.0
251150,-1.393,1.433,0.740,117.748,-37.992,-35.130,0.0,0.0
251215,-0.761,0.833,0.704,-71.412,-3.962,20.137,0.0,0.0
251272,-0.722,0.431,0.926,7.656,36.496,-66.389,37.0,0.0
251334,-0.617,0.747,0.446,60.427,74.183,4.733,139.0,0.0
251451,-1.910,1.586,-0.285,58.038,-1.786,-9.634,0.0,0.0
251515,-0.732,0.804,-0.021,-31.382,-35.748,-24.252,0.0,0.0
251577,-0.025,0.054,0.048,-11.244,-38.344,-42.931,143.0,0.0
251638,-0.052,-0.174,-0.021,12.389,-33.794,16.427,144.0,0.0
251701,-0.071,0.082,-0.099,20.489,-35.718,20.527,146.0,0.0
251765,-0.381,0.156,0.112,0.015,-61.282,7.099,0.0,0.0
251830,-1.048,0.746,0.883,33.420,-69.122,29.244,0.0,0.0
251895,-0.944,1.210,0.818,44.099,10.015,-21.977,0.0,0.0
251951,-0.646,0.733,0.756,-131.130,38.802,-5.847,40.0,0.0
252018,-0.507,0.301,0.626,27.038,61.191,-13.947,0.0,0.0
252083,-0.523,0.536,0.224,-13.092,50.237,19.748,0.0,0.0
252147,-1.336,0.970,0.409,53.794,50.733,28.702,0.0,0.0
252213,-1.996,1.763,0.039,-38.168,11.611,2.328,0.0,0.0
252277,-0.541,0.460,0.256,-47.366,-13.198,-19.420,0.0,0.0
252342,-0.107,0.175,0.119,33.992,-31.710,-25.595,0.0,0.0
252407,-0.016,-0.044,-0.008,-37.305,-41.878,-10.863,0.0,0.0
252472,-0.257,-0.081,-0.014,3.015,-36.954,-10.191,0.0,0.0
252534,-0.544,0.201,0.143,33.382,-61.885,3.878,156.0,0.0
252600,-1.185,0.838,0.718,58.038,-27.260,-30.786,158.0,0.0
252662,-1.080,0.695,0.687,18.939,55.366,-31.763,159.0,0.0
252725,-0.849,0.359,0.861,-18.939,30.412,-61.305,162.0,0.0
252780,-0.524,0.653,0.694,113.779,20.015,5.183,41.0,186.0
252844,-0.558,1.145,0.582,5.282,-11.305,29.198,166.0,0.0
252906,-2.000,1.297,0.163,59.870,-30.580,-6.710,165.0,0.0
252969,-1.501,0.962,-0.376,8.084,-2.939,13.420,166.0,0.0
253032,-0.305,0.097,-0.197,-81.771,-6.939,-50.969,167.0,185.0
253094,0.138,-0.265,0.026,-9.008,-17.817,-19.275,167.0,182.0
253159,-0.101,0.071,-0.031,61.252,-27.115,0.382,169.0,180.0
253221,-0.070,0.218,0.007,52.145,-16.840,5.099,171.0,180.0
253284,-0.602,0.542,0.305,-14.924,-29.359,23.893,172.0,180.0
253347,-1.322,1.234,1.338,121.038,-4.374,-14.267,172.0,0.0
253411,-0.542,1.403,0.870,-92.275,56.901,37.618,173.0,0.0
253465,-0.579,0.631,0.857,-142.443,85.015,-41.962,37.0,181.0
253528,-0.595,0.260,0.480,-53.939,114.886,5.450,168.0,183.0
253584,-2.000,1.405,-0.190,-50.573,68.916,55.282,36.0,0.0
253642,-2.000,1.144,-0.435,-34.817,12.962,36.809,37.0,0.0
253708,-0.525,0.660,-0.102,-31.366,-8.794,-24.779,0.0,0.0
253770,0.389,0.150,0.103,-94.832,21.412,-76.382,161.0,0.0
253836,-0.188,-0.227,-0.029,-68.603,26.038,16.939,0.0,0.0
253900,-0.363,-0.011,-0.179,75.267,-39.084,31.107,0.0,0.0
253966,-0.422,0.073,0.083,-4.748,-69.496,63.565,0.0,0.0
254030,-1.600,0.909,0.775,41.901,-68.305,-6.443,0.0,0.0
254096,-1.055,0.713,0.876,22.641,13.092,65.794,0.0,0.0
254151,-0.733,0.636,0.856,-81.771,35.687,-1.748,36.0,0.0
254220,-0.510,0.366,0.706,3.931,67.420,18.580,0.0,0.0
254275,-0.913,0.896,0.174,-70.344,54.389,71.626,37.0,0.0
254341,-1.836,1.462,0.028,7.687,17.679,47.672,0.0,0.0
254406,-1.203,1.504,-0.166,11.954,-36.618,-4.954,0.0,0.0
254471,-0.408,0.464,0.296,-2.763,-60.145,-47.282,0.0,0.0
254536,0.171,-0.118,0.132,-12.870,-41.458,-3.069,0.0,0.0
254645,-0.142,0.001,0.009,26.489,-63.580,-21.863,0.0,0.0
254710,-0.365,0.259,0.266,-6.374,-68.389,9.511,0.0,0.0
254775,-1.161,0.875,0.869,15.969,-34.603,-13.252,0.0,0.0
254843,-0.627,0.878,0.840,18.252,39.924,-1.992,0.0,0.0
254908,-0.627,0.649,0.908,-77.420,57.374,-34.977,0.0,0.0
254973,-0.417,0.256,0.706,78.420,89.092,-9.328,0.0,0.0
255039,-0.930,1.132,0.347,6.672,80.000,51.366,0.0,0.0
255104,-1.993,1.752,-0.060,2.832,66.985,15.802,0.0,0.0
255169,-1.193,1.179,-0.046,-56.611,6.924,-8.389,0.0,0.0
255235,-0.094,0.203,0.260,-12.061,-19.618,-33.679,0.0,0.0
255300,0.061,-0.118,0.060,-17.153,-17.672,14.092,0.0,0.0
255365,-0.069,-0.043,-0.002,19.710,-27.382,20.870,0.0,0.0
255424,-0.232,0.046,0.040,20.305,-39.084,18.733,37.0,0.0
255490,-0.892,0.577,0.520,14.679,-77.786,46.046,0.0,0.0
255554,-1.124,1.129,0.971,94.084,-39.534,-4.198,0.0,0.0
255620,-0.411,1.040,0.773,-67.641,26.977,10.817,0.0,0.0
255685,-0.520,0.468,0.775,-35.580,49.015,-52.992,0.0,0.0
255751,-0.369,0.545,0.389,26.878,79.664,-26.489,0.0,0.0
255816,-1.407,1.073,0.312,-39.618,53.214,53.313,0.0,0.0
255881,-1.878,2.000,-0.373,7.466,13.260,0.779,0.0,0.0
255937,-0.633,0.729,0.097,-62.443,-9.420,-18.550,37.0,0.0
256006,-0.023,0.203,0.087,-19.351,4.214,-28.336,0.0,0.0
256062,0.025,-0.200,0.002,-46.107,-0.817,25.901,37.0,0.0
256126,-0.105,-0.106,0.012,25.023,-26.672,22.038,0.0,0.0
256192,-0.285,0.149,0.109,23.969,-44.626,25.695,0.0,0.0
256248,-0.925,0.846,0.799,51.550,-65.458,26.527,37.0,0.0
256314,-1.321,1.160,0.960,53.122,-5.573,-7.053,0.0,0.0
256379,-0.600,1.033,0.733,-58.679,34.153,5.786,0.0,0.0
256444,-0.442,0.458,0.657,-46.359,54.565,-54.397,0.0,0.0
256500,-0.596,0.573,0.375,15.847,74.382,7.336,36.0,0.0
256569,-1.019,1.268,0.179,-1.435,48.122,63.061,0.0,0.0
256634,-1.734,1.631,-0.187,-23.939,-9.519,-19.542,0.0,0.0
256700,-0.638,0.904,0.107,-2.931,-22.969,-20.489,0.0,0.0
256765,0.049,0.164,0.112,-37.977,-7.771,-17.023,0.0,0.0
256831,-0.068,-0.187,-0.015,-13.023,-11.412,23.695,0.0,0.0
256897,-0.106,-0.022,-0.032,42.435,-32.725,21.328,0.0,0.0
256962,-0.335,0.205,0.236,16.397,-54.641,42.458,0.0,0.0
257028,-1.278,1.366,0.822,67.000,-66.947,-3.382,0.0,0.0
257093,-0.829,1.352,0.742,44.282,20.634,9.237,0.0,0.0
257162,-0.587,0.845,0.641,-142.763,60.321,-21.053,0.0,0.0
257227,-0.417,0.056,0.687,24.412,59.130,-29.962,0.0,0.0
257293,-0.508,0.903,0.146,48.847,55.237,30.290,0.0,0.0
257358,-1.389,1.734,0.121,33.290,43.878,26.374,0.0,0.0
257424,-1.151,1.753,-0.131,-10.573,-19.221,-14.580,0.0,0.0
257489,-0.344,0.658,0.071,-21.947,-23.282,-47.420,0.0,0.0
257555,-0.010,0.010,0.003,-60.450,-21.397,-22.229,0.0,0.0
257611,-0.087,-0.104,0.055,-22.099,-43.305,18.145,38.0,0.0
257671,-0.290,0.027,0.018,9.221,-81.038,-0.023,37.0,0.0
257727,-0.484,0.198,0.275,10.901,-101.473,7.008,39.0,0.0
257793,-1.134,0.995,0.818,43.855,-67.496,-49.618,0.0,0.0
257901,-0.542,0.997,0.714,-101.695,50.176,-22.176,0.0,0.0
257968,-0.466,0.223,0.899,-35.344,52.954,-75.412,0.0,0.0
258032,-0.544,0.355,0.636,59.656,78.725,-46.931,196.0,0.0
258099,-0.878,0.833,0.284,1.542,65.160,20.763,0.0,0.0
258164,-2.000,1.243,0.114,10.405,13.008,-49.588,0.0,0.0
258230,-1.500,0.966,-0.016,-18.893,-25.794,-14.229,0.0,0.0
258298,-0.545,0.334,-0.010,21.931,-43.122,-74.519,0.0,0.0
258364,-0.064,-0.060,-0.094,-7.298,-50.076,-27.870,0.0,0.0
258429,-0.194,0.061,-0.180,40.763,-47.595,31.687,0.0,0.0
258496,-0.318,0.090,-0.076,2.656,-59.160,49.504,0.0,0.0
258562,-1.061,0.406,0.458,42.519,-49.374,28.023,0.0,0.0
258627,-0.617,0.616,0.905,53.756,44.458,0.824,0.0,0.0
258693,-0.936,0.717,0.968,-88.870,78.397,-3.748,0.0,0.0
258758,-0.765,0.296,0.986,37.122,79.733,6.473,0.0,0.0
258824,-0.521,0.682,0.280,8.603,87.779,8.695,0.0,0.0
258892,-1.697,0.577,0.086,-32.328,18.397,34.061,0.0,0.0
258958,-2.000,1.233,-0.531,23.008,-23.275,48.481,0.0,0.0
259024,-0.726,0.619,-0.082,-36.397,-34.107,-18.221,0.0,0.0
259090,-0.022,0.050,0.122,28.450,-38.641,-55.695,0.0,0.0
259155,-0.055,0.042,0.042,49.427,-30.786,-1.153,0.0,0.0
259221,-0.037,0.127,0.004,-9.649,-36.412,22.366,0.0,0.0
259288,-0.380,0.148,0.158,-34.771,-58.046,16.443,0.0,0.0
259353,-1.459,0.805,0.921,104.038,-35.817,-9.382,0.0,0.0
259419,-1.068,0.880,0.709,-53.481,0.168,33.397,0.0,0.0
259497,-0.513,0.250,0.958,-9.183,18.802,-43.115,0.0,0.0
259569,-0.638,0.769,0.385,86.710,69.603,-10.153,0.0,0.0
259634,-1.512,1.084,0.178,-24.359,57.710,31.908,0.0,0.0
259698,-1.734,1.400,-0.191,10.107,27.878,5.496,0.0,0.0
259763,-0.820,0.694,0.038,-58.786,-3.290,-21.466,0.0,0.0
259827,-0.077,0.141,0.077,-12.000,-13.008,-19.992,0.0,0.0
259893,0.040,-0.090,-0.027,-0.122,-27.947,10.176,0.0,0.0
259957,-0.083,0.067,-0.083,11.481,-33.313,18.282,0.0,0.0
260022,-0.344,0.087,0.184,-18.183,-48.099,11.359,0.0,0.0
260090,-1.539,0.846,0.851,97.473,-42.679,3.000,0.0,0.0
260155,-1.065,1.078,0.590,-10.351,14.046,37.244,0.0,0.0
260219,-0.628,0.438,0.803,-130.374,6.473,-20.023,0.0,0.0
260275,-0.627,0.229,0.788,50.573,54.939,-24.053,36.0,0.0
260331,-0.391,0.669,0.407,33.145,59.145,-1.985,37.0,0.0
260396,-1.635,1.014,0.278,-4.710,53.817,17.176,0.0,0.0
260460,-1.969,1.598,-0.275,29.221,-20.260,7.763,0.0,0.0
260526,-0.641,0.483,0.047,-46.542,-31.053,-33.214,0.0,0.0
260590,-0.034,0.136,0.069,-4.847,-36.290,-40.557,0.0,0.0
260658,-0.003,-0.032,-0.044,-4.076,-41.282,10.351,0.0,0.0
260723,0.004,0.014,-0.024,6.847,-25.824,2.947,0.0,0.0
260788,-0.455,0.207,0.252,-20.191,-25.908,15.908,0.0,0.0
260852,-1.297,0.843,0.896,37.489,-24.473,-15.206,0.0,0.0
260918,-1.149,0.947,0.739,-17.092,13.084,19.443,0.0,0.0
260982,-0.705,0.419,0.750,-106.015,14.000,5.237,0.0,0.0
261048,-0.611,0.347,0.597,22.107,75.603,-8.931,0.0,0.0
261112,-0.782,0.538,0.332,-27.420,111.107,4.321,0.0,0.0
261221,-1.459,0.855,0.058,1.221,29.534,22.695,0.0,0.0
261288,-0.607,0.490,0.108,17.756,-13.130,-61.206,0.0,0.0
261353,-0.001,0.197,0.120,42.084,-10.672,-53.718,0.0,0.0
261419,-0.044,0.011,0.027,17.053,-20.351,-7.153,0.0,0.0
261483,-0.214,0.019,0.016,8.519,-52.076,26.176,0.0,0.0
261549,-0.888,0.231,0.473,64.992,-92.695,32.458,0.0,0.0
261613,-1.454,0.984,0.786,140.977,-35.153,2.786,0.0,0.0
261679,-0.705,0.881,0.564,-99.832,2.267,66.092,0.0,0.0
261734,-0.461,0.207,0.831,-77.115,28.290,-34.603,38.0,0.0
261799,-0.450,0.275,0.578,86.290,92.313,-18.053,0.0,0.0
261867,-1.457,1.477,-0.085,-38.214,84.405,3.176,0.0,0.0
261933,-2.000,1.080,-0.128,-16.244,19.214,34.191,0.0,0.0
261997,-1.013,1.044,-0.202,5.443,-2.168,12.649,0.0,0.0
262063,-0.285,0.347,0.043,-63.023,-23.366,-50.191,0.0,0.0
262127,-0.060,-0.117,0.059,-29.183,-15.321,-10.931,0.0,0.0
262193,-0.125,0.003,-0.043,21.191,-31.481,31.847,0.0,0.0
262258,-0.327,0.156,-0.008,-6.992,-51.771,53.855,0.0,0.0
262323,-0.970,0.431,0.761,20.115,-84.771,45.481,0.0,0.0
262388,-1.167,0.887,0.887,94.656,17.962,24.969,0.0,0.0
262456,-0.565,0.939,0.725,-92.122,70.771,-4.901,0.0,0.0
262521,-0.801,0.326,0.727,-19.985,78.893,-30.878,0.0,0.0
262577,-0.742,0.646,0.438,-7.878,33.977,15.924,30.0,0.0
262642,-1.529,1.235,0.276,63.000,14.046,53.809,0.0,0.0
262707,-1.440,1.840,-0.446,-76.611,-13.550,23.344,0.0,0.0
262772,-0.361,0.486,0.070,-78.382,-7.672,-38.176,0.0,0.0
262838,0.122,-0.099,0.050,-24.076,10.443,-23.137,0.0,0.0
262902,-0.069,-0.193,-0.085,9.977,-12.786,14.351,0.0,0.0
262968,-0.240,-0.027,-0.062,58.748,-55.832,13.420,0.0,0.0
263036,-0.855,0.373,0.400,16.748,-87.985,36.092,0.0,0.0
263101,-1.168,1.218,0.983,120.115,-27.779,-2.802,0.0,0.0
263166,-0.715,1.025,0.570,-65.649,20.809,32.588,0.0,0.0
263222,-0.488,0.451,0.775,-103.832,45.252,-63.603,33.0,0.0
263278,-0.288,0.156,0.558,33.626,103.420,-38.305,32.0,0.0
263333,-0.953,0.925,0.089,30.542,114.710,-12.084,33.0,0.0
263399,-2.000,1.947,-0.111,-55.908,52.405,29.649,0.0,0.0
263464,-0.974,1.336,-0.164,9.344,6.878,40.992,0.0,0.0
263532,-0.097,0.381,0.017,-64.931,7.702,-40.534,0.0,0.0
263598,-0.138,-0.224,0.037,-32.634,-7.160,-14.748,0.0,0.0
263663,-0.180,-0.107,-0.016,52.634,-44.695,9.290,0.0,0.0
263719,-0.282,0.056,-0.030,49.099,-57.198,24.588,37.0,0.0
263784,-0.609,0.302,0.240,9.328,-66.832,43.641,0.0,0.0
263849,-1.039,1.096,0.869,83.191,-40.313,-7.977,0.0,0.0
263915,-0.860,1.299,0.636,-19.427,14.679,37.260,0.0,0.0
263971,-0.597,0.594,0.771,-67.947,-5.718,-28.053,36.0,0.0
264036,-0.336,0.347,0.588,13.840,20.611,-9.687,0.0,0.0
264095,-1.490,1.700,0.133,26.252,10.511,-11.069,33.0,0.0
264161,-1.892,1.451,-0.079,100.137,-21.008,-97.511,0.0,0.0
264226,-0.858,0.806,-0.045,-14.641,-25.252,-100.725,0.0,0.0
264292,-0.124,0.175,-0.087,-123.336,-38.901,-97.183,0.0,0.0
264357,-0.050,-0.213,0.110,-13.725,-47.618,-13.038,0.0,0.0
264466,-0.269,0.268,0.090,-12.221,-74.160,26.336,0.0,0.0
264531,-0.935,0.500,0.713,-19.374,-81.603,38.061,0.0,0.0
264597,-0.883,0.449,1.024,29.847,-6.733,1.710,0.0,0.0
264663,-0.771,0.589,0.849,-43.786,25.366,12.931,0.0,0.0
264730,-0.612,0.097,0.911,26.603,51.557,-22.809,0.0,0.0
264796,-0.482,0.605,0.533,53.740,37.710,14.771,0.0,0.0
264861,-1.505,0.878,0.535,34.282,27.504,-4.229,0.0,0.0
264927,-1.826,1.390,0.033,-39.885,50.405,-51.412,0.0,0.0
264992,-0.973,0.302,0.271,-45.092,2.084,-81.321,0.0,0.0
265058,-0.193,0.174,0.069,63.092,-10.183,-34.153,0.0,0.0
265123,-0.045,0.161,0.090,12.519,-16.687,11.290,0.0,0.0
265189,-0.119,0.018,0.161,-35.603,-33.321,13.542,0.0,0.0
265254,-0.622,0.107,0.424,-41.779,-48.908,35.397,0.0,0.0
265323,-1.107,0.304,0.898,13.893,-42.015,25.809,0.0,0.0
265389,-0.864,0.461,0.936,2.580,-7.374,29.786,0.0,0.0
265454,-0.803,0.290,0.906,-21.649,34.748,10.664,0.0,0.0
265520,-0.427,0.240,0.609,33.160,51.748,24.840,0.0,0.0
265584,-0.603,0.506,0.425,25.511,27.282,31.710,0.0,0.0
265650,-1.960,1.465,0.117,68.328,56.527,-23.519,0.0,0.0
265715,-1.739,0.973,0.065,-92.992,30.542,-32.458,0.0,0.0
265779,-0.417,0.084,0.150,81.740,6.649,-66.809,0.0,162.0
265843,-0.084,0.244,0.028,19.336,6.824,-44.809,0.0,167.0
265910,-0.106,0.074,0.084,14.382,-7.229,8.496,0.0,165.0
265973,-0.164,0.234,-0.001,-17.130,-13.221,40.740,0.0,165.0
266039,-0.710,0.093,0.536,-61.550,-52.458,37.038,0.0,0.0
266104,-1.531,0.669,1.072,70.344,-23.115,22.580,0.0,0.0
266167,-0.889,0.785,0.819,-49.466,7.710,48.672,0.0,142.0
266232,-0.768,0.305,0.786,-10.229,37.847,-19.542,0.0,0.0
266298,-0.417,0.422,0.325,84.908,80.588,13.229,0.0,0.0
266363,-0.808,0.653,0.434,-52.130,27.290,11.023,0.0,0.0
266429,-2.000,1.954,-0.213,217.076,-23.649,31.969,0.0,0.0
266498,-0.637,1.028,-0.446,-214.916,20.733,31.969,0.0,0.0
266564,0.133,-0.127,0.033,-59.863,42.527,-66.603,0.0,0.0
266629,-0.051,-0.123,-0.087,6.481,11.221,-30.740,0.0,189.0
266694,-0.174,0.035,0.010,25.618,-26.420,-9.183,0.0,0.0
266760,-0.361,0.057,0.237,6.122,-70.542,7.863,0.0,185.0
266824,-1.480,0.492,0.820,52.534,-67.397,4.366,0.0,177.0
266888,-1.456,0.858,0.775,71.840,-16.489,9.252,0.0,173.0
266952,-0.759,0.651,0.726,-100.656,-0.832,3.145,0.0,167.0
267017,-0.578,0.154,0.755,46.985,35.191,-20.947,0.0,181.0
267085,-0.502,0.712,0.280,18.053,59.344,1.084,0.0,0.0
267151,-1.215,0.665,0.284,-18.511,38.069,46.313,0.0,0.0
267216,-2.000,1.776,-0.501,32.718,13.351,-6.389,0.0,0.0
267283,-0.761,0.687,0.019,-79.519,-15.015,-20.183,0.0,0.0
267348,0.111,-0.001,0.112,12.122,-6.229,-26.466,0.0,0.0
267414,0.051,-0.076,-0.011,6.412,-14.985,2.740,0.0,194.0
267480,-0.317,-0.031,-0.071,21.145,-46.931,23.519,0.0,0.0
267545,-0.614,0.137,0.254,2.939,-82.542,44.458,0.0,0.0
267611,-1.322,0.726,0.879,84.924,-55.954,8.534,0.0,0.0
267680,-0.895,1.054,0.674,-1.420,12.611,27.275,0.0,0.0
267790,-0.658,0.475,0.719,94.519,63.939,-28.336,0.0,0.0
267855,-0.651,0.901,0.366,-20.733,75.443,-9.908,0.0,0.0
267926,-1.826,1.444,-0.056,25.344,45.588,75.947,0.0,0.0
267992,-1.192,1.318,-0.399,-92.611,-0.817,19.550,0.0,0.0
268056,-0.232,0.308,0.125,-32.962,-32.962,-33.901,0.0,0.0
268121,0.099,-0.063,-0.011,3.641,-11.878,-26.832,0.0,0.0
268186,-0.043,-0.069,-0.033,16.061,-31.397,6.618,0.0,0.0
268251,-0.208,0.075,0.032,32.809,-38.137,17.550,0.0,0.0
268318,-0.812,0.561,0.633,32.550,-82.374,44.107,0.0,0.0
268383,-1.154,1.252,0.936,80.718,-18.847,12.908,0.0,0.0
268447,-0.652,1.061,0.782,-80.588,43.160,15.458,0.0,0.0
268513,-0.491,0.484,0.695,-35.840,71.160,-36.145,0.0,0.0
268577,-0.621,0.588,0.373,1.305,63.008,-27.176,0.0,0.0
268642,-1.617,1.424,0.133,32.115,22.038,18.641,0.0,0.0
268707,-1.449,1.508,-0.303,11.153,11.626,-23.847,0.0,0.0
268772,-0.469,0.634,-0.006,-25.328,-15.221,-54.519,0.0,0.0
268839,0.167,-0.004,0.081,-56.000,3.786,-46.427,0.0,0.0
268905,-0.008,-0.077,0.043,-33.252,4.618,5.595,0.0,0.0
268969,-0.261,0.030,-0.068,-12.840,-33.710,10.580,0.0,0.0
269034,-0.668,0.189,0.276,12.053,-60.099,33.779,0.0,0.0
269100,-1.336,0.990,0.781,109.809,-32.137,-11.878,0.0,0.0
269164,-0.891,0.967,0.565,7.443,22.115,12.191,0.0,0.0
269229,-0.703,0.650,0.853,-122.687,10.962,-70.053,0.0,0.0
269285,-0.424,0.018,0.782,10.626,43.046,-52.061,37.0,0.0
269349,-0.900,0.724,0.436,86.489,45.809,27.542,0.0,0.0
269417,-1.918,1.793,-0.231,38.466,9.863,25.275,0.0,0.0
269483,-1.511,1.078,-0.293,-53.534,-28.870,19.550,0.0,0.0
269547,-0.281,0.219,-0.012,-11.504,-36.870,-22.031,0.0,0.0
269613,0.041,-0.100,-0.014,-27.198,-11.603,4.130,0.0,0.0
269677,-0.041,-0.152,0.014,0.557,-26.298,31.076,0.0,0.0
269743,-0.257,0.071,0.035,21.954,-44.649,22.282,0.0,0.0
269807,-0.772,0.339,0.656,86.931,-71.191,23.649,0.0,0.0
269873,-1.213,1.257,0.854,68.420,25.122,-26.191,0.0,0.0
269937,-0.603,0.749,0.730,-112.206,4.931,8.656,0.0,0.0
270006,-0.669,0.542,0.747,64.916,36.863,-55.031,0.0,0.0
270070,-1.360,1.352,0.147,103.237,80.718,-9.405,0.0,0.0
270136,-1.706,1.365,-0.352,-37.023,54.290,45.298,0.0,0.0
270200,-0.784,0.726,-0.188,-58.756,33.076,-13.740,0.0,0.0
270266,-0.125,0.424,-0.005,-101.626,36.115,-72.710,0.0,0.0
270330,-0.041,-0.185,0.064,-138.794,11.237,-40.015,0.0,0.0
270396,-0.164,-0.205,0.086,20.565,-13.672,11.573,0.0,0.0
270461,-0.302,0.087,-0.077,70.702,-37.092,51.634,0.0,0.0
270526,-1.206,0.640,0.276,39.244,-69.145,10.267,0.0,0.0
270595,-1.327,0.855,0.732,51.924,-1.527,38.183,0.0,0.0
270659,-0.915,0.710,0.602,-133.802,6.573,19.977,0.0,0.0
270715,-0.755,0.133,0.904,-22.695,27.099,-4.351,38.0,0.0
270780,-0.950,0.699,0.622,95.870,44.626,36.550,0.0,0.0
270845,-1.415,1.237,0.225,16.053,-2.954,27.611,0.0,0.0
270910,-1.346,1.848,-0.542,95.115,-31.916,35.893,0.0,0.0
270976,-0.199,0.877,-0.237,-137.603,-29.847,-52.443,0.0,0.0
271083,-0.044,-0.041,0.100,119.099,16.702,-16.168,189.0,0.0
271149,-0.153,0.407,-0.183,22.702,-6.863,14.153,0.0,0.0
271217,-0.242,-0.063,0.007,-56.206,-28.244,41.962,195.0,0.0
271282,-0.827,0.517,0.546,-31.397,-35.565,47.939,199.0,0.0
271338,-1.468,0.756,1.123,107.779,-51.046,-13.450,37.0,0.0
271404,-0.931,1.168,0.750,11.969,-14.298,34.405,0.0,0.0
271468,-0.592,0.642,0.733,-84.924,15.374,-43.344,0.0,0.0
271534,-0.408,0.185,0.624,25.794,72.198,-30.832,0.0,0.0
271599,-1.301,1.312,0.058,24.992,71.092,58.046,0.0,0.0
271664,-1.423,1.751,-0.482,-24.458,25.687,-0.389,0.0,0.0
271720,-0.407,0.401,0.035,-74.000,-35.679,-32.427,33.0,0.0
271789,0.198,-0.012,0.204,-0.305,21.664,-39.389,0.0,0.0
271844,-0.158,-0.055,-0.007,14.237,13.702,-0.427,37.0,0.0
271909,-0.257,0.027,0.023,31.405,-40.435,5.626,0.0,0.0
271975,-0.505,0.194,0.297,30.679,-80.061,13.931,0.0,0.0
272039,-1.163,1.009,0.817,56.351,-55.702,-6.855,0.0,0.0
272105,-0.977,0.871,0.675,34.618,-6.374,6.985,0.0,0.0
272171,-0.724,0.913,0.683,-56.450,9.351,-25.069,0.0,0.0
272236,-0.562,0.491,0.634,28.695,33.435,-10.130,0.0,0.0
272301,-1.513,1.756,-0.041,-6.573,42.733,7.748,0.0,0.0
272369,-1.564,1.811,-0.190,-19.099,43.542,51.351,0.0,0.0
272435,-0.575,0.959,-0.126,-110.427,33.718,-10.374,0.0,0.0
272500,0.109,-0.021,0.095,-94.145,28.214,-35.977,0.0,0.0
272556,-0.098,-0.336,0.030,-58.908,11.000,12.183,32.0,0.0
272612,-0.177,-0.114,-0.029,12.649,-19.359,4.832,37.0,0.0
272677,-0.207,-0.018,0.036,31.557,-37.947,-1.069,0.0,0.0
272734,-0.845,0.500,0.485,1.046,-67.802,-6.702,37.0,0.0
272799,-1.568,1.058,0.994,55.244,-38.221,-56.115,0.0,0.0
272865,-0.673,0.827,0.493,-28.832,15.000,5.565,0.0,0.0
272924,-0.504,0.406,0.565,-119.160,17.397,-53.038,0.0,151.0
272977,-0.629,0.280,0.531,68.580,51.573,-42.954,37.0,143.0
273039,-1.477,1.482,-0.038,41.198,55.473,-58.275,0.0,135.0
273100,-1.299,0.719,0.219,-79.794,28.160,-20.328,0.0,131.0
273162,-0.874,0.345,0.192,64.710,15.313,8.313,0.0,128.0
273223,-0.492,0.607,-0.049,86.359,24.168,3.389,0.0,127.0
273285,-0.554,0.694,-0.114,-49.542,35.595,-21.191,0.0,126.0
273346,-0.797,0.522,-0.022,-61.527,28.244,-26.305,0.0,119.0
273410,-0.950,0.628,-0.041,9.092,19.656,-4.412,0.0,120.0
273471,-0.700,0.658,-0.034,-1.969,29.870,16.595,0.0,125.0
273532,-0.558,0.532,0.041,-33.351,43.901,11.534,0.0,128.0
273594,-0.585,0.446,0.035,-60.786,50.000,7.893,0.0,130.0
273655,-0.704,0.422,0.024,-60.443,44.878,1.313,0.0,133.0
273714,-1.075,0.570,-0.134,-42.718,26.359,-18.420,0.0,70.0
273772,-1.241,0.515,-0.233,-41.832,-10.321,-2.420,0.0,73.0
273830,-1.559,0.594,-0.312,17.878,-30.435,-15.618,0.0,78.0
273890,-1.428,0.659,-0.132,66.160,-44.168,-27.855,0.0,87.0
273956,-1.033,0.478,0.347,19.466,-64.611,2.328,0.0,153.0
274018,-1.190,0.481,0.552,1.435,-43.015,33.962,0.0,136.0
274080,-1.377,0.396,0.452,-27.656,-21.260,46.336,0.0,145.0
274144,-0.881,0.204,0.269,2.412,18.298,28.328,0.0,154.0
274250,0.105,0.017,-0.162,-70.863,13.687,40.931,0.0,167.0
274316,0.137,-0.123,0.042,-29.580,5.817,45.160,0.0,0.0
274371,-0.030,0.074,0.057,15.153,7.382,43.870,38.0,179.0
274427,-0.548,0.493,0.068,10.695,6.992,43.168,37.0,0.0
274493,-1.774,1.580,-0.193,72.405,12.924,-27.687,0.0,0.0
274563,-1.411,1.463,-0.128,6.626,3.847,-5.366,0.0,0.0
274628,-1.121,1.167,-0.027,21.397,-19.473,-62.908,0.0,0.0
274694,-0.779,0.367,0.560,-37.214,-39.832,-58.046,0.0,0.0
274759,-1.448,0.797,0.943,66.603,35.664,19.473,0.0,0.0
274825,-1.942,0.323,0.396,-129.710,-14.885,66.618,0.0,0.0
274890,-0.356,0.054,0.224,33.740,-14.359,50.847,0.0,0.0
274956,0.186,0.083,-0.138,-76.168,8.985,47.275,0.0,0.0
275012,0.342,-0.236,-0.018,-62.244,4.366,44.802,38.0,0.0
275078,0.242,-0.134,0.000,25.824,19.176,7.656,0.0,0.0
275138,-0.314,0.239,0.132,48.595,24.824,15.229,37.0,0.0
275204,-1.751,1.369,0.123,145.695,40.366,-5.824,0.0,0.0
275269,-1.703,1.482,-0.106,-41.313,19.916,-16.786,0.0,0.0
275335,-1.377,0.849,-0.039,-28.267,-9.763,-73.000,0.0,0.0
275400,-0.815,0.770,-0.191,27.901,-48.053,-85.664,0.0,0.0
275467,-0.415,0.287,0.074,-17.550,-83.718,-80.107,0.0,0.0
275532,-1.325,0.187,1.060,57.618,-78.672,-6.221,197.0,0.0
275598,-1.740,0.609,1.099,74.977,-4.076,42.382,192.0,0.0
275665,-0.655,0.501,0.784,-69.267,0.573,7.183,187.0,0.0
275731,-0.099,0.434,0.069,8.733,76.214,1.786,182.0,0.0
275796,0.056,0.147,-0.061,-114.275,57.985,29.802,0.0,0.0
275862,0.198,-0.072,0.013,-21.748,39.153,43.679,0.0,0.0
275918,0.021,-0.008,0.054,7.107,34.183,48.817,37.0,0.0
275984,-0.823,0.706,0.084,49.336,41.931,91.252,0.0,0.0
276050,-1.876,1.457,-0.010,30.878,31.153,-8.183,0.0,0.0
276121,-1.212,1.048,-0.031,-53.237,20.405,-13.618,0.0,0.0
276186,-1.087,0.855,-0.192,48.427,-8.351,-78.115,0.0,0.0
276253,-0.769,0.573,-0.117,60.733,-50.855,-132.107,0.0,0.0
276319,-0.997,0.187,0.356,5.008,-64.023,-56.069,0.0,0.0
276383,-2.000,0.652,0.725,103.687,-73.015,34.550,0.0,0.0
276448,-1.419,0.691,0.329,-94.977,-14.229,95.863,0.0,0.0
276513,-0.110,-0.040,0.344,-42.550,-2.634,31.992,0.0,0.0
276578,0.237,0.004,-0.100,19.282,16.244,48.389,0.0,0.0
276642,0.295,0.002,-0.020,9.840,3.389,25.885,0.0,0.0
276707,0.068,0.100,0.084,36.870,19.580,26.634,0.0,0.0
276772,-0.727,0.555,0.140,30.420,31.145,35.824,0.0,0.0
276840,-1.760,1.469,-0.005,32.763,10.084,-32.053,0.0,0.0
276904,-1.422,1.200,-0.118,-31.473,-5.809,-18.748,0.0,0.0
276969,-1.294,1.115,-0.338,8.702,-38.901,-48.656,0.0,0.0
277035,-0.917,0.748,0.033,-60.832,-44.580,-79.412,0.0,0.0
277099,-0.947,-0.194,0.916,-137.878,-66.641,-50.267,0.0,0.0
277165,-1.548,0.498,0.962,158.191,-4.382,2.382,0.0,0.0
277229,-1.005,0.510,0.428,14.969,-31.634,28.481,0.0,0.0
277294,-0.168,0.476,0.028,54.969,33.908,24.244,0.0,0.0
277350,0.034,0.063,-0.038,-114.298,53.664,30.847,44.0,0.0
277408,0.153,-0.343,0.073,-62.313,40.229,55.733,40.0,0.0
