Timestamp(ms),AccelX(g),AccelY(g),AccelZ(g),GyroX(deg/s),GyroY(deg/s),GyroZ(deg/s),DistanceLeft(cm),DistanceRight(cm)
211196,-1.137,0.171,-0.090,-51.252,-53.878,173.977,147.0,90.0
211260,-0.716,0.274,-0.090,-60.107,-42.626,148.519,161.0,0.0
211315,-0.467,0.222,-0.036,-91.176,-25.252,112.397,153.0,57.0
211371,-0.489,0.188,-0.000,-81.321,-10.588,75.214,151.0,67.0
211426,-0.690,0.248,-0.000,-41.771,7.779,11.855,151.0,69.0
211488,-1.082,0.331,-0.034,-9.626,32.443,-56.023,144.0,0.0
211549,-1.428,0.209,-0.064,-6.321,41.855,-115.588,102.0,0.0
211606,-1.444,0.118,0.002,51.260,56.023,-156.756,137.0,57.0
211667,-1.317,0.059,-0.017,29.725,52.542,-117.557,128.0,0.0
211730,-1.214,0.048,0.139,51.359,29.626,-72.901,140.0,0.0
211792,-0.823,0.168,0.135,95.031,18.405,-57.366,128.0,0.0
211854,-0.516,0.241,0.108,83.008,10.466,-43.733,139.0,0.0
211922,-0.500,0.220,0.124,45.145,-2.656,-23.412,150.0,0.0
211987,-0.819,0.291,0.160,32.504,6.069,-26.336,0.0,0.0
212051,-1.053,0.212,0.170,30.672,18.885,-36.160,0.0,0.0
212116,-1.191,0.282,0.129,12.779,32.962,-7.008,0.0,0.0
212184,-1.537,0.250,0.053,-17.282,18.069,18.740,0.0,0.0
212249,-1.522,0.077,-0.025,-54.634,-32.229,89.886,0.0,0.0
212311,-1.197,0.091,-0.016,-35.565,-51.061,154.847,142.0,0.0
212372,-0.790,0.289,-0.045,-47.290,-38.885,158.847,139.0,0.0
212424,-0.519,0.255,-0.030,-97.145,-33.137,130.061,124.0,58.0
212476,-0.458,0.147,0.025,-103.756,-29.565,105.481,127.0,58.0
212530,-0.567,0.155,0.058,-64.504,-22.779,69.229,117.0,75.0
212582,-0.967,0.261,0.021,-1.366,-9.076,2.802,115.0,72.0
212635,-1.215,0.326,-0.026,28.267,15.504,-58.992,116.0,73.0
212690,-1.540,0.320,-0.079,11.122,37.252,-105.611,113.0,76.0
212743,-1.359,0.230,-0.006,9.855,58.458,-135.656,113.0,76.0
212795,-1.178,0.067,0.069,6.595,56.641,-119.802,112.0,61.0
212847,-1.259,0.040,0.164,53.458,38.511,-104.023,114.0,69.0
212899,-1.032,0.059,0.174,122.511,31.069,-88.878,115.0,74.0
212965,-0.717,0.191,0.103,138.160,26.756,-70.198,0.0,0.0
213022,-0.454,0.326,0.061,83.427,14.053,-53.740,0.0,78.0
213085,-0.462,0.320,0.104,29.611,18.695,-47.328,0.0,160.0
213153,-0.684,0.272,0.165,-19.344,20.802,-39.947,0.0,0.0
213216,-1.179,0.142,0.245,-16.634,19.229,-22.015,0.0,168.0
213279,-1.510,0.107,0.185,37.702,15.420,0.015,0.0,172.0
213345,-1.312,0.085,0.107,40.878,27.580,18.786,0.0,0.0
213408,-1.314,-0.263,-0.190,-68.931,22.618,33.351,0.0,188.0
213467,-1.127,-0.507,-0.020,-65.061,-28.969,104.626,0.0,86.0
213525,-0.991,-0.120,-0.025,44.679,-52.779,140.695,0.0,79.0
213583,-1.032,0.254,-0.135,85.695,-56.992,109.298,0.0,75.0
213640,-0.994,0.225,-0.040,43.947,-56.321,109.634,199.0,59.0
213707,-0.869,0.203,0.043,14.099,-47.832,128.481,191.0,0.0
213772,-0.725,0.147,0.154,-18.634,-60.038,126.687,185.0,0.0
213829,-0.583,0.112,0.214,1.305,-61.214,95.198,180.0,86.0
213886,-0.551,0.227,0.233,45.939,-48.084,41.733,176.0,93.0
213944,-0.698,0.439,0.211,66.969,-42.191,-26.519,180.0,90.0
214001,-1.300,0.665,0.232,84.939,-43.122,-77.275,172.0,90.0
214060,-1.030,0.569,0.284,84.603,-32.237,-34.031,176.0,89.0
214116,-1.302,0.810,0.143,8.908,-52.053,-32.939,168.0,90.0
214219,-0.632,0.299,0.229,122.595,-76.191,6.290,152.0,97.0
214277,-0.372,0.435,0.187,99.641,-81.290,16.855,181.0,92.0
214334,-0.350,0.364,0.301,72.260,-78.389,21.710,176.0,91.0
214392,-0.515,0.503,0.330,98.015,-65.855,9.977,188.0,92.0
214451,-0.621,0.686,0.290,114.290,-50.046,1.458,0.0,78.0
214509,-0.808,0.668,0.262,145.351,-45.473,9.969,0.0,74.0
214567,-1.109,0.822,0.125,158.786,-49.328,5.634,0.0,84.0
214625,-1.165,0.918,0.010,90.672,-73.183,-1.908,0.0,70.0
214682,-1.432,0.761,-0.045,56.229,-96.183,13.023,0.0,70.0
214744,-1.066,0.776,-0.088,73.557,-106.695,57.985,0.0,71.0
214802,-0.782,0.798,-0.069,3.099,-108.756,56.282,0.0,86.0
214860,-0.585,0.605,0.031,-25.679,-109.824,54.664,0.0,81.0
214919,-0.300,0.512,0.101,5.336,-114.481,37.168,0.0,77.0
214975,-0.135,0.629,0.120,6.000,-103.153,8.977,0.0,57.0
215032,-0.189,0.610,0.150,-7.603,-80.214,-16.962,0.0,57.0
215090,-0.297,0.622,0.178,-9.405,-45.275,-44.298,0.0,71.0
215147,-0.821,0.741,0.165,-4.695,-9.160,-118.702,0.0,57.0
215199,-1.401,0.566,0.072,55.985,21.336,-212.412,115.0,57.0
215255,-1.498,0.430,-0.186,92.321,50.756,-250.137,120.0,57.0
215306,-1.640,0.277,-0.280,47.962,62.756,-245.901,115.0,43.0
215358,-1.440,0.100,-0.142,42.489,63.176,-186.992,107.0,67.0
215410,-1.125,0.103,-0.092,88.595,62.137,-139.031,127.0,43.0
215459,-0.939,0.189,-0.063,134.679,55.740,-98.870,58.0,57.0
215520,-0.776,0.298,-0.042,109.924,34.779,-74.450,113.0,0.0
215585,-0.667,0.244,0.093,84.412,27.023,-44.580,0.0,0.0
215645,-0.659,0.359,0.144,41.511,31.756,-27.817,108.0,0.0
215708,-0.819,0.295,0.185,-17.908,32.847,-21.023,118.0,0.0
215769,-1.402,0.133,0.177,-25.214,20.916,17.130,115.0,0.0
215829,-1.448,-0.011,0.081,-25.084,-29.626,114.282,107.0,0.0
215885,-1.548,0.018,-0.056,-68.298,-81.878,207.443,153.0,81.0
215940,-1.560,0.113,-0.058,-55.107,-99.939,212.718,119.0,81.0
215994,-1.134,0.153,-0.040,-13.076,-87.122,179.573,122.0,87.0
216053,-0.706,0.315,-0.044,-16.168,-59.191,139.305,0.0,95.0
216111,-0.366,0.264,-0.030,-68.886,-32.069,97.160,166.0,91.0
216167,-0.434,0.179,0.040,-76.985,-10.015,61.305,109.0,83.0
216220,-0.840,0.196,-0.012,-28.702,6.885,11.901,105.0,81.0
216273,-1.358,0.414,-0.136,-18.038,29.939,-62.863,106.0,93.0
216327,-1.518,0.219,-0.055,-11.244,41.939,-136.580,91.0,93.0
216379,-1.282,0.090,0.011,26.725,62.015,-154.198,96.0,67.0
216439,-1.335,0.141,0.016,55.969,72.504,-140.473,106.0,0.0
216500,-1.145,0.153,0.068,53.794,62.092,-132.496,117.0,0.0
216560,-0.875,0.127,0.133,86.191,58.191,-118.832,107.0,0.0
216623,-0.668,0.258,0.090,92.107,50.496,-98.618,147.0,0.0
216691,-0.668,0.243,0.135,28.290,31.748,-64.954,0.0,0.0
216756,-0.898,0.199,0.262,35.924,23.267,-36.221,0.0,0.0
216816,-1.029,0.201,0.205,39.405,13.168,-10.053,110.0,0.0
216877,-1.375,0.289,0.101,13.931,12.847,38.870,105.0,0.0
216936,-1.757,0.235,-0.129,-61.328,-23.420,88.359,87.0,0.0
216996,-1.521,0.008,-0.149,-95.489,-71.397,187.969,122.0,0.0
217058,-1.271,0.128,-0.105,-64.847,-84.435,224.656,117.0,0.0
217156,-0.448,0.169,-0.010,-83.534,-58.687,164.405,120.0,95.0
217214,-0.432,0.158,0.021,-75.145,-38.527,110.916,129.0,92.0
217269,-0.551,0.203,0.024,-45.748,-21.359,42.718,124.0,84.0
217322,-0.956,0.293,-0.015,9.969,8.176,-43.267,111.0,65.0
217375,-1.382,0.369,-0.130,37.435,47.313,-114.710,123.0,73.0
217428,-1.573,0.271,-0.146,13.573,61.817,-160.427,112.0,64.0
217481,-1.340,0.159,-0.018,6.473,73.817,-162.550,110.0,68.0
217541,-1.343,0.042,0.076,34.832,65.389,-149.809,102.0,0.0
217602,-1.154,0.039,0.175,103.511,51.282,-128.168,114.0,0.0
217664,-0.882,0.184,0.120,135.038,41.756,-112.466,140.0,0.0
217730,-0.682,0.319,0.080,92.573,31.443,-93.901,141.0,0.0
217790,-0.651,0.315,0.134,12.275,29.145,-66.221,121.0,0.0
217851,-0.874,0.201,0.180,-4.031,22.168,-40.718,113.0,0.0
217912,-0.966,0.199,0.132,16.588,20.641,4.206,111.0,0.0
217971,-1.453,0.254,0.023,-28.153,9.557,55.672,88.0,0.0
218030,-1.572,0.119,-0.015,-52.084,-25.260,120.511,90.0,0.0
218090,-1.694,0.156,-0.169,-78.427,-58.366,164.855,98.0,0.0
218151,-1.271,0.047,-0.099,-62.321,-73.603,200.168,130.0,0.0
218209,-0.782,0.239,-0.099,-59.412,-50.947,194.328,126.0,70.0
218266,-0.527,0.278,-0.084,-97.176,-36.565,156.313,147.0,104.0
218321,-0.573,0.191,-0.059,-113.977,-26.321,104.786,141.0,67.0
218373,-0.733,0.172,-0.013,-68.855,-12.824,47.359,100.0,57.0
218426,-0.939,0.229,-0.010,-6.466,6.298,-20.588,114.0,62.0
218479,-1.221,0.364,-0.044,21.863,34.481,-87.496,128.0,53.0
218540,-1.400,0.286,-0.001,26.130,49.168,-158.886,112.0,0.0
218592,-1.192,0.054,0.070,35.359,64.405,-163.214,112.0,57.0
218644,-1.261,0.116,0.087,59.214,66.908,-135.855,105.0,60.0
218708,-1.185,0.163,0.088,69.015,59.267,-125.244,116.0,0.0
218770,-0.866,0.130,0.140,83.763,47.427,-105.924,117.0,0.0
218830,-0.651,0.240,0.113,80.748,36.298,-74.832,117.0,0.0
218893,-0.715,0.247,0.135,28.191,19.626,-45.649,147.0,0.0
218954,-0.954,0.170,0.230,27.099,10.824,-23.947,117.0,0.0
219015,-0.948,0.231,0.201,42.115,8.725,-5.466,100.0,0.0
219074,-1.261,0.342,0.123,9.748,15.206,10.473,96.0,0.0
219133,-1.564,0.185,-0.051,-45.107,-12.824,52.573,92.0,0.0
219197,-1.471,0.079,-0.046,-64.611,-46.985,139.221,98.0,0.0
219257,-1.329,0.113,-0.102,-53.542,-63.168,184.718,111.0,0.0
219312,-0.851,0.239,-0.050,-62.695,-54.908,182.115,129.0,61.0
219366,-0.641,0.270,-0.065,-92.153,-45.122,151.206,136.0,59.0
219424,-0.563,0.197,0.011,-101.809,-36.183,112.305,121.0,57.0
219478,-0.593,0.203,0.054,-71.756,-20.527,67.321,126.0,69.0
219529,-1.008,0.259,-0.007,-31.557,-0.084,8.534,118.0,57.0
219580,-1.207,0.273,-0.008,-3.435,22.771,-41.221,105.0,57.0
219632,-1.412,0.292,-0.072,-8.313,42.099,-85.023,116.0,64.0
219686,-1.236,0.203,0.034,18.221,55.321,-116.679,105.0,59.0
219738,-1.106,0.107,0.105,45.183,58.489,-128.473,119.0,51.0
219790,-1.166,0.131,0.104,72.992,50.145,-127.412,118.0,62.0
219843,-1.024,0.135,0.121,100.618,44.023,-121.847,124.0,79.0
219905,-0.802,0.251,0.094,101.687,47.176,-114.237,139.0,0.0
219968,-0.668,0.276,0.081,51.176,33.183,-96.122,175.0,0.0
220071,-0.953,0.246,0.182,35.031,23.061,-40.305,118.0,0.0
220131,-0.981,0.254,0.165,25.328,21.794,-26.427,99.0,0.0
220193,-1.170,0.279,0.155,-10.053,27.160,14.832,98.0,0.0
220252,-1.672,0.220,0.010,-35.298,-0.359,48.855,95.0,0.0
220314,-1.609,-0.012,-0.051,-46.023,-54.824,139.489,166.0,0.0
220377,-1.440,0.121,-0.079,-48.565,-67.992,209.053,146.0,0.0
220431,-0.993,0.237,-0.069,-82.366,-66.160,201.947,151.0,58.0
220492,-0.624,0.186,-0.005,-103.122,-66.405,169.412,147.0,0.0
220555,-0.378,0.129,0.048,-73.206,-54.954,131.023,144.0,0.0
220608,-0.443,0.268,0.029,-50.794,-31.916,65.718,138.0,58.0
220663,-0.746,0.292,0.042,-27.916,-1.267,-14.489,142.0,51.0
220716,-0.984,0.322,0.057,7.794,41.855,-92.878,125.0,50.0
220768,-1.426,0.314,-0.011,-2.191,73.924,-144.565,121.0,57.0
220820,-1.505,0.177,0.030,-8.298,84.832,-173.939,115.0,57.0
220880,-1.353,0.004,0.107,8.740,80.389,-158.779,120.0,0.0
220941,-1.348,-0.043,0.144,82.267,50.809,-107.031,136.0,0.0
221002,-0.971,0.153,0.109,145.939,38.176,-79.786,136.0,0.0
221065,-0.676,0.309,0.052,114.550,29.603,-65.863,144.0,0.0
221129,-0.513,0.264,0.109,57.153,19.611,-49.466,0.0,0.0
221198,-0.785,0.222,0.155,36.458,14.115,-23.023,0.0,0.0
221262,-1.070,0.216,0.191,38.618,13.985,-11.725,0.0,0.0
221328,-1.002,0.231,0.190,14.832,17.496,8.718,0.0,0.0
221392,-1.318,0.173,0.201,-4.214,18.397,36.992,0.0,0.0
221457,-1.444,0.237,0.082,-4.534,11.038,55.489,0.0,0.0
221522,-1.207,0.199,-0.012,-74.863,-10.847,93.183,0.0,0.0
221580,-1.116,0.091,-0.006,-80.611,-33.489,120.733,0.0,60.0
221637,-0.803,0.200,-0.020,-57.802,-29.542,124.489,0.0,65.0
221693,-0.650,0.353,-0.061,-80.267,-18.015,96.397,0.0,58.0
221755,-0.543,0.297,-0.022,-104.840,-6.527,57.702,0.0,71.0
221807,-0.615,0.347,0.022,-88.969,8.061,30.008,113.0,71.0
221859,-0.780,0.452,0.012,-76.901,19.023,11.672,123.0,57.0
221911,-0.927,0.477,0.021,-67.420,28.611,-9.382,109.0,38.0
221962,-1.024,0.491,0.050,-40.779,44.366,-26.679,120.0,39.0
222013,-1.226,0.651,-0.004,-55.023,62.084,-55.718,118.0,43.0
222063,-1.335,0.526,0.044,-109.435,65.321,-75.962,99.0,37.0
222112,-1.068,0.270,0.107,-160.427,43.962,-46.733,96.0,36.0
222166,-1.135,0.104,0.165,-143.962,-3.855,-3.076,93.0,43.0
222216,-1.009,0.070,0.167,-60.000,-25.450,21.794,91.0,47.0
222266,-0.799,0.297,0.115,7.885,-7.855,28.069,92.0,48.0
222317,-0.658,0.563,0.010,-35.863,18.389,4.145,105.0,50.0
222368,-0.737,0.530,-0.092,-158.344,31.466,-20.214,104.0,57.0
222428,-0.797,0.244,-0.029,-211.412,35.359,-20.076,100.0,0.0
222487,-0.920,0.180,-0.017,-180.878,26.672,-5.977,96.0,0.0
222546,-0.888,0.210,-0.027,-136.305,20.290,7.649,94.0,0.0
222605,-0.871,0.276,-0.087,-132.824,24.954,19.519,88.0,0.0
222667,-0.705,0.338,-0.064,-165.214,40.084,29.802,86.0,0.0
222726,-0.803,0.320,-0.103,-207.244,43.298,15.351,86.0,0.0
222791,-1.049,0.248,-0.101,-190.084,37.115,0.023,0.0,0.0
222854,-1.166,0.283,-0.232,-156.969,28.840,-0.550,0.0,156.0
222917,-1.184,0.087,-0.256,-153.481,-7.214,40.115,0.0,162.0
223022,-0.824,0.200,-0.084,-27.977,-5.573,51.573,0.0,137.0
223085,-0.747,0.417,-0.094,-42.863,29.725,25.496,0.0,166.0
223148,-0.990,0.463,-0.106,-139.542,45.344,-23.550,0.0,142.0
223213,-1.007,0.077,0.042,-176.687,30.542,-39.344,0.0,146.0
223276,-1.109,-0.190,0.129,-76.908,3.176,-12.863,0.0,150.0
223338,-1.119,-0.095,-0.020,51.863,-8.580,-7.489,0.0,153.0
223400,-1.143,0.125,-0.151,51.137,-7.924,-33.473,0.0,155.0
223464,-0.991,-0.004,0.001,-12.374,2.427,-18.420,0.0,157.0
223526,-1.049,-0.007,0.011,-9.939,7.183,-29.069,0.0,159.0
223590,-0.915,0.020,0.091,11.122,10.870,-23.481,0.0,160.0
223653,-0.857,0.036,0.080,3.756,12.366,-21.679,0.0,162.0
223716,-0.781,0.049,0.078,-8.847,19.115,-15.748,0.0,165.0
223782,-0.649,0.073,0.109,-34.534,22.427,4.000,0.0,168.0
223847,-0.536,0.099,0.134,-37.786,15.603,24.427,0.0,171.0
223904,-0.608,0.155,0.129,-32.031,2.626,40.893,0.0,69.0
223962,-0.771,0.216,0.094,-5.969,-12.443,31.046,0.0,64.0
224020,-0.787,0.234,0.099,23.008,-17.214,33.733,0.0,65.0
224077,-1.440,0.250,-0.063,3.298,-22.573,54.053,0.0,58.0
224135,-2.000,0.249,-0.271,-21.740,-38.809,59.740,0.0,60.0
224192,-1.625,-0.048,-0.048,12.588,-56.985,85.023,0.0,62.0
224249,-0.752,0.197,0.044,60.550,-19.191,57.519,0.0,66.0
224312,-0.534,0.296,-0.040,-18.924,2.366,0.252,0.0,81.0
224370,-0.468,0.045,-0.002,-55.588,-5.573,-8.725,0.0,74.0
224428,-0.429,-0.001,0.040,-4.779,-17.901,4.267,0.0,73.0
224486,-0.355,0.085,0.068,49.458,-29.565,-0.924,0.0,65.0
224544,-1.080,0.347,0.115,55.603,-15.031,-44.397,0.0,75.0
224602,-1.693,0.434,0.182,66.344,45.389,-133.115,0.0,71.0
224660,-1.834,0.352,-0.095,-98.115,79.466,-81.206,0.0,64.0
224717,-1.386,-0.064,0.164,-147.588,28.344,-63.733,0.0,56.0
224779,-0.901,-0.145,0.363,21.565,13.450,-9.435,0.0,67.0
224825,-0.473,0.185,0.196,68.649,-4.527,21.954,16.0,57.0
224882,-0.265,0.284,0.184,7.916,-15.527,31.267,0.0,59.0
224940,-0.328,0.279,0.213,-27.130,-2.878,21.939,0.0,59.0
224997,-0.507,0.300,0.129,-48.672,1.748,-9.061,0.0,50.0
225054,-1.301,0.204,0.032,-39.466,-8.534,-13.221,0.0,52.0
225112,-2.000,0.021,-0.256,-10.527,-42.160,32.947,0.0,60.0
225169,-2.000,-0.101,-0.188,25.847,-73.496,120.901,0.0,60.0
225226,-1.037,0.280,-0.060,81.992,-50.611,121.817,0.0,54.0
225288,-0.436,0.350,-0.083,9.214,-27.985,61.534,0.0,64.0
225345,-0.183,0.085,0.040,-39.794,-14.664,20.954,0.0,55.0
225402,-0.193,-0.040,0.062,4.023,-8.260,5.038,0.0,58.0
225460,-0.476,0.150,0.057,46.931,-17.565,-15.687,0.0,62.0
225519,-0.830,0.170,0.093,73.229,-13.443,-51.260,0.0,82.0
225576,-1.333,0.362,0.070,67.863,12.802,-91.870,0.0,71.0
225635,-1.891,0.432,0.118,58.916,66.176,-159.290,0.0,71.0
225693,-1.816,0.300,-0.046,-39.115,88.763,-131.771,0.0,58.0
225751,-1.202,0.116,0.148,-93.626,62.450,-97.824,0.0,57.0
225811,-0.645,-0.025,0.263,-18.634,44.519,-40.779,0.0,57.0
225861,-0.399,0.196,0.175,23.786,27.748,-2.809,71.0,57.0
225909,-0.314,0.292,0.184,-5.588,13.496,4.771,17.0,69.0
226010,-0.667,0.265,0.174,-32.305,-1.565,-9.786,0.0,59.0
226057,-1.181,0.083,0.112,-10.710,-32.183,15.336,16.0,60.0
226114,-2.000,0.089,-0.227,42.878,-56.305,67.863,0.0,53.0
226171,-1.916,0.098,-0.253,-19.740,-84.397,174.359,0.0,62.0
226230,-1.666,0.639,-0.130,-70.847,-100.374,171.557,0.0,58.0
226291,-1.096,0.567,0.104,-102.962,-112.214,150.466,0.0,62.0
226348,-0.761,0.361,0.238,-200.084,-138.359,137.496,0.0,36.0
226404,-0.553,0.357,0.202,-177.947,-166.542,109.023,0.0,37.0
226460,-0.414,0.168,0.249,-210.298,-181.573,68.588,0.0,40.0
226512,-0.416,0.002,0.501,-183.901,-180.939,33.725,94.0,51.0
226564,-0.408,-0.000,0.734,-105.115,-172.817,12.183,94.0,55.0
226621,-0.248,0.061,0.870,-91.931,-155.588,-2.985,0.0,55.0
226672,0.107,-0.127,1.115,-77.550,-121.931,1.092,94.0,56.0
226729,0.117,-0.116,1.138,-23.481,-66.771,-4.519,0.0,56.0
226785,0.172,-0.229,1.154,-30.779,-31.977,4.824,96.0,56.0
226837,0.270,-0.197,1.013,-20.687,-32.931,5.473,103.0,56.0
226893,0.334,-0.181,0.785,-10.282,-27.366,-1.664,100.0,55.0
226950,0.297,-0.135,0.681,-19.076,-32.328,2.397,0.0,55.0
227000,0.284,-0.110,0.656,-22.847,-32.008,7.099,101.0,54.0
227051,0.305,-0.190,0.710,-5.504,-24.656,1.573,103.0,54.0
227102,0.373,-0.148,0.773,-0.969,-14.534,0.427,103.0,53.0
227152,0.382,-0.160,0.811,-13.397,-17.420,9.504,104.0,53.0
227206,0.384,-0.137,0.975,-12.206,-19.305,7.229,105.0,52.0
227262,0.317,-0.145,1.153,16.756,2.863,-8.206,0.0,51.0
227318,0.433,-0.130,1.145,13.389,13.947,-2.008,0.0,52.0
227375,0.463,-0.143,1.005,8.733,24.756,2.565,0.0,51.0
227431,0.376,-0.151,0.936,8.603,20.504,-1.756,0.0,51.0
227482,0.254,-0.054,0.833,-13.420,8.595,-1.802,106.0,51.0
227532,0.210,-0.127,0.754,5.267,-12.473,-10.275,106.0,51.0
227589,0.237,-0.012,0.549,4.466,-9.740,-11.168,0.0,51.0
227645,0.231,-0.105,0.517,2.763,1.855,-22.099,0.0,51.0
227704,0.075,-0.100,0.646,68.290,38.198,-26.122,0.0,52.0
227761,-0.043,-0.178,0.836,157.740,142.931,-36.015,0.0,51.0
227817,-0.156,0.145,1.002,175.336,236.305,-44.328,0.0,51.0
227873,-0.325,0.143,0.973,201.214,250.130,-78.053,0.0,37.0
227929,-0.892,0.554,0.744,191.275,250.130,-118.817,0.0,36.0
227984,-0.698,0.426,0.712,156.710,178.061,-165.550,0.0,36.0
228042,-0.836,0.293,0.436,250.130,118.992,-142.244,0.0,71.0
228100,-0.717,1.112,0.138,163.397,84.084,-120.641,0.0,64.0
228157,-0.623,0.774,0.407,-22.588,39.420,-120.557,0.0,65.0
228216,-1.685,0.632,0.217,23.389,34.924,-94.084,0.0,58.0
228274,-2.000,0.350,-0.145,-7.863,-17.924,-14.710,0.0,58.0
228330,-1.793,0.340,-0.113,-27.939,-24.382,97.618,0.0,57.0
228387,-1.062,0.256,-0.088,-28.168,-43.870,116.145,0.0,58.0
228446,-0.530,0.129,-0.017,-25.405,-62.031,129.328,0.0,81.0
228503,-0.283,0.047,-0.033,-13.580,-78.977,107.198,0.0,69.0
228560,-0.354,-0.017,-0.045,47.817,-69.947,68.122,0.0,66.0
228619,-0.287,0.119,-0.100,75.481,-43.847,19.611,0.0,76.0
228679,-0.413,0.244,-0.030,35.466,-5.695,-58.534,0.0,73.0
228737,-1.070,0.467,0.086,3.511,48.298,-151.756,0.0,71.0
228839,-2.000,0.256,-0.023,-90.931,156.458,-250.137,0.0,80.0
228888,-1.626,-0.133,0.255,-202.557,98.191,-193.847,66.0,60.0
228934,-1.006,-0.383,0.471,-34.153,70.000,-105.435,9.0,58.0
228980,-0.596,0.055,0.313,65.664,28.939,-31.145,16.0,57.0
229026,-0.368,0.352,0.221,26.649,-4.962,-2.611,16.0,60.0
229073,-0.406,0.397,0.202,-56.382,-11.763,5.237,17.0,63.0
229120,-0.665,0.378,0.162,-87.244,-23.168,-9.092,14.0,57.0
229177,-1.063,0.201,0.095,-70.748,-47.115,1.496,17.0,50.0
229222,-1.514,0.035,0.006,-19.588,-76.198,75.168,12.0,43.0
229279,-2.000,-0.176,-0.378,22.115,-121.466,193.603,0.0,50.0
229336,-2.000,0.047,-0.363,16.206,-142.542,250.130,0.0,57.0
229393,-1.442,0.440,-0.197,17.840,-112.580,250.130,0.0,62.0
229451,-0.637,0.273,-0.074,-50.183,-69.817,153.756,0.0,69.0
229509,-0.268,0.034,0.064,-70.939,-24.405,87.214,0.0,55.0
229564,-0.248,0.078,0.024,-46.763,7.809,52.366,0.0,38.0
229623,-0.347,0.155,-0.003,-41.588,2.313,-6.611,0.0,39.0
229679,-0.454,0.160,0.084,-3.939,2.710,-63.084,0.0,38.0
229736,-0.515,0.190,0.151,43.366,30.733,-115.656,0.0,56.0
229793,-0.820,0.324,0.152,53.557,79.282,-167.000,0.0,62.0
229850,-2.000,-1.333,1.041,111.405,63.580,-212.115,0.0,52.0
229907,-1.888,0.594,-0.076,114.038,83.725,-243.542,0.0,58.0
229964,-1.397,0.265,0.114,-142.076,54.527,-189.107,0.0,50.0
230021,-1.012,-0.220,0.290,-46.893,54.878,-76.183,0.0,48.0
230078,-0.721,0.172,0.185,42.809,25.351,-0.855,0.0,53.0
230137,-0.469,0.396,0.259,13.832,13.985,7.687,0.0,50.0
230183,-0.564,0.458,0.282,-51.725,13.267,-17.145,16.0,50.0
230230,-0.943,0.289,0.250,-83.397,-8.405,-20.794,17.0,50.0
230277,-1.982,0.134,0.067,-57.733,-43.099,4.321,17.0,54.0
230322,-2.000,-0.048,-0.341,-5.855,-98.115,96.282,19.0,45.0
230369,-2.000,0.159,-0.446,-71.939,-111.038,220.160,19.0,50.0
230426,-1.427,0.241,-0.218,-84.725,-87.748,217.603,0.0,57.0
230483,-0.707,0.295,-0.145,-95.947,-58.542,181.382,0.0,68.0
230542,-0.454,0.252,-0.152,-136.710,-47.687,139.771,0.0,77.0
230605,-0.587,0.149,-0.156,-116.221,-36.603,95.992,0.0,104.0
230666,-0.852,0.256,-0.172,-34.618,-10.458,37.985,0.0,110.0
230726,-0.891,0.383,-0.094,-15.611,34.038,-43.229,0.0,116.0
230787,-0.957,0.364,0.095,-26.985,91.748,-119.359,0.0,120.0
230847,-0.846,0.141,0.240,-88.397,125.550,-116.702,0.0,114.0
230908,-1.471,0.120,0.175,-120.290,90.397,-106.008,0.0,120.0
230970,-1.258,-0.035,0.297,-46.344,53.473,-78.038,0.0,132.0
231031,-1.051,0.232,0.148,-41.725,22.809,-39.183,0.0,133.0
231097,-0.914,0.237,0.123,-100.466,-4.847,-17.725,0.0,144.0
231160,-0.798,0.117,0.148,-78.115,-19.679,1.427,0.0,152.0
231223,-0.794,0.241,0.094,-51.160,-25.656,14.221,0.0,161.0
231287,-0.917,0.374,0.024,-74.496,-27.511,27.008,0.0,171.0
231352,-0.969,0.476,-0.031,-105.023,-6.893,50.672,199.0,186.0
231416,-1.268,0.550,-0.189,-114.954,17.244,67.527,187.0,0.0
231476,-1.420,0.456,-0.361,-179.557,11.832,93.886,173.0,120.0
231537,-1.335,0.374,-0.355,-180.573,9.260,98.069,0.0,125.0
231603,-0.905,0.188,-0.165,-172.031,6.595,106.252,0.0,133.0
231708,-0.717,0.290,-0.130,-131.305,-7.298,69.557,0.0,147.0
231770,-0.975,0.219,-0.138,-100.023,-8.855,30.962,171.0,155.0
231831,-1.130,0.181,-0.093,-47.992,-2.321,1.305,165.0,160.0
231892,-1.238,0.142,0.017,17.122,22.466,-27.855,163.0,164.0
231954,-0.873,0.285,0.104,24.855,49.122,-53.145,162.0,166.0
232015,-1.131,0.166,0.148,-61.832,40.389,-64.710,161.0,167.0
232077,-1.132,-0.043,0.297,16.763,32.962,-55.489,159.0,165.0
232138,-0.830,0.315,0.162,46.748,40.183,-49.962,160.0,165.0
232203,-0.681,0.266,0.210,-37.145,36.618,-59.893,160.0,165.0
232266,-0.779,0.224,0.251,-20.641,37.191,-58.130,0.0,165.0
232330,-0.823,0.286,0.219,-20.206,24.336,-45.985,0.0,167.0
232394,-0.938,0.292,0.133,-48.397,8.008,-17.656,0.0,171.0
232459,-1.478,0.240,-0.032,-34.885,-6.763,30.901,0.0,176.0
232523,-1.397,0.188,-0.180,-70.595,-36.809,117.145,0.0,185.0
232586,-1.649,0.111,-0.282,-85.954,-60.969,146.458,144.0,193.0
232640,-0.973,-0.026,-0.134,-32.740,-55.603,138.931,141.0,64.0
232706,-0.475,0.046,-0.141,-11.496,-18.198,99.359,139.0,0.0
232764,-0.518,0.062,-0.202,-50.824,-1.618,37.198,0.0,62.0
232821,-0.706,-0.019,-0.139,-27.473,1.687,-3.107,200.0,58.0
232879,-0.683,0.008,-0.062,24.664,-7.687,-17.191,199.0,60.0
232937,-0.692,0.161,0.019,86.321,-7.672,-49.893,198.0,68.0
232996,-0.679,0.338,0.046,101.611,8.313,-96.832,0.0,99.0
233056,-0.969,0.433,0.157,26.672,32.756,-126.679,200.0,84.0
233115,-2.000,0.433,0.168,22.565,67.672,-178.908,0.0,85.0
233175,-1.702,0.187,0.103,-76.038,62.237,-105.702,0.0,85.0
233236,-1.034,-0.050,0.330,-95.740,16.649,-23.107,0.0,71.0
233293,-0.625,0.045,0.329,21.397,5.901,12.832,0.0,65.0
233352,-0.428,0.334,0.159,16.756,3.802,29.298,0.0,66.0
233400,-0.500,0.259,0.196,-62.695,-5.870,28.756,17.0,66.0
233447,-0.929,0.205,0.151,-48.359,-13.244,23.252,16.0,61.0
233504,-0.984,-0.009,0.137,3.092,-37.992,41.466,0.0,57.0
233562,-1.625,0.237,-0.031,68.977,-32.649,82.023,0.0,59.0
233619,-1.868,0.364,-0.223,-4.802,-33.710,125.481,0.0,57.0
233681,-1.596,0.113,-0.035,-21.763,-60.840,136.878,0.0,79.0
233741,-0.790,0.124,0.073,60.191,-50.687,101.901,0.0,79.0
233800,-0.330,0.240,-0.016,40.092,-21.672,67.084,0.0,86.0
233859,-0.270,0.110,-0.072,-10.031,-14.916,19.023,0.0,84.0
233918,-0.299,0.017,-0.030,9.496,-14.580,-14.992,0.0,82.0
233977,-0.644,0.156,-0.055,38.405,-9.130,-54.863,0.0,78.0
234036,-1.021,0.442,0.038,49.809,23.435,-126.550,0.0,82.0
234095,-1.462,0.396,0.088,18.061,56.038,-197.084,0.0,86.0
234160,-1.895,0.285,0.066,-28.260,70.191,-209.580,0.0,77.0
234221,-1.195,-0.019,0.238,-27.397,55.947,-104.748,0.0,78.0
234278,-0.744,0.140,0.189,11.573,24.344,-20.229,0.0,78.0
234337,-0.601,0.211,0.193,15.267,5.275,33.122,0.0,95.0
234395,-0.571,0.277,0.213,-14.298,-2.740,53.924,0.0,78.0
234452,-0.617,0.346,0.247,-37.832,-7.458,49.695,0.0,76.0
234510,-1.573,0.296,0.049,-36.771,-20.679,17.069,0.0,70.0
234567,-1.992,0.134,-0.225,-21.092,-50.649,89.481,0.0,71.0
234625,-1.821,0.145,-0.260,-64.802,-70.962,161.076,0.0,66.0
234727,-0.569,0.227,-0.078,9.779,-53.260,86.160,0.0,84.0
234786,-0.415,0.129,-0.084,-9.504,-31.214,50.214,0.0,69.0
234845,-0.406,0.083,-0.033,-4.817,-20.855,34.519,0.0,79.0
234902,-0.552,0.108,-0.049,4.374,-15.229,18.527,0.0,74.0
234960,-0.572,0.195,0.121,34.427,-7.618,-27.038,0.0,76.0
235018,-0.986,0.446,0.236,69.298,18.214,-66.901,0.0,75.0
235076,-1.535,0.693,0.377,42.092,31.191,-143.603,0.0,74.0
235133,-1.402,0.493,0.310,0.046,48.977,-103.893,0.0,76.0
235192,-0.981,0.297,0.302,-17.214,24.855,-81.450,0.0,78.0
235252,-0.508,0.319,0.255,29.771,6.229,-17.840,0.0,75.0
235310,-0.362,0.506,0.117,-30.649,11.061,0.275,0.0,73.0
235368,-0.464,0.440,0.131,-66.733,24.550,-9.672,0.0,87.0
235425,-1.717,0.569,-0.149,-80.191,24.962,-34.985,0.0,58.0
235482,-1.981,0.044,-0.229,-145.153,-21.168,24.794,0.0,50.0
235538,-1.757,-0.051,0.012,-44.153,-43.198,149.573,0.0,53.0
235595,-1.041,0.240,-0.039,26.687,-57.191,142.168,0.0,65.0
235654,-0.533,0.258,-0.051,-14.641,-56.290,127.298,0.0,73.0
235711,-0.283,0.064,-0.019,-39.542,-52.824,86.924,0.0,63.0
235772,-0.411,-0.022,-0.028,-10.107,-41.626,39.809,0.0,84.0
235831,-0.425,0.025,0.019,31.420,-26.244,-19.626,0.0,81.0
235889,-0.800,0.225,0.126,62.069,-0.084,-97.145,0.0,83.0
235947,-1.466,0.407,0.324,104.611,41.672,-188.290,0.0,78.0
236004,-1.824,0.577,0.254,96.786,89.282,-249.221,0.0,70.0
236062,-1.491,0.645,0.116,-108.252,77.344,-174.916,0.0,68.0
236119,-0.890,0.043,0.290,-113.313,51.664,-91.504,0.0,57.0
236176,-0.498,0.229,0.247,-70.878,30.458,-5.145,0.0,50.0
236222,-0.314,0.145,0.329,-66.481,-3.099,25.962,16.0,51.0
236281,-0.304,0.281,0.295,-33.183,-5.282,23.115,0.0,53.0
236338,-0.659,0.359,0.165,-52.122,-16.786,-5.023,0.0,47.0
236383,-2.000,0.065,-0.131,-17.656,-50.687,18.679,17.0,43.0
236440,-2.000,-0.148,-0.540,-27.290,-83.046,146.099,0.0,50.0
236497,-1.682,-0.031,-0.186,14.580,-99.916,209.886,0.0,62.0
236555,-0.738,0.225,-0.052,52.710,-75.511,120.878,0.0,64.0
236612,-0.470,0.162,-0.054,4.771,-51.298,55.733,0.0,67.0
236670,-0.331,0.007,-0.026,12.634,-36.427,20.519,0.0,81.0
236731,-0.461,0.057,-0.088,35.252,-20.840,4.718,0.0,66.0
236789,-0.582,0.156,-0.033,49.420,-14.489,-31.122,0.0,75.0
236847,-0.626,0.299,0.082,66.687,14.389,-97.863,0.0,76.0
236905,-1.121,0.340,0.169,32.260,48.565,-134.046,0.0,72.0
236962,-2.000,0.429,0.207,52.939,79.122,-190.687,0.0,57.0
237019,-1.692,0.247,0.167,-20.947,55.702,-126.252,0.0,60.0
237076,-1.262,0.130,0.175,-41.855,28.611,-64.153,0.0,56.0
237133,-0.675,0.135,0.206,-23.427,7.160,16.351,0.0,57.0
237179,-0.365,0.234,0.234,-27.160,-4.893,41.290,17.0,52.0
237229,-0.311,0.296,0.249,-49.015,2.557,30.473,18.0,57.0
237286,-0.432,0.331,0.215,-60.878,11.229,-1.863,0.0,50.0
237342,-0.890,0.207,0.166,-52.702,-1.435,-21.023,0.0,51.0
237400,-2.000,0.023,-0.195,10.901,-45.443,2.183,0.0,59.0
237456,-1.949,-0.144,-0.196,-20.840,-88.313,180.305,0.0,47.0
237513,-1.532,0.258,-0.093,40.244,-92.672,175.542,0.0,50.0
237615,-0.305,0.134,0.053,14.435,-61.954,83.725,0.0,76.0
237673,-0.183,0.120,0.040,17.046,-27.275,43.321,0.0,81.0
237731,-0.290,0.178,-0.029,-14.328,-12.679,-2.046,0.0,88.0
237794,-0.495,0.083,0.059,-20.824,-3.458,-54.015,0.0,90.0
237851,-0.736,0.091,0.192,37.695,22.863,-96.282,0.0,51.0
237907,-1.319,0.231,0.230,82.000,53.733,-143.687,0.0,59.0
237965,-1.788,0.447,0.178,84.237,93.786,-217.252,0.0,57.0
238022,-1.645,0.393,0.006,-108.008,69.374,-152.427,0.0,57.0
238080,-0.958,-0.093,0.277,-111.069,39.099,-85.473,0.0,54.0
238137,-0.691,-0.012,0.310,35.267,27.053,-23.359,0.0,57.0
238183,-0.479,0.247,0.197,48.244,1.038,12.939,16.0,48.0
238232,-0.427,0.334,0.218,3.649,-6.779,19.718,17.0,57.0
238279,-0.642,0.310,0.219,-28.534,-3.939,14.374,17.0,57.0
238325,-1.437,0.299,0.169,-21.328,-6.542,11.847,16.0,46.0
238382,-2.000,0.018,-0.115,-9.481,-49.565,47.435,0.0,52.0
238439,-1.763,-0.045,-0.093,-1.298,-91.870,170.244,0.0,54.0
238496,-1.284,0.343,-0.071,32.412,-78.092,169.153,0.0,57.0
238554,-0.720,0.321,-0.077,-3.366,-57.878,126.344,0.0,60.0
238612,-0.387,0.312,-0.021,-58.443,-35.084,100.282,0.0,71.0
238669,-0.270,0.224,0.048,-72.878,-11.802,65.504,0.0,63.0
238731,-0.318,0.270,0.061,-54.206,17.382,28.023,0.0,71.0
238788,-0.563,0.399,0.050,-52.374,33.412,-19.282,0.0,55.0
238845,-0.708,0.389,0.194,-46.420,58.282,-76.863,0.0,62.0
238903,-1.612,0.381,0.265,-58.374,79.733,-143.359,0.0,64.0
238961,-1.989,0.091,0.320,-50.802,80.519,-155.771,0.0,65.0
239020,-1.705,-0.031,0.211,-114.084,-0.115,-37.618,0.0,75.0
239078,-1.042,0.086,0.215,-4.023,-4.214,-10.672,0.0,76.0
239136,-0.679,0.574,0.011,4.466,20.557,-22.931,0.0,86.0
239197,-0.529,0.478,0.027,-158.305,7.985,-50.221,0.0,95.0
239259,-0.723,0.187,0.116,-189.023,-0.282,-31.794,0.0,107.0
239322,-0.992,0.124,0.213,-111.702,-19.023,4.366,0.0,131.0
239381,-0.918,0.268,0.095,-68.466,-35.588,42.542,0.0,102.0
239441,-1.148,0.450,-0.030,-62.229,-30.015,51.000,0.0,111.0
239503,-1.944,0.585,-0.462,-112.496,-35.160,50.779,0.0,113.0
239564,-1.650,0.367,-0.571,-250.137,-28.817,120.191,0.0,132.0
239628,-1.142,-0.035,-0.174,-194.115,-22.397,169.824,199.0,155.0
239687,-0.614,0.175,-0.072,-78.229,-22.115,169.290,93.0,0.0
239755,-0.511,0.429,-0.125,-94.718,-8.977,110.687,175.0,0.0
239820,-0.920,0.378,-0.200,-146.008,3.603,25.580,0.0,0.0
239884,-1.273,0.166,-0.094,-129.107,13.099,13.908,0.0,168.0
239946,-1.306,0.119,0.054,-59.412,31.588,2.137,0.0,139.0
240009,-0.804,0.230,0.256,-49.084,59.092,-13.435,0.0,141.0
240071,-0.810,0.072,0.338,-86.405,55.214,-21.046,0.0,145.0
240134,-1.104,-0.009,0.347,-5.595,43.443,-35.969,0.0,144.0
240196,-0.986,0.250,0.170,13.473,53.382,-38.015,0.0,147.0
240261,-0.819,0.330,0.093,-82.878,60.939,-38.122,167.0,151.0
240322,-0.689,0.150,0.200,-109.855,51.053,-30.267,166.0,156.0
240386,-0.827,0.192,0.238,-74.260,39.328,-13.496,0.0,162.0
240445,-0.975,0.191,0.242,-80.153,4.405,23.389,161.0,132.0
240504,-0.975,0.174,0.256,-44.885,-21.573,52.069,156.0,134.0
240608,-1.041,0.401,0.118,22.099,-22.885,47.847,151.0,140.0
240667,-1.540,0.373,-0.211,-17.137,-27.130,41.947,149.0,147.0
240728,-1.581,0.345,-0.220,-99.038,-10.076,68.168,146.0,154.0
240788,-1.176,0.135,-0.068,-136.481,0.084,82.672,141.0,160.0
240851,-0.646,-0.023,-0.000,-88.282,-7.023,64.122,139.0,169.0
240906,-0.495,0.054,-0.025,-13.802,-9.115,26.069,135.0,57.0
240959,-0.539,0.106,-0.151,11.450,-0.458,1.656,135.0,58.0
241013,-0.694,0.226,-0.022,-31.603,-4.740,-10.214,135.0,57.0
241067,-0.886,0.073,0.030,-33.771,-11.160,-2.878,131.0,51.0
241120,-0.906,0.064,0.119,32.626,-14.092,-2.191,131.0,50.0
241173,-0.839,0.286,0.128,87.870,-11.718,-19.336,132.0,53.0
241230,-0.682,0.352,0.135,72.618,2.344,-51.771,196.0,64.0
241292,-1.185,0.413,0.198,38.603,35.878,-86.870,195.0,63.0
241349,-1.743,0.350,0.151,-2.305,93.061,-128.756,195.0,57.0
241406,-1.695,0.068,0.115,-129.748,75.489,-66.962,194.0,52.0
241464,-1.086,-0.147,0.347,-52.298,46.809,-18.069,0.0,50.0
241521,-0.619,0.041,0.291,56.031,28.313,11.466,0.0,63.0
241580,-0.433,0.182,0.248,66.481,5.710,14.779,0.0,67.0
241643,-0.404,0.230,0.229,41.328,4.366,20.466,0.0,70.0
241699,-0.635,0.299,0.172,-6.809,1.901,21.290,186.0,57.0
241756,-0.694,0.224,0.165,-35.008,-9.802,31.763,0.0,58.0
241815,-1.089,0.289,0.112,-8.107,-14.450,36.916,0.0,62.0
241872,-2.000,0.265,-0.104,15.863,-32.168,31.649,0.0,57.0
241929,-1.942,0.193,-0.210,-31.023,-41.534,90.901,0.0,57.0
241986,-1.380,0.177,-0.073,-31.275,-54.397,102.282,0.0,62.0
242043,-0.684,0.168,-0.008,-1.664,-45.786,70.863,0.0,74.0
242100,-0.390,0.137,0.016,13.878,-28.901,25.275,0.0,57.0
242158,-0.381,0.161,-0.040,23.626,-20.947,-10.672,0.0,73.0
242215,-0.542,0.120,-0.018,14.763,-15.695,-20.160,0.0,69.0
242275,-0.638,0.098,0.073,58.214,-5.702,-41.092,0.0,60.0
242332,-0.771,0.312,0.083,87.061,17.397,-83.863,0.0,71.0
242391,-1.264,0.342,0.108,19.611,42.092,-109.756,0.0,71.0
242449,-1.833,0.362,0.154,31.908,83.802,-155.122,0.0,87.0
242506,-1.575,0.326,0.099,-95.031,64.382,-122.756,0.0,78.0
242564,-0.921,-0.228,0.357,-68.557,22.947,-40.496,0.0,60.0
242610,-0.559,0.131,0.217,48.962,-6.733,21.099,16.0,57.0
242667,-0.484,0.304,0.142,21.748,-22.290,30.374,0.0,62.0
242724,-0.498,0.290,0.179,-0.733,-14.351,29.496,0.0,67.0
242784,-0.745,0.327,0.115,-15.221,-7.412,11.321,0.0,57.0
242840,-1.359,0.307,-0.013,-29.641,-11.450,16.267,0.0,55.0
242896,-2.000,0.146,-0.251,-46.779,-37.664,83.886,0.0,54.0
242954,-2.000,-0.185,-0.243,-5.527,-73.824,151.489,0.0,55.0
243011,-0.972,0.153,-0.149,59.298,-49.595,132.649,0.0,64.0
243068,-0.338,0.078,-0.070,-23.527,-35.618,52.328,0.0,66.0
243126,-0.210,-0.158,0.035,7.580,-22.977,13.786,0.0,63.0
243183,-0.485,0.142,-0.099,34.550,-24.756,0.931,0.0,68.0
243240,-0.570,0.149,-0.083,25.779,-23.214,-19.458,0.0,73.0
243301,-0.595,0.303,-0.044,37.412,2.718,-40.763,0.0,63.0
243358,-0.932,0.436,0.054,-7.229,35.832,-87.313,0.0,61.0
243416,-1.695,0.393,0.209,-8.962,71.443,-129.099,0.0,76.0
243517,-1.769,0.180,0.250,-64.901,54.298,-99.985,0.0,62.0
243563,-1.089,0.017,0.303,12.817,25.832,-20.702,16.0,57.0
243619,-0.612,0.206,0.256,28.534,2.718,20.015,0.0,59.0
243677,-0.324,0.308,0.180,-11.687,-9.389,45.473,0.0,69.0
243734,-0.431,0.384,0.130,-127.618,-8.443,20.557,0.0,57.0
243791,-0.543,-0.068,0.332,-52.290,-2.237,22.359,0.0,57.0
243851,-0.846,0.428,0.070,7.389,-2.443,3.122,0.0,50.0
243907,-2.000,0.188,-0.141,-44.084,-29.000,2.519,0.0,57.0
243963,-1.922,-0.165,-0.134,31.542,-60.260,127.237,0.0,50.0
244022,-1.546,-0.005,-0.201,146.328,-73.305,136.382,0.0,68.0
244080,-0.753,0.240,-0.170,115.351,-54.687,68.702,0.0,76.0
244139,-0.418,0.197,-0.079,56.153,-30.779,25.542,0.0,88.0
244197,-0.361,0.183,-0.063,-3.534,-16.359,4.160,0.0,78.0
244255,-0.563,0.109,-0.031,27.832,-18.397,8.885,0.0,78.0
244317,-0.673,0.277,-0.081,42.519,-24.664,-6.260,0.0,85.0
244375,-0.843,0.367,-0.070,72.061,-15.901,-36.763,0.0,85.0
244433,-0.916,0.467,0.078,45.099,5.000,-73.214,0.0,82.0
244492,-1.670,0.595,0.136,19.641,16.420,-101.275,0.0,80.0
244550,-1.548,0.464,0.241,-13.771,27.954,-79.321,0.0,80.0
244609,-1.072,0.201,0.276,-10.305,18.084,-57.511,0.0,81.0
244667,-0.655,0.238,0.172,44.824,2.282,-38.878,0.0,82.0
244725,-0.555,0.323,0.098,12.908,-2.412,-24.664,0.0,83.0
244785,-0.521,0.387,0.079,61.687,-10.282,-10.374,0.0,85.0
244846,-0.801,0.439,-0.029,26.977,-10.130,-14.374,0.0,93.0
244905,-1.257,0.435,-0.098,-34.344,19.847,21.595,0.0,84.0
244964,-1.687,0.165,-0.175,-107.061,34.527,70.565,0.0,85.0
245022,-1.792,0.054,-0.227,-120.000,20.534,108.557,0.0,84.0
245082,-1.141,0.012,-0.065,15.298,0.366,103.878,0.0,85.0
245140,-0.581,0.433,-0.146,-63.794,-12.092,63.901,0.0,80.0
245198,-0.404,0.189,-0.019,-147.740,-13.206,24.000,0.0,82.0
245257,-0.365,0.007,0.082,-87.191,-17.099,11.702,0.0,80.0
245315,-0.529,0.068,0.073,36.145,-18.076,-5.405,0.0,75.0
245377,-0.743,0.343,0.010,82.069,-9.038,-39.672,0.0,81.0
245435,-1.515,0.518,-0.027,0.183,19.214,-98.656,0.0,79.0
245493,-1.741,0.386,0.112,-96.603,81.870,-153.092,0.0,75.0
245551,-1.565,0.071,0.107,-189.702,66.489,-112.176,0.0,61.0
245598,-0.911,-0.121,0.350,-55.221,45.229,-83.351,17.0,57.0
245654,-0.631,-0.035,0.322,64.252,34.008,-47.275,0.0,59.0
245711,-0.360,0.307,0.167,64.206,6.206,-6.267,0.0,57.0
245769,-0.226,0.318,0.210,-11.023,-6.885,18.802,0.0,57.0
245819,-0.574,0.424,0.133,-55.290,-2.672,17.176,16.0,55.0
245875,-1.201,0.313,0.020,-77.847,-14.947,10.664,0.0,57.0
245933,-2.000,-0.047,-0.286,-53.260,-55.527,80.527,0.0,52.0
245990,-2.000,-0.134,-0.247,-8.611,-100.412,199.954,0.0,54.0
246047,-1.328,0.228,-0.104,69.931,-97.702,198.542,0.0,57.0
246105,-0.603,0.319,-0.085,43.038,-67.733,146.924,0.0,65.0
246164,-0.204,0.224,-0.018,-19.969,-41.397,91.664,0.0,81.0
246221,-0.233,0.157,0.006,-34.366,-16.519,27.840,0.0,58.0
246280,-0.322,0.124,0.062,-16.992,-2.160,-30.733,0.0,86.0
246340,-0.489,0.171,0.138,2.595,10.725,-94.229,0.0,58.0
