Timestamp(ms),AccelX(g),AccelY(g),AccelZ(g),GyroX(deg/s),GyroY(deg/s),GyroZ(deg/s),DistanceLeft(cm),DistanceRight(cm)
105000,-0.679,0.301,0.207,-55.031,-4.511,15.168,0.0,59.0
105057,-1.019,0.156,0.131,-28.542,-31.534,29.832,0.0,53.0
105113,-1.816,0.111,-0.112,-6.588,-52.397,101.412,0.0,57.0
105170,-2.000,0.245,-0.389,-48.351,-64.359,179.313,0.0,57.0
105228,-1.787,0.073,-0.217,-48.695,-87.252,198.282,0.0,70.0
105284,-0.830,0.196,-0.002,9.573,-74.901,157.794,0.0,63.0
105341,-0.337,0.205,-0.043,-18.237,-45.802,127.008,0.0,68.0
105400,-0.222,0.094,-0.046,-53.267,-39.328,64.771,0.0,69.0
105456,-0.359,0.011,0.012,-19.466,-40.443,17.466,0.0,63.0
105518,-0.400,0.037,0.072,38.267,-39.282,-29.924,0.0,83.0
105576,-0.528,0.270,0.137,74.435,-7.611,-80.206,0.0,81.0
105633,-1.215,0.670,0.204,53.969,32.359,-155.061,0.0,76.0
105692,-1.711,0.687,0.409,54.275,93.366,-250.137,0.0,80.0
105749,-1.733,0.477,0.122,-41.183,110.321,-209.939,0.0,78.0
105806,-1.135,0.114,0.232,-75.832,65.886,-154.053,0.0,58.0
105863,-0.613,0.052,0.301,33.336,44.672,-63.725,0.0,57.0
105910,-0.343,0.368,0.147,30.771,22.435,-16.153,16.0,57.0
105969,-0.346,0.327,0.207,-14.557,9.069,-2.031,0.0,62.0
106015,-0.675,0.380,0.189,-11.656,11.214,-9.466,17.0,57.0
106061,-1.165,0.198,0.137,-17.099,-11.427,10.679,16.0,57.0
106119,-2.000,0.064,0.028,9.672,-35.443,80.916,0.0,60.0
106175,-2.000,0.031,-0.268,-33.099,-74.000,215.496,0.0,57.0
106232,-1.774,0.254,-0.103,-37.145,-91.298,238.473,0.0,63.0
106291,-0.937,0.205,-0.094,5.359,-78.061,168.168,0.0,77.0
106349,-0.373,0.121,-0.030,-55.015,-57.267,130.588,0.0,91.0
106407,-0.267,-0.095,0.002,-52.931,-36.099,73.405,0.0,84.0
106468,-0.324,-0.011,0.047,-0.214,-23.817,19.359,0.0,67.0
106526,-0.446,0.186,0.023,41.794,-3.580,-48.557,0.0,82.0
106585,-0.826,0.384,0.179,47.221,26.443,-118.565,0.0,81.0
106643,-1.661,0.438,0.370,41.489,57.992,-191.130,0.0,75.0
106701,-1.865,0.368,0.200,87.397,92.122,-250.137,0.0,83.0
106758,-1.445,0.514,0.086,-69.397,74.038,-220.244,0.0,57.0
106815,-0.879,0.050,0.200,-56.794,55.382,-123.611,0.0,57.0
106872,-0.543,0.159,0.205,-19.206,27.863,-28.336,0.0,59.0
106929,-0.442,0.325,0.187,-28.779,13.427,19.275,0.0,57.0
106989,-0.688,0.296,0.249,-41.634,1.221,17.061,0.0,61.0
107035,-0.950,0.187,0.204,-11.183,-18.672,26.534,17.0,57.0
107092,-1.347,0.157,0.159,6.450,-34.855,77.893,0.0,59.0
107149,-2.000,0.069,-0.195,11.611,-67.611,152.351,0.0,52.0
107206,-1.961,0.167,-0.238,-66.328,-82.687,241.107,0.0,69.0
107264,-1.243,0.220,-0.129,-22.443,-87.275,182.252,0.0,57.0
107322,-0.436,0.080,0.030,-8.977,-59.985,127.557,0.0,80.0
107379,-0.205,0.093,-0.023,-15.168,-20.718,64.412,0.0,65.0
107441,-0.315,0.052,-0.057,-35.489,-1.382,13.641,0.0,71.0
107498,-0.456,0.043,-0.002,-13.328,0.962,-27.939,0.0,72.0
107556,-0.565,0.116,0.112,48.504,2.298,-77.710,0.0,76.0
107615,-1.241,0.432,0.153,73.595,26.282,-141.588,0.0,79.0
107673,-2.000,0.612,0.208,71.550,70.183,-225.786,0.0,79.0
107729,-1.678,0.385,0.036,-46.160,101.389,-173.527,0.0,57.0
107787,-1.086,0.184,0.204,-114.802,68.168,-127.611,0.0,52.0
107887,-0.547,0.198,0.219,61.168,31.901,-28.244,0.0,57.0
107943,-0.411,0.352,0.202,0.481,8.519,4.130,0.0,52.0
107994,-0.573,0.267,0.234,-31.160,-0.168,23.756,17.0,60.0
108040,-1.219,0.222,0.170,-21.489,-19.267,34.099,16.0,50.0
108096,-2.000,0.126,-0.016,30.137,-53.183,58.595,0.0,52.0
108153,-2.000,-0.115,-0.289,1.931,-95.389,191.870,0.0,50.0
108210,-1.661,0.258,-0.106,-12.748,-100.153,238.855,0.0,57.0
108270,-0.681,0.263,-0.027,-0.305,-76.962,164.649,0.0,98.0
108328,-0.224,0.200,0.007,-38.221,-55.244,125.840,0.0,85.0
108387,-0.206,0.112,0.015,-44.252,-42.794,76.145,0.0,87.0
108445,-0.314,0.095,0.020,-14.527,-34.786,26.511,0.0,65.0
108505,-0.471,0.160,0.063,19.733,-17.618,-32.603,0.0,51.0
108563,-0.493,0.206,0.185,54.290,3.580,-96.275,0.0,66.0
108620,-1.016,0.503,0.310,46.931,28.626,-162.244,0.0,62.0
108680,-1.610,0.537,0.496,61.756,59.305,-242.649,0.0,95.0
108736,-1.866,0.157,0.264,82.992,76.580,-244.901,0.0,54.0
108793,-1.302,0.169,0.166,72.947,24.573,-167.992,0.0,58.0
108852,-0.775,0.269,0.092,107.779,22.893,-75.198,0.0,72.0
108909,-0.470,0.664,-0.076,-49.427,26.351,-31.275,0.0,70.0
108969,-0.368,0.147,0.227,-102.809,25.908,1.244,0.0,58.0
109027,-0.674,0.286,0.153,-49.328,25.733,20.519,0.0,57.0
109084,-1.791,0.234,-0.071,-79.252,-8.382,66.519,0.0,51.0
109140,-2.000,-0.183,-0.237,-115.412,-73.931,160.878,0.0,50.0
109199,-1.546,-0.190,0.026,15.595,-113.817,227.969,0.0,57.0
109256,-0.777,0.196,-0.054,121.221,-93.176,185.344,0.0,66.0
109315,-0.508,0.397,-0.101,68.092,-86.298,121.420,0.0,74.0
109373,-0.349,0.192,-0.002,-0.573,-84.374,67.931,0.0,74.0
109431,-0.333,0.086,0.064,28.282,-80.427,21.962,0.0,76.0
109493,-0.500,0.211,0.086,66.489,-67.908,-33.046,0.0,74.0
109551,-1.741,0.620,0.224,66.962,-85.718,-66.855,0.0,73.0
109609,-1.725,0.598,0.473,208.718,-106.053,-89.206,0.0,76.0
109668,-1.244,0.812,0.137,159.397,-92.489,-48.702,0.0,74.0
109726,-0.930,0.594,0.007,140.504,-94.206,-116.687,0.0,75.0
109783,-0.750,0.506,-0.062,190.496,-83.275,-151.275,155.0,85.0
109833,-0.860,0.592,-0.228,168.756,-68.443,-166.779,61.0,80.0
109884,-0.944,0.492,-0.102,114.542,-39.405,-155.191,69.0,70.0
109936,-0.998,0.277,-0.097,165.733,-15.351,-115.237,66.0,55.0
109986,-0.973,0.459,-0.127,187.496,-5.947,-71.916,73.0,48.0
110035,-0.953,0.579,-0.143,146.534,-2.198,-56.756,79.0,41.0
110086,-0.856,0.429,0.018,137.267,10.901,-48.557,84.0,37.0
110135,-0.736,0.521,0.067,137.260,28.084,-39.748,89.0,33.0
110185,-0.673,0.553,0.198,104.824,23.282,-43.527,92.0,31.0
110235,-0.588,0.482,0.322,91.267,26.901,-26.672,95.0,42.0
110285,-0.851,0.600,0.338,62.084,25.435,-8.038,104.0,41.0
110337,-1.431,0.687,0.265,34.145,7.740,-3.183,105.0,40.0
110391,-1.564,0.397,0.271,-11.084,-26.664,71.580,104.0,44.0
110450,-1.371,0.283,0.277,19.053,-51.634,128.626,103.0,188.0
110511,-0.886,0.342,0.204,3.580,-66.115,156.511,102.0,0.0
110562,-0.697,0.297,0.153,-54.092,-71.573,142.084,112.0,45.0
110614,-0.794,0.238,0.190,-21.450,-68.527,96.824,100.0,52.0
110714,-1.232,0.402,0.041,52.725,-27.160,-3.840,0.0,57.0
110767,-1.361,0.367,-0.035,27.344,-7.763,-35.908,106.0,50.0
110822,-1.309,0.235,-0.061,8.710,-4.443,-69.336,170.0,61.0
110880,-1.019,0.170,-0.016,78.977,2.611,-107.092,165.0,49.0
110935,-1.125,0.265,-0.037,114.733,11.603,-123.130,140.0,57.0
110990,-1.144,0.385,-0.057,134.084,3.084,-146.756,145.0,71.0
111045,-0.886,0.431,-0.036,127.481,18.244,-151.992,149.0,65.0
111099,-0.646,0.414,-0.029,80.679,45.206,-143.626,144.0,63.0
111161,-0.626,0.403,0.016,-16.198,52.779,-115.725,113.0,0.0
111226,-0.789,0.227,0.204,-53.573,53.366,-78.626,0.0,0.0
111292,-0.986,0.140,0.314,-1.305,34.183,-35.122,0.0,0.0
111352,-1.514,0.254,0.109,38.015,8.588,8.420,109.0,0.0
111415,-1.556,0.251,-0.176,-2.450,-31.023,94.817,91.0,0.0
111475,-1.437,0.218,-0.202,-75.374,-49.740,191.832,100.0,0.0
111531,-1.332,0.214,-0.197,-76.855,-61.290,198.443,156.0,57.0
111588,-0.824,0.198,-0.094,-65.084,-62.771,183.099,0.0,57.0
111651,-0.533,0.172,-0.027,-61.603,-56.229,160.939,0.0,57.0
111709,-0.451,0.189,-0.011,-65.824,-44.756,135.679,0.0,60.0
111764,-0.667,0.230,-0.005,-52.344,-29.794,83.588,0.0,44.0
111820,-0.955,0.370,0.001,-11.382,5.710,-5.214,0.0,57.0
111882,-1.260,0.455,-0.069,0.031,52.611,-117.954,0.0,84.0
111938,-1.428,0.235,-0.094,-32.382,67.427,-175.626,0.0,57.0
111991,-1.173,0.070,0.072,21.191,87.740,-174.084,141.0,58.0
112046,-1.344,0.111,0.023,58.313,76.046,-161.656,150.0,60.0
112107,-1.167,0.138,0.090,65.573,48.931,-128.748,144.0,0.0
112169,-0.902,0.150,0.119,112.405,41.847,-107.450,164.0,0.0
112230,-0.604,0.315,0.063,92.053,29.626,-62.840,112.0,0.0
112292,-0.636,0.271,0.182,21.878,14.702,-28.290,172.0,0.0
112355,-0.904,0.278,0.282,19.672,15.939,-28.588,145.0,0.0
112418,-1.145,0.205,0.200,38.443,7.450,-9.092,140.0,0.0
112479,-1.390,0.313,0.089,20.931,2.817,50.412,121.0,0.0
112538,-1.514,0.325,-0.104,-50.321,-14.122,104.229,105.0,0.0
112598,-1.619,0.089,-0.137,-99.855,-50.084,161.527,100.0,0.0
112660,-1.142,0.176,-0.058,-56.992,-51.710,184.183,152.0,0.0
112724,-0.648,0.279,-0.076,-68.389,-44.328,162.863,193.0,0.0
112781,-0.464,0.195,-0.020,-111.954,-38.672,145.420,0.0,57.0
112838,-0.635,0.203,0.015,-100.580,-29.046,112.969,0.0,52.0
112898,-0.975,0.260,0.004,-59.427,-9.412,41.840,0.0,57.0
112954,-1.182,0.383,0.000,-6.969,27.351,-56.954,0.0,57.0
113011,-1.481,0.314,-0.123,2.870,58.038,-123.718,0.0,62.0
113063,-1.129,0.190,0.002,19.321,67.046,-143.733,124.0,57.0
113116,-1.236,0.167,0.027,31.618,70.870,-139.130,123.0,45.0
113168,-1.241,0.119,0.079,48.076,59.382,-133.267,142.0,44.0
113229,-0.914,0.097,0.153,93.229,54.382,-114.405,141.0,0.0
113292,-0.613,0.181,0.114,132.000,42.725,-92.076,155.0,0.0
113356,-0.508,0.335,0.110,85.214,23.611,-68.618,182.0,0.0
113423,-0.916,0.309,0.209,39.099,23.855,-58.489,179.0,0.0
113482,-1.225,0.317,0.229,37.878,41.374,-65.336,100.0,0.0
113541,-1.404,0.375,0.135,-7.679,37.939,-8.466,97.0,0.0
113600,-1.395,0.330,0.048,-102.191,-3.756,45.435,93.0,0.0
113702,-1.676,-0.114,-0.264,-100.382,-103.038,231.092,98.0,0.0
113758,-1.052,0.100,-0.121,-48.366,-101.443,250.130,165.0,57.0
113815,-0.515,0.230,-0.104,-28.855,-78.931,224.733,0.0,57.0
113873,-0.360,0.239,-0.081,-66.389,-59.542,177.794,0.0,88.0
113933,-0.552,0.261,-0.004,-70.924,-35.519,93.679,0.0,51.0
113989,-1.077,0.422,-0.019,-14.840,-2.313,-34.534,0.0,50.0
114040,-1.470,0.329,-0.067,-0.702,39.786,-118.015,105.0,55.0
114093,-1.231,0.159,0.052,6.702,55.435,-149.702,104.0,57.0
114149,-1.194,0.085,0.131,48.870,67.550,-154.817,0.0,57.0
114210,-1.263,0.139,0.095,104.489,63.008,-175.374,143.0,0.0
114273,-1.072,0.240,0.051,125.534,54.618,-182.588,142.0,0.0
114333,-0.805,0.280,0.028,102.649,51.550,-168.412,116.0,0.0
114393,-0.698,0.311,0.067,26.809,42.473,-126.099,105.0,0.0
114455,-0.947,0.195,0.220,7.160,36.534,-71.420,98.0,0.0
114514,-1.072,0.180,0.260,41.870,22.954,-35.840,102.0,0.0
114574,-1.202,0.318,0.121,52.542,14.176,17.802,94.0,0.0
114632,-1.508,0.394,-0.002,-24.534,3.466,62.466,92.0,0.0
114692,-1.590,0.112,-0.123,-104.405,-39.504,152.511,91.0,0.0
114752,-1.646,0.055,-0.115,-112.244,-67.336,222.443,125.0,0.0
114807,-1.125,0.142,-0.088,-75.351,-75.153,223.985,165.0,57.0
114873,-0.616,0.206,-0.078,-83.183,-66.618,201.405,199.0,0.0
114933,-0.427,0.166,-0.002,-88.183,-44.710,151.840,192.0,71.0
114992,-0.695,0.168,-0.062,-63.298,-20.992,85.473,0.0,72.0
115047,-1.127,0.319,-0.128,-46.069,6.870,-3.176,155.0,69.0
115098,-1.396,0.320,-0.051,-8.740,31.221,-95.824,102.0,59.0
115149,-1.317,0.167,0.018,34.817,52.634,-156.992,103.0,50.0
115202,-1.193,0.086,0.062,78.763,69.244,-170.511,104.0,76.0
115257,-1.269,0.222,0.033,94.977,66.237,-175.366,136.0,78.0
115311,-1.154,0.208,0.065,95.557,56.466,-184.947,134.0,75.0
115375,-0.936,0.125,0.114,125.733,60.542,-173.847,173.0,0.0
115438,-0.638,0.345,0.033,80.298,46.802,-127.557,106.0,0.0
115494,-0.795,0.229,0.192,15.053,27.519,-77.611,51.0,0.0
115555,-1.135,0.207,0.221,44.550,21.420,-45.229,108.0,0.0
115614,-1.105,0.181,0.164,65.221,11.985,14.641,100.0,0.0
115674,-1.439,0.390,0.050,5.992,8.527,65.886,101.0,0.0
115733,-1.460,0.207,-0.024,-77.618,-19.420,138.832,94.0,0.0
115792,-1.612,0.094,-0.091,-108.771,-46.969,196.954,100.0,0.0
115855,-1.074,0.140,-0.028,-91.267,-47.458,211.000,144.0,0.0
115920,-0.567,0.237,-0.047,-98.779,-36.137,188.794,144.0,0.0
115976,-0.523,0.194,-0.042,-125.817,-37.221,146.618,145.0,73.0
116029,-0.840,0.177,-0.060,-98.656,-34.382,100.863,139.0,58.0
116082,-1.044,0.206,-0.029,-37.725,-20.305,39.756,130.0,53.0
116136,-1.340,0.417,-0.064,19.031,11.023,-48.069,140.0,57.0
116189,-1.403,0.255,-0.071,16.397,36.977,-111.718,126.0,57.0
116242,-1.206,0.113,0.056,43.237,37.687,-135.802,126.0,66.0
116295,-1.294,0.127,0.109,92.374,32.466,-140.748,125.0,62.0
116353,-1.073,0.216,0.108,126.084,43.687,-164.916,131.0,62.0
116414,-0.798,0.330,0.065,101.191,57.573,-175.374,135.0,0.0
116480,-0.606,0.221,0.098,41.687,45.099,-160.977,0.0,0.0
116545,-0.697,0.222,0.148,31.489,37.244,-110.916,0.0,0.0
116647,-1.284,0.115,0.207,41.893,18.053,-37.977,98.0,0.0
116713,-1.286,0.254,0.099,59.267,12.237,53.366,0.0,0.0
116779,-1.385,0.387,-0.038,-45.130,0.847,107.366,0.0,0.0
116844,-1.585,0.110,-0.105,-117.809,-44.046,169.435,0.0,0.0
116910,-1.198,0.089,-0.004,-56.702,-58.809,210.565,0.0,0.0
116970,-0.848,0.276,-0.091,-52.611,-50.481,191.046,0.0,68.0
117028,-0.559,0.229,-0.055,-96.527,-46.969,174.168,0.0,64.0
117082,-0.552,0.201,0.040,-90.649,-32.939,141.504,119.0,65.0
117140,-0.669,0.240,0.078,-53.351,-15.489,83.550,0.0,71.0
117198,-0.679,0.291,0.086,-28.244,7.221,9.321,0.0,74.0
117252,-0.860,0.368,0.135,-0.168,33.298,-70.496,116.0,75.0
117305,-1.408,0.373,0.087,30.626,51.802,-151.664,116.0,77.0
117362,-1.469,0.348,0.063,46.840,78.649,-208.573,199.0,57.0
117420,-1.450,0.155,-0.064,18.771,85.244,-182.656,199.0,56.0
117480,-1.348,-0.042,0.061,59.252,47.893,-104.000,0.0,48.0
117538,-0.980,0.205,-0.010,139.176,35.038,-53.656,194.0,87.0
117598,-0.739,0.296,-0.002,143.061,22.206,-50.214,194.0,95.0
117658,-0.508,0.275,0.014,118.237,12.374,-31.321,195.0,102.0
117718,-0.483,0.236,0.072,108.237,6.244,-5.573,194.0,105.0
117783,-0.664,0.308,0.079,97.580,5.336,-2.321,193.0,0.0
117848,-0.930,0.301,0.137,94.183,21.397,-10.252,190.0,0.0
117913,-1.045,0.340,0.140,73.267,41.435,-1.595,186.0,0.0
117981,-1.371,0.324,0.181,35.458,47.855,15.992,180.0,0.0
118044,-1.446,-0.064,0.113,-31.908,-25.420,79.924,172.0,0.0
118108,-1.586,-0.134,0.229,66.870,-84.397,200.160,164.0,0.0
118171,-1.111,0.253,0.112,92.863,-103.061,183.389,158.0,0.0
118235,-0.812,0.315,0.159,-10.763,-100.168,150.863,154.0,0.0
118291,-0.680,0.237,0.209,-25.534,-78.038,91.840,152.0,94.0
118351,-0.613,0.220,0.197,4.458,-67.580,44.802,0.0,95.0
118411,-0.567,0.258,0.197,23.832,-55.947,6.473,0.0,95.0
118470,-0.637,0.330,0.185,45.351,-37.786,-46.000,0.0,95.0
118534,-0.948,0.360,0.104,66.305,-22.954,-111.435,0.0,95.0
118593,-1.268,0.234,0.022,135.282,-14.763,-153.023,0.0,97.0
118658,-1.202,0.157,-0.131,165.840,-6.084,-134.107,0.0,179.0
118720,-1.436,0.397,-0.192,143.053,-0.115,-120.305,169.0,164.0
118781,-1.122,0.256,-0.080,139.267,8.046,-111.969,169.0,159.0
118843,-0.761,0.275,-0.044,156.282,11.534,-102.450,171.0,156.0
118905,-0.669,0.300,-0.042,143.435,6.687,-86.718,173.0,154.0
118967,-0.811,0.406,-0.059,119.954,19.420,-78.466,174.0,153.0
119032,-0.979,0.374,0.005,96.931,36.176,-70.420,174.0,155.0
119094,-1.180,0.409,0.021,71.679,53.527,-45.267,177.0,159.0
119156,-1.327,0.310,0.095,33.145,55.405,10.229,172.0,166.0
119219,-1.199,0.161,0.161,10.153,24.099,93.985,164.0,175.0
119286,-1.532,0.098,0.168,-20.374,-30.443,189.878,147.0,185.0
119348,-1.494,0.145,0.127,-8.412,-64.298,217.710,137.0,195.0
119408,-1.054,0.300,0.071,-33.099,-69.206,191.779,130.0,0.0
119474,-0.806,0.295,0.107,-72.122,-57.450,132.084,0.0,0.0
119535,-0.666,0.195,0.120,-65.939,-45.290,84.031,0.0,99.0
119595,-0.609,0.231,0.158,-33.191,-38.153,42.595,0.0,101.0
119651,-0.678,0.353,0.163,3.947,-23.534,-4.481,0.0,58.0
119745,-1.175,0.440,0.152,42.099,1.809,-101.939,107.0,51.0
119796,-1.521,0.294,0.034,110.084,8.198,-153.573,99.0,51.0
119847,-1.478,0.247,-0.223,130.886,4.641,-162.366,108.0,65.0
119907,-1.455,0.201,-0.188,95.901,-7.893,-110.450,106.0,0.0
119967,-1.100,0.168,-0.099,108.481,-4.359,-80.626,113.0,0.0
120028,-0.847,0.290,-0.083,126.656,5.267,-86.122,133.0,0.0
120092,-0.693,0.313,-0.028,116.847,14.427,-95.153,135.0,0.0
120154,-0.612,0.334,0.034,60.527,22.824,-80.740,144.0,0.0
120214,-0.697,0.251,0.183,14.802,25.779,-50.565,119.0,0.0
120274,-0.951,0.267,0.254,2.901,26.183,-28.115,124.0,0.0
120334,-1.137,0.229,0.249,-2.382,15.038,-9.595,103.0,0.0
120393,-1.551,0.340,0.146,14.595,10.809,9.817,98.0,0.0
120453,-1.467,0.326,-0.091,-69.618,-24.656,56.069,106.0,0.0
120512,-1.425,0.033,-0.029,-89.374,-59.702,122.886,101.0,0.0
120569,-1.036,0.208,-0.074,-34.802,-65.595,157.969,148.0,71.0
120624,-0.712,0.269,-0.087,-63.794,-64.405,154.198,137.0,80.0
120678,-0.569,0.229,-0.059,-87.931,-60.107,137.290,149.0,57.0
120732,-0.660,0.193,-0.025,-78.275,-50.137,114.794,158.0,59.0
120785,-0.866,0.241,-0.030,-52.053,-30.748,78.588,119.0,74.0
120839,-1.211,0.350,-0.062,-27.969,-3.008,12.771,127.0,64.0
120892,-1.385,0.270,-0.109,-19.328,24.305,-45.305,117.0,83.0
120943,-1.260,0.146,-0.006,24.191,40.061,-85.382,108.0,58.0
120997,-1.017,0.120,0.051,71.191,59.786,-122.947,150.0,60.0
121054,-1.099,0.226,0.056,93.382,64.214,-143.992,143.0,57.0
121115,-1.013,0.191,0.102,95.969,59.107,-158.366,134.0,0.0
121177,-0.862,0.198,0.115,105.351,53.137,-159.443,134.0,0.0
121237,-0.753,0.237,0.063,83.206,39.031,-123.328,114.0,0.0
121297,-0.808,0.198,0.165,58.687,24.160,-66.573,116.0,0.0
121358,-1.043,0.237,0.173,54.328,10.817,-28.656,116.0,0.0
121417,-1.054,0.271,0.201,58.840,13.183,-10.939,104.0,0.0
121476,-1.398,0.346,0.113,15.458,25.366,18.885,93.0,0.0
121538,-1.448,0.269,-0.031,-57.565,-4.046,72.649,96.0,0.0
121597,-1.321,0.063,-0.057,-103.389,-43.237,153.229,104.0,0.0
121660,-1.340,0.114,-0.134,-71.771,-55.611,199.092,150.0,0.0
121714,-0.914,0.201,-0.125,-60.756,-63.069,202.626,149.0,57.0
121772,-0.530,0.218,-0.052,-75.931,-51.649,178.328,0.0,62.0
121826,-0.420,0.231,0.003,-78.740,-29.519,133.237,153.0,50.0
121882,-0.672,0.300,-0.018,-60.916,-6.458,62.313,0.0,51.0
121939,-1.011,0.326,-0.035,-30.794,22.038,-24.748,0.0,66.0
121994,-1.365,0.360,-0.110,-14.359,49.412,-93.542,143.0,57.0
122050,-1.412,0.181,-0.017,6.389,51.977,-136.542,142.0,57.0
122103,-1.174,0.175,0.014,48.809,62.183,-150.000,136.0,50.0
122157,-1.201,0.159,0.057,59.947,52.519,-138.099,137.0,57.0
122218,-1.186,0.156,0.127,80.130,44.137,-126.092,139.0,0.0
122278,-0.953,0.244,0.094,91.000,43.305,-111.015,120.0,0.0
122339,-0.595,0.255,0.089,55.374,29.382,-74.214,116.0,0.0
122403,-0.613,0.210,0.155,16.076,14.069,-32.534,180.0,0.0
122464,-0.905,0.270,0.216,26.695,11.137,-28.092,118.0,0.0
122526,-0.989,0.313,0.165,27.550,15.336,-30.290,103.0,0.0
122586,-1.375,0.251,0.076,-0.817,12.588,9.298,98.0,0.0
122688,-1.430,0.121,-0.181,-63.275,-32.168,136.886,97.0,0.0
122748,-1.247,0.230,-0.180,-88.748,-31.847,186.000,115.0,0.0
122813,-0.875,0.244,-0.107,-91.435,-39.550,171.504,174.0,0.0
122868,-0.643,0.215,-0.062,-95.649,-41.595,142.939,167.0,57.0
122921,-0.502,0.194,-0.024,-91.183,-36.870,120.206,133.0,59.0
122977,-0.702,0.264,-0.016,-71.679,-20.771,81.412,155.0,79.0
123031,-1.089,0.298,-0.067,-47.122,0.198,24.183,150.0,57.0
123086,-1.145,0.313,-0.066,-33.725,23.557,-40.473,127.0,43.0
123141,-1.414,0.305,-0.086,-22.618,37.427,-89.351,146.0,59.0
123202,-1.221,0.161,0.030,36.053,48.466,-129.145,125.0,0.0
123254,-1.100,0.141,0.074,88.595,61.107,-132.313,126.0,50.0
123317,-1.248,0.163,0.046,93.427,49.473,-125.183,148.0,0.0
123379,-0.959,0.181,0.109,124.641,39.145,-107.886,152.0,0.0
123443,-0.637,0.328,0.026,100.977,32.153,-87.359,157.0,0.0
123504,-0.587,0.310,0.084,19.344,19.740,-58.137,142.0,0.0
123571,-0.987,0.233,0.170,3.099,13.611,-37.412,167.0,0.0
123630,-1.146,0.196,0.236,46.115,11.595,-30.000,101.0,0.0
123691,-1.133,0.344,0.150,34.679,18.802,-2.550,99.0,0.0
123750,-1.487,0.405,-0.002,-41.847,8.153,7.740,95.0,0.0
123810,-1.320,-0.039,-0.032,-72.435,-47.748,94.786,119.0,0.0
123871,-1.419,0.131,-0.148,-36.511,-48.481,183.771,113.0,0.0
123933,-1.079,0.335,-0.177,-73.481,-47.824,188.252,148.0,0.0
123996,-0.719,0.223,-0.079,-106.756,-44.267,150.672,137.0,0.0
124050,-0.428,0.108,0.009,-80.588,-38.649,127.527,138.0,67.0
124101,-0.665,0.178,-0.024,-45.237,-29.298,96.901,138.0,56.0
124154,-0.990,0.268,-0.065,-12.664,-13.878,35.397,131.0,57.0
124209,-1.256,0.382,-0.091,0.611,22.511,-39.771,125.0,79.0
124264,-1.371,0.288,-0.052,3.893,48.252,-129.924,171.0,59.0
124318,-1.125,0.116,0.086,49.160,63.321,-163.115,123.0,82.0
124371,-1.246,0.148,0.018,73.496,60.618,-160.573,128.0,54.0
124433,-1.104,0.184,0.051,83.336,39.076,-153.992,130.0,0.0
124495,-0.721,0.175,0.070,110.076,30.420,-130.817,143.0,0.0
124559,-0.536,0.309,0.011,88.023,28.473,-91.794,115.0,0.0
124620,-0.828,0.306,0.106,23.351,29.351,-53.893,122.0,0.0
124681,-1.227,0.262,0.210,-7.595,30.366,-32.412,116.0,0.0
124742,-1.137,0.129,0.288,-1.893,18.427,8.725,119.0,0.0
124803,-1.341,0.267,0.154,22.198,1.985,48.679,107.0,0.0
124862,-1.563,0.259,-0.125,5.687,-23.588,76.977,96.0,0.0
124925,-1.466,0.200,-0.214,-66.779,-32.046,163.389,167.0,0.0
124981,-1.072,0.268,-0.179,-126.191,-26.443,194.962,160.0,58.0
125039,-0.979,-0.806,0.188,-201.656,-48.908,125.183,153.0,63.0
125092,-0.569,0.023,0.042,-49.794,-45.573,147.809,125.0,67.0
125147,-0.505,0.251,-0.065,-72.046,-55.725,107.740,143.0,57.0
125199,-0.873,0.200,-0.009,-56.435,-44.344,60.573,122.0,46.0
125251,-1.186,0.245,-0.043,16.015,-12.573,-3.176,124.0,43.0
125304,-1.312,0.421,-0.083,41.771,29.305,-81.252,122.0,57.0
125358,-1.263,0.323,-0.012,22.725,56.885,-137.275,122.0,58.0
125411,-1.182,0.138,0.063,39.305,53.580,-165.015,135.0,59.0
125465,-1.228,0.153,0.105,79.008,47.351,-163.840,138.0,62.0
125522,-1.128,0.155,0.105,107.336,38.092,-140.557,142.0,57.0
125632,-0.602,0.309,0.091,17.191,37.260,-105.817,0.0,0.0
125693,-0.622,0.222,0.163,-3.252,31.008,-70.901,0.0,123.0
125759,-1.004,0.295,0.194,-6.588,30.695,-52.366,0.0,0.0
125825,-1.160,0.124,0.235,-11.748,18.092,-10.038,0.0,0.0
125886,-1.383,0.144,0.149,17.763,-9.137,64.779,0.0,133.0
125952,-1.631,0.153,-0.097,16.817,-42.328,116.504,0.0,0.0
126018,-1.195,0.175,-0.109,-14.954,-51.076,183.962,0.0,0.0
126078,-0.995,0.277,-0.139,-64.366,-45.053,171.870,0.0,65.0
126137,-0.545,0.196,0.002,-91.748,-36.565,148.168,0.0,60.0
126194,-0.304,0.146,0.061,-82.305,-19.580,117.504,0.0,58.0
126253,-0.365,0.181,0.048,-76.916,-5.153,81.061,0.0,61.0
126310,-0.725,0.265,0.080,-31.916,3.939,20.321,0.0,67.0
126363,-1.115,0.412,0.100,74.137,10.298,-36.473,120.0,57.0
126420,-1.308,0.723,-0.025,73.580,17.702,-73.542,0.0,58.0
126479,-1.505,0.729,0.026,30.740,35.863,-102.458,0.0,63.0
126535,-1.201,0.479,0.194,-29.931,33.817,-85.305,185.0,58.0
126596,-1.230,0.078,0.374,-9.076,0.298,-36.847,183.0,64.0
126654,-1.023,0.136,0.249,91.809,-25.099,2.725,183.0,81.0
126712,-0.607,0.288,0.129,94.702,-33.565,25.672,180.0,84.0
126769,-0.410,0.244,0.118,41.748,-43.305,36.061,180.0,68.0
126833,-0.251,0.128,0.239,43.710,-59.947,41.397,183.0,82.0
126892,-0.462,0.328,0.308,87.740,-52.573,20.366,0.0,102.0
126949,-0.597,0.436,0.319,129.656,-30.779,-8.992,0.0,73.0
127014,-0.799,0.728,0.203,108.069,9.344,-26.038,0.0,0.0
127079,-1.069,0.564,0.187,23.527,23.275,-45.939,0.0,0.0
127147,-1.150,0.435,0.119,32.351,22.740,-61.366,0.0,0.0
127204,-1.557,0.313,0.013,27.412,-25.817,-14.954,0.0,70.0
127264,-1.233,0.163,0.051,64.298,-40.504,48.969,0.0,120.0
127323,-0.923,0.304,0.061,54.649,-61.115,79.710,0.0,89.0
127378,-0.639,0.288,0.188,49.908,-83.489,66.672,0.0,45.0
127437,-0.622,0.217,0.158,51.595,-88.221,43.626,0.0,97.0
127496,-0.647,0.226,0.121,99.313,-85.725,19.366,0.0,91.0
127554,-0.887,0.340,0.002,113.267,-74.687,-13.786,0.0,89.0
127622,-0.913,0.380,-0.010,97.176,-62.832,-59.672,0.0,0.0
127680,-1.123,0.235,-0.089,111.076,-52.000,-96.023,0.0,86.0
127746,-1.510,0.338,-0.147,139.718,-39.450,-105.450,0.0,0.0
127810,-1.250,0.286,-0.162,157.198,-25.802,-97.458,190.0,0.0
127872,-0.699,0.323,-0.151,172.626,-20.710,-96.267,169.0,181.0
127933,-0.510,0.340,-0.149,171.504,-12.275,-88.863,154.0,180.0
127993,-0.542,0.403,-0.106,124.679,10.137,-77.824,137.0,179.0
128055,-0.951,0.444,-0.098,90.359,29.878,-90.176,138.0,193.0
128115,-1.301,0.387,-0.076,82.328,61.870,-96.947,148.0,185.0
128181,-1.390,0.315,-0.066,-24.282,47.168,-43.282,149.0,200.0
128242,-1.715,-0.203,0.218,-15.977,-11.687,126.542,137.0,195.0
128303,-1.430,0.154,0.099,55.595,-48.061,207.779,114.0,0.0
128362,-0.979,0.264,0.162,-5.786,-79.252,197.962,107.0,0.0
128422,-0.740,0.125,0.238,-45.916,-106.809,164.740,115.0,0.0
128482,-0.597,0.053,0.292,-3.305,-112.527,138.313,0.0,100.0
128540,-0.567,0.291,0.245,46.611,-93.198,107.389,0.0,97.0
128598,-0.989,0.631,0.144,43.038,-66.000,27.183,0.0,61.0
128702,-1.356,0.318,-0.027,92.115,-23.183,-147.000,0.0,75.0
128761,-1.286,0.207,-0.083,36.878,-8.641,-118.824,0.0,97.0
128824,-1.159,0.098,0.079,50.031,0.649,-158.092,168.0,0.0
128884,-0.968,0.248,0.033,120.550,20.718,-163.160,117.0,0.0
128946,-0.804,0.354,-0.026,81.840,34.153,-159.634,136.0,0.0
129007,-0.562,0.249,0.036,22.290,35.168,-129.313,138.0,0.0
129069,-0.767,0.214,0.149,2.695,32.336,-84.725,136.0,0.0
129133,-1.059,0.121,0.296,19.809,22.176,-46.702,186.0,0.0
129193,-1.006,0.230,0.317,52.641,20.947,-13.466,125.0,0.0
129256,-1.448,0.343,0.115,13.992,12.718,8.137,103.0,0.0
129317,-1.566,0.195,-0.094,-41.137,-11.473,77.153,128.0,0.0
129378,-1.533,0.029,-0.155,-117.550,-55.702,189.832,113.0,0.0
129439,-1.087,0.045,-0.014,-76.443,-73.664,227.435,148.0,0.0
129502,-0.555,0.186,0.004,-35.893,-60.595,201.786,0.0,142.0
129560,-0.360,0.238,0.014,-74.725,-38.992,158.519,0.0,94.0
129617,-0.656,0.237,0.022,-90.038,-31.496,90.962,0.0,57.0
129676,-1.042,0.259,0.156,-23.550,-15.931,16.977,0.0,82.0
129737,-1.366,0.452,0.067,27.802,1.901,-79.031,0.0,83.0
129797,-1.257,0.414,0.008,16.870,29.214,-120.260,0.0,96.0
129856,-1.039,0.222,0.047,16.305,59.855,-147.038,0.0,110.0
129921,-1.196,0.234,-0.020,20.290,61.458,-146.382,185.0,0.0
129977,-0.989,0.025,0.177,79.450,45.954,-139.618,132.0,108.0
130039,-0.671,0.115,0.129,166.595,53.061,-108.763,147.0,0.0
130103,-0.602,0.466,0.081,57.351,32.969,-86.947,176.0,0.0
130167,-0.957,0.232,0.366,-40.229,31.802,-71.046,178.0,0.0
130227,-1.249,0.166,0.420,22.748,27.237,-63.061,105.0,0.0
130290,-1.226,0.331,0.217,37.084,17.405,-20.328,108.0,0.0
130350,-1.337,0.339,-0.115,-58.824,-21.756,41.206,103.0,0.0
130409,-1.488,0.008,-0.190,-105.298,-59.061,137.542,103.0,0.0
130471,-1.174,0.088,-0.099,-55.344,-63.000,199.374,142.0,0.0
130534,-0.781,0.301,-0.101,-58.252,-48.679,183.664,150.0,0.0
130591,-0.471,0.088,-0.015,-120.794,-58.565,147.145,0.0,61.0
130648,-0.474,-0.064,0.125,-57.756,-48.763,108.908,164.0,82.0
130706,-1.018,0.259,-0.025,10.290,-25.397,46.267,0.0,67.0
130766,-1.519,0.499,-0.149,0.763,13.878,-62.725,0.0,60.0
130821,-1.446,0.179,-0.095,-25.817,43.809,-99.725,162.0,57.0
130876,-1.096,0.185,0.069,-2.763,63.664,-113.809,165.0,60.0
130928,-1.199,0.118,-0.058,32.458,80.580,-124.687,111.0,57.0
130989,-1.088,0.140,0.163,51.038,61.191,-126.779,117.0,0.0
131050,-0.791,0.026,0.156,119.672,62.733,-116.481,133.0,0.0
131115,-0.571,0.316,0.108,94.939,51.282,-83.191,174.0,0.0
131172,-0.808,0.261,0.286,1.053,33.641,-61.588,67.0,0.0
131237,-0.926,0.187,0.330,3.786,32.626,-49.084,0.0,0.0
131301,-1.253,0.214,0.214,35.557,11.519,-11.244,118.0,0.0
131360,-1.557,0.252,-0.100,7.916,-32.595,48.588,99.0,0.0
131421,-1.729,0.158,-0.268,-66.130,-57.359,146.679,100.0,0.0
131482,-1.442,0.139,-0.215,-81.061,-65.832,207.130,139.0,0.0
131536,-0.797,0.156,-0.071,-72.046,-63.939,208.382,147.0,57.0
131594,-0.387,0.148,-0.034,-77.718,-66.786,187.542,0.0,57.0
131651,-0.437,0.116,0.010,-72.397,-62.420,155.611,0.0,63.0
131752,-1.169,0.382,-0.043,13.252,-17.863,-4.122,0.0,53.0
131813,-1.271,0.369,-0.052,23.802,43.099,-132.802,0.0,57.0
131869,-1.065,0.218,-0.002,-0.893,81.305,-173.672,184.0,57.0
131922,-1.222,0.131,0.119,28.084,90.305,-196.412,135.0,57.0
131984,-1.323,0.094,0.137,94.603,80.122,-203.458,137.0,0.0
132046,-1.044,0.146,0.085,141.916,62.435,-176.840,143.0,0.0
132107,-0.639,0.323,0.054,72.687,34.664,-96.084,115.0,0.0
132172,-0.759,0.180,0.195,6.664,12.115,-22.168,0.0,0.0
132234,-0.962,0.265,0.233,32.870,10.977,-3.511,115.0,0.0
132294,-1.160,0.356,0.145,40.198,26.458,-13.282,112.0,0.0
132367,-1.567,0.416,-0.154,-84.985,13.389,32.947,106.0,0.0
132427,-1.642,-0.083,-0.163,-178.206,-55.893,149.015,101.0,0.0
132481,-1.241,-0.069,-0.003,-59.252,-81.771,204.992,129.0,57.0
132537,-0.693,0.245,-0.030,-6.260,-72.511,191.534,185.0,58.0
132593,-0.417,0.292,-0.072,-64.397,-60.969,163.176,177.0,57.0
132648,-0.551,0.171,-0.017,-106.656,-50.863,140.244,170.0,57.0
132705,-1.206,0.176,-0.074,-74.137,-34.779,91.962,182.0,52.0
132762,-1.391,0.334,-0.091,-11.084,-5.412,-9.618,184.0,57.0
132816,-1.249,0.269,-0.049,23.450,21.313,-110.824,99.0,58.0
132869,-0.961,0.187,0.049,30.458,48.183,-139.328,102.0,61.0
132924,-1.089,0.203,0.078,56.489,67.061,-170.809,150.0,62.0
132978,-1.094,0.130,0.088,72.221,64.328,-176.504,138.0,65.0
133041,-0.848,0.047,0.135,117.443,53.832,-156.931,143.0,0.0
133103,-0.657,0.258,0.040,128.374,40.626,-104.771,146.0,0.0
133164,-0.761,0.302,0.198,15.099,18.130,-59.107,115.0,0.0
133225,-1.049,0.191,0.395,-0.450,9.779,-37.473,115.0,0.0
133287,-1.361,0.233,0.266,74.260,10.863,-34.580,98.0,0.0
133348,-1.483,0.377,-0.006,27.985,11.137,21.084,96.0,0.0
133407,-1.443,0.156,-0.148,-139.840,-30.198,121.595,103.0,0.0
133468,-1.289,-0.002,-0.001,-101.664,-59.137,184.290,104.0,0.0
133530,-0.781,0.222,-0.026,-26.626,-45.420,179.878,134.0,0.0
133592,-0.539,0.238,-0.008,-87.359,-37.519,160.878,126.0,0.0
133653,-0.565,0.086,0.054,-97.931,-33.458,134.321,129.0,0.0
133707,-1.132,0.126,-0.001,-54.718,-34.275,87.198,123.0,65.0
133761,-1.507,0.341,-0.174,-0.321,-13.015,9.580,131.0,56.0
133817,-1.326,0.293,-0.019,29.962,8.870,-98.649,119.0,60.0
133870,-0.968,0.164,0.088,57.260,37.718,-143.603,109.0,77.0
133924,-1.118,0.179,0.074,76.305,53.115,-152.122,123.0,74.0
133986,-1.143,0.154,0.092,80.191,44.740,-170.542,124.0,0.0
134047,-0.907,0.064,0.118,157.679,44.160,-155.382,127.0,0.0
134113,-0.631,0.289,-0.015,150.237,33.237,-109.695,0.0,0.0
134178,-0.604,0.341,0.100,24.802,19.298,-62.153,0.0,0.0
134245,-0.933,0.212,0.289,-16.565,16.481,-40.878,0.0,0.0
134313,-1.409,0.236,0.234,50.107,28.901,-46.832,0.0,0.0
134379,-1.452,0.294,0.055,2.305,16.107,39.374,0.0,0.0
134445,-1.314,0.203,-0.038,-86.328,-14.069,125.557,0.0,0.0
134516,-1.389,0.032,-0.050,-112.634,-55.458,192.046,0.0,0.0
134581,-0.936,0.093,0.011,-56.099,-69.405,196.084,0.0,0.0
134640,-0.697,0.238,-0.048,-29.145,-57.763,160.351,0.0,100.0
134697,-0.468,0.192,-0.013,-50.634,-44.779,120.733,0.0,76.0
134799,-0.834,0.273,-0.005,-11.969,-6.168,10.046,0.0,78.0
134857,-1.005,0.333,0.037,11.641,24.176,-79.763,0.0,81.0
134918,-1.334,0.299,0.066,15.221,47.924,-149.634,0.0,81.0
134977,-1.240,0.031,0.161,65.702,64.046,-147.534,0.0,110.0
135036,-1.294,0.185,0.060,93.649,48.496,-122.740,0.0,97.0
135095,-1.133,0.123,0.103,103.046,24.282,-94.405,0.0,98.0
135154,-0.931,0.189,0.095,142.122,20.992,-67.092,0.0,104.0
135219,-0.673,0.293,0.058,113.908,9.565,-40.344,0.0,193.0
135283,-0.574,0.256,0.153,78.649,3.977,-9.656,0.0,195.0
135349,-0.590,0.281,0.185,55.427,2.733,7.198,0.0,0.0
135413,-0.839,0.302,0.196,56.931,10.992,7.962,0.0,0.0
135481,-1.503,0.321,0.097,62.565,12.931,22.405,0.0,0.0
135545,-1.086,0.231,0.008,22.389,-4.710,60.351,200.0,0.0
135610,-1.333,0.321,0.034,-3.748,-16.939,99.580,197.0,0.0
135675,-1.197,0.192,0.014,0.527,-29.947,111.618,197.0,0.0
135740,-0.933,0.291,0.047,11.252,-29.763,123.580,193.0,0.0
135803,-0.826,0.368,0.066,-32.733,-20.733,95.137,186.0,0.0
135868,-0.655,0.307,0.180,-47.702,-10.718,51.229,182.0,0.0
135931,-0.623,0.276,0.260,-15.992,-7.992,13.573,180.0,0.0
135989,-0.737,0.471,0.237,9.885,-3.779,-23.656,178.0,91.0
136049,-0.914,0.374,0.252,24.023,-11.786,-39.824,174.0,88.0
136105,-1.180,0.416,0.158,69.450,-18.656,-35.595,153.0,96.0
136164,-1.224,0.522,0.082,91.122,-11.702,-27.924,153.0,137.0
136221,-0.987,0.533,0.083,13.221,-28.557,-24.901,174.0,89.0
136285,-1.248,0.200,0.093,10.603,-45.748,9.649,175.0,0.0
136342,-0.940,0.207,0.098,97.015,-65.061,44.443,184.0,74.0
136399,-0.692,0.365,0.042,107.618,-64.679,36.076,187.0,79.0
136457,-0.577,0.371,0.068,64.122,-58.939,17.351,190.0,80.0
136512,-0.555,0.315,0.131,72.931,-45.656,-4.878,93.0,78.0
136562,-0.726,0.441,0.122,85.221,-33.115,-18.802,68.0,77.0
136612,-0.718,0.491,0.151,73.702,-24.489,-26.916,72.0,75.0
136663,-0.800,0.497,0.172,67.634,-19.374,-34.176,70.0,74.0
136713,-0.987,0.431,0.147,94.176,-19.214,-32.145,73.0,69.0
136764,-1.300,0.479,0.047,105.611,-33.733,-25.802,74.0,78.0
136817,-1.187,0.691,0.052,65.977,-61.389,-16.672,128.0,66.0
136870,-1.346,0.462,0.089,65.282,-86.130,-6.985,111.0,85.0
136923,-1.066,0.482,0.033,115.069,-95.748,20.160,112.0,63.0
136982,-0.785,0.612,-0.020,98.924,-100.817,22.939,0.0,57.0
137037,-0.644,0.545,-0.008,53.481,-88.038,16.481,0.0,36.0
137094,-0.525,0.461,0.019,36.580,-72.588,11.237,0.0,37.0
137145,-0.531,0.433,0.031,36.595,-55.260,-5.321,125.0,36.0
137197,-0.721,0.445,0.002,43.397,-32.992,-31.832,125.0,41.0
137248,-1.210,0.493,-0.069,43.107,-12.489,-79.351,126.0,40.0
137300,-1.610,0.360,-0.124,55.412,2.183,-121.092,126.0,51.0
137353,-1.332,0.245,-0.104,82.733,12.878,-138.053,128.0,36.0
137406,-1.308,0.203,-0.159,84.649,22.031,-121.603,118.0,37.0
137459,-1.253,0.118,-0.121,111.008,12.595,-86.275,131.0,58.0
137513,-1.031,0.287,-0.134,131.092,9.931,-69.908,143.0,58.0
137576,-0.777,0.338,-0.087,127.832,19.908,-81.603,150.0,0.0
137635,-0.588,0.328,-0.004,92.450,24.832,-77.557,0.0,101.0
137733,-0.765,0.438,0.224,41.931,23.672,-36.618,105.0,100.0
137788,-0.971,0.453,0.229,-9.740,22.977,-32.351,120.0,103.0
137842,-1.363,0.350,0.160,-19.687,18.282,-9.191,101.0,105.0
137900,-1.646,0.351,-0.036,-51.359,-5.489,42.229,102.0,113.0
137952,-1.646,0.140,-0.208,-118.626,-50.809,127.878,102.0,56.0
138005,-1.384,0.001,-0.148,-97.824,-76.519,192.565,149.0,55.0
138061,-1.010,0.180,-0.150,-59.893,-73.893,211.786,166.0,71.0
138117,-0.570,0.261,-0.119,-75.305,-65.580,183.618,167.0,63.0
138175,-0.439,0.203,-0.059,-100.000,-54.718,148.748,0.0,67.0
138231,-0.562,0.182,-0.008,-81.756,-42.107,99.206,0.0,50.0
138291,-0.964,0.321,-0.047,-25.008,-15.153,16.977,0.0,88.0
138345,-1.301,0.399,-0.089,8.374,24.328,-73.679,122.0,89.0
138400,-1.342,0.194,-0.089,9.718,41.122,-118.160,109.0,50.0
138461,-1.146,0.168,0.047,58.198,55.916,-153.992,120.0,0.0
138514,-1.290,0.136,0.044,127.115,62.496,-178.221,122.0,69.0
138576,-1.291,0.249,0.063,132.924,54.450,-200.313,148.0,0.0
138639,-1.007,0.260,0.074,111.015,55.649,-192.931,155.0,0.0
138699,-0.764,0.288,0.068,61.405,51.885,-158.573,113.0,0.0
138760,-0.701,0.184,0.147,24.542,35.206,-92.305,113.0,0.0
138820,-0.988,0.208,0.209,39.023,19.473,-31.458,107.0,0.0
138884,-1.125,0.263,0.187,52.931,9.359,0.542,106.0,0.0
138943,-1.135,0.295,0.106,25.786,12.527,55.840,101.0,0.0
139002,-1.483,0.333,0.020,-45.779,6.527,102.916,102.0,0.0
139063,-1.530,0.113,-0.149,-114.924,-31.885,183.206,109.0,0.0
139125,-1.732,0.096,-0.181,-124.336,-51.710,234.763,147.0,0.0
139180,-1.163,0.180,-0.154,-96.229,-55.947,225.427,142.0,62.0
139235,-0.593,0.133,-0.071,-100.763,-46.534,203.267,139.0,70.0
139293,-0.398,0.155,-0.027,-95.702,-30.565,164.229,0.0,77.0
139351,-0.510,0.223,-0.067,-85.824,-12.634,94.916,0.0,58.0
139408,-0.916,0.267,-0.084,-48.206,10.443,8.443,133.0,63.0
139460,-1.114,0.403,-0.049,0.786,48.580,-100.893,118.0,57.0
139512,-1.249,0.294,-0.093,6.771,78.931,-189.252,121.0,50.0
139566,-1.485,0.137,-0.083,18.450,97.115,-207.886,117.0,61.0
139617,-1.608,0.018,-0.044,54.198,88.641,-193.298,112.0,50.0
139686,-1.444,0.002,0.040,119.389,53.771,-142.290,121.0,0.0
139747,-0.936,0.144,0.044,200.458,52.099,-116.450,126.0,0.0
139807,-0.556,0.352,-0.046,147.366,24.756,-98.893,118.0,0.0
139870,-0.483,0.364,0.095,77.534,20.947,-71.611,117.0,0.0
139930,-0.871,0.400,0.198,1.305,25.771,-50.626,110.0,0.0
139990,-1.333,0.155,0.251,-7.931,19.267,-21.023,104.0,0.0
140048,-1.694,0.101,0.092,22.481,-1.458,63.542,97.0,0.0
140107,-1.512,0.208,-0.094,-30.153,-26.137,154.824,99.0,0.0
140167,-1.354,0.191,-0.124,-90.763,-41.656,197.649,104.0,0.0
140230,-0.956,0.300,-0.150,-96.420,-26.084,183.916,183.0,0.0
140294,-0.693,0.134,-0.124,-125.519,-30.603,176.412,168.0,0.0
140351,-0.454,0.095,-0.020,-97.504,-35.214,157.061,162.0,65.0
140405,-0.663,0.212,-0.050,-45.618,-23.405,100.527,156.0,51.0
140461,-1.151,0.379,-0.131,-41.275,-3.878,28.038,152.0,73.0
140518,-1.435,0.340,-0.098,-29.634,18.313,-48.695,0.0,66.0
140572,-1.256,0.225,-0.008,-9.252,29.664,-104.191,148.0,63.0
