Timestamp(ms),AccelX(g),AccelY(g),AccelZ(g),GyroX(deg/s),GyroY(deg/s),GyroZ(deg/s),DistanceLeft(cm),DistanceRight(cm)
579745,-0.447,0.751,-0.164,-0.122,-60.237,-149.588,179.0,119.0
579805,-1.667,0.568,-0.305,-14.550,-40.916,-202.176,174.0,108.0
579867,-1.450,0.185,0.047,24.115,5.649,98.824,173.0,112.0
579928,-1.186,1.001,-0.069,-20.214,42.023,244.832,186.0,121.0
579988,-0.085,1.185,0.062,-29.985,28.824,178.328,185.0,123.0
580052,0.368,1.155,0.086,-92.336,1.481,22.748,191.0,0.0
580118,0.693,1.096,0.169,9.366,-20.122,-118.626,187.0,0.0
580177,0.605,1.157,0.006,-11.534,-56.115,-147.916,187.0,117.0
580238,0.578,1.012,0.009,-32.244,-74.939,-134.649,187.0,118.0
580298,0.757,0.782,0.148,-21.634,-97.679,-112.611,184.0,117.0
580363,0.954,0.817,0.324,-47.092,-85.534,-48.672,0.0,117.0
580423,1.285,0.519,0.763,-53.962,-42.489,37.214,193.0,117.0
580484,1.174,1.401,0.510,-44.588,50.290,151.443,193.0,117.0
580549,1.036,1.399,0.358,-169.145,102.733,236.580,197.0,0.0
580605,1.400,1.204,0.453,-28.023,75.282,162.382,36.0,0.0
580662,0.831,1.458,0.115,-78.939,72.763,-29.336,34.0,0.0
580727,0.000,0.774,0.166,-42.069,110.069,-188.473,0.0,0.0
580792,-1.255,0.698,-0.327,-191.855,191.473,-250.137,186.0,191.0
580857,-1.133,-0.738,-0.181,-250.137,16.412,-195.115,178.0,169.0
580921,-0.713,-1.233,0.584,138.374,-56.122,131.260,176.0,170.0
580983,-1.210,-0.101,0.431,250.130,-119.824,207.969,178.0,171.0
581049,-1.048,0.575,0.584,239.053,-145.244,208.641,0.0,0.0
581105,0.040,1.570,-0.264,250.130,-83.519,210.443,31.0,0.0
581172,0.321,1.537,-0.317,22.557,-105.817,36.504,0.0,0.0
581233,0.669,0.710,0.117,37.237,-133.000,-143.206,0.0,127.0
581285,0.626,0.793,0.125,130.779,-115.992,-250.137,44.0,120.0
581345,0.500,1.482,-0.138,73.466,-114.160,-250.137,182.0,115.0
581408,0.613,1.471,-0.011,94.420,-111.015,-195.626,186.0,112.0
581469,1.011,1.488,-0.201,111.122,-76.069,-49.076,188.0,111.0
581528,1.137,0.741,0.213,56.779,0.855,17.557,190.0,110.0
581588,0.762,1.012,-0.085,33.687,101.466,59.992,191.0,106.0
581649,0.771,1.218,-0.691,27.023,179.763,111.237,0.0,103.0
581709,0.707,1.711,-1.169,-69.740,172.435,112.504,197.0,101.0
581769,0.185,1.747,-1.337,32.466,110.870,124.710,196.0,105.0
581830,-0.039,1.105,-1.005,212.260,11.969,101.160,194.0,111.0
581899,-0.429,0.598,-0.429,96.015,-101.351,-27.840,191.0,0.0
581964,-1.458,0.965,-0.597,31.931,-70.427,-150.886,0.0,0.0
582030,-1.293,0.696,-0.184,-100.626,73.145,46.802,188.0,0.0
582094,-0.726,0.923,-0.240,-24.008,95.588,112.954,187.0,0.0
582155,-0.294,1.350,-0.458,-207.160,34.893,11.023,189.0,113.0
582215,-0.070,0.885,-0.253,-205.847,-0.260,-80.573,189.0,110.0
582276,-0.039,1.163,-0.327,-69.443,-44.244,-170.351,190.0,107.0
582328,-0.236,1.304,-0.390,-16.954,-93.282,-227.015,58.0,105.0
582384,-0.280,1.317,-0.306,11.260,-161.603,-212.809,57.0,104.0
582445,-0.142,1.359,-0.291,4.924,-211.275,-159.099,0.0,107.0
582510,0.018,1.208,-0.217,70.779,-250.137,-97.115,0.0,0.0
582577,0.618,1.386,-0.107,-35.145,-177.099,-21.786,0.0,0.0
582642,1.083,1.284,0.123,-37.748,-58.786,33.000,0.0,0.0
582703,1.212,1.408,0.053,49.618,105.282,114.282,0.0,112.0
582764,0.881,1.378,-0.103,-89.679,232.191,191.824,0.0,110.0
582859,0.327,2.000,-1.281,-42.519,228.939,250.130,51.0,111.0
582913,0.510,2.000,-1.337,126.336,229.641,250.130,47.0,119.0
582980,-0.691,2.000,-1.063,-110.008,126.641,123.886,173.0,0.0
583041,-1.985,0.398,0.202,-27.191,-16.168,-168.611,166.0,139.0
583108,-1.591,-0.350,0.388,-60.214,-27.534,-28.000,176.0,143.0
583168,-0.703,0.275,0.230,98.908,52.641,142.695,162.0,142.0
583232,-0.675,0.728,0.129,-78.481,78.977,87.664,183.0,0.0
583288,-0.351,0.839,0.451,43.107,33.771,-14.664,51.0,0.0
583340,-0.420,1.104,0.267,76.427,10.099,-122.305,44.0,126.0
583391,-0.460,1.493,0.026,96.198,-24.443,-206.969,47.0,117.0
583445,-0.321,1.367,0.067,130.595,-58.901,-250.137,51.0,110.0
583504,-0.482,1.382,-0.196,226.748,-95.672,-250.137,195.0,105.0
583570,-0.497,1.804,-0.266,132.550,-133.802,-249.817,0.0,0.0
583634,-0.324,1.309,0.096,99.321,-147.038,-165.878,0.0,0.0
583700,0.079,1.560,-0.076,154.137,-141.237,-41.977,0.0,0.0
583766,0.243,1.684,0.000,62.397,-54.931,53.298,0.0,0.0
583830,0.122,1.612,-0.079,-33.687,69.023,123.511,0.0,0.0
583889,-0.182,1.508,-0.145,-77.267,165.275,190.321,0.0,100.0
583952,-0.538,2.000,-0.514,-130.290,206.221,215.443,0.0,99.0
584003,-0.633,1.702,-0.488,-156.863,163.267,187.878,52.0,103.0
584062,-0.361,0.719,-0.203,-108.412,107.145,122.656,190.0,111.0
584122,-0.024,0.460,0.002,-74.389,52.290,-5.893,185.0,116.0
584181,-0.419,0.634,-0.137,-137.336,20.351,-117.153,184.0,119.0
584247,-1.069,0.316,-0.096,-142.580,12.969,-160.099,0.0,0.0
584311,-1.183,-0.188,0.078,-128.023,1.107,-39.244,200.0,195.0
584377,-1.129,-0.005,0.237,55.023,39.573,89.901,0.0,0.0
584441,-1.032,0.692,0.188,82.702,35.687,1.115,0.0,0.0
584510,-1.102,0.739,0.513,73.756,7.405,-106.290,0.0,0.0
584574,-1.158,0.906,0.311,250.130,-6.267,-153.229,0.0,0.0
584640,-0.965,1.245,-0.159,250.130,-42.244,-141.977,0.0,0.0
584706,-0.437,1.568,-0.349,88.985,-95.664,-90.153,0.0,0.0
584770,-0.152,1.039,-0.041,66.031,-96.252,-34.611,0.0,0.0
584836,0.103,1.363,-0.101,50.863,-76.435,37.832,0.0,0.0
584900,0.281,1.198,0.008,32.603,-21.878,116.153,0.0,0.0
584966,0.283,0.871,0.018,153.573,52.321,160.725,0.0,0.0
585028,-0.011,2.000,-0.872,-25.389,151.763,157.412,0.0,99.0
585088,-0.456,1.708,-0.622,-128.092,205.168,167.344,0.0,99.0
585147,-0.460,1.945,-0.783,-81.588,218.725,154.855,190.0,103.0
585206,-0.474,1.063,-0.404,-201.328,150.115,100.305,188.0,113.0
585259,-0.050,0.201,0.107,-216.672,70.870,68.435,45.0,120.0
585311,0.181,-0.023,0.258,-125.420,39.771,4.382,45.0,124.0
585370,-0.095,0.135,0.134,-2.603,35.763,-58.382,178.0,124.0
585430,-1.251,0.964,-0.244,67.481,29.076,-93.733,180.0,120.0
585489,-0.866,0.862,-0.087,-9.565,36.382,-19.496,184.0,118.0
585552,-0.703,0.754,0.125,-11.198,42.733,-96.435,189.0,113.0
585612,-0.788,0.888,0.470,17.924,32.931,-110.427,0.0,108.0
585672,-1.077,1.241,0.408,112.328,-6.328,-114.458,0.0,104.0
585732,-0.788,1.423,0.294,164.962,-67.221,-117.802,0.0,103.0
585797,-0.460,1.243,0.292,127.908,-120.893,-120.618,0.0,0.0
585863,-0.194,0.969,0.100,110.870,-142.580,-89.794,0.0,0.0
585963,0.169,1.044,0.081,7.794,-81.603,-13.290,54.0,0.0
586029,0.298,1.353,0.088,-5.763,-19.840,34.809,0.0,0.0
586091,0.139,1.355,0.137,-20.489,43.153,98.992,0.0,105.0
586150,-0.030,1.341,0.101,-16.756,93.099,157.511,0.0,103.0
586202,-0.133,1.553,0.019,-58.573,131.084,179.053,51.0,103.0
586262,-0.489,1.844,-0.086,-58.008,136.275,173.107,195.0,106.0
586313,-0.452,1.308,-0.080,-70.031,120.817,164.473,46.0,111.0
586365,-0.281,0.660,-0.031,-67.435,107.656,144.321,46.0,116.0
586417,-0.125,0.363,0.059,-72.160,104.908,113.992,39.0,119.0
586468,-0.072,0.236,0.150,-75.687,96.611,59.733,40.0,122.0
586524,-0.196,0.385,0.170,-79.687,94.786,-41.000,38.0,0.0
586584,-0.664,0.361,0.221,-63.443,78.450,-189.649,45.0,0.0
586649,-1.172,0.252,0.367,47.214,65.733,-250.137,0.0,0.0
586715,-1.710,0.694,0.046,246.191,13.351,-211.901,0.0,0.0
586780,-1.494,1.175,-0.091,217.053,-39.527,-148.366,0.0,0.0
586846,-1.262,1.134,-0.072,173.473,-83.588,-134.328,0.0,0.0
586911,-0.675,0.874,-0.001,176.313,-85.313,-97.626,0.0,0.0
586977,-0.441,0.926,-0.047,88.489,-84.382,-68.664,0.0,0.0
587042,-0.415,0.930,0.046,50.893,-82.237,-34.061,0.0,0.0
587111,-0.225,1.050,0.072,53.473,-62.336,8.595,0.0,0.0
587176,-0.140,1.095,0.100,56.786,-19.527,57.954,0.0,0.0
587241,-0.150,1.291,0.026,20.908,50.954,77.084,0.0,0.0
587307,-0.432,1.424,-0.001,-97.282,131.008,131.221,0.0,0.0
587372,-1.108,2.000,-0.197,-179.252,173.573,174.695,0.0,0.0
587432,-1.140,1.363,-0.158,-250.137,157.298,190.916,0.0,103.0
587485,-0.753,0.644,-0.033,-218.534,98.588,170.947,58.0,109.0
587550,-0.399,0.190,0.148,-132.992,59.450,141.641,0.0,0.0
587608,-0.187,0.209,0.038,-48.779,43.351,58.916,50.0,0.0
587676,-0.380,0.254,0.051,-56.603,27.046,-71.198,0.0,0.0
587742,-0.996,0.106,0.139,-13.221,29.977,-186.656,0.0,0.0
587802,-1.535,-0.094,0.181,153.496,37.641,-222.687,0.0,121.0
587864,-1.669,0.167,-0.097,250.130,20.427,-225.908,0.0,115.0
587926,-1.917,0.619,-0.255,235.290,-26.405,-250.137,0.0,154.0
587993,-1.637,0.368,-0.133,198.420,-24.443,-250.137,0.0,0.0
588058,-1.227,0.557,-0.135,150.382,-11.603,-212.603,0.0,0.0
588124,-1.096,0.756,-0.011,73.183,-16.847,-143.092,0.0,0.0
588192,-0.787,0.709,0.287,77.473,-22.748,-46.656,0.0,0.0
588258,-0.599,0.799,0.237,121.458,-36.420,-11.366,0.0,0.0
588323,-0.667,0.946,0.000,86.878,14.450,28.626,0.0,0.0
588389,-0.899,0.858,-0.117,-68.008,73.076,56.832,0.0,0.0
588455,-1.526,0.637,-0.194,-200.183,93.969,112.115,0.0,0.0
588521,-2.000,0.190,-0.303,-250.137,50.786,240.198,0.0,0.0
588587,-1.713,-0.019,0.021,-201.641,-10.870,250.130,0.0,0.0
588660,-0.812,0.217,-0.010,-68.771,-18.664,250.130,0.0,0.0
588726,-0.375,0.212,-0.005,-99.466,-21.321,162.817,0.0,0.0
588793,-0.440,0.126,0.064,-69.786,-2.427,56.038,0.0,0.0
588858,-0.863,0.279,-0.008,5.015,20.664,-53.084,0.0,0.0
588922,-1.166,0.214,-0.058,63.756,32.916,-140.168,0.0,190.0
588987,-1.218,0.236,-0.088,116.366,48.504,-185.191,0.0,197.0
589051,-1.531,0.376,-0.105,98.557,40.954,-216.229,0.0,194.0
589160,-1.450,0.134,0.005,216.206,10.252,-229.069,0.0,0.0
589225,-1.125,0.451,-0.146,198.733,-12.939,-184.809,0.0,0.0
589290,-0.949,0.424,-0.025,104.374,-18.328,-127.611,0.0,0.0
589358,-0.889,0.403,0.135,78.557,-12.115,-71.412,0.0,0.0
589423,-0.984,0.504,0.191,120.511,-22.557,-38.198,0.0,0.0
589488,-0.994,0.578,-0.012,123.756,-7.969,21.084,0.0,0.0
589553,-0.972,0.658,-0.149,-4.588,43.053,110.718,0.0,0.0
589618,-1.389,0.538,-0.243,-132.061,68.527,162.931,0.0,0.0
589683,-1.925,0.472,-0.403,-207.656,77.023,186.817,0.0,0.0
589748,-1.882,0.154,-0.320,-239.321,50.695,238.000,0.0,0.0
589813,-1.255,-0.057,-0.031,-119.420,29.687,250.130,0.0,0.0
589879,-0.819,0.299,-0.127,-56.466,22.748,250.130,0.0,0.0
589941,-0.625,0.158,-0.018,-109.221,15.366,153.099,0.0,102.0
590001,-0.841,0.110,0.010,-88.817,16.710,30.420,0.0,104.0
590060,-0.976,0.001,0.078,-16.550,25.794,-74.008,0.0,102.0
590126,-1.131,0.099,0.017,82.702,31.061,-160.870,0.0,0.0
590190,-1.352,0.322,-0.107,119.863,14.702,-230.847,0.0,0.0
590256,-1.856,0.254,-0.096,151.702,-29.198,-250.137,0.0,0.0
590320,-1.798,0.313,-0.158,250.130,-46.458,-250.137,0.0,0.0
590386,-1.293,0.580,-0.188,163.771,-64.886,-232.840,0.0,0.0
590451,-0.957,0.419,-0.017,81.206,-49.344,-164.160,0.0,0.0
590519,-0.806,0.466,0.040,92.832,-40.099,-95.328,0.0,0.0
590584,-0.848,0.571,-0.067,105.435,-28.275,-58.473,0.0,0.0
590649,-0.822,0.696,-0.217,29.687,22.802,8.885,0.0,0.0
590714,-1.122,0.559,-0.146,-103.405,79.771,100.794,0.0,0.0
590780,-1.805,0.391,-0.156,-206.985,87.748,209.305,0.0,0.0
590844,-2.000,0.102,-0.171,-238.947,52.939,250.130,0.0,0.0
590910,-1.517,0.204,-0.025,-141.206,29.634,250.130,0.0,0.0
590976,-0.984,0.391,-0.094,-122.176,19.786,250.130,0.0,0.0
591043,-0.817,0.323,-0.083,-141.641,1.504,169.015,0.0,0.0
591104,-0.819,0.233,-0.042,-115.305,-8.198,96.107,0.0,104.0
591169,-0.890,0.195,-0.017,-58.466,-6.931,9.443,0.0,0.0
591234,-0.896,0.022,0.047,58.893,6.160,-84.550,0.0,0.0
591299,-1.064,0.328,-0.125,115.855,51.076,-162.718,0.0,0.0
591365,-1.453,0.438,-0.159,39.634,38.427,-223.779,0.0,0.0
591429,-1.468,0.067,0.043,120.191,33.557,-250.137,0.0,0.0
591495,-1.313,0.286,-0.120,218.099,34.878,-243.611,0.0,0.0
591560,-1.169,0.474,-0.109,99.015,5.458,-197.947,0.0,0.0
591629,-1.095,0.421,0.023,51.595,22.359,-139.832,0.0,0.0
591693,-1.037,0.472,0.117,27.176,17.573,-102.282,0.0,0.0
591759,-0.987,0.421,0.157,11.168,10.069,-45.183,0.0,0.0
591824,-1.136,0.407,0.082,8.595,0.450,44.076,0.0,0.0
591889,-1.285,0.335,-0.017,-35.794,-5.305,170.763,0.0,0.0
591954,-1.927,0.234,-0.161,-86.397,-21.878,250.130,0.0,0.0
592020,-1.716,0.186,-0.180,-117.954,-21.611,250.130,0.0,0.0
592086,-1.179,0.173,-0.123,-120.275,-28.802,250.130,0.0,0.0
592151,-0.653,0.229,-0.082,-100.656,-32.840,232.687,0.0,0.0
592214,-0.599,0.303,-0.039,-63.870,-17.802,120.588,0.0,103.0
592274,-0.697,0.352,-0.053,-64.595,0.038,24.855,0.0,104.0
592339,-0.872,0.265,-0.004,-26.031,16.427,-64.802,0.0,0.0
592448,-1.013,0.314,-0.029,69.855,56.176,-182.908,0.0,0.0
592514,-1.410,0.313,-0.040,73.588,47.321,-231.740,0.0,0.0
592579,-1.368,0.205,0.013,123.061,45.733,-237.695,0.0,0.0
592645,-1.137,0.359,-0.003,112.328,43.344,-199.786,0.0,0.0
592710,-1.069,0.306,0.044,70.519,29.595,-145.779,0.0,0.0
592778,-1.090,0.411,0.055,100.756,20.153,-92.389,0.0,0.0
592843,-0.939,0.477,0.097,69.466,12.374,-55.496,0.0,0.0
592909,-0.973,0.524,0.082,23.183,8.542,-27.145,0.0,0.0
592974,-1.188,0.494,0.044,-22.809,9.458,37.115,0.0,0.0
593040,-1.399,0.316,0.041,-88.153,-5.435,150.069,0.0,0.0
593105,-1.812,0.236,-0.100,-106.931,-34.718,247.809,0.0,0.0
593171,-1.418,0.243,-0.121,-98.817,-35.489,250.130,0.0,0.0
593236,-0.935,0.308,-0.166,-105.244,-35.229,220.282,0.0,0.0
593302,-0.734,0.282,-0.101,-100.466,-30.084,172.817,0.0,0.0
593370,-0.767,0.260,-0.090,-91.458,-21.847,115.725,0.0,178.0
593433,-0.827,0.323,-0.040,-39.168,-1.947,33.099,0.0,174.0
593497,-1.000,0.281,-0.044,1.908,36.153,-44.870,0.0,169.0
593561,-0.921,0.225,-0.077,-17.107,83.947,-105.664,0.0,174.0
593626,-1.259,0.103,0.053,13.450,82.099,-163.229,0.0,172.0
593691,-1.375,0.056,0.075,145.443,62.916,-198.321,0.0,0.0
593757,-1.260,0.333,-0.054,238.389,40.313,-204.061,0.0,0.0
593822,-1.019,0.592,-0.069,110.046,21.336,-194.908,0.0,0.0
593888,-1.021,0.410,0.065,30.198,33.603,-149.053,0.0,0.0
593956,-1.136,0.371,0.214,52.344,17.664,-81.481,0.0,0.0
594022,-1.108,0.532,0.197,52.519,-3.107,-20.794,0.0,0.0
594087,-1.288,0.515,0.087,-8.359,-14.634,40.031,0.0,0.0
594153,-1.298,0.427,0.031,-58.031,-28.756,143.626,0.0,0.0
594219,-1.590,0.316,-0.104,-113.588,-50.534,214.847,0.0,0.0
594283,-1.368,0.293,-0.187,-111.115,-49.710,230.145,0.0,184.0
594348,-0.974,0.302,-0.192,-114.008,-46.626,201.252,0.0,168.0
594411,-0.795,0.293,-0.150,-106.527,-32.840,168.183,0.0,169.0
594478,-0.836,0.278,-0.126,-136.901,-22.382,114.718,0.0,156.0
594541,-0.931,0.122,-0.029,-97.863,-4.870,51.046,0.0,158.0
594600,-1.385,-0.438,0.429,68.840,4.237,21.771,0.0,89.0
594665,-1.051,0.194,-0.057,89.382,34.328,-78.153,0.0,176.0
594728,-1.070,0.244,-0.032,107.847,61.481,-133.733,0.0,175.0
594793,-1.341,0.351,-0.065,120.702,59.588,-199.496,0.0,174.0
594857,-1.250,0.244,-0.005,138.786,50.534,-229.634,0.0,171.0
594923,-1.086,0.392,-0.037,145.466,56.374,-228.725,0.0,0.0
594989,-1.118,0.461,0.015,38.779,41.336,-191.992,0.0,0.0
595058,-1.092,0.299,0.193,30.542,41.947,-113.534,0.0,0.0
595124,-1.017,0.397,0.190,43.336,14.382,-34.160,0.0,0.0
595189,-1.207,0.500,0.087,13.420,0.160,20.947,0.0,0.0
595255,-1.173,0.356,0.029,-30.046,-18.221,104.435,0.0,0.0
595320,-1.723,0.374,-0.114,-102.466,-37.084,186.519,0.0,199.0
595387,-2.000,-0.045,-0.208,-88.290,-79.359,250.130,0.0,0.0
595452,-1.254,0.198,-0.175,-69.824,-53.336,250.130,0.0,194.0
595518,-0.803,0.380,-0.242,-110.786,-36.969,242.870,0.0,0.0
595587,-0.534,0.231,-0.134,-153.969,-31.260,159.229,0.0,0.0
595653,-0.636,0.228,-0.060,-119.450,5.191,64.000,0.0,0.0
595760,-0.986,-0.058,0.015,-30.046,62.969,-82.679,0.0,156.0
595825,-1.095,0.072,-0.060,92.031,100.168,-135.954,0.0,0.0
595892,-1.377,0.335,-0.151,117.718,101.939,-194.985,0.0,0.0
595957,-1.496,0.159,-0.052,126.977,79.420,-226.153,0.0,0.0
596023,-1.340,0.247,-0.104,196.481,80.924,-205.496,0.0,198.0
596089,-1.202,0.562,-0.137,84.275,64.626,-173.557,0.0,0.0
596155,-1.054,0.392,0.064,-18.313,67.076,-117.641,0.0,0.0
596224,-1.007,0.229,0.277,4.099,45.023,-52.366,0.0,0.0
596290,-1.076,0.329,0.270,62.489,5.847,-10.321,0.0,0.0
596356,-1.290,0.421,0.104,48.931,-23.046,37.863,0.0,0.0
596421,-1.379,0.334,-0.020,-6.076,-45.092,142.023,0.0,0.0
596488,-1.926,0.229,-0.216,-61.496,-74.725,214.649,0.0,0.0
596553,-1.411,0.193,-0.212,-52.893,-74.214,250.130,0.0,0.0
596619,-0.973,0.355,-0.259,-114.450,-43.122,242.176,0.0,0.0
596685,-0.766,0.285,-0.220,-167.740,-39.542,174.008,0.0,0.0
596748,-0.761,0.255,-0.119,-122.366,-29.282,91.061,0.0,82.0
596813,-0.942,0.233,-0.111,-92.130,-11.679,27.863,0.0,0.0
596876,-1.031,-0.006,-0.046,-31.221,2.176,-22.634,0.0,133.0
596942,-0.947,0.094,0.001,86.069,55.053,-75.412,0.0,0.0
597008,-1.079,0.363,-0.083,74.603,96.550,-140.824,0.0,0.0
597079,-1.267,0.193,0.027,31.412,100.748,-191.221,0.0,0.0
597144,-1.164,0.068,0.077,122.786,109.824,-190.351,0.0,0.0
597209,-1.156,0.382,-0.021,110.221,85.191,-183.527,0.0,0.0
597274,-1.101,0.216,0.135,63.595,61.733,-135.893,0.0,0.0
597342,-1.066,0.243,0.137,77.359,32.527,-54.000,0.0,0.0
597406,-1.000,0.389,0.146,68.855,9.893,-4.786,0.0,0.0
597471,-1.056,0.430,0.081,47.802,1.229,24.969,0.0,0.0
597536,-1.176,0.440,0.028,-16.366,-12.649,63.702,0.0,0.0
597601,-1.683,0.200,-0.009,-60.015,-43.267,149.450,0.0,0.0
597666,-1.856,0.058,-0.084,-59.115,-74.489,250.130,0.0,0.0
597731,-1.267,0.299,-0.127,-77.611,-67.229,250.130,0.0,0.0
597796,-0.818,0.345,-0.113,-105.000,-55.710,225.336,0.0,0.0
597861,-0.548,0.301,-0.055,-97.595,-49.763,172.756,0.0,0.0
597929,-0.484,0.423,-0.021,-60.565,-23.435,111.496,0.0,0.0
597994,-0.652,0.468,0.021,-37.969,8.046,28.336,0.0,0.0
598060,-0.769,0.403,0.121,-5.634,41.649,-53.267,0.0,0.0
598124,-0.935,0.283,0.057,8.290,66.107,-124.855,0.0,0.0
598189,-1.204,0.174,0.083,37.939,61.183,-163.641,0.0,0.0
598254,-1.322,0.056,0.115,144.802,45.412,-190.176,0.0,0.0
598320,-1.212,0.268,-0.029,228.740,39.107,-210.901,0.0,0.0
598384,-1.154,0.568,-0.145,129.626,17.550,-219.718,0.0,0.0
598450,-1.060,0.337,0.070,26.603,22.275,-187.015,0.0,0.0
598517,-1.079,0.256,0.188,32.710,20.519,-107.298,0.0,0.0
598583,-1.126,0.329,0.236,83.046,1.191,-42.824,0.0,0.0
598647,-1.084,0.395,0.144,100.573,-14.183,14.809,0.0,0.0
598713,-1.082,0.564,-0.034,32.557,-1.359,73.160,0.0,0.0
598777,-1.293,0.441,-0.089,-101.794,3.282,137.298,0.0,0.0
598843,-1.747,0.213,-0.180,-134.130,-14.771,198.840,0.0,0.0
598908,-1.467,0.218,-0.202,-121.069,-10.550,229.527,0.0,0.0
598973,-1.031,0.224,-0.167,-131.031,-8.679,228.489,0.0,0.0
599085,-0.919,0.247,-0.059,-124.313,-15.359,172.435,0.0,0.0
599150,-0.988,0.175,0.002,-108.588,-20.122,95.137,0.0,0.0
599216,-0.823,0.001,0.166,-37.366,-2.573,7.969,0.0,0.0
599280,-0.882,0.072,0.100,83.412,38.382,-99.886,0.0,0.0
599346,-1.065,0.255,-0.003,134.718,54.595,-174.763,0.0,0.0
599410,-1.369,0.346,-0.044,114.886,42.779,-250.137,0.0,0.0
599476,-1.435,0.177,0.033,149.305,35.374,-250.137,0.0,0.0
599541,-1.319,0.319,-0.067,161.527,28.137,-248.321,0.0,0.0
599607,-1.134,0.479,0.029,76.756,21.603,-190.565,0.0,0.0
599674,-1.034,0.408,0.235,21.985,19.076,-112.458,0.0,0.0
599740,-1.054,0.349,0.328,66.053,0.000,-23.466,0.0,0.0
599805,-1.141,0.508,0.165,50.840,-10.611,57.870,0.0,0.0
599870,-1.289,0.420,0.054,-60.626,-6.695,144.183,0.0,0.0
599936,-1.670,0.217,-0.048,-131.756,-21.656,236.183,0.0,0.0
600001,-1.729,0.094,-0.128,-112.076,-38.779,250.130,0.0,0.0
600067,-1.115,0.288,-0.139,-58.786,-17.252,250.130,0.0,0.0
600131,-0.867,0.401,-0.196,-93.290,0.336,188.664,0.0,0.0
600197,-0.863,0.317,-0.134,-133.290,15.344,135.511,0.0,0.0
600265,-0.904,0.217,-0.045,-170.336,19.198,106.221,0.0,0.0
600323,-0.858,-0.055,0.157,-137.794,18.366,36.260,57.0,0.0
600379,-0.864,-0.113,0.283,-13.588,46.527,-27.618,51.0,0.0
600444,-0.987,0.010,0.131,130.634,59.679,-106.183,0.0,0.0
600502,-1.210,0.266,-0.072,216.275,46.481,-186.427,58.0,0.0
600567,-1.533,0.490,-0.172,201.504,17.611,-250.137,0.0,0.0
600633,-1.560,0.236,-0.047,200.374,22.527,-250.137,0.0,0.0
600698,-1.383,0.456,-0.174,162.855,10.969,-246.405,0.0,0.0
600767,-1.032,0.502,0.021,138.832,9.771,-169.015,0.0,0.0
600832,-0.895,0.530,0.134,69.160,-1.282,-83.351,0.0,0.0
600897,-0.937,0.627,0.065,-3.122,3.519,-4.214,0.0,0.0
600963,-1.254,0.543,0.040,-79.702,13.954,63.298,0.0,0.0
601028,-1.369,0.296,0.015,-135.886,-2.336,157.435,0.0,0.0
601094,-2.000,0.033,-0.151,-140.794,-39.878,250.130,0.0,0.0
601159,-1.685,0.129,-0.233,-87.336,-33.992,250.130,0.0,0.0
601225,-1.072,0.354,-0.257,-97.382,-8.718,250.130,0.0,0.0
601289,-0.760,0.301,-0.175,-146.779,-6.527,187.076,0.0,0.0
601358,-0.621,0.198,-0.057,-135.939,-5.878,110.450,0.0,0.0
601423,-0.744,0.173,-0.009,-102.947,4.084,51.908,0.0,0.0
601487,-0.932,0.164,0.022,-43.779,16.412,-20.595,0.0,153.0
601549,-1.036,0.179,0.085,51.908,39.985,-83.198,0.0,150.0
601615,-0.995,0.333,0.034,100.771,66.198,-132.626,0.0,0.0
601680,-1.341,0.432,0.005,71.763,56.779,-192.115,0.0,0.0
601746,-1.316,0.153,0.147,137.916,42.847,-201.504,0.0,0.0
601811,-1.078,0.425,0.005,194.557,43.634,-181.069,0.0,0.0
601877,-1.043,0.483,0.099,110.870,10.183,-169.740,0.0,0.0
601946,-1.014,0.417,0.168,126.305,9.496,-119.527,0.0,0.0
602011,-1.045,0.481,0.223,85.160,-10.489,-56.008,0.0,0.0
602077,-1.076,0.536,0.158,38.168,-9.229,9.641,0.0,0.0
602142,-1.246,0.449,0.113,-24.061,-2.405,67.626,0.0,0.0
602208,-1.271,0.341,0.037,-87.916,-11.053,141.855,0.0,0.0
602273,-1.612,0.144,-0.115,-116.710,-23.328,197.603,0.0,0.0
602382,-0.764,0.307,-0.073,-76.718,0.794,203.206,0.0,0.0
602447,-0.569,0.362,-0.099,-109.763,9.595,131.511,0.0,0.0
602516,-0.745,0.314,-0.060,-123.924,17.504,64.756,0.0,0.0
602582,-1.070,0.278,-0.012,-119.916,20.603,22.305,0.0,0.0
602647,-1.116,0.080,0.101,-67.527,9.595,-7.664,0.0,0.0
602713,-1.158,0.079,0.122,69.389,22.031,-37.084,0.0,0.0
602779,-0.907,0.240,0.026,126.298,36.366,-70.527,0.0,0.0
602845,-1.193,0.410,-0.014,72.649,34.718,-131.817,0.0,0.0
602910,-1.142,0.165,0.135,108.183,27.786,-155.878,0.0,0.0
602976,-0.860,0.320,0.070,173.595,36.168,-145.718,0.0,0.0
603041,-0.862,0.526,0.028,81.198,23.237,-149.244,0.0,0.0
603110,-0.921,0.312,0.233,48.130,25.893,-111.130,0.0,0.0
603175,-1.132,0.438,0.242,37.634,11.168,-63.130,0.0,0.0
603241,-1.306,0.454,0.226,19.374,-2.237,-9.046,0.0,0.0
603307,-1.361,0.301,0.128,-35.389,-24.985,76.206,0.0,0.0
603373,-1.510,0.292,-0.053,-106.198,-43.252,153.260,0.0,0.0
603439,-1.321,0.115,-0.121,-116.405,-59.473,192.023,0.0,0.0
603504,-0.789,0.237,-0.086,-81.176,-48.794,183.031,0.0,0.0
603570,-0.624,0.393,-0.142,-104.053,-39.786,120.359,0.0,0.0
603636,-0.794,0.272,-0.071,-114.962,-27.748,64.122,0.0,0.0
603705,-1.091,0.183,-0.040,-87.954,-17.817,46.611,0.0,0.0
603770,-1.169,0.044,0.010,-27.527,-8.092,30.664,0.0,0.0
603836,-1.038,0.043,0.009,67.130,21.008,-4.321,0.0,0.0
603902,-0.865,0.154,0.001,73.687,60.664,-89.206,0.0,0.0
603968,-1.223,0.135,0.051,107.206,90.618,-163.817,0.0,0.0
604034,-1.265,0.247,0.022,118.603,82.229,-191.832,0.0,0.0
604099,-1.046,0.312,0.064,107.725,67.511,-205.366,0.0,0.0
604166,-1.012,0.361,0.084,60.260,46.824,-177.489,0.0,0.0
604231,-1.000,0.283,0.159,39.420,33.053,-104.382,0.0,0.0
604300,-1.036,0.438,0.150,12.908,13.183,-10.244,0.0,0.0
604365,-1.068,0.389,0.139,-37.565,-1.687,45.702,0.0,0.0
604432,-1.426,0.368,0.035,-64.847,-19.382,97.756,0.0,0.0
604497,-1.667,0.082,-0.100,-88.954,-63.496,183.000,0.0,0.0
604563,-2.000,0.036,-0.348,-96.908,-73.641,250.130,0.0,0.0
604630,-1.291,0.125,-0.163,-55.275,-76.038,250.130,0.0,0.0
604695,-0.597,0.249,-0.109,-48.748,-61.763,215.542,0.0,0.0
604761,-0.379,0.254,-0.087,-66.855,-39.122,140.992,0.0,0.0
604830,-0.541,0.308,-0.046,-70.229,-2.847,53.435,0.0,0.0
604896,-0.815,0.303,-0.006,-47.229,24.206,-42.824,0.0,0.0
604962,-1.022,0.161,-0.004,17.198,49.870,-105.733,0.0,0.0
605028,-1.101,0.266,-0.077,78.618,77.145,-170.886,0.0,0.0
605093,-1.418,0.349,-0.103,74.359,74.626,-226.061,0.0,0.0
605160,-1.658,0.107,0.039,107.733,53.802,-233.137,0.0,0.0
605225,-1.128,0.205,0.013,168.565,49.893,-182.305,0.0,0.0
605292,-0.953,0.421,-0.054,86.191,32.252,-116.427,0.0,0.0
605358,-0.913,0.365,0.065,34.206,33.015,-79.107,0.0,0.0
605427,-0.940,0.355,0.150,34.779,23.321,-47.969,0.0,0.0
605498,-1.118,0.402,0.112,34.771,5.779,-22.916,0.0,0.0
605562,-1.300,0.344,0.054,11.603,-4.542,48.038,0.0,0.0
605627,-1.318,0.309,-0.005,-45.305,-17.366,162.649,0.0,0.0
605735,-1.485,0.265,-0.183,-98.939,-49.947,237.198,0.0,0.0
605801,-1.013,0.301,-0.161,-117.336,-43.244,211.466,0.0,0.0
605865,-0.751,0.230,-0.108,-117.634,-42.947,173.168,0.0,0.0
605931,-0.728,0.253,-0.073,-85.153,-34.611,124.672,0.0,0.0
605996,-0.808,0.247,-0.045,-60.435,-20.840,70.511,0.0,0.0
606064,-0.935,0.256,-0.043,-19.939,5.145,-11.908,0.0,0.0
606129,-1.037,0.187,-0.034,33.282,44.076,-87.649,0.0,0.0
606193,-1.081,0.309,-0.074,32.382,89.252,-143.565,0.0,0.0
606259,-1.339,0.207,-0.005,28.672,86.641,-199.992,0.0,0.0
606323,-1.206,0.052,0.103,134.962,77.023,-206.580,0.0,0.0
606389,-1.089,0.297,-0.041,180.550,58.550,-191.313,0.0,0.0
606453,-1.045,0.417,0.005,85.183,37.092,-156.664,0.0,0.0
606519,-1.030,0.312,0.114,32.794,35.809,-95.229,0.0,0.0
606583,-1.000,0.308,0.185,36.359,22.435,-33.489,0.0,0.0
606652,-1.267,0.343,0.097,43.389,4.969,10.550,0.0,0.0
606716,-1.249,0.300,0.046,23.412,-12.290,83.450,0.0,0.0
606781,-1.563,0.303,-0.080,-57.542,-22.321,178.733,0.0,0.0
606846,-1.687,0.218,-0.247,-112.656,-41.740,232.191,0.0,0.0
606912,-1.146,0.201,-0.237,-127.603,-30.542,247.985,0.0,0.0
606977,-0.737,0.174,-0.159,-130.122,-28.893,221.679,0.0,0.0
607042,-0.552,0.255,-0.093,-92.282,-28.977,155.588,0.0,0.0
607108,-0.668,0.298,-0.046,-74.153,-15.267,68.176,0.0,0.0
607175,-1.060,0.324,-0.054,-28.985,5.473,-42.740,0.0,0.0
607241,-1.217,0.172,-0.047,24.511,29.595,-94.076,0.0,0.0
607305,-1.091,0.245,-0.060,35.550,67.153,-112.115,0.0,0.0
607371,-1.396,0.239,-0.043,46.519,44.069,-160.611,0.0,0.0
607436,-1.140,0.038,0.082,169.916,34.137,-173.298,0.0,0.0
607501,-0.927,0.371,-0.090,217.664,31.443,-171.771,0.0,0.0
607566,-0.948,0.540,-0.083,66.916,13.046,-162.901,0.0,0.0
607632,-1.011,0.328,0.081,-7.878,33.397,-121.550,0.0,0.0
607696,-1.048,0.317,0.177,-11.092,24.931,-60.198,0.0,0.0
607765,-1.236,0.345,0.156,-2.626,9.664,-6.489,0.0,0.0
607830,-1.324,0.331,0.060,-16.969,-13.947,56.412,0.0,0.0
607895,-1.381,0.250,0.012,-62.351,-35.687,155.145,0.0,0.0
607961,-1.745,0.188,-0.151,-105.389,-72.542,216.084,0.0,0.0
608025,-1.175,0.130,-0.082,-76.588,-84.450,239.916,0.0,0.0
608091,-0.702,0.317,-0.099,-69.588,-66.290,208.977,0.0,0.0
608156,-0.549,0.283,-0.064,-84.687,-48.595,146.191,0.0,0.0
608222,-0.572,0.326,-0.050,-75.481,-15.832,72.985,0.0,0.0
608286,-0.875,0.340,0.002,-51.053,18.847,-13.115,0.0,0.0
608355,-1.063,0.202,0.043,-13.076,44.435,-82.458,0.0,0.0
608420,-1.114,0.084,0.005,61.695,71.359,-116.618,0.0,0.0
608486,-1.226,0.256,-0.059,83.389,74.237,-149.115,0.0,0.0
608550,-1.331,0.172,0.039,110.084,58.908,-182.695,0.0,0.0
608616,-1.171,0.180,0.025,183.641,53.695,-179.267,0.0,0.0
608681,-0.989,0.464,-0.054,115.916,38.611,-158.191,0.0,0.0
608747,-0.948,0.338,0.077,29.595,35.344,-118.695,0.0,0.0
608812,-0.968,0.266,0.185,22.947,26.191,-55.198,0.0,0.0
608880,-1.074,0.390,0.188,18.290,10.252,-10.603,0.0,0.0
608946,-1.241,0.382,0.139,0.809,-3.641,25.321,0.0,0.0
609054,-1.490,0.218,-0.043,-31.137,-43.221,163.076,0.0,0.0
609120,-1.660,0.204,-0.183,-61.260,-57.214,228.031,0.0,0.0
609185,-1.212,0.258,-0.192,-102.290,-46.939,234.924,0.0,0.0
609251,-0.751,0.255,-0.121,-113.374,-37.038,199.168,0.0,0.0
609316,-0.560,0.247,-0.079,-101.695,-25.916,133.481,0.0,0.0
609382,-0.702,0.290,-0.068,-82.962,-6.924,58.939,0.0,0.0
609446,-0.906,0.275,-0.036,-59.985,11.557,-12.824,0.0,0.0
609515,-1.021,0.143,0.035,5.771,29.947,-72.771,0.0,0.0
609581,-0.986,0.177,-0.018,79.092,63.916,-139.229,0.0,0.0
609646,-1.336,0.323,-0.089,56.061,83.115,-178.886,0.0,0.0
609712,-1.467,0.108,0.047,34.466,69.153,-163.908,0.0,0.0
609777,-0.993,0.157,0.116,107.389,65.122,-122.511,0.0,0.0
609843,-0.867,0.412,0.018,83.473,46.863,-107.878,0.0,0.0
609908,-0.889,0.298,0.126,42.893,29.985,-97.366,0.0,0.0
609974,-1.043,0.221,0.227,84.779,19.893,-58.412,0.0,0.0
610038,-1.119,0.677,0.125,75.962,2.527,21.969,0.0,0.0
610107,-1.234,0.735,0.114,-68.275,-10.847,102.305,0.0,0.0
610172,-1.524,0.553,-0.026,-76.229,-37.359,195.359,0.0,0.0
610238,-1.637,0.938,-0.340,-32.214,-20.580,250.130,0.0,0.0
610304,-1.340,1.266,-0.523,-152.550,30.557,250.130,0.0,0.0
610364,-0.725,0.626,-0.145,-170.237,35.595,250.130,0.0,103.0
610424,-0.421,0.427,-0.011,-116.710,9.817,197.427,0.0,110.0
610485,-0.282,0.442,0.075,-52.863,-9.779,93.985,186.0,115.0
610544,-0.485,0.520,0.133,-15.489,-25.214,25.176,183.0,118.0
610616,-0.962,0.614,0.182,27.229,-24.267,18.366,182.0,118.0
610678,-0.865,0.906,0.270,-29.076,-13.496,74.443,181.0,119.0
610741,-0.749,0.925,0.437,-22.076,-15.565,79.084,181.0,121.0
610803,-0.506,0.840,0.478,-8.687,-49.489,46.115,181.0,120.0
610859,-0.210,1.183,0.134,47.450,-53.145,-34.740,49.0,119.0
610913,0.043,0.827,0.144,24.901,-66.076,-134.832,45.0,117.0
610967,0.051,0.809,0.067,53.168,-63.473,-189.756,45.0,114.0
611020,-0.022,0.823,0.065,60.267,-83.832,-226.481,46.0,110.0
611083,-0.095,1.326,-0.018,74.252,-136.718,-210.069,193.0,107.0
611154,0.141,1.291,0.253,47.664,-149.038,-162.855,0.0,0.0
611222,0.360,1.634,0.395,-1.511,-93.130,-52.908,0.0,0.0
611291,0.183,1.517,0.341,-8.153,-18.977,57.908,0.0,0.0
611358,-0.048,1.345,0.285,-40.153,53.649,124.420,0.0,0.0
611421,-0.191,1.443,0.114,-63.748,120.061,150.137,0.0,105.0
611483,-0.490,1.435,-0.057,-116.947,133.748,139.939,194.0,109.0
611538,-0.422,0.843,0.000,-102.053,112.008,126.847,48.0,115.0
611593,-0.222,0.489,0.044,-57.420,94.672,102.130,47.0,116.0
611659,-0.227,0.545,-0.027,-10.527,86.603,69.985,0.0,117.0
611723,-0.370,0.467,0.211,-30.313,74.557,26.718,0.0,116.0
611785,-0.693,0.575,0.389,54.084,38.939,-73.221,0.0,111.0
611849,-0.945,0.394,0.493,59.122,23.176,-157.282,0.0,107.0
611916,-1.044,0.240,0.546,77.855,0.366,-185.908,0.0,0.0
611985,-1.669,0.586,0.604,118.092,-42.504,-148.466,0.0,0.0
612052,-1.767,0.912,0.603,153.336,-124.870,-113.962,0.0,0.0
612121,-1.096,0.988,0.431,105.588,-183.664,-77.229,0.0,0.0
612189,-0.709,1.021,0.173,96.656,-234.985,-13.695,0.0,0.0
612303,-0.031,1.054,0.034,-67.412,-200.679,73.901,0.0,0.0
612372,0.151,0.899,-0.163,-45.954,-119.160,70.924,0.0,0.0
612441,0.315,0.589,-0.129,3.733,9.779,54.565,0.0,0.0
612508,-0.004,0.542,-0.182,-5.977,139.267,37.832,0.0,0.0
612577,-0.301,1.271,0.007,68.977,207.977,75.206,0.0,0.0
612639,-0.826,2.000,0.456,97.588,223.824,148.664,0.0,105.0
612702,-0.844,1.729,0.599,128.962,198.618,169.038,197.0,103.0
612764,-0.656,1.484,0.457,74.870,162.580,153.214,192.0,107.0
612827,-0.456,0.704,0.484,-79.649,137.458,161.344,187.0,113.0
612885,-0.334,0.247,0.526,-75.931,88.550,152.695,47.0,119.0
612940,-0.473,0.509,0.384,-20.855,49.863,84.573,47.0,121.0
612995,-0.613,0.482,0.338,5.427,10.679,-22.679,47.0,121.0
613050,-0.641,0.434,0.380,50.038,-17.504,-108.252,58.0,116.0
613112,-0.621,0.504,0.474,49.298,-51.985,-143.053,189.0,111.0
613175,-0.961,1.248,0.613,38.099,-105.305,-132.328,193.0,106.0
613238,-0.991,1.750,0.643,22.038,-180.779,-130.802,197.0,103.0
613301,-0.726,1.905,0.326,40.924,-232.511,-105.550,197.0,105.0
613367,-0.059,1.276,0.118,-59.840,-250.137,-48.115,192.0,111.0
613423,0.222,0.918,-0.070,-57.443,-233.809,11.061,58.0,117.0
613491,0.324,0.803,-0.338,-130.687,-164.664,44.557,0.0,0.0
613552,0.342,0.622,-0.273,-73.534,-41.641,20.695,58.0,0.0
613619,0.201,0.735,-0.270,-10.321,51.397,-13.336,0.0,0.0
613689,0.190,0.883,-0.035,85.053,146.832,-23.481,0.0,121.0
613751,0.026,1.296,0.125,69.534,196.115,17.397,0.0,112.0
613814,-0.269,1.824,0.374,76.183,202.771,73.672,0.0,107.0
613878,-0.490,1.982,0.509,26.695,188.824,146.489,195.0,107.0
613933,-0.476,1.514,0.364,-31.092,197.115,183.802,58.0,111.0
613986,-0.446,0.910,0.442,-107.008,164.649,189.977,45.0,117.0
614040,-0.342,0.442,0.526,-138.580,95.260,182.473,40.0,124.0
614107,-0.355,0.444,0.494,-63.634,45.901,140.137,0.0,0.0
614165,-0.361,0.546,0.446,-31.695,10.069,43.756,43.0,0.0
614223,-0.226,0.510,0.644,-22.420,1.679,-19.000,34.0,0.0
614281,0.025,0.566,0.895,-30.084,25.099,-53.656,35.0,0.0
614339,-0.093,0.922,1.243,-114.954,30.221,-84.756,36.0,0.0
614400,-0.305,0.691,1.527,-141.679,12.916,-111.740,37.0,0.0
614467,-0.192,0.460,1.464,-100.740,-24.511,-158.802,0.0,0.0
614525,-0.029,0.563,1.039,-98.611,-61.580,-171.214,44.0,0.0
614585,0.168,0.371,0.860,-91.626,-66.122,-191.664,58.0,0.0
614645,0.253,0.509,0.515,-85.557,-33.351,-194.908,66.0,0.0
614713,-0.075,0.405,0.499,-51.061,-40.641,-176.748,0.0,0.0
614780,0.036,0.401,0.514,42.244,-33.160,-43.000,0.0,0.0
614840,0.290,0.857,0.428,2.969,34.107,49.885,0.0,64.0
614902,0.096,0.402,0.677,-104.076,83.511,57.786,0.0,64.0
614962,-0.060,0.135,1.177,-93.779,107.534,44.939,0.0,67.0
615022,-0.764,-0.498,1.558,-201.252,85.542,-1.137,0.0,71.0
615083,-0.713,-1.557,1.693,-194.145,15.924,-31.221,0.0,73.0
615143,-0.465,-1.374,1.403,-9.832,-35.885,-106.878,0.0,73.0
615202,-0.626,-0.665,1.062,31.641,-62.153,-189.420,0.0,71.0
615263,-0.632,-0.399,0.869,50.527,-81.351,-216.305,0.0,70.0
615330,-0.068,-0.187,0.697,17.359,-83.191,-183.893,0.0,0.0
615442,0.116,-0.108,0.334,-21.244,-74.557,-140.817,0.0,0.0
615512,0.677,0.078,0.291,35.221,-37.023,-71.817,0.0,0.0
615579,0.965,0.140,0.499,-12.244,7.244,-55.779,0.0,0.0
615647,0.638,0.017,0.662,-16.687,24.710,-14.168,0.0,0.0
615714,0.430,0.017,0.600,-18.427,13.023,16.099,0.0,0.0
615782,0.433,-0.041,0.552,42.267,1.847,20.710,0.0,0.0
615849,0.581,0.163,0.318,87.382,8.092,66.458,0.0,0.0
615912,0.582,0.230,0.284,99.366,54.405,113.145,0.0,114.0
615971,0.219,0.439,0.430,13.000,113.687,128.901,0.0,61.0
616032,-0.074,0.092,0.688,-19.366,141.794,130.084,0.0,68.0
616094,-0.535,0.114,0.481,94.603,174.290,146.878,0.0,58.0
616154,-0.698,0.758,0.502,47.511,233.122,125.718,0.0,60.0
616213,-0.701,0.322,0.814,41.122,211.000,109.008,0.0,65.0
616271,-1.106,0.212,0.577,163.313,189.168,88.771,158.0,71.0
616332,-1.399,1.125,0.367,83.366,218.176,75.275,0.0,81.0
616390,-1.783,0.081,1.155,-3.580,191.084,82.702,136.0,93.0
616454,-1.439,0.650,1.104,250.130,133.901,110.710,0.0,138.0
616521,-1.303,2.000,0.743,17.641,76.870,101.305,0.0,0.0
616587,-1.882,1.924,0.406,-250.137,85.053,184.038,0.0,155.0
616657,-1.926,0.944,0.611,-250.137,-37.817,226.763,0.0,0.0
616716,-1.215,0.647,0.283,-250.137,-145.427,169.672,38.0,0.0
616783,-0.625,0.304,0.084,-245.557,-178.504,108.321,0.0,0.0
616840,-0.086,0.196,-0.091,-217.954,-166.695,34.130,22.0,176.0
616895,0.134,-0.007,0.083,-171.969,-127.824,-27.099,19.0,167.0
616950,0.370,-0.070,0.078,-129.901,-68.679,-43.908,17.0,161.0
617005,0.467,-0.136,0.262,-85.939,-25.832,-59.679,15.0,155.0
617058,0.587,0.009,0.395,-52.237,2.153,-41.458,16.0,116.0
617114,0.647,0.000,0.513,-66.076,31.092,-40.718,17.0,144.0
617166,0.949,-0.206,0.786,-79.107,41.176,-53.328,20.0,103.0
617220,0.864,-0.313,0.954,-38.695,40.626,-45.969,19.0,135.0
617271,0.997,-0.453,1.165,-46.489,32.450,-44.435,20.0,81.0
617323,0.803,-0.569,1.139,22.237,47.893,-23.870,20.0,126.0
617376,0.567,-0.358,0.829,32.023,33.221,-2.023,20.0,121.0
617439,0.489,-0.309,0.594,25.458,13.023,10.313,0.0,117.0
617502,0.414,-0.013,0.458,4.626,-0.863,9.305,0.0,110.0
617567,0.364,-0.281,0.842,-51.122,-9.298,-18.939,0.0,106.0
617618,0.425,-0.385,1.097,1.023,-4.771,-10.489,18.0,90.0
617669,0.504,-0.211,1.081,-4.794,7.366,-6.809,19.0,90.0
617720,0.357,-0.261,1.058,-24.893,3.840,-10.115,18.0,90.0
617772,0.382,-0.305,1.033,-3.015,1.458,-14.137,18.0,93.0
617833,0.526,-0.314,1.062,-1.145,8.809,-23.702,0.0,88.0
617884,0.629,-0.456,0.916,7.511,29.870,-10.824,19.0,88.0
617934,0.638,-0.316,0.665,5.511,40.382,-5.252,18.0,88.0
617986,0.587,-0.374,0.533,0.550,35.847,7.710,19.0,87.0
618040,0.523,-0.320,0.530,10.748,28.924,23.618,23.0,86.0
618105,0.426,-0.259,0.601,40.893,21.435,41.748,0.0,165.0
618157,0.438,-0.230,0.683,47.008,7.321,53.931,20.0,91.0
618212,0.457,-0.177,0.776,71.992,17.405,79.672,24.0,152.0
618276,0.543,0.016,0.983,78.466,38.130,76.580,0.0,143.0
618331,0.349,0.280,0.981,98.748,62.405,52.519,23.0,139.0
