Timestamp(ms),AccelX(g),AccelY(g),AccelZ(g),GyroX(deg/s),GyroY(deg/s),GyroZ(deg/s),DistanceLeft(cm),DistanceRight(cm)
53354,-1.216,0.143,0.028,102.053,67.679,-136.191,165.0,50.0
53406,-0.845,0.245,0.053,94.366,66.427,-119.214,166.0,48.0
53465,-0.774,0.267,0.103,51.557,52.649,-102.847,0.0,46.0
53519,-0.877,0.249,0.189,44.542,52.099,-94.908,0.0,47.0
53573,-0.921,0.327,0.196,18.641,46.870,-79.504,0.0,50.0
53628,-1.033,0.225,0.267,-2.802,28.901,-48.496,0.0,55.0
53684,-1.230,0.189,0.232,24.092,6.794,-8.931,0.0,61.0
53739,-1.412,0.239,0.081,27.344,-18.954,44.168,0.0,71.0
53795,-1.381,0.213,-0.040,-40.267,-60.214,123.191,0.0,83.0
53853,-1.561,0.128,-0.101,-92.794,-91.977,179.618,0.0,97.0
53912,-1.285,0.128,-0.081,-81.061,-98.802,188.397,0.0,113.0
53975,-0.868,0.167,-0.070,-75.397,-92.672,179.099,0.0,133.0
54038,-0.660,0.222,-0.033,-85.542,-83.672,150.023,0.0,0.0
54102,-0.711,0.237,-0.001,-85.229,-63.427,99.099,0.0,0.0
54164,-0.886,0.255,0.070,-55.435,-31.763,36.450,0.0,0.0
54227,-0.946,0.182,0.088,-6.702,9.763,-30.511,0.0,0.0
54291,-1.115,0.186,0.093,30.473,38.015,-67.809,0.0,0.0
54354,-0.976,0.202,0.100,57.641,73.206,-100.550,0.0,0.0
54418,-1.169,0.250,0.097,48.183,104.519,-154.557,0.0,0.0
54480,-1.138,0.122,0.105,62.427,112.855,-177.473,0.0,186.0
54546,-0.914,0.187,0.121,59.038,101.160,-155.328,0.0,181.0
54608,-0.944,0.198,0.187,26.794,74.977,-118.878,0.0,181.0
54676,-0.961,0.136,0.259,36.565,45.069,-65.183,0.0,186.0
54737,-1.096,0.233,0.207,54.580,17.168,-9.588,0.0,192.0
54800,-1.284,0.350,0.135,22.397,-0.130,28.870,0.0,0.0
54852,-1.352,0.204,0.038,-30.763,-34.496,80.214,17.0,0.0
54915,-1.565,0.170,-0.056,-73.412,-69.573,140.405,0.0,0.0
54977,-1.581,0.092,-0.126,-72.397,-103.084,173.855,0.0,0.0
55042,-0.912,0.128,-0.073,-44.336,-92.870,190.061,0.0,0.0
55104,-0.606,0.284,-0.095,-82.924,-79.168,169.328,0.0,0.0
55166,-0.682,0.241,-0.024,-109.824,-58.992,119.733,0.0,0.0
55229,-0.779,0.208,0.021,-86.725,-27.916,56.863,0.0,0.0
55291,-0.963,0.253,0.022,-32.015,12.763,-25.351,0.0,0.0
55354,-1.047,0.217,0.038,15.733,55.267,-73.321,0.0,0.0
55416,-0.982,0.192,0.070,25.420,86.046,-91.962,0.0,0.0
55479,-1.377,0.160,0.079,9.267,84.557,-127.450,0.0,0.0
55541,-1.242,-0.017,0.194,88.344,86.450,-129.206,0.0,0.0
55606,-0.911,0.204,0.108,118.397,80.053,-106.893,0.0,0.0
55668,-0.818,0.312,0.121,33.580,59.183,-100.427,0.0,0.0
55731,-0.873,0.173,0.218,14.969,57.695,-83.290,0.0,0.0
55786,-0.918,0.208,0.233,2.664,40.817,-52.954,17.0,0.0
55848,-1.066,0.123,0.239,7.130,12.969,-21.664,0.0,0.0
55905,-1.416,0.167,0.124,44.252,-13.405,28.359,16.0,0.0
55956,-1.298,0.224,-0.006,3.328,-54.267,98.802,16.0,0.0
56008,-1.598,0.174,-0.101,-52.168,-83.183,151.000,16.0,0.0
56071,-1.571,0.128,-0.123,-64.076,-98.382,169.450,0.0,0.0
56136,-1.169,0.033,-0.117,-46.237,-109.458,203.855,0.0,0.0
56199,-0.773,0.147,-0.059,-50.137,-99.840,190.023,0.0,0.0
56261,-0.555,0.162,-0.000,-54.595,-84.137,124.137,0.0,0.0
56325,-0.563,0.160,0.093,-25.183,-63.290,47.260,0.0,0.0
56430,-0.945,0.165,0.198,77.092,-30.718,-58.840,0.0,0.0
56493,-1.199,0.225,0.172,141.916,-4.366,-109.443,0.0,0.0
56555,-1.287,0.288,0.169,140.954,-6.130,-150.153,0.0,0.0
56617,-1.277,0.175,0.113,182.107,-11.641,-175.069,0.0,0.0
56680,-1.213,0.206,-0.021,221.099,-29.534,-145.351,0.0,0.0
56743,-1.018,0.402,-0.190,217.962,-35.519,-96.969,0.0,158.0
56803,-0.963,0.448,-0.103,119.389,-22.763,-70.786,0.0,139.0
56865,-0.905,0.261,0.057,209.550,-23.557,-36.916,0.0,0.0
56927,-0.898,0.838,-0.074,135.053,-17.947,-30.702,186.0,0.0
56989,-1.026,0.612,0.156,65.084,2.954,-33.580,185.0,0.0
57046,-1.001,0.618,0.270,31.534,-14.153,13.824,185.0,103.0
57108,-1.077,0.521,0.320,34.672,-34.649,47.374,0.0,0.0
57170,-0.946,0.548,0.280,-10.786,-42.061,77.382,0.0,0.0
57227,-0.855,0.368,0.372,-40.962,-55.137,86.611,0.0,97.0
57287,-0.872,0.458,0.387,-76.076,-71.412,81.321,0.0,99.0
57350,-0.650,0.308,0.544,-66.183,-77.458,69.908,0.0,0.0
57412,-0.654,0.326,0.466,-65.901,-62.718,46.863,0.0,0.0
57475,-0.682,0.302,0.428,-30.618,-47.809,18.672,0.0,0.0
57538,-0.904,0.437,0.303,-27.931,-4.939,-36.519,0.0,0.0
57601,-1.060,0.089,0.231,24.076,29.000,-74.084,0.0,0.0
57663,-1.049,0.388,0.046,77.298,62.069,-75.557,0.0,0.0
57725,-1.134,0.146,0.119,6.397,64.573,-114.008,0.0,0.0
57780,-1.052,-0.027,0.188,145.336,82.832,-108.626,60.0,0.0
57838,-0.877,0.271,-0.016,192.168,87.092,-119.496,63.0,0.0
57892,-0.808,0.457,-0.001,87.153,71.817,-127.137,51.0,0.0
57948,-0.830,0.348,0.162,5.664,80.504,-116.725,0.0,73.0
58011,-1.103,0.291,0.428,-1.679,62.237,-80.313,0.0,0.0
58074,-1.073,0.433,0.463,31.313,24.611,-31.649,0.0,0.0
58136,-1.200,0.546,0.268,-18.634,1.847,5.855,0.0,0.0
58188,-1.362,0.498,0.034,-58.198,-27.817,38.069,16.0,0.0
58251,-1.566,0.359,-0.229,-122.344,-62.420,96.924,0.0,0.0
58317,-1.462,0.342,-0.353,-140.603,-79.931,156.489,0.0,0.0
58380,-0.875,0.125,-0.135,-133.969,-88.824,180.137,0.0,0.0
58443,-0.526,0.238,-0.048,-72.282,-84.053,175.809,0.0,0.0
58506,-0.585,0.432,-0.050,-80.252,-62.351,119.359,0.0,0.0
58568,-0.977,0.375,0.009,-62.496,-20.847,51.221,0.0,0.0
58632,-1.083,0.295,-0.032,-25.435,19.954,-15.947,0.0,0.0
58694,-1.216,0.191,-0.074,-20.000,44.153,-50.267,0.0,0.0
58755,-1.052,0.145,0.032,-15.939,78.725,-72.550,146.0,0.0
58814,-1.343,0.094,0.068,6.466,84.252,-112.252,147.0,0.0
58880,-1.118,0.034,0.198,93.351,91.489,-124.038,0.0,0.0
58943,-0.859,0.235,0.081,98.313,91.107,-123.183,0.0,0.0
59005,-0.793,0.239,0.140,20.031,66.321,-101.916,0.0,0.0
59069,-0.876,0.162,0.203,9.183,58.527,-74.237,0.0,0.0
59131,-0.974,0.280,0.206,-1.687,44.603,-52.137,0.0,0.0
59188,-1.102,0.263,0.242,-14.458,24.389,-31.374,16.0,0.0
59250,-1.321,0.259,0.193,14.992,1.420,2.634,0.0,0.0
59307,-1.465,0.291,-0.045,-38.420,-43.748,60.840,17.0,0.0
59369,-1.603,0.214,-0.157,-86.641,-79.290,118.802,0.0,0.0
59436,-1.399,0.031,-0.135,-75.168,-115.916,168.260,0.0,0.0
59541,-0.577,0.312,-0.085,-59.084,-93.000,172.076,0.0,0.0
59604,-0.528,0.280,0.001,-68.313,-71.168,119.489,0.0,0.0
59667,-0.663,0.367,-0.015,-65.359,-26.710,65.878,0.0,0.0
59723,-1.028,0.367,-0.009,-71.405,11.580,-6.977,0.0,79.0
59779,-1.133,0.185,0.022,-46.092,38.023,-44.985,186.0,79.0
59834,-1.109,0.127,0.046,8.603,64.008,-69.344,186.0,78.0
59889,-1.124,0.185,0.036,27.092,85.244,-83.718,186.0,79.0
59944,-1.314,0.116,0.090,38.511,76.931,-113.023,187.0,78.0
60003,-1.143,0.044,0.166,121.878,83.267,-124.702,188.0,78.0
60066,-0.881,0.263,0.072,134.824,91.725,-129.504,0.0,0.0
60130,-0.756,0.383,0.072,11.168,78.405,-120.695,0.0,0.0
60185,-0.906,0.153,0.243,-39.450,71.893,-93.603,0.0,77.0
60231,-1.019,0.100,0.315,-0.588,45.611,-52.656,17.0,77.0
60283,-1.111,0.152,0.296,37.435,18.847,-25.672,16.0,0.0
60347,-1.178,0.225,0.195,48.214,-7.763,14.237,0.0,0.0
60409,-1.454,0.293,0.031,22.305,-35.260,60.489,0.0,0.0
60473,-1.554,0.237,-0.176,-57.397,-72.702,136.992,0.0,0.0
60532,-1.453,0.218,-0.219,-97.718,-83.740,170.130,0.0,81.0
60589,-0.979,0.200,-0.123,-98.954,-79.863,167.565,0.0,83.0
60645,-0.643,0.204,-0.082,-98.313,-76.496,154.863,0.0,86.0
60702,-0.541,0.208,-0.023,-91.366,-64.817,129.832,0.0,89.0
60760,-0.577,0.267,0.008,-72.366,-43.137,89.832,0.0,92.0
60816,-0.783,0.321,0.026,-61.725,-9.595,27.344,0.0,96.0
60873,-1.078,0.309,0.048,-30.099,32.481,-49.160,0.0,95.0
60931,-1.223,0.153,0.053,18.649,61.954,-91.084,0.0,94.0
60986,-1.064,0.184,-0.001,40.290,91.977,-94.481,163.0,93.0
61046,-1.282,0.269,-0.005,18.634,90.275,-111.511,0.0,99.0
61104,-1.288,0.055,0.106,47.916,78.725,-123.557,0.0,98.0
61161,-0.977,0.094,0.124,120.046,86.252,-104.580,0.0,97.0
61218,-0.788,0.342,0.022,75.298,68.107,-92.481,0.0,97.0
61276,-0.705,0.223,0.172,14.290,50.336,-73.427,0.0,98.0
61333,-0.935,0.226,0.203,20.817,44.450,-48.656,0.0,99.0
61380,-0.994,0.256,0.241,15.122,23.069,-22.504,16.0,101.0
61427,-1.134,0.276,0.249,14.840,7.321,-3.710,17.0,102.0
61488,-1.161,0.261,0.208,4.611,-13.611,22.924,0.0,104.0
61533,-1.349,0.294,0.108,-15.511,-36.229,55.931,16.0,70.0
61579,-1.459,0.222,0.008,-42.405,-69.519,92.893,16.0,70.0
61633,-1.651,0.314,-0.195,-66.832,-89.916,130.168,0.0,58.0
61687,-1.446,0.323,-0.232,-117.344,-89.321,152.580,133.0,97.0
61743,-1.012,0.219,-0.128,-117.908,-88.664,165.122,0.0,66.0
61799,-0.647,0.212,-0.067,-104.496,-85.718,159.115,190.0,72.0
61853,-0.462,0.222,-0.007,-75.405,-68.603,131.756,184.0,62.0
61908,-0.485,0.340,-0.008,-55.573,-39.359,81.992,187.0,68.0
61968,-0.694,0.371,0.010,-50.191,-1.977,18.282,0.0,73.0
62024,-0.865,0.330,0.061,-25.969,47.260,-48.511,0.0,77.0
62081,-1.058,0.283,0.063,-21.885,88.886,-91.901,0.0,79.0
62137,-1.057,0.145,0.146,-27.496,108.366,-118.176,0.0,80.0
62194,-1.216,0.070,0.180,-17.412,116.725,-111.359,0.0,80.0
62251,-1.453,0.018,0.194,18.023,88.267,-112.305,0.0,80.0
62312,-1.103,0.110,0.205,58.756,70.198,-95.023,0.0,82.0
62400,-0.777,0.281,0.182,-16.443,40.420,-62.420,16.0,84.0
62459,-0.800,0.191,0.264,-39.809,32.756,-53.908,0.0,151.0
62513,-0.839,0.191,0.285,-36.000,16.969,-30.366,16.0,164.0
62562,-0.975,0.295,0.268,-28.473,4.542,-16.725,17.0,170.0
62613,-1.096,0.369,0.190,-48.992,-15.931,5.168,17.0,174.0
62661,-1.302,0.337,0.111,-52.427,-32.351,32.748,16.0,142.0
62723,-1.356,0.302,-0.052,-50.466,-57.206,78.954,0.0,192.0
62781,-1.483,0.552,-0.355,-95.466,-53.206,130.328,0.0,119.0
62843,-1.291,0.362,-0.279,-151.168,-50.855,130.710,0.0,0.0
62906,-0.917,0.202,-0.078,-107.786,-55.008,137.496,0.0,0.0
62970,-0.682,0.290,-0.056,-88.901,-62.122,136.580,0.0,0.0
63026,-0.651,0.291,0.026,-82.176,-56.176,100.053,0.0,74.0
63082,-0.681,0.278,0.041,-62.313,-32.511,59.504,0.0,77.0
63136,-0.927,0.351,0.069,-36.145,3.611,7.725,0.0,68.0
63191,-1.087,0.249,0.106,-11.229,41.664,-45.710,0.0,62.0
63246,-1.145,0.239,0.096,13.618,83.557,-84.389,0.0,61.0
63300,-1.209,0.184,-0.013,-10.733,92.412,-103.672,0.0,62.0
63354,-1.272,0.004,0.112,10.092,69.779,-88.595,0.0,62.0
63410,-1.196,-0.021,0.155,101.863,60.397,-76.298,0.0,61.0
63467,-0.863,0.245,0.092,126.374,65.137,-71.855,200.0,66.0
63521,-0.682,0.336,0.072,49.947,56.779,-76.053,0.0,63.0
63577,-0.690,0.180,0.190,12.954,50.435,-68.038,197.0,72.0
63631,-0.907,0.214,0.208,38.023,43.450,-48.031,0.0,58.0
63675,-1.004,0.282,0.279,39.244,32.252,-32.359,17.0,66.0
63730,-1.034,0.385,0.298,25.313,25.107,-20.328,0.0,65.0
63785,-1.154,0.367,0.247,-11.855,6.672,3.031,0.0,68.0
63841,-1.369,0.359,0.188,-26.611,-10.756,25.931,0.0,76.0
63886,-1.358,0.291,0.019,-62.832,-50.458,82.069,16.0,83.0
63943,-1.625,0.255,-0.119,-81.130,-79.176,117.977,0.0,63.0
63995,-1.368,0.222,-0.095,-71.901,-96.626,149.252,155.0,59.0
64047,-0.896,0.225,-0.025,-45.443,-95.214,165.031,150.0,44.0
64100,-0.646,0.343,-0.058,-76.779,-92.992,162.519,0.0,53.0
64159,-0.508,0.209,0.083,-71.344,-80.359,139.534,139.0,0.0
64222,-0.498,0.326,0.076,-45.221,-43.534,91.115,0.0,0.0
64285,-0.792,0.423,0.082,-56.076,-0.565,10.580,0.0,0.0
64348,-1.037,0.235,0.104,-25.832,40.504,-64.069,0.0,0.0
64406,-1.029,0.214,0.073,35.847,87.290,-99.366,0.0,90.0
64470,-1.159,0.288,0.021,19.885,100.664,-118.740,0.0,0.0
64532,-1.414,0.047,0.106,45.229,91.565,-149.718,0.0,0.0
64590,-1.141,0.067,0.096,133.374,90.420,-134.305,123.0,0.0
64653,-0.840,0.340,0.007,104.237,76.908,-116.725,0.0,0.0
64715,-0.762,0.319,0.129,-1.641,61.092,-95.985,0.0,0.0
64771,-0.965,0.209,0.234,-1.878,50.763,-61.580,17.0,0.0
64834,-1.023,0.278,0.242,10.160,25.794,-23.985,0.0,0.0
64897,-1.078,0.381,0.199,4.817,12.603,6.710,0.0,0.0
64952,-1.418,0.385,0.063,-40.763,-11.008,30.015,17.0,0.0
65014,-1.480,0.226,-0.029,-65.641,-57.626,88.031,0.0,0.0
65077,-1.667,0.165,-0.174,-80.580,-93.679,151.656,0.0,0.0
65131,-1.201,0.205,-0.125,-81.840,-101.908,173.092,0.0,49.0
65185,-0.779,0.265,-0.114,-94.802,-94.099,164.084,0.0,45.0
65283,-0.590,0.217,-0.024,-90.519,-76.023,113.855,0.0,53.0
65337,-0.687,0.286,-0.053,-80.534,-45.527,75.084,0.0,58.0
65392,-0.988,0.361,-0.080,-48.901,1.916,3.252,0.0,63.0
65445,-0.976,0.253,-0.025,-30.809,52.145,-41.641,0.0,40.0
65503,-1.071,0.183,-0.015,-18.557,88.473,-82.282,0.0,50.0
65555,-1.117,0.146,0.057,-3.282,108.374,-83.878,171.0,50.0
65608,-1.416,0.073,0.132,13.229,102.611,-116.397,171.0,50.0
65660,-1.185,0.010,0.200,93.099,104.542,-120.588,145.0,62.0
65714,-0.862,0.186,0.139,102.160,99.618,-114.420,173.0,62.0
65770,-0.765,0.311,0.150,34.122,79.046,-108.763,0.0,85.0
65815,-0.865,0.174,0.260,-11.252,66.840,-94.183,17.0,81.0
65861,-1.007,0.139,0.289,-8.443,54.061,-66.344,17.0,91.0
65907,-1.091,0.171,0.303,-12.954,26.473,-35.122,17.0,95.0
65961,-1.137,0.153,0.312,-15.725,-2.763,-8.664,17.0,181.0
66025,-1.299,0.239,0.236,-10.244,-32.305,24.176,0.0,0.0
66077,-1.267,0.274,0.079,-41.771,-68.122,61.947,11.0,0.0
66139,-1.577,0.387,-0.117,-71.779,-98.053,95.031,188.0,0.0
66190,-1.551,0.365,-0.234,-101.015,-102.252,117.076,101.0,82.0
66252,-1.138,0.204,-0.148,-87.427,-101.351,140.527,0.0,0.0
66316,-0.723,0.224,-0.087,-62.977,-99.122,156.412,0.0,0.0
66378,-0.615,0.331,-0.093,-89.351,-77.977,134.107,0.0,0.0
66443,-0.709,0.261,0.006,-89.611,-43.695,90.656,0.0,166.0
66503,-0.860,0.295,0.052,-48.130,-1.695,34.275,0.0,166.0
66565,-0.885,0.217,0.125,-7.214,40.634,-16.214,0.0,166.0
66625,-0.899,0.228,0.170,14.885,84.000,-69.725,0.0,166.0
66686,-1.012,0.223,0.180,-7.878,107.366,-88.092,0.0,165.0
66747,-1.323,0.090,0.233,13.305,112.908,-134.473,0.0,163.0
66809,-1.184,0.080,0.188,54.481,111.954,-137.939,0.0,185.0
66866,-0.958,0.201,0.174,18.145,90.260,-113.397,97.0,184.0
66928,-0.894,0.197,0.228,-24.198,68.527,-92.695,0.0,183.0
66982,-0.914,0.139,0.282,-17.359,52.710,-66.542,16.0,183.0
67035,-0.914,0.224,0.272,-17.267,23.786,-40.656,16.0,184.0
67086,-1.045,0.229,0.277,-13.595,-4.115,-5.519,17.0,186.0
67138,-1.105,0.279,0.192,6.550,-22.809,32.969,16.0,191.0
67190,-1.340,0.466,0.019,-32.588,-37.641,59.611,17.0,197.0
67235,-1.458,0.326,-0.064,-83.489,-65.847,96.412,10.0,72.0
67291,-1.562,0.351,-0.167,-103.511,-76.908,118.679,0.0,75.0
67348,-1.417,0.217,-0.181,-120.992,-90.244,131.916,0.0,82.0
67404,-1.004,0.120,-0.102,-91.611,-97.870,153.008,0.0,93.0
67463,-0.740,0.253,-0.098,-71.756,-88.191,150.466,0.0,45.0
67516,-0.698,0.288,-0.061,-79.298,-69.931,115.832,0.0,39.0
67570,-0.727,0.250,-0.003,-71.412,-47.412,75.305,0.0,38.0
67623,-0.893,0.277,0.042,-38.672,-12.588,21.641,0.0,37.0
67678,-0.999,0.216,0.073,-7.656,24.176,-23.435,0.0,37.0
67731,-1.091,0.166,0.072,6.939,52.687,-45.779,0.0,36.0
67785,-0.990,0.135,0.098,19.527,82.702,-65.931,0.0,36.0
67838,-1.117,0.177,0.113,29.725,92.328,-92.168,0.0,35.0
67902,-1.193,0.099,0.135,69.496,89.679,-122.206,0.0,152.0
67962,-0.920,0.166,0.118,105.412,98.107,-124.580,0.0,147.0
68023,-0.895,0.312,0.048,45.962,89.008,-117.053,0.0,146.0
68117,-1.021,0.097,0.214,28.397,62.351,-62.534,51.0,149.0
68167,-1.013,0.226,0.187,40.672,43.901,-36.641,17.0,151.0
68219,-1.082,0.233,0.197,26.611,25.206,-16.939,51.0,156.0
68272,-1.272,0.262,0.167,14.840,9.649,8.824,51.0,165.0
68315,-1.377,0.182,0.037,-4.618,-23.321,46.672,13.0,30.0
68358,-1.244,0.193,-0.005,-43.344,-51.565,98.908,13.0,34.0
68407,-1.438,0.268,-0.077,-83.725,-72.130,128.786,48.0,41.0
68461,-1.376,0.236,-0.095,-102.252,-89.290,127.855,0.0,51.0
68516,-1.074,0.170,-0.035,-71.282,-93.023,130.076,0.0,63.0
68568,-0.801,0.235,-0.030,-48.893,-93.008,122.611,160.0,30.0
68621,-0.730,0.277,-0.040,-48.687,-85.466,103.069,0.0,29.0
68675,-0.767,0.268,-0.006,-56.275,-70.069,84.115,0.0,31.0
68728,-0.854,0.274,0.023,-51.420,-51.176,58.092,0.0,31.0
68783,-0.936,0.259,0.059,-21.374,-24.397,10.366,0.0,29.0
68836,-0.974,0.230,0.108,15.504,5.580,-18.496,0.0,29.0
68892,-0.999,0.277,0.085,20.443,38.221,-48.443,0.0,28.0
68945,-0.964,0.154,0.136,11.618,50.244,-56.466,0.0,30.0
69000,-1.138,0.155,0.154,27.664,52.031,-64.588,0.0,36.0
69053,-1.168,0.136,0.141,53.626,50.725,-72.336,0.0,30.0
69116,-0.923,0.228,0.130,60.557,61.504,-75.626,0.0,0.0
69172,-0.790,0.281,0.090,18.099,69.756,-82.893,122.0,137.0
69224,-0.843,0.180,0.146,10.046,67.580,-87.015,57.0,137.0
69278,-0.948,0.141,0.161,42.519,64.557,-83.023,118.0,137.0
69330,-0.965,0.181,0.163,62.641,54.473,-68.947,58.0,138.0
69383,-1.126,0.199,0.138,54.511,41.382,-53.076,16.0,141.0
69438,-1.262,0.245,0.134,50.466,31.244,-34.008,50.0,0.0
69492,-1.257,0.251,0.091,13.916,9.359,-5.237,17.0,149.0
69534,-1.131,0.208,0.075,-31.756,-21.733,39.534,15.0,16.0
69575,-1.219,0.263,0.047,-57.595,-40.359,58.954,12.0,23.0
69618,-1.297,0.246,0.004,-70.069,-59.069,68.649,44.0,28.0
69664,-1.151,0.198,0.017,-63.061,-72.084,89.420,86.0,30.0
69709,-1.008,0.271,-0.009,-59.397,-78.031,114.733,61.0,37.0
69758,-0.937,0.328,0.014,-76.115,-82.435,127.244,74.0,46.0
69805,-0.864,0.445,0.030,-90.214,-76.992,126.160,53.0,56.0
69849,-0.894,0.428,0.071,-99.710,-78.687,123.374,51.0,29.0
69901,-0.844,0.484,0.152,-93.886,-75.870,118.473,0.0,29.0
69957,-0.936,0.534,0.183,-88.634,-69.023,98.176,0.0,29.0
70008,-0.899,0.463,0.255,-60.725,-59.267,90.969,165.0,30.0
70059,-0.875,0.645,0.297,-37.458,-32.443,72.267,163.0,36.0
70110,-0.649,0.492,0.326,-46.924,-8.725,67.092,162.0,37.0
70161,-0.646,0.641,0.391,-75.351,11.206,77.901,159.0,39.0
70214,-0.801,0.551,0.460,-76.634,14.573,56.733,156.0,45.0
70265,-0.679,0.477,0.535,-42.504,29.137,73.160,155.0,48.0
70320,-0.477,0.600,0.505,-47.069,48.863,72.115,0.0,50.0
70374,-0.473,0.508,0.496,-108.313,49.939,77.427,0.0,50.0
70428,-0.356,0.329,0.588,-85.466,51.122,86.176,0.0,54.0
70473,-0.325,0.491,0.589,-81.702,59.321,89.939,44.0,59.0
70528,-0.369,0.457,0.635,-81.374,63.863,94.496,0.0,62.0
70574,-0.418,0.485,0.688,-62.099,66.595,100.275,44.0,64.0
70625,-0.479,0.648,0.735,-52.122,65.351,99.573,41.0,172.0
70732,-0.521,0.612,0.820,-69.763,55.595,112.550,0.0,173.0
70786,-0.478,0.619,0.776,-57.397,47.168,110.153,39.0,0.0
70839,-0.457,0.715,0.721,-75.595,41.137,92.160,43.0,0.0
70892,-0.436,0.615,0.694,-73.802,27.321,80.053,39.0,0.0
70945,-0.427,0.525,0.734,-56.763,25.565,66.397,38.0,0.0
70999,-0.471,0.691,0.650,-67.290,13.687,55.351,36.0,0.0
71052,-0.354,0.404,0.794,-63.420,2.191,42.221,34.0,0.0
71105,-0.312,0.398,0.788,-10.168,-2.115,39.336,36.0,0.0
71158,-0.304,0.543,0.753,-13.366,-0.473,25.573,31.0,0.0
71215,-0.335,0.457,0.826,-31.053,5.901,18.542,32.0,0.0
71267,-0.361,0.350,0.824,-6.153,12.954,24.023,31.0,0.0
71320,-0.395,0.388,0.733,36.137,28.977,17.962,37.0,0.0
71373,-0.508,0.426,0.663,63.779,40.534,-1.580,37.0,0.0
71427,-0.529,0.408,0.583,117.053,51.947,-21.664,39.0,0.0
71481,-0.610,0.694,0.472,138.046,59.817,-51.397,38.0,0.0
71543,-0.682,0.757,0.479,92.588,42.695,-68.855,0.0,0.0
71597,-0.640,0.760,0.495,60.679,20.817,-82.817,42.0,0.0
71650,-0.647,0.771,0.528,32.160,5.267,-79.427,42.0,0.0
71707,-0.621,0.635,0.585,36.672,-5.244,-68.076,43.0,0.0
71759,-0.570,0.661,0.528,48.206,-9.038,-47.580,44.0,168.0
71811,-0.573,0.670,0.512,21.893,-7.901,-34.771,45.0,166.0
71863,-0.627,0.574,0.514,9.122,-3.977,-18.947,46.0,167.0
71917,-0.686,0.599,0.485,8.939,-0.435,-6.214,46.0,0.0
71970,-0.745,0.525,0.444,-6.458,2.450,1.504,44.0,0.0
72025,-0.774,0.418,0.424,-2.176,9.710,-2.420,46.0,0.0
72078,-0.934,0.395,0.361,-3.702,11.802,-8.023,45.0,0.0
72140,-0.858,0.326,0.380,-2.809,12.336,-12.336,0.0,0.0
72196,-0.825,0.335,0.366,8.206,18.473,-30.313,42.0,176.0
72248,-0.871,0.393,0.399,5.221,20.916,-38.626,40.0,174.0
72309,-0.931,0.410,0.439,0.382,16.664,-41.931,0.0,175.0
72361,-0.934,0.375,0.462,-2.702,5.664,-31.656,39.0,175.0
72414,-0.843,0.295,0.454,15.122,-7.076,-26.137,46.0,170.0
72466,-0.815,0.369,0.446,28.275,-10.221,-21.817,42.0,170.0
72518,-0.885,0.360,0.421,12.611,-16.939,-16.802,42.0,169.0
72570,-0.770,0.254,0.430,19.359,-21.710,-1.802,41.0,169.0
72626,-0.799,0.307,0.389,16.412,-18.084,-0.473,43.0,168.0
72677,-0.771,0.309,0.409,8.427,-17.649,3.229,44.0,167.0
72729,-0.838,0.281,0.408,7.290,-16.519,5.672,45.0,167.0
72781,-0.786,0.312,0.410,12.519,-10.718,8.656,47.0,167.0
72834,-0.737,0.328,0.427,4.298,2.305,6.550,47.0,167.0
72895,-0.851,0.343,0.422,-19.115,6.771,5.641,0.0,169.0
72947,-0.858,0.263,0.467,-1.947,-1.908,4.885,46.0,165.0
72998,-0.794,0.325,0.472,16.397,2.344,11.336,46.0,164.0
73051,-0.798,0.407,0.482,3.031,8.817,15.878,52.0,163.0
73106,-0.731,0.401,0.522,-10.496,14.092,36.962,48.0,162.0
73158,-0.739,0.480,0.543,-25.901,16.603,48.145,50.0,162.0
73210,-0.811,0.493,0.516,-39.924,4.840,66.145,53.0,162.0
73263,-0.754,0.576,0.531,-40.015,-5.168,78.038,52.0,164.0
73318,-0.687,0.621,0.504,-30.443,-9.672,84.740,57.0,0.0
73381,-0.653,0.814,0.438,-37.611,-14.221,94.458,0.0,0.0
73487,-0.513,0.903,0.499,-42.748,-17.771,105.840,0.0,0.0
73541,-0.424,0.895,0.522,-52.550,-22.305,110.603,46.0,0.0
73604,-0.359,0.950,0.465,-44.298,-17.939,118.443,0.0,0.0
73659,-0.262,0.829,0.463,-52.038,3.244,121.344,41.0,159.0
73721,-0.280,0.812,0.495,-6.130,14.992,128.809,0.0,0.0
73778,-0.242,0.710,0.500,9.870,22.733,120.015,0.0,71.0
73833,-0.358,0.703,0.568,-29.527,15.687,56.779,0.0,72.0
73888,-0.127,0.574,0.677,95.496,6.466,60.580,0.0,73.0
73935,-0.044,0.942,0.476,41.893,19.962,34.389,36.0,75.0
73981,0.073,0.804,0.622,-0.985,18.130,17.473,37.0,76.0
74028,0.102,0.982,0.472,-7.748,19.557,2.611,33.0,77.0
74084,0.080,0.730,0.548,-76.916,14.947,-19.878,0.0,77.0
74142,-0.028,0.667,0.681,-33.679,9.817,-29.282,0.0,77.0
74189,0.010,0.857,0.603,0.656,-2.969,-34.832,36.0,77.0
74235,-0.094,0.707,0.626,-6.588,-5.198,-32.000,36.0,78.0
74283,-0.067,0.715,0.702,26.405,-4.374,-21.389,37.0,79.0
74346,-0.178,0.905,0.626,5.275,-9.015,-34.366,0.0,0.0
74408,-0.380,0.689,0.879,-7.595,-30.542,-60.847,0.0,0.0
74461,-0.371,0.792,0.821,7.489,-56.847,-76.786,36.0,171.0
74524,-0.234,0.884,0.808,-22.855,-72.969,-81.122,0.0,0.0
74577,-0.119,0.739,0.802,-33.901,-76.336,-69.847,36.0,0.0
74634,-0.063,0.802,0.710,-47.954,-71.832,-50.053,31.0,0.0
74688,0.006,0.625,0.742,-40.061,-60.366,-25.489,31.0,0.0
74750,0.040,0.650,0.691,-61.672,-45.061,-7.237,0.0,0.0
74814,0.060,0.425,0.750,-90.115,-28.504,-8.954,0.0,0.0
74877,-0.008,0.323,0.885,-57.954,-18.298,-6.496,0.0,0.0
74940,-0.072,0.174,0.947,-74.786,-13.580,-33.489,0.0,0.0
75003,-0.193,0.151,1.028,-16.947,-12.863,-27.015,0.0,0.0
75067,-0.030,0.215,1.079,1.710,-35.664,-23.763,0.0,0.0
75120,0.110,0.250,1.062,-22.733,-59.550,-17.885,30.0,0.0
75176,0.258,0.262,1.124,-4.985,-75.473,2.450,30.0,0.0
75230,0.346,0.219,1.051,-27.137,-81.809,10.595,28.0,0.0
75283,0.370,0.220,0.980,-29.702,-70.656,7.489,30.0,0.0
75337,0.234,0.065,0.980,-24.176,-73.237,-5.023,30.0,0.0
75390,0.223,0.284,0.815,-12.092,-59.824,-13.855,28.0,0.0
75444,0.177,0.238,0.828,-25.817,-44.153,-17.847,32.0,0.0
75498,0.233,0.202,0.855,-3.130,-24.137,-18.511,30.0,0.0
75550,0.244,0.294,0.773,-16.122,-14.031,-21.779,23.0,0.0
75604,0.291,0.166,0.847,-13.969,-11.618,-30.275,32.0,0.0
75661,0.323,0.224,0.818,23.122,-18.160,-41.802,30.0,0.0
75715,0.449,0.374,0.814,47.023,-21.832,-36.137,36.0,0.0
75768,0.634,0.508,0.700,70.183,-9.382,-6.595,29.0,0.0
75823,0.695,0.662,0.601,7.359,19.389,16.809,30.0,0.0
75876,0.681,0.404,0.719,-34.641,41.000,26.374,30.0,0.0
75929,0.509,0.223,0.747,5.046,69.344,48.397,32.0,0.0
75982,0.403,0.296,0.768,35.580,71.664,43.962,26.0,0.0
76036,0.251,0.243,0.814,30.687,64.145,24.969,29.0,0.0
76090,0.118,0.361,0.831,50.282,64.221,17.641,26.0,0.0
76146,0.213,0.259,1.071,92.313,49.649,19.023,27.0,0.0
76199,0.308,0.635,1.002,151.282,30.450,42.366,28.0,0.0
76293,0.186,0.625,1.037,28.153,-1.443,15.176,29.0,131.0
76346,0.105,0.598,0.927,-54.702,-7.237,-14.626,29.0,0.0
76400,0.114,0.348,1.016,-21.252,-7.863,-34.260,30.0,0.0
76459,0.096,0.661,0.835,-0.038,7.969,-50.916,31.0,0.0
76515,0.057,0.770,0.882,-20.015,2.756,-50.458,34.0,0.0
76568,0.138,0.607,0.872,-37.214,-10.473,-50.733,36.0,0.0
76620,0.107,0.497,0.857,-27.038,-21.695,-51.397,33.0,0.0
76677,0.113,0.558,0.842,-5.191,-27.595,-54.260,36.0,0.0
76729,0.182,0.545,0.832,7.382,-22.802,-51.924,36.0,0.0
76782,0.170,0.576,0.786,-18.122,-16.244,-44.885,36.0,0.0
76835,0.169,0.475,0.839,-34.794,-7.855,-31.321,37.0,0.0
76889,0.159,0.397,0.867,-28.443,1.542,-20.244,36.0,0.0
76942,0.108,0.386,0.854,-8.053,4.221,-14.328,36.0,0.0
76994,0.075,0.460,0.854,-2.443,3.855,-8.069,36.0,0.0
77047,0.095,0.394,0.915,-5.702,3.641,-7.794,36.0,0.0
77101,-0.005,0.448,0.951,-8.130,1.237,-12.710,37.0,0.0
77154,0.003,0.422,0.979,-0.611,-2.908,-12.947,37.0,0.0
77209,0.041,0.414,0.939,-5.244,-5.656,-6.374,36.0,0.0
77262,0.042,0.384,0.956,-2.473,-11.298,-2.840,38.0,0.0
77316,0.013,0.449,0.954,-1.893,-9.336,-6.748,36.0,0.0
77369,0.080,0.368,0.957,-11.046,-6.076,-4.374,36.0,0.0
77421,0.050,0.350,0.959,-6.214,-4.695,-6.947,36.0,0.0
77474,0.095,0.322,0.935,-7.679,-4.756,-3.229,38.0,0.0
77528,0.091,0.315,0.915,-3.550,-9.053,-3.573,37.0,0.0
77581,0.099,0.312,0.938,2.038,-9.267,-3.901,38.0,0.0
77634,0.122,0.303,0.911,3.260,-9.641,-3.740,37.0,0.0
77690,0.163,0.301,0.902,10.710,-12.687,-1.137,38.0,0.0
77744,0.124,0.382,0.887,16.924,-15.405,2.290,39.0,0.0
77797,0.168,0.391,0.893,15.595,-16.634,5.733,41.0,0.0
77850,0.213,0.379,0.899,22.588,-10.962,14.588,42.0,0.0
77903,0.181,0.465,0.913,23.031,-2.573,17.015,42.0,0.0
77957,0.164,0.591,0.937,38.290,11.466,17.168,39.0,0.0
78010,0.108,0.482,0.852,13.359,10.527,18.397,36.0,0.0
78063,0.109,0.578,0.793,41.969,14.954,22.168,35.0,0.0
78116,0.137,0.438,0.763,36.718,15.489,12.130,35.0,0.0
78172,0.107,0.658,0.755,26.435,15.450,4.679,34.0,0.0
78225,0.095,0.609,0.807,40.015,16.008,1.847,34.0,0.0
78278,0.111,0.733,0.789,12.855,16.397,-8.267,35.0,0.0
78341,0.087,0.709,0.797,11.916,20.863,-13.748,0.0,0.0
78394,0.034,0.687,0.792,-4.244,20.580,-15.649,32.0,0.0
78446,0.025,0.616,0.823,-1.344,10.565,-20.718,32.0,0.0
78499,0.005,0.713,0.817,13.252,-1.145,-29.328,32.0,0.0
78553,0.012,0.749,0.861,-5.412,-13.237,-29.802,33.0,0.0
78615,0.016,0.734,0.880,-22.908,-21.718,-28.779,0.0,0.0
78671,-0.011,0.677,0.810,-19.237,-35.427,-30.901,37.0,0.0
78725,0.067,0.715,0.732,2.855,-37.954,-38.176,32.0,0.0
78777,0.132,0.755,0.662,-10.282,-25.359,-42.023,30.0,0.0
78830,0.134,0.712,0.697,-32.550,-7.046,-40.237,30.0,0.0
78883,0.059,0.668,0.726,-37.870,10.282,-40.336,30.0,0.0
78937,-0.053,0.418,0.811,-21.740,14.863,-52.084,30.0,0.0
79033,-0.146,0.362,0.915,7.687,12.870,-56.023,30.0,0.0
79086,-0.251,0.461,0.916,10.588,10.573,-47.130,34.0,0.0
79139,-0.245,0.430,0.944,6.374,5.779,-42.611,34.0,0.0
79194,-0.254,0.427,0.920,21.771,3.107,-31.924,36.0,168.0
79245,-0.256,0.526,0.854,3.672,-2.641,-19.427,32.0,168.0
79296,-0.223,0.455,0.854,5.847,-6.351,-12.870,31.0,168.0
79347,-0.268,0.549,0.785,0.427,-6.802,-2.939,30.0,168.0
79398,-0.235,0.463,0.812,1.802,-8.870,5.305,30.0,168.0
79450,-0.214,0.546,0.816,22.817,-10.137,9.267,30.0,169.0
79503,-0.251,0.558,0.809,11.511,-7.466,13.947,29.0,0.0
79556,-0.166,0.507,0.803,13.321,-7.000,23.611,30.0,0.0
79609,-0.131,0.562,0.804,13.092,-6.679,27.031,30.0,0.0
79665,-0.091,0.665,0.849,15.008,-0.687,11.542,30.0,0.0
79718,-0.158,0.774,0.806,2.267,3.939,3.504,30.0,0.0
79771,-0.121,0.616,0.776,-11.832,3.511,5.053,29.0,0.0
79824,-0.070,0.613,0.782,12.809,4.015,-2.092,30.0,0.0
79877,-0.099,0.610,0.774,0.038,-0.954,-1.771,30.0,0.0
79930,-0.100,0.647,0.800,8.099,-0.405,-2.328,29.0,0.0
79983,-0.162,0.639,0.826,-1.435,0.389,-7.679,30.0,0.0
80036,-0.144,0.639,0.836,-3.779,2.107,-9.885,30.0,0.0
80090,-0.168,0.662,0.837,-8.015,2.198,-16.153,30.0,0.0
80142,-0.196,0.601,0.805,-16.267,4.802,-15.901,30.0,0.0
80198,-0.225,0.615,0.769,-18.038,6.153,-23.130,29.0,0.0
80250,-0.220,0.572,0.772,-16.168,2.687,-30.924,30.0,169.0
80302,-0.221,0.530,0.784,-8.206,1.649,-32.115,30.0,168.0
80353,-0.237,0.532,0.819,-2.885,-0.061,-28.702,30.0,169.0
80405,-0.263,0.466,0.837,-4.557,-2.427,-22.160,29.0,169.0
80456,-0.274,0.453,0.859,-1.282,-6.229,-21.137,30.0,169.0
80507,-0.276,0.466,0.852,0.641,-9.718,-20.985,30.0,169.0
80560,-0.285,0.494,0.839,1.137,-11.603,-21.328,30.0,168.0
80614,-0.289,0.489,0.843,-1.802,-11.076,-22.710,29.0,168.0
80665,-0.322,0.464,0.841,-3.183,-10.733,-22.183,29.0,167.0
80716,-0.258,0.438,0.838,5.092,-10.954,-19.809,29.0,167.0
80768,-0.277,0.527,0.807,4.702,-10.931,-22.237,29.0,167.0
80819,-0.258,0.468,0.834,1.092,-11.679,-15.702,30.0,166.0
80870,-0.279,0.492,0.830,2.863,-10.794,-9.595,30.0,166.0
80921,-0.260,0.453,0.837,4.229,-9.366,-0.847,30.0,165.0
80972,-0.319,0.532,0.844,0.611,-11.481,3.244,29.0,165.0
81024,-0.329,0.476,0.887,0.573,-14.916,11.718,30.0,165.0
81078,-0.321,0.513,0.873,3.023,-15.046,23.557,30.0,165.0
81129,-0.242,0.381,0.823,3.527,-21.771,37.069,30.0,165.0
81180,-0.253,0.509,0.751,18.641,-26.885,48.183,30.0,165.0
81231,-0.184,0.500,0.783,18.901,-27.786,63.198,29.0,165.0
81283,-0.104,0.528,0.804,18.122,-18.443,74.389,30.0,165.0
81334,0.047,0.560,0.829,11.954,-5.252,86.183,35.0,166.0
81388,0.131,0.608,0.828,14.695,2.908,82.489,37.0,0.0
81441,0.190,0.691,0.805,22.107,8.412,75.336,35.0,0.0
81495,0.260,0.755,0.826,25.595,16.038,58.359,34.0,0.0
81552,0.267,0.778,0.810,29.718,29.198,31.191,34.0,0.0
81605,0.209,0.653,0.746,39.901,37.664,22.282,34.0,0.0
81702,0.164,0.731,0.620,26.321,54.435,23.412,30.0,0.0
81756,0.109,0.693,0.662,21.160,55.031,17.351,31.0,0.0
81809,0.063,0.739,0.680,26.595,53.893,14.855,34.0,0.0
81862,0.042,0.898,0.667,26.511,54.573,10.382,33.0,0.0
81916,-0.022,0.728,0.685,-0.282,42.618,5.794,35.0,0.0
81970,-0.098,0.772,0.764,-1.061,24.084,-3.084,36.0,0.0
82024,-0.191,0.853,0.673,-5.130,4.359,-15.710,35.0,0.0
82080,-0.174,0.837,0.645,-15.267,-18.489,-35.061,35.0,0.0
82135,-0.132,0.733,0.613,-21.771,-38.420,-52.992,34.0,0.0
82188,-0.112,0.747,0.597,-9.573,-52.725,-74.092,36.0,0.0
82242,-0.118,0.830,0.655,-6.099,-58.321,-94.427,32.0,0.0
82295,-0.064,0.550,0.732,-29.618,-57.947,-86.557,34.0,0.0
82350,0.031,0.419,0.805,-15.046,-34.214,-57.664,36.0,200.0
82404,0.039,0.492,0.853,-15.794,-9.466,-35.046,32.0,0.0
82457,0.025,0.448,0.823,-34.359,2.702,-16.038,35.0,0.0
82510,-0.079,0.362,0.907,10.718,14.863,-2.779,31.0,0.0
82568,-0.154,0.448,0.828,3.359,19.748,7.672,32.0,0.0
82631,-0.258,0.617,0.918,18.221,11.092,7.534,0.0,0.0
82684,-0.273,0.605,0.913,11.756,5.328,13.885,30.0,0.0
82748,-0.257,0.606,0.859,11.855,12.031,14.389,0.0,0.0
82810,-0.233,0.682,0.773,-10.031,11.672,14.786,0.0,0.0
82874,-0.185,0.591,0.742,-2.893,5.023,6.420,0.0,0.0
82937,-0.222,0.671,0.726,3.824,-4.504,-14.061,0.0,0.0
82994,-0.165,0.719,0.716,19.840,-5.664,-27.473,16.0,0.0
83057,-0.217,0.659,0.728,12.229,-7.702,-27.550,0.0,0.0
83124,-0.340,0.768,0.768,-7.290,-12.786,-35.107,0.0,0.0
83186,-0.282,0.625,0.753,2.031,-14.817,-36.550,0.0,0.0
83245,-0.270,0.611,0.779,-0.565,-19.817,-41.611,0.0,105.0
83308,-0.315,0.624,0.774,-13.221,-19.389,-28.412,0.0,0.0
83365,-0.272,0.595,0.814,-5.611,-23.328,-23.557,0.0,103.0
83429,-0.243,0.472,0.836,-11.725,-17.496,-20.023,0.0,104.0
83485,-0.229,0.468,0.850,-4.725,-1.710,-18.771,0.0,102.0
83543,-0.249,0.435,0.844,-6.031,8.130,-7.901,0.0,101.0
83599,-0.251,0.435,0.834,0.924,7.893,0.863,0.0,101.0
83667,-0.265,0.461,0.855,7.573,5.702,6.794,0.0,99.0
83727,-0.279,0.547,0.813,0.496,6.290,17.397,0.0,102.0
83785,-0.297,0.575,0.755,10.092,12.153,19.489,0.0,101.0
83845,-0.345,0.646,0.772,-3.786,17.084,13.534,0.0,102.0
83904,-0.323,0.619,0.777,3.504,8.443,6.985,0.0,102.0
83962,-0.290,0.617,0.784,-0.832,3.443,1.802,0.0,101.0
84022,-0.285,0.644,0.773,-3.412,2.359,3.977,0.0,100.0
84080,-0.297,0.601,0.737,-2.588,5.221,2.718,0.0,100.0
84140,-0.291,0.554,0.740,-0.351,4.733,-2.931,0.0,100.0
84199,-0.302,0.613,0.717,4.366,4.557,-5.832,0.0,99.0
84260,-0.262,0.546,0.751,7.252,2.603,-5.374,0.0,99.0
84320,-0.315,0.626,0.759,-3.710,-5.053,-9.008,0.0,99.0
84378,-0.298,0.610,0.801,1.779,-4.015,-8.679,0.0,99.0
84438,-0.348,0.564,0.812,-3.595,-3.969,-5.733,0.0,99.0
84497,-0.339,0.555,0.803,-3.183,-0.046,-3.786,0.0,100.0
84555,-0.330,0.495,0.767,-2.641,-2.046,-8.924,0.0,100.0
84658,-0.316,0.462,0.757,-0.573,-1.924,-12.405,0.0,99.0
84717,-0.356,0.562,0.743,-6.618,-4.450,-8.756,0.0,98.0
84776,-0.339,0.549,0.776,4.534,-8.420,-5.710,0.0,98.0
84838,-0.334,0.478,0.794,1.198,-7.092,-1.321,0.0,98.0
84896,-0.381,0.504,0.779,-7.985,-2.336,2.214,0.0,94.0
84956,-0.298,0.551,0.809,5.977,-4.916,-3.183,0.0,97.0
85015,-0.425,0.524,0.833,-17.763,-3.954,-2.924,0.0,97.0
85073,-0.316,0.517,0.776,-3.084,-14.412,-4.992,0.0,96.0
85133,-0.291,0.542,0.777,-7.130,-11.885,-5.885,0.0,95.0
85191,-0.280,0.454,0.810,-9.389,-10.053,1.611,0.0,85.0
85250,-0.326,0.483,0.840,-3.168,-7.565,0.374,0.0,91.0
85308,-0.307,0.495,0.827,-3.092,-7.313,-8.893,0.0,91.0
85370,-0.295,0.539,0.785,3.511,-5.298,-9.420,0.0,94.0
85429,-0.268,0.495,0.802,-0.954,-5.588,-5.191,0.0,88.0
85487,-0.263,0.479,0.824,2.962,-9.656,-7.985,0.0,83.0
85545,-0.272,0.497,0.894,12.641,-11.626,-10.550,0.0,87.0
85604,-0.308,0.541,0.916,9.687,-0.702,-1.214,0.0,81.0
85661,-0.285,0.472,0.889,8.595,0.076,-1.542,0.0,80.0
85720,-0.311,0.575,0.850,11.344,-3.168,-0.748,0.0,80.0
85778,-0.236,0.505,0.788,7.191,-7.229,1.122,0.0,81.0
85835,-0.204,0.561,0.735,7.626,-12.359,3.809,0.0,80.0
85897,-0.254,0.628,0.814,-3.473,-7.756,4.435,0.0,80.0
85955,-0.269,0.519,0.798,-14.427,3.832,0.405,0.0,80.0
86012,-0.221,0.551,0.777,-11.214,9.176,-14.374,0.0,79.0
86071,-0.246,0.517,0.830,-17.565,8.939,-12.038,0.0,81.0
86129,-0.337,0.500,0.854,-8.282,5.916,-6.191,0.0,81.0
86188,-0.355,0.375,0.920,-13.237,0.176,-4.366,0.0,80.0
86246,-0.336,0.436,0.856,4.214,-4.282,-5.641,0.0,80.0
86304,-0.302,0.490,0.822,12.191,-1.542,-12.183,0.0,80.0
86363,-0.291,0.550,0.818,9.573,2.847,-15.046,0.0,80.0
86423,-0.322,0.491,0.824,7.092,-7.076,-9.534,0.0,79.0
86481,-0.321,0.571,0.839,-8.229,-10.656,-7.405,0.0,80.0
86540,-0.333,0.414,0.787,-9.076,-6.573,-6.420,0.0,79.0
86598,-0.290,0.368,0.742,-3.527,-7.198,-11.153,0.0,80.0
86657,-0.296,0.434,0.901,14.878,-10.954,-9.076,0.0,79.0
86715,-0.274,0.376,0.954,8.351,-11.237,-1.290,0.0,79.0
86772,-0.276,0.463,0.843,-7.901,-8.924,-2.855,0.0,79.0
86831,-0.248,0.488,0.740,11.366,-1.740,2.557,0.0,78.0
86889,-0.300,0.473,0.877,6.008,-0.534,8.038,0.0,78.0
86947,-0.287,0.490,0.898,11.794,-6.511,3.695,0.0,78.0
87008,-0.253,0.554,0.919,2.588,-4.687,3.328,0.0,78.0
87066,-0.253,0.546,0.925,-5.023,2.626,2.313,0.0,78.0
87124,-0.274,0.484,0.862,-8.557,5.023,6.931,0.0,78.0
87183,-0.279,0.493,0.876,-0.237,8.756,6.733,0.0,78.0
87241,-0.266,0.454,0.918,4.931,10.160,10.779,0.0,79.0
87299,-0.269,0.529,0.908,5.527,12.702,16.359,0.0,79.0
87357,-0.220,0.516,0.890,13.336,17.656,22.061,0.0,80.0
87415,-0.255,0.512,0.824,5.511,21.817,27.046,0.0,81.0
87475,-0.250,0.569,0.763,10.832,26.504,30.855,0.0,83.0
87536,-0.264,0.539,0.726,6.763,23.885,30.771,0.0,95.0
