Timestamp(ms),AccelX(g),AccelY(g),AccelZ(g),GyroX(deg/s),GyroY(deg/s),GyroZ(deg/s),DistanceLeft(cm),DistanceRight(cm)
37382,0.079,0.191,0.994,3.397,-1.366,-1.038,115.0,57.0
37429,0.054,0.198,1.006,1.802,0.817,0.687,116.0,57.0
37475,0.067,0.192,1.024,0.809,-1.443,1.809,114.0,48.0
37522,0.074,0.231,0.994,-4.725,-3.580,1.221,116.0,57.0
37568,0.078,0.153,1.005,6.420,-2.115,0.504,114.0,48.0
37620,0.064,0.202,0.993,-3.389,-0.137,0.092,0.0,63.0
37666,0.067,0.237,0.982,2.038,1.023,0.489,115.0,50.0
37718,0.060,0.176,1.032,-4.511,0.908,-0.176,0.0,50.0
37772,0.058,0.204,0.992,-0.290,-0.328,2.710,0.0,47.0
37826,0.099,0.184,1.010,-8.275,-0.015,-0.191,0.0,47.0
37878,0.045,0.229,1.002,-4.244,-0.206,3.435,0.0,47.0
37924,0.066,0.166,1.010,-13.183,-5.000,1.847,116.0,49.0
37976,0.073,0.144,1.008,-2.634,-2.794,2.878,0.0,48.0
38027,0.079,0.173,0.972,-4.252,-0.542,-0.695,0.0,48.0
38078,0.051,0.161,1.012,1.527,-0.107,1.122,0.0,48.0
38129,0.078,0.163,1.008,-2.969,-0.824,-0.405,0.0,49.0
38180,0.086,0.165,0.999,2.076,-1.038,1.008,0.0,49.0
38235,0.092,0.165,0.983,0.069,2.427,1.359,0.0,50.0
38282,0.103,0.131,1.008,3.023,5.313,3.046,117.0,49.0
38328,0.135,0.040,0.954,10.015,8.710,7.626,116.0,47.0
38379,0.136,0.104,0.946,5.824,27.412,13.550,0.0,47.0
38430,0.093,-0.131,0.924,48.435,48.794,19.916,0.0,46.0
38484,0.027,0.279,0.695,56.336,73.183,30.794,0.0,44.0
38530,-0.063,0.242,0.856,12.099,87.061,38.832,90.0,41.0
38578,-0.133,0.377,0.819,61.809,84.672,28.924,143.0,40.0
38626,-0.113,0.665,0.862,64.710,91.893,8.435,143.0,41.0
38676,-0.282,0.766,0.873,29.420,99.542,2.099,144.0,38.0
38721,-0.157,0.504,0.979,13.977,93.580,17.916,91.0,39.0
38768,-0.144,0.546,0.954,36.580,93.489,21.084,143.0,40.0
38820,-0.284,0.516,0.945,44.321,79.886,17.519,0.0,47.0
38879,-0.341,0.628,0.878,76.893,65.023,22.550,0.0,111.0
38928,-0.466,0.723,0.753,25.221,46.153,14.183,143.0,60.0
38976,-0.399,0.552,0.704,-18.389,31.336,12.450,144.0,51.0
39022,-0.388,0.542,0.712,-28.244,35.481,-5.718,97.0,50.0
39070,-0.765,0.769,0.694,-34.840,51.870,-36.481,144.0,50.0
39119,-0.923,0.673,0.652,-59.405,84.886,-62.191,88.0,51.0
39164,-1.217,0.516,0.410,-31.916,123.466,-97.420,87.0,48.0
39209,-1.200,0.137,0.190,27.702,119.985,-110.458,87.0,54.0
39257,-1.065,-0.035,0.119,81.527,94.038,-99.298,106.0,50.0
39303,-1.085,0.069,0.109,125.496,83.656,-109.985,107.0,50.0
39351,-1.112,0.172,0.057,125.221,79.160,-131.672,107.0,76.0
39400,-1.088,0.160,0.129,90.916,79.397,-128.916,139.0,74.0
39449,-0.953,0.154,0.141,89.626,75.511,-119.420,127.0,74.0
39508,-0.817,0.164,0.164,89.084,62.740,-96.771,172.0,0.0
39572,-0.694,0.282,0.232,73.221,53.634,-67.405,0.0,0.0
39632,-0.667,0.293,0.260,38.328,30.908,-24.908,0.0,0.0
39688,-1.069,0.352,0.212,41.336,19.580,17.443,114.0,0.0
39743,-1.525,0.370,-0.037,-8.023,-3.863,56.542,108.0,0.0
39798,-1.650,0.148,-0.142,-79.771,-43.573,143.313,99.0,0.0
39854,-1.874,0.143,-0.237,-87.916,-69.366,186.611,112.0,0.0
39956,-0.813,0.233,-0.089,-70.130,-60.092,173.496,179.0,0.0
40008,-0.401,0.158,-0.064,-96.802,-33.450,137.565,0.0,60.0
40064,-0.388,0.086,0.014,-68.924,-13.947,98.954,0.0,57.0
40122,-0.582,0.156,-0.077,-52.336,1.359,49.977,0.0,97.0
40177,-1.056,0.260,-0.106,-33.771,14.267,-10.863,0.0,96.0
40229,-1.294,0.245,0.027,20.679,23.641,-96.565,0.0,61.0
40287,-1.335,0.169,0.059,50.321,44.618,-142.382,0.0,84.0
40337,-1.422,0.152,0.021,53.649,57.321,-131.542,154.0,57.0
40392,-1.395,0.136,0.108,63.458,38.366,-128.496,106.0,0.0
40450,-1.008,0.187,0.157,119.489,29.824,-139.740,131.0,0.0
40506,-0.795,0.335,0.058,113.725,35.076,-138.076,134.0,0.0
40568,-0.538,0.284,0.100,47.534,29.137,-100.076,164.0,0.0
40625,-0.689,0.262,0.182,0.687,20.122,-53.626,126.0,0.0
40681,-1.080,0.240,0.271,7.748,18.511,-37.183,127.0,0.0
40737,-1.170,0.157,0.248,40.534,18.153,-12.901,124.0,0.0
40793,-1.353,0.327,0.118,48.878,20.252,22.985,107.0,0.0
40848,-1.317,0.293,-0.065,-54.031,-1.046,71.260,102.0,0.0
40903,-1.463,0.094,-0.059,-120.496,-29.305,131.443,102.0,0.0
40960,-1.417,0.125,-0.049,-86.672,-48.008,161.290,129.0,0.0
41018,-1.133,0.172,-0.094,-49.939,-60.458,146.321,144.0,0.0
41080,-0.564,0.168,-0.026,-56.893,-54.252,151.725,177.0,0.0
41136,-0.328,0.230,0.004,-84.069,-39.969,145.954,0.0,96.0
41190,-0.550,0.211,0.056,-101.977,-29.160,104.397,0.0,97.0
41240,-1.069,0.305,0.035,-42.214,-6.267,10.397,142.0,71.0
41287,-1.305,0.322,-0.012,6.542,26.351,-74.504,95.0,65.0
41345,-1.385,0.195,-0.041,8.992,38.206,-108.496,140.0,0.0
41400,-1.116,0.104,0.066,12.038,54.344,-126.634,95.0,0.0
41455,-1.253,0.040,0.113,41.916,57.489,-120.733,108.0,0.0
41510,-1.250,0.088,0.138,102.939,39.145,-126.023,106.0,0.0
41571,-0.897,0.156,0.121,142.527,33.931,-107.702,122.0,0.0
41628,-0.537,0.314,0.064,109.870,32.359,-84.565,146.0,0.0
41687,-0.556,0.396,0.144,16.824,31.695,-67.031,149.0,0.0
41746,-0.834,0.241,0.300,-67.405,31.046,-58.221,170.0,0.0
41805,-1.177,0.078,0.399,-4.695,18.122,-57.641,184.0,0.0
41862,-0.988,0.103,0.269,71.954,-2.771,-6.405,114.0,0.0
41917,-1.297,0.394,0.029,69.740,9.328,25.588,98.0,0.0
41971,-1.534,0.437,-0.209,-35.237,-2.748,64.305,93.0,0.0
42030,-1.585,0.086,-0.175,-131.595,-30.359,146.886,99.0,0.0
42087,-1.417,0.101,-0.071,-96.847,-46.031,186.664,136.0,0.0
42145,-0.900,0.203,-0.041,-71.145,-53.145,173.366,146.0,0.0
42198,-0.514,0.163,0.007,-64.489,-55.702,154.542,156.0,88.0
42251,-0.388,0.169,0.036,-68.412,-45.031,139.824,0.0,73.0
42306,-0.588,0.186,0.059,-63.359,-29.046,101.550,0.0,91.0
42358,-0.963,0.287,0.044,-15.802,-12.214,15.176,0.0,57.0
42412,-1.341,0.350,0.005,28.893,7.053,-74.351,0.0,68.0
42465,-1.350,0.239,-0.011,42.557,19.443,-131.466,0.0,61.0
42527,-1.033,0.178,0.037,41.466,41.763,-135.168,157.0,0.0
42585,-1.337,0.272,0.011,50.389,53.901,-152.252,141.0,0.0
42642,-1.294,0.146,0.116,68.817,44.863,-155.626,139.0,0.0
42699,-0.926,0.222,0.134,83.084,56.962,-144.641,134.0,0.0
42799,-0.466,0.288,0.199,13.221,47.908,-95.198,116.0,0.0
42854,-0.738,0.350,0.252,-33.481,42.221,-76.130,101.0,0.0
42909,-1.042,0.064,0.324,-21.374,8.412,-48.237,99.0,0.0
42964,-1.470,0.057,0.155,72.092,-0.740,25.038,95.0,0.0
43020,-1.601,0.199,-0.078,85.038,-20.603,116.145,92.0,0.0
43079,-1.689,0.377,-0.302,-71.260,-29.328,185.160,116.0,0.0
43136,-1.516,0.188,-0.182,-144.931,-45.595,203.321,122.0,0.0
43186,-0.895,0.121,-0.027,-105.489,-41.466,181.603,147.0,57.0
43237,-0.536,0.157,-0.022,-87.840,-38.649,171.344,163.0,60.0
43289,-0.372,0.176,0.006,-96.397,-38.344,150.374,176.0,61.0
43340,-0.370,0.177,0.053,-89.443,-31.847,111.031,188.0,50.0
43394,-0.930,0.281,-0.042,-49.427,-19.489,37.832,0.0,50.0
43440,-1.224,0.285,-0.053,1.328,6.244,-43.817,104.0,50.0
43493,-1.479,0.359,-0.106,22.969,30.840,-114.511,152.0,47.0
43543,-1.240,0.191,-0.004,47.908,46.534,-157.931,154.0,59.0
43593,-1.232,0.146,0.094,68.924,68.405,-162.656,135.0,60.0
43640,-1.344,0.233,0.042,59.939,71.053,-170.656,108.0,61.0
43699,-1.216,0.132,0.112,54.168,52.267,-156.962,139.0,0.0
43756,-0.792,0.056,0.172,109.496,49.954,-112.481,134.0,0.0
43815,-0.573,0.356,0.027,82.282,33.985,-66.740,172.0,0.0
43876,-0.606,0.270,0.180,0.420,17.511,-35.420,175.0,0.0
43936,-0.827,0.195,0.262,2.702,9.863,-17.664,0.0,0.0
44001,-1.329,0.104,0.207,61.038,-1.420,-9.588,98.0,0.0
44054,-1.476,0.210,0.021,133.168,9.710,40.382,92.0,0.0
44108,-1.583,0.516,-0.217,-18.206,7.947,97.672,92.0,0.0
44163,-1.396,0.248,-0.138,-147.725,-13.565,138.931,98.0,0.0
44219,-1.229,0.092,-0.025,-112.886,-29.038,145.763,142.0,0.0
44268,-0.831,0.173,-0.021,-64.725,-36.298,141.336,148.0,57.0
44317,-0.558,0.213,-0.011,-69.786,-40.397,133.863,143.0,63.0
44367,-0.482,0.217,0.012,-90.733,-36.321,123.611,146.0,67.0
44419,-0.561,0.175,0.036,-86.687,-27.710,100.328,134.0,66.0
44467,-0.898,0.245,0.011,-53.618,-12.679,55.725,131.0,59.0
44515,-1.263,0.296,-0.019,-8.458,5.977,-9.885,129.0,60.0
44563,-1.498,0.337,-0.110,15.824,17.061,-79.878,127.0,60.0
44611,-1.349,0.167,0.007,33.519,19.885,-110.916,128.0,66.0
44659,-1.160,0.067,0.060,62.374,36.015,-100.069,136.0,61.0
44707,-1.278,0.269,0.036,88.710,32.649,-117.229,118.0,64.0
44755,-1.177,0.178,0.045,95.603,15.115,-130.779,131.0,61.0
44804,-0.774,0.229,0.159,102.817,14.718,-128.206,131.0,60.0
44863,-0.512,0.235,0.085,100.275,23.656,-114.809,138.0,0.0
44923,-0.444,0.278,0.078,48.237,21.565,-92.328,0.0,0.0
44983,-0.819,0.285,0.195,5.695,26.076,-69.863,0.0,0.0
45043,-1.298,0.217,0.201,17.618,27.695,-62.763,0.0,0.0
45104,-1.057,0.091,0.268,24.305,22.817,-13.794,0.0,0.0
45164,-1.408,0.325,0.099,12.176,21.412,20.145,0.0,0.0
45224,-1.545,0.201,-0.104,-53.450,-11.695,67.237,0.0,0.0
45284,-1.454,0.047,-0.068,-69.382,-44.183,150.901,0.0,0.0
45336,-1.043,0.139,-0.063,-39.260,-53.687,175.557,0.0,57.0
45392,-0.731,0.256,-0.058,-44.260,-49.977,161.351,0.0,70.0
45444,-0.549,0.222,-0.002,-68.649,-42.618,134.756,0.0,51.0
45539,-0.450,0.198,0.067,-55.107,-9.969,76.931,0.0,57.0
45591,-0.585,0.267,0.083,-50.237,10.160,28.748,0.0,58.0
45643,-0.907,0.348,0.070,-37.214,25.313,-28.061,0.0,58.0
45696,-1.152,0.366,0.097,0.053,36.260,-82.664,0.0,58.0
45743,-1.438,0.330,0.060,36.405,47.427,-131.672,133.0,50.0
45795,-1.402,0.221,0.027,62.672,50.237,-151.160,0.0,50.0
45846,-1.229,0.140,-0.024,69.443,46.168,-129.092,0.0,42.0
45900,-1.115,0.087,-0.003,56.153,36.626,-60.626,0.0,45.0
45953,-1.194,0.073,0.013,65.130,6.229,-14.397,195.0,70.0
46004,-0.876,0.094,0.107,118.962,-6.939,20.534,192.0,45.0
46057,-0.710,0.280,0.073,130.916,0.969,28.473,190.0,78.0
46109,-0.509,0.243,0.099,99.718,-1.046,26.802,188.0,79.0
46161,-0.399,0.153,0.156,89.053,-13.557,43.382,54.0,0.0
46218,-0.501,0.243,0.197,116.153,-21.947,42.031,57.0,0.0
46269,-0.742,0.373,0.167,101.389,-12.893,17.947,50.0,0.0
46324,-0.955,0.338,0.216,93.160,-0.687,2.366,51.0,0.0
46387,-1.206,0.334,0.166,88.603,7.870,4.031,172.0,0.0
46445,-1.520,2.000,-0.713,250.130,6.748,30.069,171.0,0.0
46503,-1.587,0.374,-0.231,-152.855,-53.130,59.885,167.0,0.0
46553,-1.207,-0.512,0.261,14.282,-78.733,142.420,164.0,30.0
46613,-0.846,0.178,-0.090,195.824,-99.053,158.397,0.0,0.0
46672,-0.567,0.618,-0.087,121.282,-99.695,91.893,0.0,181.0
46732,-0.551,0.424,0.121,60.618,-82.695,22.534,0.0,185.0
46786,-0.503,0.354,0.154,86.489,-76.489,-9.130,0.0,87.0
46850,-0.641,0.503,0.066,117.405,-76.908,-27.130,0.0,190.0
46909,-0.776,0.736,0.017,42.160,-75.191,-41.962,0.0,192.0
46969,-0.915,0.481,0.134,69.763,-75.313,-35.817,0.0,194.0
47027,-0.989,0.569,0.136,127.954,-61.168,-28.992,145.0,190.0
47084,-1.284,0.784,0.043,58.565,-55.328,-29.725,142.0,198.0
47140,-1.103,0.516,0.156,8.641,-49.740,-28.351,139.0,193.0
47198,-0.823,0.426,0.150,56.634,-36.809,-11.901,138.0,0.0
47258,-0.527,0.424,0.154,53.328,-41.427,-13.695,0.0,0.0
47311,-0.366,0.369,0.217,41.412,-34.679,-7.046,58.0,0.0
47371,-0.537,0.435,0.220,33.206,-38.641,-8.176,133.0,0.0
47431,-0.728,0.486,0.240,66.595,-27.992,-12.290,0.0,0.0
47488,-0.951,0.550,0.213,61.962,-17.908,-12.534,126.0,0.0
47544,-1.142,0.662,0.158,66.947,-4.237,-10.885,124.0,0.0
47600,-1.184,0.664,0.073,12.725,-4.321,-34.214,122.0,0.0
47656,-1.091,0.405,0.117,4.061,-2.145,-14.511,120.0,0.0
47713,-0.975,0.500,0.005,2.656,-10.115,13.603,118.0,0.0
47768,-0.840,0.422,0.083,-87.069,-15.137,-11.672,117.0,0.0
47823,-0.804,0.187,0.160,-13.809,-7.237,-6.832,97.0,0.0
47881,-0.811,0.409,0.142,-15.069,-8.603,-17.634,93.0,0.0
47936,-0.848,0.327,0.193,6.511,-18.603,-21.840,93.0,0.0
47990,-0.761,0.353,0.264,25.359,-8.740,-14.534,96.0,0.0
48046,-0.859,0.430,0.233,19.450,-18.489,-27.015,99.0,0.0
48100,-0.888,0.323,0.303,32.305,-28.924,-25.519,99.0,0.0
48156,-0.873,0.377,0.218,65.137,-30.252,-19.740,108.0,0.0
48211,-1.088,0.447,0.231,59.031,-11.908,-27.473,114.0,0.0
48268,-1.143,0.315,0.177,45.107,3.168,-37.573,116.0,0.0
48366,-0.979,0.121,0.133,64.832,-4.336,-2.924,103.0,0.0
48424,-0.886,0.081,0.128,45.153,-6.275,-7.008,106.0,0.0
48482,-0.856,0.049,0.121,42.702,-4.679,-21.878,130.0,0.0
48538,-0.848,0.024,0.134,24.389,-4.718,-23.092,121.0,0.0
48593,-0.842,0.019,0.165,14.252,-2.008,-15.710,116.0,0.0
48651,-0.863,0.022,0.172,6.344,-8.802,-8.580,124.0,0.0
48707,-0.834,0.019,0.201,17.718,-14.115,-5.374,122.0,0.0
48764,-0.782,0.113,0.212,8.244,-7.771,4.015,139.0,0.0
48821,-0.781,0.157,0.245,-12.168,7.046,16.893,131.0,0.0
48878,-1.083,0.221,0.259,-25.046,16.420,21.565,146.0,200.0
48940,-1.075,0.249,0.228,-23.504,14.878,11.687,150.0,197.0
48998,-1.232,0.348,0.269,40.046,11.466,-8.817,155.0,193.0
49055,-0.974,0.293,0.102,52.450,2.672,-13.366,158.0,189.0
49115,-0.876,0.438,0.068,-3.397,5.603,5.076,170.0,186.0
49172,-0.809,0.426,0.073,-64.550,15.214,-5.756,164.0,185.0
49230,-0.885,0.327,0.104,-105.931,13.198,-17.656,161.0,183.0
49290,-0.964,0.187,0.247,-72.313,-1.794,-9.344,182.0,0.0
49348,-0.999,0.292,0.260,-24.863,-6.496,5.023,145.0,0.0
49410,-0.978,0.475,0.165,-68.603,-0.137,10.985,150.0,0.0
49467,-0.915,0.256,0.200,-140.473,-0.435,19.298,151.0,194.0
49524,-0.804,0.177,0.260,-133.947,6.321,39.580,148.0,179.0
49575,-1.179,0.474,0.311,-112.031,36.008,32.466,59.0,175.0
49627,-1.245,0.472,0.359,-150.145,66.244,28.183,57.0,173.0
49678,-0.960,0.236,0.340,-198.412,52.443,37.542,57.0,171.0
49729,-0.763,0.141,0.384,-142.832,39.511,31.336,56.0,169.0
49779,-0.709,0.240,0.316,-90.557,37.687,19.954,58.0,168.0
49837,-0.702,0.233,0.275,-95.962,34.511,8.069,163.0,166.0
49897,-0.772,0.143,0.238,-88.275,33.832,12.115,166.0,166.0
49954,-0.809,0.247,0.150,-90.649,30.672,18.008,173.0,164.0
50014,-0.851,0.109,0.171,-97.115,12.908,26.992,0.0,177.0
50074,-0.864,0.297,0.168,-14.786,13.198,26.710,0.0,175.0
50132,-1.304,0.580,0.019,-16.336,26.588,5.282,0.0,159.0
50194,-1.323,0.444,0.002,-54.756,23.733,-5.870,0.0,0.0
50253,-0.859,0.175,0.158,-24.870,19.160,41.542,0.0,170.0
50313,-0.798,0.469,0.169,-19.824,24.420,42.237,0.0,172.0
50373,-0.858,0.470,0.103,-88.710,18.053,0.710,0.0,0.0
50438,-0.839,0.245,0.203,-37.427,12.359,6.534,0.0,0.0
50499,-0.880,0.560,0.131,-14.237,7.802,4.695,0.0,0.0
50560,-0.897,0.415,0.152,-44.214,11.763,-5.710,0.0,0.0
50621,-0.908,0.337,0.151,-14.756,8.718,11.672,0.0,0.0
50682,-0.915,0.356,0.127,-12.718,6.985,12.336,0.0,0.0
50743,-0.912,0.340,0.115,4.725,0.130,5.893,0.0,0.0
50802,-0.925,0.381,0.088,7.260,1.802,4.191,172.0,0.0
50862,-0.929,0.389,0.079,-18.168,6.382,5.344,172.0,0.0
50921,-0.911,0.328,0.120,-16.504,4.550,1.412,171.0,0.0
50984,-0.899,0.460,0.046,5.099,2.939,-0.542,171.0,0.0
51044,-0.914,0.339,0.053,0.076,8.817,5.824,171.0,0.0
51103,-0.944,0.426,0.050,-4.237,8.382,2.053,171.0,0.0
51163,-0.936,0.331,0.118,-4.779,3.695,-2.550,172.0,0.0
51229,-0.908,0.371,0.092,8.809,0.679,0.618,0.0,0.0
51332,-0.888,0.419,0.041,15.160,-3.374,-11.641,0.0,0.0
51392,-0.915,0.475,0.030,10.183,-1.916,-8.809,0.0,0.0
51451,-0.883,0.419,0.069,6.092,3.305,-8.603,0.0,0.0
51512,-0.913,0.407,0.085,0.359,3.282,-9.511,0.0,0.0
51574,-0.869,0.353,0.122,40.573,0.435,-10.679,0.0,0.0
51635,-0.889,0.544,0.044,25.145,-3.511,-14.198,0.0,0.0
51694,-0.915,0.370,0.148,15.534,-8.969,-22.176,0.0,0.0
51755,-0.850,0.449,0.164,68.557,-15.710,-28.344,0.0,0.0
51812,-0.860,0.651,0.110,59.260,-29.122,-26.901,0.0,159.0
51872,-1.018,0.358,0.279,20.458,-27.198,-16.557,0.0,0.0
51931,-0.980,0.279,0.303,77.748,-31.947,12.618,0.0,169.0
51989,-1.307,0.260,0.283,55.130,-32.298,20.382,0.0,171.0
52048,-1.034,0.063,0.285,48.397,-49.595,47.168,0.0,176.0
52111,-1.077,0.116,0.256,84.802,-45.137,43.756,0.0,193.0
52170,-0.895,0.158,0.182,90.527,-42.481,37.687,0.0,187.0
52228,-0.664,0.128,0.270,70.794,-51.824,25.321,144.0,200.0
52284,-0.570,0.147,0.297,101.626,-41.084,13.496,140.0,0.0
52341,-0.615,0.340,0.265,119.954,-31.031,-21.847,140.0,198.0
52398,-0.666,0.434,0.183,118.069,-12.947,-38.649,134.0,197.0
52453,-0.827,0.557,0.121,88.458,4.649,-43.611,113.0,200.0
52508,-1.360,0.684,0.106,74.290,22.710,-60.397,110.0,0.0
52562,-1.398,0.487,0.147,20.740,-11.366,-17.145,106.0,192.0
52620,-1.539,0.511,0.138,37.557,-42.145,27.038,103.0,0.0
52675,-1.146,0.504,0.120,41.313,-54.496,56.855,101.0,0.0
52729,-0.808,0.461,0.174,17.901,-67.305,61.771,99.0,0.0
52784,-0.564,0.364,0.234,2.618,-73.519,59.489,103.0,0.0
52833,-0.531,0.359,0.255,27.832,-75.481,59.305,134.0,60.0
52879,-0.511,0.426,0.198,17.351,-74.084,65.809,111.0,50.0
52925,-0.558,0.485,0.166,4.191,-61.427,53.618,109.0,52.0
52972,-0.845,0.748,0.161,-6.527,-41.588,-1.885,107.0,57.0
53018,-1.294,0.705,-0.035,2.832,0.366,-67.672,105.0,57.0
53068,-1.215,0.527,-0.091,4.198,34.214,-126.573,103.0,55.0
53113,-1.087,0.128,-0.134,-3.672,57.573,-121.008,85.0,63.0
53160,-1.149,-0.039,0.078,48.359,51.412,-130.985,99.0,58.0
53206,-1.275,-0.022,0.109,135.725,43.664,-146.863,94.0,57.0
53261,-1.235,0.191,0.065,169.511,47.427,-141.931,100.0,0.0
53313,-0.896,0.301,0.063,120.336,51.802,-130.115,58.0,0.0
53368,-0.704,0.364,0.042,51.901,49.740,-121.886,122.0,0.0
53428,-0.534,0.248,0.186,-30.924,41.687,-88.061,168.0,0.0
53490,-0.851,0.044,0.303,9.695,30.458,-51.664,0.0,0.0
53547,-1.071,0.118,0.235,103.969,22.611,-18.557,131.0,0.0
53602,-1.542,0.385,-0.060,97.168,29.687,12.099,112.0,0.0
53657,-1.498,0.449,-0.205,-94.870,12.855,84.626,101.0,0.0
53707,-1.716,0.008,-0.165,-190.863,-49.550,154.336,136.0,82.0
53755,-1.446,-0.118,0.002,-100.557,-95.366,185.053,105.0,87.0
53804,-0.856,0.115,-0.158,-50.252,-100.672,174.069,96.0,90.0
53853,-0.532,-0.033,0.170,7.061,-99.687,193.817,97.0,105.0
53906,-0.334,0.184,-0.039,-28.969,-76.115,172.038,173.0,98.0
53958,-0.643,0.239,-0.071,-71.252,-55.237,127.008,99.0,101.0
54007,-1.159,0.304,-0.137,-60.168,-31.130,41.427,98.0,99.0
54097,-1.301,0.438,-0.096,21.313,54.206,-170.725,97.0,85.0
54148,-1.031,0.090,-0.008,16.122,84.198,-201.786,88.0,124.0
54202,-1.322,0.118,0.013,44.405,84.969,-194.947,91.0,0.0
54257,-1.394,0.050,0.043,91.954,54.985,-189.969,110.0,0.0
54312,-0.980,0.106,0.103,145.076,49.947,-147.336,108.0,0.0
54370,-0.619,0.351,0.020,120.519,45.267,-113.893,150.0,0.0
54429,-0.569,0.354,0.117,0.840,24.733,-83.122,109.0,0.0
54484,-0.884,0.161,0.259,-13.908,19.176,-52.145,108.0,0.0
54540,-1.150,0.090,0.279,55.084,16.420,-25.000,109.0,0.0
54595,-1.039,0.250,0.188,75.214,19.321,23.450,117.0,0.0
54649,-1.410,0.471,0.017,-2.275,22.962,40.298,90.0,0.0
54704,-1.700,0.197,-0.177,-112.527,-14.969,102.244,94.0,0.0
54759,-1.774,-0.088,-0.169,-127.748,-68.397,192.863,106.0,0.0
54816,-1.349,0.045,-0.122,-67.382,-75.679,235.092,129.0,0.0
54872,-0.731,0.193,-0.085,-67.939,-65.886,233.641,119.0,0.0
54925,-0.517,0.189,-0.076,-108.634,-52.168,202.725,129.0,72.0
54972,-0.629,0.093,-0.054,-105.153,-43.908,161.870,106.0,70.0
55021,-0.962,0.143,-0.134,-25.924,-28.405,93.595,121.0,65.0
55068,-1.142,0.368,-0.139,23.160,-1.282,-3.931,106.0,59.0
55115,-1.310,0.457,-0.129,-2.695,20.260,-121.282,107.0,66.0
55163,-1.054,0.216,-0.002,15.924,55.908,-198.779,108.0,77.0
55212,-1.122,0.196,0.046,26.496,93.519,-223.527,105.0,77.0
55259,-1.430,0.187,-0.042,29.176,104.076,-240.000,106.0,63.0
55317,-1.247,0.022,0.038,59.718,89.542,-212.672,111.0,0.0
55373,-0.905,0.028,0.114,113.672,86.519,-156.237,113.0,0.0
55432,-0.707,0.313,0.058,81.550,48.588,-99.534,171.0,0.0
55488,-0.709,0.200,0.240,20.740,25.466,-48.618,121.0,0.0
55543,-1.038,0.264,0.272,42.809,19.672,-36.443,106.0,0.0
55599,-1.321,0.249,0.092,61.740,18.290,-24.053,96.0,0.0
55653,-1.473,0.252,-0.025,20.802,26.443,68.870,88.0,0.0
55708,-1.695,0.152,-0.223,-119.748,-10.954,166.206,105.0,0.0
55764,-1.646,0.025,-0.137,-141.626,-67.611,220.374,130.0,0.0
55824,-1.030,0.100,-0.117,-62.893,-81.237,203.840,124.0,0.0
55880,-0.753,-0.330,-0.254,-192.366,-78.008,133.687,111.0,0.0
55928,-0.449,0.189,-0.077,-65.206,-56.450,156.534,113.0,62.0
55982,-0.466,0.182,-0.101,-47.885,-47.015,125.069,0.0,69.0
56030,-0.836,0.281,-0.210,-34.298,-35.901,56.824,111.0,73.0
56078,-1.212,0.399,-0.175,2.053,-10.412,-37.695,111.0,62.0
56127,-1.374,0.402,-0.148,23.809,18.382,-132.679,134.0,61.0
56174,-1.424,0.199,-0.036,28.786,43.137,-175.542,111.0,62.0
56225,-1.288,0.012,0.118,70.130,60.153,-171.901,102.0,71.0
56282,-1.441,0.153,0.026,97.076,61.603,-153.992,134.0,0.0
56338,-1.174,0.229,0.047,65.031,54.458,-136.328,124.0,0.0
56395,-0.810,0.194,0.127,40.687,50.481,-106.886,127.0,0.0
56453,-0.623,0.221,0.105,36.847,41.443,-78.198,142.0,0.0
56512,-0.549,0.171,0.162,22.916,19.832,-40.481,174.0,0.0
56572,-0.852,0.205,0.217,24.565,10.527,-8.267,0.0,0.0
56632,-1.153,0.243,0.270,33.573,11.397,-15.427,177.0,0.0
56687,-1.122,0.218,0.214,25.519,14.000,19.351,101.0,0.0
56745,-1.401,0.288,0.079,-2.977,2.779,38.389,103.0,0.0
56845,-1.569,0.194,-0.116,-54.794,-40.458,118.580,122.0,0.0
56902,-1.382,0.041,-0.085,-48.092,-64.435,178.718,124.0,0.0
56958,-0.848,0.182,-0.025,-36.802,-58.771,196.954,119.0,0.0
57015,-0.572,0.288,-0.050,-71.282,-46.802,176.786,120.0,0.0
57065,-0.506,0.217,0.018,-103.260,-36.878,141.496,121.0,93.0
57113,-0.601,0.250,0.083,-77.893,-19.588,82.382,107.0,71.0
57163,-0.905,0.385,0.067,-45.794,6.527,-6.679,115.0,96.0
57211,-1.105,0.303,0.071,-15.221,35.260,-87.244,105.0,75.0
57263,-1.431,0.248,-0.047,-11.893,50.298,-128.786,103.0,63.0
57310,-1.420,0.158,-0.003,7.015,60.260,-143.328,105.0,61.0
57365,-1.246,0.069,0.045,38.160,60.321,-138.107,104.0,0.0
57421,-1.253,0.098,0.099,82.290,49.672,-121.214,103.0,0.0
57477,-1.087,0.168,0.110,115.382,38.519,-118.527,111.0,0.0
57533,-0.810,0.220,0.123,122.954,31.160,-107.046,121.0,0.0
57591,-0.599,0.285,0.091,93.740,24.901,-86.824,152.0,0.0
57653,-0.558,0.280,0.136,30.748,17.458,-54.710,0.0,0.0
57712,-0.889,0.322,0.266,12.305,24.611,-40.183,117.0,0.0
57768,-1.148,0.269,0.260,24.168,24.405,-33.282,115.0,0.0
57825,-1.248,0.292,0.193,26.718,26.382,8.786,110.0,0.0
57879,-1.538,0.407,0.024,-25.473,15.466,42.382,90.0,0.0
57934,-1.648,0.053,-0.092,-105.153,-40.328,129.328,99.0,0.0
57993,-1.565,-0.035,-0.047,-80.412,-73.779,208.435,148.0,0.0
58050,-0.979,0.152,-0.046,-43.611,-72.908,223.023,128.0,0.0
58107,-0.533,0.246,-0.066,-77.641,-62.183,203.740,138.0,0.0
58159,-0.422,0.196,-0.004,-108.473,-51.611,163.115,134.0,93.0
58211,-0.577,0.206,0.013,-85.099,-37.435,99.427,128.0,59.0
58265,-0.939,0.348,0.031,-21.069,-7.191,2.374,127.0,57.0
58311,-1.161,0.362,0.014,8.206,29.084,-81.496,108.0,59.0
58359,-1.445,0.316,-0.065,-7.580,53.511,-125.206,108.0,74.0
58405,-1.311,0.195,0.071,3.565,71.053,-156.649,106.0,68.0
58452,-1.267,0.026,0.142,35.191,87.168,-157.611,106.0,58.0
58501,-1.365,-0.004,0.145,91.679,77.008,-139.824,116.0,78.0
58556,-1.142,0.167,0.139,131.847,56.374,-133.313,125.0,0.0
58612,-0.827,0.282,0.108,117.160,42.458,-135.214,128.0,0.0
58675,-0.601,0.319,0.096,67.847,33.473,-115.405,0.0,0.0
58735,-0.645,0.258,0.138,10.473,22.382,-77.473,0.0,0.0
58796,-0.966,0.175,0.249,16.000,16.328,-41.595,0.0,0.0
58855,-1.192,0.140,0.247,60.374,14.740,-16.992,0.0,0.0
58915,-1.453,0.307,0.088,57.260,23.527,25.710,0.0,0.0
58975,-1.308,0.243,-0.015,-42.527,-0.053,95.015,0.0,0.0
59035,-1.239,0.114,0.016,-81.611,-33.435,154.802,0.0,0.0
59096,-1.156,0.208,0.003,-46.649,-36.107,156.153,0.0,0.0
59156,-0.867,0.171,-0.018,-46.420,-45.649,149.260,0.0,0.0
59211,-0.536,0.201,0.029,-45.473,-39.153,137.153,0.0,79.0
59265,-0.441,0.248,0.008,-44.290,-27.237,111.771,0.0,62.0
59317,-0.480,0.242,0.037,-40.603,-14.427,79.611,0.0,66.0
59369,-0.691,0.383,0.081,-0.878,6.748,37.466,198.0,71.0
59422,-1.116,0.707,0.069,22.756,17.595,1.145,0.0,69.0
59474,-1.234,0.817,0.153,20.733,23.328,-35.359,0.0,72.0
59527,-1.384,0.778,0.175,17.542,31.817,-79.824,187.0,71.0
59621,-1.003,0.326,0.306,15.237,28.084,-56.489,178.0,59.0
59675,-1.211,0.419,0.184,15.679,15.244,-30.481,0.0,57.0
59726,-1.087,0.228,0.150,-16.344,-26.557,12.168,175.0,57.0
59779,-0.936,0.177,0.179,13.824,-38.229,46.252,0.0,66.0
59830,-0.765,0.189,0.116,26.130,-55.626,63.557,180.0,57.0
59884,-0.584,0.183,0.157,42.336,-65.053,61.885,0.0,90.0
59938,-0.457,0.212,0.171,50.267,-66.733,47.397,0.0,101.0
59992,-0.457,0.289,0.259,43.664,-62.412,36.008,0.0,80.0
60046,-0.561,0.367,0.293,40.908,-54.305,12.328,0.0,94.0
60100,-0.590,0.405,0.342,67.817,-38.802,0.244,0.0,92.0
60156,-0.751,0.633,0.292,74.924,-20.053,-13.443,0.0,93.0
60209,-1.385,0.922,0.162,72.733,-22.137,-54.031,0.0,50.0
60263,-0.936,0.531,0.219,49.290,-43.962,-29.183,0.0,92.0
60317,-1.108,0.718,0.128,72.695,-53.725,-21.534,0.0,92.0
60368,-1.024,0.544,0.075,75.779,-65.947,-14.412,0.0,50.0
60423,-0.756,0.461,0.078,72.771,-67.603,-6.145,0.0,95.0
60477,-0.582,0.401,0.083,57.137,-68.053,-6.427,0.0,97.0
60531,-0.549,0.321,0.091,57.260,-67.053,-17.168,0.0,94.0
60585,-0.614,0.341,0.082,81.099,-59.542,-44.656,0.0,95.0
60643,-0.850,0.355,0.045,110.206,-51.336,-89.939,0.0,97.0
60703,-1.125,0.341,-0.062,122.718,-41.557,-119.603,0.0,0.0
60764,-1.302,0.295,-0.173,130.145,-23.916,-127.412,196.0,0.0
60822,-1.307,0.206,-0.112,119.489,-15.046,-81.969,155.0,0.0
60880,-1.487,0.109,-0.166,165.198,-31.252,-62.107,176.0,190.0
60938,-0.923,0.262,-0.171,215.618,-31.191,-39.847,143.0,0.0
60993,-0.595,0.385,-0.151,180.137,-36.198,-36.229,125.0,190.0
61049,-0.555,0.424,-0.085,130.550,-29.038,-49.298,126.0,0.0
61107,-0.628,0.468,-0.007,113.191,2.855,-74.496,145.0,0.0
61167,-0.865,0.595,0.058,86.511,41.137,-81.702,144.0,0.0
61224,-1.129,0.578,0.129,33.382,58.840,-79.893,141.0,0.0
61281,-1.243,0.425,0.216,-2.336,54.534,-52.252,135.0,0.0
61338,-1.551,0.141,0.259,-18.290,5.260,57.496,132.0,0.0
61393,-1.673,0.061,0.178,21.779,-45.695,149.679,120.0,0.0
61450,-1.314,0.211,0.135,-1.496,-66.603,200.763,116.0,0.0
61504,-0.977,0.216,0.124,-68.550,-90.947,195.092,101.0,0.0
61559,-0.716,0.072,0.187,-71.053,-107.809,158.115,0.0,102.0
61615,-0.569,0.082,0.202,-8.748,-95.069,107.542,0.0,62.0
61671,-0.579,0.231,0.187,45.840,-59.756,49.198,0.0,63.0
61724,-0.875,0.466,0.068,52.802,-19.313,-35.061,0.0,64.0
61782,-1.361,0.475,-0.031,33.244,3.550,-114.008,0.0,92.0
61839,-1.265,0.194,-0.058,57.443,24.450,-148.886,143.0,0.0
61896,-1.386,0.194,-0.116,67.756,42.817,-144.496,143.0,0.0
61952,-1.358,0.074,-0.042,84.687,29.206,-125.191,110.0,0.0
62008,-1.060,0.209,0.028,127.740,27.107,-106.252,113.0,0.0
62064,-0.882,0.333,0.036,111.550,25.351,-106.191,128.0,0.0
62126,-0.672,0.286,0.098,76.886,22.412,-96.153,151.0,0.0
62183,-0.605,0.250,0.187,39.527,21.122,-60.405,150.0,0.0
62238,-0.856,0.333,0.233,20.305,21.237,-40.679,106.0,0.0
62294,-0.959,0.322,0.223,15.321,19.107,-45.427,114.0,0.0
62349,-1.310,0.371,0.117,15.435,20.496,-15.328,103.0,0.0
62447,-1.576,0.090,-0.170,-106.382,-33.023,113.740,104.0,0.0
62502,-1.654,0.066,-0.213,-111.290,-60.252,186.870,101.0,0.0
62552,-1.054,0.090,-0.096,-82.130,-77.099,212.008,135.0,76.0
62607,-0.652,0.170,-0.055,-74.405,-76.244,202.618,0.0,95.0
62663,-0.371,0.178,-0.027,-87.427,-66.725,169.832,0.0,62.0
62721,-0.397,0.194,0.012,-82.641,-50.954,124.679,0.0,82.0
62774,-0.785,0.306,-0.016,-37.031,-25.412,35.962,0.0,75.0
62828,-1.060,0.401,-0.041,2.954,15.969,-53.519,0.0,84.0
62881,-1.291,0.312,-0.082,8.756,48.863,-127.420,0.0,75.0
62929,-1.468,0.215,-0.073,12.298,67.893,-146.450,126.0,57.0
62977,-1.238,0.115,0.031,34.282,72.038,-152.397,108.0,57.0
63032,-1.319,0.099,0.083,74.473,59.137,-147.756,102.0,0.0
63093,-1.293,0.123,0.122,137.092,43.450,-134.718,145.0,0.0
63150,-1.046,0.389,0.054,155.313,38.573,-134.489,133.0,0.0
63206,-0.629,0.412,0.041,65.557,31.702,-104.344,109.0,0.0
63261,-0.551,0.269,0.160,-6.435,20.931,-55.053,114.0,0.0
63318,-0.801,0.253,0.247,1.962,12.092,-20.939,112.0,0.0
63373,-1.034,0.183,0.265,39.389,3.779,0.656,103.0,0.0
63428,-1.252,0.347,0.153,70.947,8.321,40.802,106.0,0.0
63482,-1.355,0.533,0.036,27.359,5.344,67.947,101.0,0.0
63538,-1.656,0.304,-0.125,-91.832,-14.939,128.198,102.0,0.0
63597,-1.311,0.240,-0.098,-102.473,-24.191,170.328,116.0,0.0
63659,-0.973,0.270,-0.094,-104.115,-25.817,156.634,0.0,0.0
63712,-0.610,0.201,-0.040,-121.252,-27.634,138.527,0.0,74.0
63766,-0.520,0.103,-0.007,-105.656,-30.756,124.153,0.0,82.0
63818,-0.666,0.156,-0.007,-61.206,-26.832,96.977,0.0,57.0
63877,-0.889,0.243,-0.051,-30.847,-12.137,43.443,0.0,88.0
63930,-1.350,0.410,-0.125,-11.939,10.046,-49.855,0.0,72.0
63983,-1.455,0.225,-0.064,8.023,33.008,-115.061,0.0,57.0
64040,-1.197,0.115,0.029,44.008,51.092,-140.229,0.0,71.0
64093,-1.281,0.204,0.047,74.412,53.901,-141.641,142.0,62.0
64150,-1.134,0.149,0.089,91.901,48.405,-149.794,139.0,0.0
64208,-0.893,0.242,0.066,111.817,45.160,-150.466,150.0,0.0
64265,-0.627,0.321,0.052,67.634,41.985,-128.656,111.0,0.0
64320,-0.631,0.226,0.149,14.679,34.275,-93.031,106.0,0.0
64375,-0.921,0.233,0.215,13.305,28.863,-58.458,104.0,0.0
64431,-1.032,0.208,0.219,22.420,19.695,-30.550,104.0,0.0
64486,-1.274,0.282,0.130,26.656,13.282,22.015,108.0,0.0
64544,-1.609,0.206,-0.048,-11.824,-12.626,80.855,84.0,0.0
64600,-1.558,0.167,-0.140,-64.122,-40.481,162.374,103.0,0.0
64656,-1.530,0.147,-0.164,-76.504,-51.313,202.260,115.0,0.0
64710,-1.023,0.213,-0.124,-85.061,-47.313,202.931,191.0,102.0
64772,-0.671,0.183,-0.083,-103.847,-45.580,185.962,0.0,0.0
64825,-0.457,0.132,-0.008,-103.496,-36.756,159.947,0.0,57.0
64878,-0.552,0.174,-0.027,-74.313,-23.374,107.886,0.0,76.0
64931,-0.861,0.319,-0.043,-35.084,1.412,23.672,0.0,57.0
64985,-0.973,0.355,-0.007,-13.206,27.618,-68.313,0.0,66.0
65042,-1.330,0.246,0.006,11.687,34.366,-148.603,0.0,78.0
65089,-1.438,0.045,0.069,75.420,43.725,-171.267,103.0,59.0
65139,-1.372,0.101,0.070,116.145,45.863,-150.931,139.0,69.0
65241,-1.089,0.213,0.071,77.878,23.511,-124.504,140.0,0.0
65299,-0.798,0.226,0.100,92.779,29.519,-103.779,168.0,0.0
65355,-0.605,0.364,0.067,60.817,25.336,-92.122,116.0,0.0
65417,-0.684,0.296,0.172,1.603,21.000,-67.031,119.0,0.0
65472,-0.920,0.281,0.198,-20.290,29.084,-52.023,119.0,0.0
65527,-1.031,0.193,0.212,-10.763,23.634,-28.000,117.0,0.0
65586,-1.334,0.250,0.147,12.809,21.603,16.015,113.0,0.0
65640,-1.558,0.270,-0.021,-14.733,-10.786,66.504,102.0,0.0
65694,-1.590,0.125,-0.094,-48.702,-49.519,140.908,102.0,0.0
65751,-1.359,0.207,-0.097,-52.290,-52.565,194.588,126.0,0.0
65809,-1.054,0.250,-0.110,-82.443,-55.885,191.359,169.0,0.0
65860,-0.624,0.160,-0.007,-100.588,-57.053,179.618,181.0,65.0
65910,-0.461,0.138,0.050,-88.687,-52.412,159.519,175.0,60.0
65961,-0.523,0.208,0.064,-60.809,-40.733,124.748,188.0,57.0
66017,-0.718,0.294,0.052,-35.412,-25.160,58.069,0.0,56.0
66067,-1.050,0.414,0.057,-2.947,7.260,-21.756,179.0,55.0
66118,-1.238,0.404,0.018,5.939,43.275,-105.740,182.0,57.0
66168,-1.429,0.270,-0.014,-4.435,61.702,-147.916,161.0,68.0
66216,-1.238,0.118,0.071,18.725,68.336,-157.718,111.0,71.0
66271,-1.316,0.123,0.119,62.603,61.145,-152.611,106.0,0.0
66327,-1.134,0.157,0.108,106.214,48.847,-148.221,127.0,0.0
66384,-0.877,0.252,0.080,114.038,46.061,-136.038,145.0,0.0
66442,-0.638,0.320,0.077,71.924,40.031,-112.313,163.0,0.0
66503,-0.706,0.269,0.161,6.809,29.916,-75.137,176.0,0.0
66560,-1.048,0.242,0.262,-0.389,30.580,-57.786,119.0,0.0
66614,-1.067,0.178,0.258,18.160,27.664,-39.321,102.0,0.0
66668,-1.310,0.305,0.165,16.397,25.336,5.176,100.0,0.0
66722,-1.343,0.250,0.027,-34.313,-5.939,57.725,97.0,0.0
66777,-1.450,0.106,-0.060,-90.962,-45.534,137.176,103.0,0.0
66834,-1.485,0.074,-0.077,-67.382,-74.595,188.305,137.0,0.0
66891,-1.226,0.168,-0.104,-39.450,-77.954,195.198,146.0,0.0
66945,-0.648,0.259,-0.090,-80.908,-64.603,185.557,135.0,105.0
66994,-0.423,0.152,0.002,-117.221,-52.634,165.702,132.0,66.0
67042,-0.511,0.142,-0.002,-95.870,-37.198,127.519,130.0,57.0
67090,-0.769,0.231,-0.005,-55.740,-14.626,62.840,128.0,58.0
67138,-1.067,0.312,-0.016,-12.115,13.580,-25.718,121.0,70.0
67185,-1.333,0.292,-0.017,5.771,45.557,-102.328,120.0,57.0
67232,-1.286,0.187,0.058,32.427,67.573,-152.336,105.0,61.0
67279,-1.238,0.131,0.087,61.885,84.130,-174.496,121.0,57.0
67328,-1.389,0.125,0.068,65.687,75.145,-164.817,114.0,70.0
67379,-1.254,0.083,0.102,91.756,55.916,-146.702,122.0,75.0
67435,-0.937,0.201,0.074,100.756,48.527,-115.351,126.0,0.0
67491,-0.625,0.323,0.048,60.756,37.779,-85.847,57.0,0.0
67539,-0.573,0.215,0.102,13.695,20.130,-52.603,58.0,134.0
67588,-0.737,0.209,0.177,20.763,13.756,-23.069,58.0,135.0
67644,-1.001,0.215,0.224,23.527,4.550,-10.878,0.0,136.0
67701,-1.179,0.200,0.215,65.603,14.282,-3.931,0.0,137.0
67758,-1.399,0.386,0.102,34.229,26.977,24.046,0.0,142.0
67818,-1.518,0.306,-0.036,-70.260,12.359,61.069,0.0,0.0
67881,-1.337,0.030,0.003,-110.137,-41.565,135.504,0.0,0.0
67973,-0.805,0.189,0.005,-16.084,-68.336,140.588,117.0,73.0
68021,-0.531,0.271,-0.001,-13.427,-54.069,122.008,119.0,60.0
68074,-0.412,0.296,0.008,-37.763,-40.137,99.405,0.0,72.0
68122,-0.494,0.299,0.001,-61.092,-23.840,70.290,116.0,71.0
68174,-0.639,0.261,0.057,-43.649,-12.588,37.397,0.0,60.0
68228,-0.812,0.331,0.055,-10.305,8.015,6.748,0.0,73.0
68276,-1.053,0.375,0.059,-8.229,19.008,-21.885,111.0,71.0
68352,-1.560,0.275,0.084,17.328,28.817,-94.969,0.0,68.0
68407,-1.520,0.301,0.033,56.198,47.664,-127.145,0.0,62.0
68461,-1.111,0.175,0.002,28.992,54.069,-106.443,0.0,50.0
68515,-1.206,0.162,0.003,-1.008,36.008,-69.137,0.0,52.0
68570,-0.963,-0.018,0.092,54.794,5.893,-32.061,0.0,60.0
68627,-0.755,0.161,0.060,126.366,4.023,-16.450,0.0,101.0
68684,-0.684,0.262,0.017,129.153,-4.237,-15.382,0.0,101.0
68733,-0.566,0.267,0.043,116.084,-6.008,-14.702,52.0,104.0
68783,-0.525,0.210,0.087,114.427,-5.473,-3.115,51.0,106.0
68834,-0.585,0.284,0.115,98.908,-2.794,6.985,50.0,106.0
68888,-0.689,0.303,0.183,88.252,6.664,2.336,53.0,0.0
68942,-0.807,0.343,0.225,85.626,26.321,-11.809,52.0,0.0
69005,-1.140,0.278,0.181,67.038,29.198,-13.237,186.0,0.0
69066,-1.715,0.287,0.103,89.924,10.443,10.344,182.0,0.0
69129,-1.281,0.026,0.085,46.779,-38.893,103.511,179.0,0.0
69190,-1.379,0.234,0.039,51.908,-63.901,154.916,180.0,0.0
69252,-1.078,0.332,0.042,25.290,-79.153,135.817,175.0,0.0
69309,-0.940,0.227,0.099,-6.557,-80.878,108.466,174.0,123.0
69367,-0.729,0.152,0.145,-1.466,-81.748,90.985,172.0,92.0
69423,-0.540,0.188,0.131,25.947,-73.641,58.763,179.0,93.0
69479,-0.453,0.230,0.162,63.611,-66.679,3.870,179.0,94.0
69535,-0.563,0.351,0.138,101.130,-45.832,-66.466,0.0,91.0
69592,-0.818,0.420,0.057,119.023,-27.809,-138.427,183.0,89.0
69653,-1.338,0.355,-0.071,120.779,-15.397,-173.214,0.0,186.0
69712,-1.550,0.068,-0.184,111.344,-11.160,-131.160,159.0,175.0
69772,-1.550,0.267,-0.207,167.504,-24.458,-99.267,159.0,171.0
69834,-1.057,0.307,-0.176,200.412,-15.176,-71.802,160.0,169.0
69894,-0.651,0.395,-0.144,168.496,-4.824,-71.656,160.0,167.0
69952,-0.440,0.364,-0.041,113.824,5.901,-61.885,159.0,167.0
70011,-0.627,0.342,0.012,89.290,15.466,-49.313,157.0,169.0
70071,-0.917,0.348,0.060,91.718,22.198,-44.344,155.0,172.0
70130,-1.131,0.324,0.095,95.557,39.191,-32.198,158.0,177.0
70190,-1.423,0.452,0.089,63.733,49.565,1.702,155.0,184.0
70250,-1.324,0.180,0.117,-40.359,18.817,68.695,162.0,190.0
70308,-1.708,-0.073,0.229,-26.641,-32.092,154.076,129.0,195.0
70371,-1.291,0.169,0.144,57.031,-68.740,188.710,131.0,0.0
70430,-0.872,0.417,0.082,-18.023,-74.229,180.008,129.0,0.0
70490,-0.626,0.283,0.137,-83.412,-78.473,144.939,126.0,0.0
70547,-0.550,0.194,0.171,-49.344,-67.298,94.878,0.0,100.0
70601,-0.677,0.314,0.188,4.511,-36.679,35.130,0.0,56.0
70651,-1.147,0.540,0.028,16.786,-10.115,-56.565,114.0,57.0
70702,-1.696,0.451,-0.120,43.145,-1.237,-133.718,112.0,58.0
70751,-1.036,-0.130,-0.104,68.015,20.275,-169.519,104.0,58.0
