Timestamp(ms),AccelX(g),AccelY(g),AccelZ(g),GyroX(deg/s),GyroY(deg/s),GyroZ(deg/s),DistanceLeft(cm),DistanceRight(cm)
527338,-2.000,0.077,-0.160,-77.916,90.511,-250.137,0.0,65.0
527396,-1.164,-0.183,0.356,-5.328,65.344,-172.153,0.0,75.0
527454,-0.759,0.257,0.153,69.084,43.473,-55.321,0.0,70.0
527512,-0.286,0.412,0.253,18.046,14.221,-10.626,0.0,79.0
527565,-0.342,0.524,0.212,-78.824,8.611,-13.412,23.0,111.0
527612,-0.645,0.327,0.222,-102.802,-6.328,-20.542,21.0,69.0
527664,-0.975,0.060,0.171,-74.489,-34.527,32.985,107.0,56.0
527720,-2.000,-0.251,-0.140,-7.840,-85.351,167.244,0.0,54.0
527777,-2.000,-0.345,-0.601,-41.511,-135.947,250.130,0.0,61.0
527835,-1.852,0.266,-0.159,7.344,-118.672,250.130,0.0,64.0
527893,-0.676,0.195,-0.099,-19.344,-66.282,231.351,0.0,76.0
527951,-0.149,-0.048,-0.020,-105.496,-22.206,149.886,0.0,82.0
528012,-0.259,-0.107,-0.002,-73.809,-7.931,73.931,0.0,63.0
528068,-0.327,-0.012,0.033,-9.099,-19.427,-0.519,0.0,57.0
528126,-0.435,0.202,0.126,38.817,-7.687,-81.763,0.0,71.0
528184,-0.674,0.302,0.211,13.870,30.046,-158.427,0.0,61.0
528240,-1.635,0.559,0.392,-13.557,80.924,-250.137,0.0,57.0
528297,-1.920,-0.072,0.264,-11.504,152.809,-250.137,0.0,58.0
528355,-1.887,-0.051,0.252,12.740,107.954,-239.038,0.0,57.0
528412,-1.275,-0.183,0.216,132.076,32.237,-121.496,0.0,60.0
528470,-0.693,0.474,0.087,110.122,8.885,-25.779,0.0,61.0
528529,-0.460,0.668,0.237,-21.855,-15.069,-18.275,0.0,59.0
528587,-0.427,0.695,0.333,-2.137,-11.084,-8.298,198.0,75.0
528645,-0.777,0.697,0.133,-29.115,-14.366,30.466,0.0,59.0
528701,-2.000,0.759,-0.387,-43.565,7.718,98.099,188.0,63.0
528758,-2.000,0.057,-0.493,-217.191,-39.588,250.130,0.0,59.0
528817,-1.981,0.132,-0.315,-239.786,-34.740,250.130,0.0,74.0
528875,-0.946,0.172,-0.192,-139.840,-26.031,250.130,0.0,85.0
528934,-0.635,0.213,-0.291,-147.901,-31.298,202.489,0.0,97.0
528999,-0.591,0.098,-0.304,-141.840,-28.183,157.886,0.0,139.0
529061,-0.488,0.376,-0.172,-76.435,7.603,64.832,0.0,146.0
529124,-0.672,0.490,0.074,-51.565,72.328,-86.863,0.0,150.0
529186,-0.691,0.134,0.333,-42.458,158.267,-130.931,0.0,147.0
529248,-1.302,0.505,0.135,-124.282,152.687,-178.832,200.0,131.0
529309,-1.477,-0.058,0.270,-106.992,124.321,-186.427,196.0,134.0
529371,-1.357,0.182,0.116,-55.611,96.321,-163.557,194.0,137.0
529433,-1.047,0.189,0.084,-126.267,39.229,-102.084,0.0,143.0
529489,-0.933,0.106,0.104,-142.038,17.641,-36.160,22.0,162.0
529548,-0.767,0.187,0.152,-121.504,-3.924,-8.695,0.0,88.0
529607,-0.604,0.146,0.151,-115.489,-34.229,13.122,0.0,85.0
529666,-0.899,0.247,0.149,-60.000,-50.756,11.328,0.0,86.0
529725,-1.156,0.411,-0.012,-35.458,-43.069,25.321,0.0,89.0
529782,-1.659,0.523,-0.324,-104.962,-27.061,68.802,173.0,94.0
529843,-1.803,0.317,-0.478,-189.702,-53.656,143.534,0.0,103.0
529903,-1.734,0.073,-0.372,-179.489,-84.336,202.496,0.0,115.0
529965,-1.150,0.152,-0.246,-18.748,-54.931,219.466,0.0,129.0
530031,-0.619,0.378,-0.215,-55.947,-32.092,194.008,0.0,163.0
530095,-0.448,0.239,-0.096,-119.954,-25.611,148.237,0.0,175.0
530156,-0.626,0.282,0.027,-85.809,-11.344,71.359,0.0,122.0
530216,-0.836,0.281,0.024,-29.061,7.817,7.748,0.0,119.0
530321,-0.985,0.328,0.100,-2.916,60.053,-92.412,146.0,176.0
530382,-0.989,0.264,0.146,10.069,89.580,-157.611,143.0,174.0
530443,-1.061,-0.077,0.235,20.870,66.466,-183.748,144.0,172.0
530503,-1.601,-0.070,0.288,151.863,36.099,-183.931,147.0,170.0
530571,-1.434,0.369,0.097,90.031,45.901,-121.817,0.0,169.0
530634,-0.898,0.383,0.073,-109.397,22.206,-84.023,0.0,170.0
530695,-0.746,0.073,0.193,-111.405,35.924,-34.870,0.0,120.0
530756,-0.538,0.157,0.192,-73.031,19.847,-3.427,0.0,122.0
530818,-0.513,0.183,0.183,-73.893,9.580,24.321,0.0,127.0
530876,-0.625,0.207,0.224,-66.046,-0.504,30.985,0.0,75.0
530923,-0.884,0.239,0.155,-36.672,-18.618,27.473,16.0,67.0
530980,-0.853,0.238,0.156,-8.122,-29.481,45.809,0.0,57.0
531038,-1.048,0.232,0.026,-27.153,-43.908,87.634,0.0,53.0
531098,-2.000,0.114,-0.384,-53.985,-60.550,183.160,0.0,50.0
531155,-2.000,0.006,-0.311,-76.534,-96.962,250.130,0.0,57.0
531213,-1.006,0.236,-0.017,45.168,-76.397,185.969,0.0,58.0
531271,-0.362,0.313,-0.031,20.336,-37.618,104.901,0.0,74.0
531329,-0.156,0.201,0.023,-6.939,-16.260,23.588,0.0,64.0
531386,-0.199,0.153,0.026,11.573,3.290,-39.191,0.0,59.0
531445,-0.396,0.185,0.050,12.969,9.344,-68.702,0.0,78.0
531504,-0.690,0.210,0.131,15.076,10.595,-102.962,0.0,75.0
531564,-0.906,0.291,0.156,26.336,29.893,-162.351,0.0,61.0
531621,-1.216,0.156,0.183,35.779,42.771,-187.252,0.0,50.0
531679,-2.000,0.272,0.168,60.985,66.779,-209.084,0.0,57.0
531735,-1.660,0.177,0.025,-18.725,77.893,-165.473,0.0,50.0
531792,-1.007,0.104,0.274,-72.053,40.656,-85.229,0.0,51.0
531850,-0.598,0.068,0.343,40.145,31.275,-54.023,0.0,57.0
531908,-0.381,0.397,0.141,44.427,18.176,-28.252,0.0,57.0
531965,-0.289,0.402,0.169,-38.405,5.733,-7.565,0.0,57.0
532023,-0.614,0.207,0.190,-41.527,-10.504,16.328,0.0,55.0
532083,-1.844,0.006,-0.054,22.878,-43.557,99.290,0.0,57.0
532141,-2.000,-0.144,-0.542,-80.580,-76.137,250.130,0.0,49.0
532199,-2.000,0.059,-0.095,-46.824,-97.221,250.130,0.0,77.0
532257,-0.918,0.291,-0.015,-3.252,-76.321,202.771,0.0,78.0
532317,-0.318,0.067,0.060,-41.664,-56.305,136.847,0.0,83.0
532376,-0.278,0.021,0.052,-41.145,-34.679,56.275,0.0,95.0
532434,-0.339,-0.070,0.052,-9.321,-34.015,-3.237,0.0,65.0
532493,-0.349,0.055,0.081,35.298,-33.046,-54.473,0.0,69.0
532552,-0.499,0.223,0.139,55.924,-4.229,-105.702,0.0,85.0
532614,-1.521,0.544,0.227,41.550,41.740,-204.565,0.0,79.0
532673,-1.830,0.205,0.328,90.282,121.886,-250.137,0.0,77.0
532731,-1.895,0.372,-0.022,-85.053,108.489,-250.137,0.0,67.0
532789,-1.137,-0.135,0.237,-92.282,70.756,-181.878,0.0,61.0
532847,-0.623,0.094,0.314,17.939,61.107,-62.725,0.0,58.0
532904,-0.473,0.349,0.283,-8.359,28.115,-26.031,0.0,59.0
532952,-0.488,0.427,0.307,-61.656,19.702,-37.122,17.0,64.0
532999,-0.660,0.210,0.263,-83.779,-10.366,-29.115,17.0,57.0
533049,-1.210,0.048,0.251,-22.496,-43.221,30.992,16.0,60.0
533107,-2.000,-0.231,-0.178,89.649,-99.115,120.435,0.0,57.0
533165,-2.000,-0.214,-0.416,89.481,-120.008,250.130,0.0,57.0
533267,-1.201,0.443,-0.198,-65.115,-82.985,250.130,0.0,81.0
533327,-0.530,0.015,0.004,-139.298,-73.427,199.237,0.0,90.0
533387,-0.300,-0.215,0.066,-72.099,-51.855,119.031,0.0,96.0
533447,-0.239,-0.046,0.015,2.611,-33.214,70.496,0.0,99.0
533507,-0.276,0.120,-0.014,0.794,-18.473,5.748,0.0,99.0
533566,-0.429,0.257,0.125,-3.817,14.588,-71.718,0.0,80.0
533628,-1.028,0.558,0.383,-2.206,61.504,-165.534,0.0,87.0
533688,-1.657,0.447,0.664,81.611,116.992,-250.137,0.0,77.0
533746,-1.917,0.381,0.298,175.405,88.107,-250.137,0.0,73.0
533805,-1.521,0.401,0.072,144.496,40.183,-250.137,0.0,73.0
533864,-0.782,0.602,0.010,16.122,32.298,-184.489,0.0,85.0
533923,-0.437,0.438,0.074,-149.023,40.534,-109.550,0.0,82.0
533982,-0.534,0.240,0.189,-155.870,47.802,-57.611,0.0,65.0
534030,-0.766,0.259,0.235,-98.443,27.351,-31.191,19.0,62.0
534080,-0.828,-0.010,0.255,-33.481,-14.802,25.031,18.0,59.0
534128,-1.512,0.002,0.114,42.214,-48.366,108.466,19.0,63.0
534175,-2.000,0.043,-0.326,83.756,-84.840,197.779,17.0,51.0
534239,-2.000,-0.048,-0.371,-3.435,-96.473,250.130,0.0,57.0
534297,-1.462,0.337,-0.152,-33.053,-92.389,250.130,0.0,95.0
534354,-0.618,0.071,-0.039,-89.656,-77.031,191.756,0.0,67.0
534413,-0.186,-0.230,0.033,-73.802,-50.221,107.855,0.0,72.0
534469,-0.191,-0.145,-0.050,0.565,-29.542,39.687,0.0,61.0
534528,-0.209,0.008,-0.061,13.427,-15.740,-20.214,0.0,80.0
534588,-0.453,0.129,0.134,13.206,5.924,-78.794,0.0,70.0
534646,-1.093,0.278,0.257,12.176,34.611,-162.031,0.0,80.0
534704,-2.000,0.077,0.633,248.275,77.481,-250.137,0.0,76.0
534763,-2.000,0.838,-0.316,135.290,28.542,-232.679,0.0,90.0
534819,-1.241,0.404,0.075,-63.290,11.817,-207.153,0.0,59.0
534877,-0.747,0.297,0.160,-37.893,62.580,-130.397,0.0,58.0
534933,-0.460,0.243,0.175,-91.069,31.527,-68.840,0.0,57.0
534990,-0.253,0.125,0.331,-14.023,18.275,-18.580,0.0,57.0
535050,-0.359,0.397,0.175,1.916,5.321,-2.450,0.0,60.0
535107,-2.000,0.551,-0.249,-50.015,-3.802,3.748,0.0,61.0
535163,-2.000,-0.514,-0.449,-206.977,-84.718,194.267,0.0,51.0
535220,-2.000,-0.284,-0.037,-54.084,-122.191,250.130,0.0,48.0
535279,-1.114,0.127,-0.118,87.038,-121.916,250.130,0.0,82.0
535336,-0.446,0.265,-0.110,6.962,-88.153,194.710,0.0,72.0
535395,-0.338,0.048,-0.053,-86.366,-54.489,104.916,0.0,87.0
535452,-0.400,-0.165,0.027,-53.466,-32.160,50.084,0.0,60.0
535510,-0.369,-0.036,0.054,2.038,-24.046,1.389,0.0,57.0
535570,-0.366,0.064,0.142,27.977,-17.817,-64.183,0.0,71.0
535627,-1.063,0.464,0.291,43.473,22.420,-154.191,0.0,73.0
535685,-1.803,0.490,0.391,87.710,114.145,-250.137,0.0,58.0
535742,-2.000,0.300,-0.075,2.702,130.649,-250.137,0.0,57.0
535798,-1.512,0.044,0.210,-65.527,81.603,-240.809,0.0,52.0
535856,-0.733,-0.071,0.561,37.557,71.023,-132.191,0.0,57.0
535912,-0.471,0.302,0.335,97.344,12.237,-81.099,0.0,57.0
535969,-0.367,0.560,0.169,30.931,-11.916,-36.550,0.0,59.0
536030,-0.448,0.383,0.092,-48.809,-26.802,9.985,0.0,63.0
536086,-0.976,0.264,-0.026,-40.305,-33.847,69.939,0.0,51.0
536185,-2.000,-0.283,-0.350,-172.527,-81.588,250.130,0.0,41.0
536243,-2.000,0.018,-0.061,-62.137,-112.779,250.130,0.0,56.0
536301,-1.037,0.115,0.052,9.229,-93.336,214.084,0.0,66.0
536357,-0.384,0.117,0.090,-0.641,-59.656,150.809,0.0,59.0
536415,-0.252,0.145,0.055,-29.328,-31.863,86.313,0.0,57.0
536471,-0.264,0.036,0.065,-44.008,-26.954,37.473,0.0,39.0
536526,-0.302,0.060,0.084,-7.137,-25.023,-7.137,0.0,38.0
536587,-0.434,0.189,0.112,36.305,-10.901,-60.084,0.0,60.0
536645,-0.632,0.304,0.158,6.817,12.947,-114.542,0.0,73.0
536702,-1.933,0.594,0.439,52.000,71.901,-228.542,0.0,59.0
536759,-1.950,0.230,0.224,113.351,133.618,-250.137,0.0,55.0
536816,-1.805,0.503,0.047,-48.679,101.344,-247.153,0.0,50.0
536872,-1.253,-0.182,0.217,-7.176,62.603,-169.756,0.0,47.0
536930,-0.702,0.246,0.101,112.817,63.748,-74.718,0.0,57.0
536987,-0.340,0.404,0.090,36.771,24.664,-32.977,0.0,64.0
537044,-0.295,0.314,0.153,25.015,22.458,-13.863,0.0,58.0
537105,-0.595,0.294,0.093,61.511,7.771,-5.107,0.0,73.0
537163,-1.111,0.272,0.033,87.359,5.664,39.405,0.0,76.0
537223,-2.000,0.079,-0.136,70.282,-15.969,168.481,0.0,95.0
537281,-2.000,-0.143,-0.152,-41.832,-74.710,250.130,0.0,79.0
537340,-1.883,0.300,0.082,-96.496,-99.702,250.130,0.0,82.0
537399,-0.863,-0.047,0.143,-99.580,-106.687,220.840,0.0,92.0
537459,-0.434,-0.170,0.167,7.267,-96.878,120.389,0.0,99.0
537520,-0.227,-0.072,0.090,99.748,-85.527,40.847,0.0,113.0
537582,-0.452,0.257,0.003,112.313,-82.168,-44.916,0.0,100.0
537643,-0.765,0.405,0.043,62.328,-98.992,-139.252,0.0,104.0
537702,-1.325,0.455,0.228,94.420,-101.107,-210.282,0.0,99.0
537761,-1.550,0.240,0.197,250.130,-87.260,-242.405,0.0,97.0
537815,-1.360,0.428,-0.178,250.130,-83.244,-206.031,90.0,90.0
537867,-1.244,0.750,-0.353,192.855,-86.221,-185.229,96.0,81.0
537917,-1.157,0.423,-0.215,58.305,-78.305,-153.061,68.0,55.0
537966,-1.122,0.162,-0.118,94.641,-60.870,-110.542,74.0,49.0
538015,-0.962,0.205,-0.172,205.099,-50.397,-58.847,80.0,42.0
538068,-0.877,0.491,-0.335,191.237,-43.534,-20.618,86.0,35.0
538118,-0.822,0.481,-0.238,109.000,-23.794,-8.893,90.0,32.0
538167,-0.868,0.365,-0.108,76.168,11.885,-9.351,94.0,30.0
538227,-0.909,0.377,-0.041,48.695,50.534,-11.641,98.0,0.0
538288,-0.985,0.276,0.134,10.489,58.977,-31.977,121.0,0.0
538346,-0.896,0.137,0.302,78.954,63.695,-51.809,126.0,149.0
538404,-1.069,0.286,0.218,90.817,61.344,-60.794,128.0,148.0
538463,-1.047,0.281,0.224,44.473,48.489,-57.351,133.0,146.0
538527,-0.948,0.239,0.270,18.366,41.603,-43.061,176.0,145.0
538589,-0.933,0.216,0.263,13.985,30.565,-32.252,187.0,146.0
538651,-0.863,0.172,0.268,33.389,12.908,-12.527,186.0,147.0
538713,-0.952,0.276,0.223,37.840,2.427,16.183,180.0,149.0
538773,-1.347,0.323,0.157,16.710,-14.313,31.069,160.0,152.0
538834,-1.225,0.080,0.109,-4.740,-47.748,94.176,138.0,0.0
538896,-1.402,0.234,0.040,-15.740,-53.527,163.519,116.0,0.0
538956,-1.492,0.305,-0.058,-56.779,-77.939,174.115,112.0,0.0
539020,-1.113,0.125,0.097,0.611,-90.282,196.275,151.0,0.0
539126,-0.461,0.531,0.066,-1.374,-59.038,134.618,0.0,101.0
539186,-0.467,0.434,0.117,-19.977,-41.023,57.855,0.0,94.0
539244,-0.491,0.332,0.116,15.160,-19.405,4.153,0.0,75.0
539302,-0.622,0.434,0.092,30.015,6.786,-57.550,0.0,66.0
539370,-1.201,0.534,0.059,5.641,56.252,-161.779,0.0,90.0
539425,-1.759,0.269,0.001,-5.504,93.473,-242.779,143.0,90.0
539475,-1.569,0.071,-0.101,-10.573,88.122,-242.626,96.0,51.0
539535,-1.534,-0.115,0.026,19.000,57.366,-170.122,105.0,0.0
539599,-1.303,-0.019,0.014,120.962,33.672,-71.878,130.0,0.0
539659,-0.943,0.272,-0.052,100.710,8.908,-36.298,108.0,195.0
539718,-0.679,0.198,0.067,100.435,-3.153,-30.069,113.0,0.0
539780,-0.539,0.317,0.080,77.489,2.183,-26.061,126.0,0.0
539837,-0.532,0.319,0.178,-3.420,6.130,-24.031,68.0,0.0
539894,-0.661,0.213,0.236,-20.290,10.344,-25.603,67.0,0.0
539952,-0.917,0.178,0.213,41.924,21.832,-27.313,68.0,0.0
540011,-1.424,0.285,0.003,80.557,15.260,-15.527,113.0,0.0
540069,-1.649,0.281,-0.226,44.168,1.725,52.389,84.0,0.0
540132,-1.524,0.257,-0.214,-79.878,-5.878,183.504,97.0,0.0
540185,-1.478,0.129,-0.151,-125.099,-33.008,237.947,123.0,73.0
540242,-1.078,0.158,-0.084,-118.053,-42.344,234.038,0.0,59.0
540300,-0.743,0.220,-0.063,-104.809,-40.069,196.298,0.0,68.0
540357,-0.507,0.209,-0.027,-94.351,-35.221,145.756,0.0,66.0
540414,-0.430,0.240,0.007,-67.588,-17.321,81.908,0.0,61.0
540472,-0.710,0.370,-0.008,-33.290,8.595,-3.763,0.0,64.0
540529,-1.102,0.375,0.001,-24.718,27.473,-83.061,0.0,75.0
540591,-1.461,0.140,-0.010,-22.153,33.305,-131.863,0.0,76.0
540648,-1.465,0.230,0.036,53.595,64.916,-165.954,200.0,59.0
540707,-1.324,0.060,0.026,70.954,58.359,-158.481,101.0,0.0
540760,-1.206,0.127,0.104,81.496,38.313,-133.260,126.0,57.0
540821,-1.083,0.209,0.083,106.542,36.130,-121.275,130.0,0.0
540883,-0.818,0.291,0.073,87.389,37.679,-126.153,150.0,0.0
540945,-0.704,0.260,0.101,50.298,32.290,-109.466,143.0,0.0
541005,-0.745,0.241,0.177,20.588,29.603,-82.237,109.0,0.0
541065,-0.971,0.226,0.257,13.252,22.595,-67.137,101.0,0.0
541127,-0.970,0.140,0.255,41.000,9.130,-41.802,102.0,0.0
541184,-1.038,0.161,0.136,59.496,8.458,19.298,58.0,0.0
541243,-1.421,0.337,-0.047,36.450,15.412,69.130,100.0,0.0
541302,-1.322,0.259,-0.123,-70.542,12.687,141.496,93.0,0.0
541362,-1.421,0.206,-0.097,-133.344,-1.672,186.023,99.0,0.0
541423,-1.451,0.146,-0.187,-126.397,-23.916,181.641,140.0,0.0
541485,-1.171,0.130,-0.105,-110.336,-40.641,183.260,129.0,0.0
541550,-0.745,0.146,-0.043,-75.221,-50.221,157.489,0.0,0.0
541612,-0.546,0.172,-0.021,-58.038,-42.542,112.626,0.0,87.0
541670,-0.768,0.248,-0.048,-36.924,-24.084,53.878,0.0,63.0
541724,-1.286,0.336,-0.115,-12.176,3.939,-23.786,156.0,64.0
541779,-1.442,0.326,-0.097,1.840,28.634,-109.802,154.0,57.0
541834,-1.291,0.264,-0.020,13.565,59.924,-169.832,151.0,58.0
541885,-1.195,0.048,0.002,23.679,78.740,-175.817,102.0,61.0
541939,-1.295,-0.026,0.064,52.053,60.565,-143.886,144.0,61.0
542001,-1.116,0.018,0.105,137.115,44.221,-135.282,134.0,0.0
542107,-0.658,0.435,0.014,77.107,36.687,-145.725,155.0,0.0
542168,-0.640,0.180,0.176,-14.611,23.359,-113.153,61.0,0.0
542225,-0.927,0.080,0.226,35.641,15.580,-71.031,66.0,0.0
542284,-1.000,0.133,0.129,100.893,10.931,-17.496,103.0,0.0
542344,-1.247,0.321,-0.043,54.534,18.405,52.595,92.0,0.0
542403,-1.598,0.350,-0.215,-39.985,7.153,107.908,92.0,0.0
542462,-1.603,0.032,-0.206,-142.733,-12.695,208.580,99.0,0.0
542523,-1.481,0.114,-0.155,-118.725,-29.962,241.160,111.0,0.0
542578,-0.960,0.209,-0.116,-94.634,-38.779,207.221,147.0,76.0
542639,-0.684,0.179,-0.072,-101.176,-42.069,162.244,0.0,62.0
542697,-0.446,0.130,-0.014,-93.557,-39.206,122.191,0.0,75.0
542754,-0.478,0.183,-0.005,-58.305,-29.802,66.435,0.0,61.0
542813,-1.063,0.371,-0.113,-35.420,4.023,-6.214,0.0,64.0
542871,-1.622,0.435,-0.262,-16.595,47.809,-95.191,0.0,85.0
542937,-1.491,0.241,-0.190,-16.145,58.305,-160.733,0.0,0.0
542989,-1.239,0.010,-0.026,26.595,67.748,-147.886,119.0,57.0
543043,-1.295,0.060,0.007,133.809,63.473,-132.176,134.0,58.0
543104,-1.078,0.233,0.004,137.351,40.405,-122.435,125.0,0.0
543167,-0.709,0.263,0.052,89.710,23.939,-107.550,112.0,0.0
543228,-0.661,0.275,0.081,70.588,20.489,-84.580,115.0,0.0
543288,-0.734,0.271,0.159,15.878,15.328,-58.565,101.0,0.0
543348,-0.979,0.252,0.249,18.099,18.115,-52.519,104.0,0.0
543408,-0.981,0.264,0.214,28.084,23.038,-41.198,101.0,0.0
543467,-1.375,0.340,0.034,-4.092,18.046,-14.847,96.0,0.0
543526,-1.428,0.052,-0.032,9.626,-23.260,73.084,91.0,0.0
543586,-1.495,0.171,-0.294,-36.275,-42.298,188.412,98.0,0.0
543651,-1.486,0.145,-0.255,-107.687,-38.496,250.130,140.0,0.0
543707,-0.994,0.140,-0.117,-96.733,-50.985,250.130,165.0,57.0
543763,-0.639,0.196,-0.055,-93.405,-51.634,220.450,179.0,57.0
543820,-0.461,0.182,0.013,-71.107,-36.359,157.763,191.0,57.0
543878,-0.514,0.277,-0.009,-45.229,-14.954,70.069,0.0,57.0
543935,-0.751,0.326,0.019,-19.626,14.313,-24.786,0.0,57.0
543991,-1.140,0.463,0.032,-21.908,50.290,-122.809,178.0,57.0
544046,-1.475,0.206,-0.078,-37.374,78.641,-188.496,153.0,56.0
544099,-1.537,0.134,-0.045,10.153,101.779,-218.687,105.0,73.0
544156,-1.424,0.025,-0.020,33.198,80.534,-177.313,114.0,83.0
544209,-1.356,-0.025,0.130,100.015,49.840,-140.344,120.0,73.0
544272,-1.038,0.161,0.065,156.053,30.618,-108.397,135.0,0.0
544332,-0.776,0.348,0.004,136.847,19.183,-98.443,123.0,0.0
544394,-0.583,0.342,0.069,54.863,12.031,-75.763,118.0,0.0
544454,-0.788,0.302,0.174,-1.397,14.718,-44.870,110.0,0.0
544515,-0.976,0.205,0.297,2.405,14.573,-31.802,105.0,0.0
544572,-0.939,0.175,0.264,31.954,14.618,2.565,57.0,0.0
544634,-1.232,0.413,0.101,12.519,20.084,32.519,97.0,0.0
544694,-1.592,0.134,-0.052,2.687,-8.656,68.382,92.0,0.0
544753,-1.797,0.259,-0.350,-49.664,-25.901,190.840,93.0,0.0
544816,-1.640,0.066,-0.182,-131.046,-52.618,250.130,142.0,0.0
544872,-1.021,0.158,-0.063,-141.061,-53.748,250.130,144.0,90.0
544926,-0.546,0.112,-0.002,-133.328,-47.725,224.305,139.0,57.0
544980,-0.399,0.099,0.042,-99.756,-35.481,163.664,142.0,58.0
545078,-0.780,0.287,0.025,5.710,1.092,-3.626,134.0,57.0
545131,-1.070,0.426,-0.091,26.740,37.214,-105.595,131.0,59.0
545188,-1.392,0.387,-0.094,2.588,63.366,-197.756,133.0,62.0
545242,-1.315,0.166,0.031,11.313,93.084,-247.282,123.0,50.0
545294,-1.488,0.064,0.030,19.939,104.000,-231.244,105.0,65.0
545345,-1.485,0.055,0.080,27.824,80.641,-186.771,108.0,44.0
545398,-1.141,-0.019,0.170,64.481,46.748,-126.366,127.0,57.0
545453,-0.846,0.046,0.162,135.519,28.634,-74.977,135.0,61.0
545518,-0.613,0.267,0.053,143.817,6.137,-45.702,0.0,0.0
545585,-0.667,0.316,0.049,90.290,-7.237,-23.237,0.0,0.0
545653,-0.984,0.279,0.148,51.718,-1.321,-1.435,0.0,0.0
545719,-0.984,0.277,0.251,16.947,16.160,13.328,0.0,0.0
545784,-1.059,0.177,0.272,-24.008,18.725,30.481,0.0,0.0
545850,-1.366,0.204,0.178,26.504,23.115,36.191,0.0,0.0
545916,-1.187,0.322,-0.005,5.450,13.550,68.351,0.0,0.0
545982,-1.465,0.071,-0.064,-21.679,-14.702,119.092,0.0,0.0
546048,-1.022,0.257,-0.055,-16.489,-3.901,182.695,0.0,0.0
546107,-0.837,0.404,-0.086,-127.496,1.733,178.450,0.0,84.0
546165,-0.582,0.169,0.028,-161.504,-13.061,147.878,0.0,79.0
546223,-0.572,0.144,0.114,-91.176,-14.015,110.992,109.0,79.0
546276,-0.802,0.304,0.066,-28.977,-2.977,39.748,107.0,78.0
546335,-1.078,0.343,0.032,-3.954,2.756,-41.992,0.0,76.0
546387,-1.538,0.343,-0.010,14.092,19.214,-123.878,97.0,67.0
546441,-1.497,0.277,-0.021,33.008,47.985,-172.145,108.0,71.0
546494,-1.139,0.146,0.006,9.099,58.214,-154.145,106.0,77.0
546547,-1.194,0.112,0.049,4.939,49.664,-122.985,121.0,59.0
546603,-1.005,0.079,0.069,52.336,36.656,-91.809,122.0,92.0
546665,-0.740,0.196,0.068,92.137,33.183,-71.321,0.0,91.0
546725,-0.705,0.210,0.031,92.832,16.809,-57.985,0.0,91.0
546785,-0.622,0.154,0.095,118.122,2.504,-37.145,0.0,95.0
546845,-0.770,0.250,0.064,120.069,-1.786,-16.046,0.0,96.0
546911,-0.854,0.300,0.106,85.206,6.878,-5.870,0.0,99.0
546975,-0.868,0.309,0.146,53.198,28.176,-6.275,0.0,193.0
547040,-1.020,0.350,0.174,29.260,52.244,-17.397,0.0,198.0
547104,-1.405,0.376,0.135,-14.107,54.679,-18.763,193.0,0.0
547163,-1.227,-0.016,0.148,-79.931,-12.611,58.794,184.0,107.0
547229,-1.535,-0.165,0.117,-27.817,-73.229,172.901,175.0,0.0
547284,-1.434,0.032,0.035,15.939,-108.443,233.504,165.0,72.0
547348,-1.075,0.204,0.034,-9.939,-107.420,218.969,158.0,0.0
547408,-0.799,0.235,0.056,-46.168,-93.924,153.038,0.0,133.0
547469,-0.484,0.122,0.121,-15.947,-77.374,78.489,0.0,105.0
547527,-0.467,0.187,0.119,33.672,-48.771,8.481,0.0,99.0
547588,-0.615,0.278,0.112,66.794,-19.053,-72.160,0.0,109.0
547643,-0.829,0.273,0.074,105.580,2.191,-161.344,140.0,97.0
547704,-1.415,0.217,-0.073,161.405,16.282,-211.992,140.0,0.0
547770,-1.331,0.204,-0.204,168.427,28.244,-206.809,143.0,0.0
547831,-1.488,0.176,-0.275,132.282,2.626,-144.069,147.0,0.0
547893,-1.218,0.086,-0.207,224.817,-18.412,-98.962,0.0,139.0
547954,-0.824,0.315,-0.266,244.015,12.565,-50.015,196.0,132.0
548016,-0.838,0.567,-0.237,105.656,7.595,-29.710,197.0,130.0
548120,-0.778,0.266,0.114,71.481,29.053,-31.977,197.0,131.0
548179,-0.945,0.382,0.117,60.305,39.443,-39.634,195.0,102.0
548239,-1.141,0.305,0.146,24.519,45.023,-35.145,191.0,119.0
548303,-1.450,0.268,0.131,7.885,35.519,7.618,185.0,144.0
548363,-1.261,-0.012,0.159,-24.557,-20.336,111.115,175.0,134.0
548422,-1.422,-0.008,0.123,-2.344,-60.947,201.718,166.0,132.0
548484,-1.411,0.168,0.058,-19.046,-81.672,228.763,155.0,175.0
548545,-1.125,0.138,0.117,-62.084,-107.153,214.344,148.0,197.0
548611,-0.736,0.147,0.260,-21.580,-112.366,141.863,0.0,0.0
548670,-0.467,0.202,0.229,49.565,-91.664,63.840,0.0,100.0
548728,-0.406,0.281,0.198,81.099,-69.580,-4.244,0.0,79.0
548791,-0.539,0.385,0.126,97.397,-37.092,-79.076,0.0,93.0
548855,-0.959,0.386,-0.014,96.328,-14.931,-153.214,0.0,0.0
548917,-1.660,0.341,-0.180,87.061,15.962,-189.198,124.0,0.0
548977,-1.156,0.126,-0.024,15.267,23.038,-133.542,124.0,0.0
549038,-1.450,0.003,-0.022,96.855,-9.992,-107.038,108.0,0.0
549099,-1.058,0.300,-0.190,216.000,0.771,-96.214,128.0,0.0
549160,-0.781,0.525,-0.205,128.573,23.664,-107.886,149.0,0.0
549222,-0.869,0.325,-0.050,34.878,30.634,-109.931,149.0,175.0
549280,-0.899,0.298,0.141,40.481,51.069,-84.588,106.0,174.0
549343,-0.994,0.353,0.224,11.122,48.763,-74.763,120.0,177.0
549402,-1.275,0.182,0.230,15.649,34.076,-48.214,101.0,0.0
549458,-1.358,0.322,0.097,28.641,17.779,16.534,51.0,189.0
549518,-1.519,0.099,-0.050,-27.084,-35.160,104.794,94.0,198.0
549578,-1.937,-0.043,-0.276,-73.557,-74.840,237.122,129.0,0.0
549641,-1.665,0.016,-0.237,-77.450,-93.015,250.130,134.0,0.0
549694,-0.886,0.179,-0.147,-58.092,-85.802,250.130,130.0,57.0
549751,-0.465,0.187,-0.067,-64.718,-65.695,195.351,0.0,67.0
549812,-0.403,0.128,-0.051,-79.084,-46.206,117.840,0.0,59.0
549864,-0.555,0.147,-0.033,-42.137,-23.336,39.176,123.0,57.0
549921,-0.853,0.284,-0.052,9.695,7.321,-46.328,0.0,57.0
549979,-1.215,0.394,-0.127,35.977,31.389,-162.290,0.0,61.0
550036,-1.263,0.259,-0.084,49.237,58.427,-235.366,177.0,80.0
550089,-1.438,0.071,-0.073,52.366,75.420,-236.962,120.0,72.0
550144,-1.542,0.093,-0.032,67.153,69.702,-204.122,129.0,74.0
550198,-1.333,0.129,0.054,91.595,64.290,-171.954,133.0,74.0
550269,-1.023,0.212,0.101,97.328,47.313,-135.466,106.0,0.0
550330,-0.722,0.213,0.132,86.649,21.832,-95.947,104.0,0.0
550389,-0.789,0.253,0.181,74.015,3.710,-53.046,108.0,0.0
550450,-0.889,0.282,0.182,76.519,-2.954,-28.893,105.0,0.0
550510,-0.854,0.332,0.110,60.282,10.397,4.756,107.0,0.0
550569,-1.343,0.408,-0.029,-7.863,21.206,43.794,102.0,0.0
550629,-1.574,0.257,-0.189,-106.679,13.466,117.252,95.0,0.0
550689,-1.533,0.095,-0.150,-170.397,-17.550,212.466,102.0,0.0
550746,-1.410,0.098,-0.143,-136.695,-41.031,224.794,137.0,98.0
550806,-0.911,0.192,-0.089,-82.733,-47.061,189.779,151.0,104.0
550861,-0.653,0.264,-0.063,-81.145,-41.252,145.618,149.0,71.0
550917,-0.585,0.193,-0.048,-96.084,-39.840,108.519,143.0,79.0
550970,-0.784,0.174,-0.028,-66.924,-29.076,69.527,139.0,58.0
551025,-0.991,0.199,-0.043,-12.244,-9.282,15.420,119.0,89.0
551121,-1.471,0.346,-0.173,9.405,31.275,-120.534,121.0,64.0
551175,-1.124,0.252,-0.077,14.656,59.901,-166.527,118.0,61.0
551229,-1.145,0.155,0.027,19.275,78.893,-164.450,136.0,68.0
551294,-1.189,0.102,0.103,44.397,72.473,-166.771,134.0,0.0
551357,-0.943,0.075,0.139,125.679,56.061,-157.588,142.0,0.0
551418,-0.771,0.240,0.068,149.542,40.130,-124.038,130.0,0.0
551479,-0.720,0.315,0.122,56.756,23.863,-77.191,116.0,0.0
551539,-1.080,0.242,0.214,28.351,15.840,-43.145,99.0,0.0
551597,-0.972,0.206,0.214,54.244,13.038,-12.000,57.0,0.0
551656,-0.949,0.330,0.115,29.435,21.832,29.802,92.0,0.0
551715,-1.480,0.412,-0.025,-29.710,21.099,43.443,94.0,0.0
551775,-1.619,0.139,-0.157,-84.092,-17.939,112.702,90.0,0.0
551837,-1.518,0.081,-0.169,-82.901,-41.260,206.618,93.0,0.0
551892,-1.347,0.131,-0.162,-86.443,-52.878,243.137,167.0,57.0
551958,-0.874,0.196,-0.113,-98.504,-57.267,234.336,183.0,0.0
552015,-0.538,0.178,-0.041,-106.901,-50.153,191.504,0.0,57.0
552073,-0.516,0.238,-0.012,-79.679,-30.763,123.679,0.0,56.0
552130,-0.698,0.267,-0.034,-39.702,-12.611,30.351,0.0,62.0
552184,-1.108,0.380,-0.039,8.008,27.145,-58.695,123.0,73.0
552243,-1.379,0.369,-0.098,-12.878,61.008,-137.649,0.0,64.0
552301,-1.326,0.268,-0.043,-22.702,96.282,-196.015,149.0,69.0
552354,-1.333,0.104,0.003,7.580,106.565,-210.336,108.0,69.0
552407,-1.301,0.056,0.023,32.656,88.878,-175.702,109.0,64.0
552467,-1.009,0.061,0.111,80.389,65.664,-141.786,114.0,0.0
552528,-0.801,0.173,0.082,124.313,46.389,-108.214,126.0,0.0
552591,-0.731,0.262,0.070,98.115,20.641,-73.824,132.0,0.0
552656,-1.009,0.326,0.129,62.260,11.740,-49.893,0.0,0.0
552717,-1.087,0.241,0.198,48.168,10.427,-28.870,114.0,0.0
552777,-0.914,0.251,0.186,26.687,10.947,14.038,101.0,0.0
552840,-1.391,0.302,0.034,-8.977,14.000,50.076,96.0,0.0
552899,-1.504,0.264,-0.113,-57.725,-7.817,94.473,92.0,0.0
552960,-1.434,0.018,-0.165,-107.099,-39.466,182.176,96.0,0.0
553022,-1.186,0.104,-0.101,-86.420,-37.855,228.969,149.0,0.0
553077,-0.770,0.273,-0.117,-88.252,-37.504,192.763,144.0,61.0
553133,-0.516,0.201,-0.047,-108.756,-35.771,149.931,136.0,80.0
553186,-0.469,0.165,0.019,-86.229,-26.588,105.305,121.0,57.0
553238,-0.944,0.289,-0.062,-41.992,-15.519,34.382,119.0,50.0
553294,-1.350,0.331,-0.153,2.397,9.573,-33.939,116.0,52.0
553349,-1.548,0.398,-0.236,-9.916,26.924,-95.221,117.0,93.0
553402,-1.256,0.156,-0.039,7.656,40.084,-132.031,114.0,60.0
553454,-1.141,0.121,0.005,52.664,53.733,-138.038,123.0,50.0
553507,-1.132,0.139,0.000,70.519,43.237,-125.092,115.0,50.0
553561,-0.928,0.161,0.089,87.260,32.840,-117.580,130.0,50.0
553622,-0.831,0.190,0.084,115.008,23.885,-120.092,130.0,0.0
553684,-0.755,0.197,0.083,128.878,15.947,-105.863,141.0,0.0
553754,-0.778,0.349,0.112,70.435,16.427,-85.038,0.0,0.0
553817,-0.996,0.297,0.193,26.908,19.435,-88.435,151.0,0.0
553877,-0.964,0.197,0.194,40.916,21.099,-62.046,96.0,0.0
553936,-1.229,0.271,0.064,36.321,27.267,-1.115,97.0,0.0
553996,-1.353,0.276,-0.038,-9.847,15.718,74.763,86.0,0.0
554099,-1.479,0.031,-0.129,-129.473,-28.748,230.290,98.0,0.0
554163,-1.294,0.167,-0.111,-101.481,-31.832,248.000,149.0,0.0
554218,-0.815,0.243,-0.072,-103.267,-37.053,206.542,149.0,65.0
554274,-0.585,0.175,-0.026,-112.901,-33.901,165.221,153.0,76.0
554336,-0.629,0.207,-0.016,-82.672,-20.679,105.634,0.0,62.0
554389,-0.764,0.247,-0.035,-28.924,-4.092,22.992,112.0,65.0
554448,-1.147,0.416,-0.128,2.603,18.374,-66.595,0.0,79.0
554507,-1.456,0.296,-0.098,9.748,38.947,-154.069,99.0,81.0
554560,-1.300,0.196,-0.023,26.595,60.069,-188.153,137.0,57.0
554612,-1.307,0.164,0.002,31.985,63.298,-174.015,115.0,60.0
554664,-1.248,0.083,0.084,36.481,47.786,-150.832,110.0,71.0
554724,-1.056,0.051,0.126,84.931,33.176,-121.237,116.0,0.0
554789,-0.771,0.165,0.088,139.290,23.977,-96.985,146.0,0.0
554852,-0.645,0.311,0.053,114.664,10.145,-81.176,157.0,0.0
554911,-0.804,0.338,0.139,51.168,10.641,-70.275,106.0,0.0
554971,-1.029,0.210,0.220,37.611,15.313,-60.603,100.0,0.0
555029,-0.954,0.229,0.205,49.160,21.840,-18.046,94.0,0.0
555088,-1.354,0.328,0.049,6.366,23.069,25.183,91.0,0.0
555147,-1.445,0.224,-0.056,-34.282,6.740,86.855,93.0,0.0
555212,-1.414,0.152,-0.098,-108.183,-19.855,183.489,0.0,0.0
555274,-1.337,0.146,-0.072,-130.802,-37.740,228.618,135.0,0.0
555330,-0.961,0.172,-0.032,-104.672,-45.237,204.389,129.0,76.0
555383,-0.639,0.151,0.020,-90.076,-43.679,176.679,130.0,65.0
555437,-0.485,0.215,0.024,-71.840,-33.244,132.168,125.0,57.0
555489,-0.640,0.341,-0.010,-61.107,-15.420,60.504,123.0,66.0
555541,-1.005,0.362,-0.009,-50.137,-0.794,-16.084,114.0,58.0
555593,-1.373,0.407,-0.005,-24.618,30.481,-84.496,112.0,57.0
555645,-1.399,0.154,0.030,-1.015,37.893,-109.908,110.0,66.0
555697,-1.105,0.171,0.039,39.290,49.908,-113.473,109.0,57.0
555752,-1.182,0.192,0.033,52.817,47.046,-114.794,112.0,60.0
555803,-1.047,0.139,0.089,84.420,34.282,-114.000,114.0,57.0
555857,-0.918,0.220,0.049,132.412,37.008,-121.511,126.0,74.0
555922,-0.784,0.292,0.028,132.221,37.718,-125.931,0.0,0.0
555985,-0.656,0.312,0.025,69.908,30.702,-109.595,0.0,157.0
556048,-0.970,0.267,0.134,17.473,33.221,-73.496,0.0,154.0
556104,-1.228,0.174,0.255,14.992,27.557,-45.145,93.0,155.0
556167,-1.116,0.093,0.292,52.656,18.328,-16.733,0.0,157.0
556230,-1.466,0.198,0.072,95.656,14.115,20.718,0.0,161.0
556296,-1.043,0.347,-0.099,2.420,7.275,79.168,0.0,167.0
556354,-0.995,0.170,-0.016,-76.275,-9.389,131.557,0.0,75.0
556412,-1.104,0.251,-0.008,-57.206,-16.695,138.817,0.0,81.0
556471,-1.136,0.203,-0.040,-53.641,-37.557,127.763,198.0,85.0
556529,-0.900,0.132,0.054,-26.939,-39.580,138.069,195.0,76.0
556585,-0.583,0.241,0.126,-27.351,-36.679,134.977,189.0,57.0
556643,-0.604,0.322,0.158,-55.626,-31.038,95.450,0.0,58.0
556701,-0.805,0.264,0.201,-43.137,-30.649,49.924,0.0,84.0
556763,-0.953,0.317,0.177,-1.969,-18.466,2.000,0.0,88.0
556822,-1.167,0.396,0.105,9.092,-12.176,-41.939,0.0,87.0
556880,-1.117,0.313,0.175,29.565,-5.176,-60.710,0.0,84.0
556939,-0.994,0.394,0.207,38.641,-22.221,-64.427,0.0,90.0
557042,-0.964,0.240,0.167,89.863,-61.183,-6.450,0.0,96.0
557102,-0.640,0.424,0.120,113.031,-59.969,0.443,0.0,96.0
557161,-0.523,0.419,0.161,94.015,-56.344,-12.855,0.0,95.0
557220,-0.550,0.480,0.220,81.359,-38.527,-8.504,0.0,94.0
557279,-0.498,0.534,0.338,67.824,-26.405,-21.679,0.0,93.0
557341,-0.678,0.640,0.307,71.405,-13.198,-24.534,0.0,90.0
557398,-0.870,0.535,0.241,80.916,-8.107,-16.290,0.0,42.0
557457,-1.412,0.659,0.077,135.992,3.397,-26.511,0.0,92.0
557515,-1.037,0.608,0.084,67.664,-20.924,-16.702,0.0,91.0
557575,-1.376,0.410,0.098,63.412,-51.145,19.374,0.0,92.0
557634,-1.058,0.438,0.098,75.267,-67.893,56.756,0.0,98.0
557692,-0.859,0.506,0.124,39.649,-89.855,54.176,0.0,80.0
557751,-0.857,0.355,0.139,71.420,-113.756,50.977,0.0,81.0
557810,-0.662,0.453,0.058,127.733,-115.511,61.504,0.0,81.0
557872,-0.448,0.748,0.054,67.206,-102.237,35.977,0.0,79.0
557930,-0.440,0.589,0.186,27.794,-89.191,-13.557,0.0,79.0
557988,-0.445,0.526,0.165,48.198,-65.977,-45.282,0.0,78.0
558047,-0.565,0.555,0.137,66.985,-47.840,-90.237,0.0,77.0
558105,-0.980,0.892,0.065,17.885,-51.221,-112.237,0.0,72.0
558158,-1.222,0.835,0.519,79.176,-52.939,-80.557,108.0,92.0
558219,-1.208,1.390,0.445,-31.725,-83.573,-19.908,105.0,0.0
558271,-1.269,0.425,0.891,-4.702,-168.519,34.305,110.0,57.0
558329,-0.919,1.125,0.394,-4.145,-211.420,84.740,151.0,76.0
558387,-0.569,0.743,0.453,-124.916,-215.321,51.672,0.0,48.0
558443,-0.459,0.476,0.443,-169.405,-203.206,42.450,0.0,38.0
558496,-0.151,0.038,0.604,-104.641,-196.824,26.962,145.0,40.0
558550,0.031,0.109,0.606,-24.115,-169.710,23.687,144.0,43.0
558603,0.228,0.143,0.604,-30.634,-129.847,26.580,143.0,43.0
558656,0.427,0.133,0.666,-30.466,-87.954,28.931,142.0,44.0
558709,0.532,0.178,0.731,-31.427,-66.435,30.099,141.0,46.0
558763,0.569,0.110,0.861,-31.733,-50.099,33.641,139.0,49.0
558819,0.602,0.102,0.962,-21.221,-35.031,32.237,138.0,48.0
558872,0.515,0.110,1.062,1.557,-4.565,15.191,137.0,50.0
558924,0.428,0.213,0.992,-0.450,7.359,5.832,137.0,47.0
558978,0.245,0.404,0.862,7.313,25.084,4.298,137.0,48.0
559031,0.375,0.220,0.871,10.771,42.702,4.305,136.0,51.0
559084,0.350,0.144,0.915,-19.130,49.977,4.069,136.0,50.0
559137,0.269,0.177,0.930,-7.649,33.550,-4.405,136.0,57.0
559191,0.284,0.147,0.919,-8.588,17.733,-3.794,136.0,50.0
559248,0.298,0.130,0.849,-22.382,8.298,0.084,0.0,57.0
559301,0.333,0.097,0.887,-16.656,9.053,0.969,79.0,50.0
559354,0.326,0.067,0.943,-16.916,8.313,-7.046,134.0,57.0
559405,0.304,0.164,1.018,-22.962,10.695,-6.366,78.0,58.0
559462,0.279,-0.009,1.073,-47.656,7.427,-6.863,0.0,50.0
559511,0.389,0.041,1.057,-14.389,19.977,-25.947,79.0,48.0
559561,0.251,0.105,1.091,-7.069,47.145,-27.267,78.0,46.0
559611,0.092,0.097,1.169,-20.618,40.527,-24.885,79.0,46.0
559661,0.100,0.054,1.103,-1.321,21.450,-23.000,79.0,46.0
559711,0.221,0.099,0.975,-12.053,9.176,-18.603,80.0,45.0
559763,0.234,-0.012,0.968,-11.496,9.939,-13.794,80.0,44.0
559856,0.141,0.037,0.931,-14.885,-4.595,-9.519,81.0,43.0
559906,0.147,-0.002,0.924,-17.122,-14.649,-9.603,82.0,43.0
559956,0.214,-0.011,0.889,-12.954,-13.214,-5.817,83.0,40.0
560006,0.285,-0.068,0.930,3.740,-6.656,-0.061,83.0,41.0
560056,0.277,0.058,1.073,30.855,3.542,16.366,84.0,40.0
560105,0.074,0.036,1.025,52.847,22.992,20.603,84.0,39.0
560155,0.141,0.086,0.874,61.160,48.206,18.076,85.0,40.0
560208,0.032,-0.084,0.816,80.458,71.954,-9.519,87.0,38.0
560259,-0.027,0.161,0.625,165.985,104.298,-25.504,88.0,44.0
560309,-0.025,0.341,0.607,65.359,135.992,-61.038,89.0,50.0
560360,-0.230,0.194,0.617,87.534,148.466,-53.962,90.0,44.0
560410,-0.240,0.205,0.591,120.832,139.573,-75.557,92.0,47.0
560461,-0.358,0.200,0.394,166.779,125.847,-81.947,94.0,42.0
560513,-0.789,0.316,0.227,197.275,112.817,-142.702,99.0,50.0
560565,-1.423,0.427,-0.010,198.336,119.855,-206.328,110.0,57.0
560621,-1.944,0.587,-0.245,104.450,97.130,-245.084,182.0,57.0
560678,-2.000,0.030,-0.078,26.130,86.206,-185.008,131.0,58.0
560731,-1.537,0.269,-0.076,67.908,83.870,-124.237,136.0,28.0
560792,-1.292,0.334,-0.018,64.702,71.069,-90.908,117.0,0.0
560852,-1.208,0.245,-0.054,34.962,44.779,-45.947,102.0,0.0
560913,-0.855,0.320,0.043,51.000,40.595,-29.939,107.0,0.0
560978,-0.509,0.278,0.124,39.298,16.489,-27.229,0.0,0.0
561044,-0.588,0.314,0.198,29.466,-1.985,-8.069,187.0,0.0
561110,-0.985,0.334,0.216,38.137,-13.702,-6.878,0.0,0.0
561174,-1.211,0.441,0.095,32.672,-2.656,24.634,113.0,0.0
561234,-1.411,0.524,-0.117,-81.977,-1.115,59.527,104.0,0.0
561297,-1.692,-0.035,-0.263,-151.084,-59.374,137.435,150.0,0.0
561358,-1.413,0.068,-0.240,-61.641,-77.321,218.015,124.0,0.0
561416,-0.986,0.282,-0.199,-48.962,-62.061,196.252,166.0,65.0
561473,-0.580,0.248,-0.087,-79.916,-45.924,155.626,0.0,52.0
561530,-0.311,0.131,-0.010,-90.267,-27.061,120.076,0.0,47.0
561583,-0.542,0.170,-0.021,-63.740,-12.000,77.198,106.0,50.0
561640,-1.055,0.283,-0.058,-10.779,1.664,-2.092,0.0,59.0
561703,-1.319,0.506,-0.196,-0.076,37.160,-102.313,0.0,91.0
561766,-1.430,0.237,-0.089,-2.977,65.397,-171.870,0.0,51.0
561817,-1.308,0.101,-0.006,32.718,82.321,-183.443,103.0,60.0
561868,-1.310,0.132,0.042,68.580,78.847,-170.878,103.0,57.0
561928,-1.153,0.128,0.074,89.794,61.809,-159.756,106.0,0.0
561989,-0.944,0.097,0.138,128.733,44.763,-132.107,150.0,0.0
562054,-0.644,0.247,0.102,136.359,31.924,-98.962,176.0,0.0
562113,-0.653,0.340,0.193,53.756,16.725,-66.550,108.0,0.0
562176,-1.065,0.269,0.278,27.160,12.191,-50.336,108.0,0.0
562232,-1.025,0.203,0.220,37.802,11.435,-14.305,56.0,0.0
562291,-1.344,0.327,0.011,-1.679,19.695,48.344,94.0,0.0
562351,-1.484,0.195,-0.127,-77.550,-7.160,130.489,103.0,0.0
562410,-1.709,0.054,-0.191,-122.969,-40.527,216.214,99.0,0.0
562473,-1.467,0.114,-0.098,-101.634,-54.489,250.130,165.0,0.0
562538,-0.942,0.224,-0.053,-99.313,-55.031,214.313,0.0,0.0
562596,-0.500,0.124,0.003,-110.710,-53.137,170.076,0.0,72.0
562653,-0.356,0.141,0.038,-81.641,-38.176,131.863,0.0,60.0
