Timestamp(ms),AccelX(g),AccelY(g),AccelZ(g),GyroX(deg/s),GyroY(deg/s),GyroZ(deg/s),DistanceLeft(cm),DistanceRight(cm)
87640,-0.247,0.555,0.729,-2.511,25.405,24.687,0.0,96.0
87699,-0.258,0.564,0.730,-5.962,27.985,21.397,0.0,98.0
87758,-0.292,0.654,0.708,-11.183,29.718,12.611,0.0,99.0
87818,-0.332,0.559,0.747,-14.000,17.870,5.382,0.0,100.0
87877,-0.363,0.626,0.733,3.183,8.053,-1.496,0.0,101.0
87937,-0.378,0.617,0.717,-3.122,5.130,-6.550,0.0,102.0
87997,-0.410,0.659,0.736,-4.595,3.641,-20.244,0.0,103.0
88056,-0.405,0.592,0.737,4.534,-0.885,-26.702,0.0,103.0
88119,-0.456,0.619,0.779,-8.748,1.206,-34.061,0.0,100.0
88179,-0.454,0.358,0.690,-29.046,-3.008,-22.137,0.0,100.0
88239,-0.435,0.473,0.672,-0.969,-15.275,-22.359,0.0,104.0
88298,-0.411,0.397,0.780,-1.786,-9.939,-13.794,0.0,100.0
88358,-0.419,0.502,0.872,-7.061,-5.802,-14.115,0.0,98.0
88418,-0.539,0.412,0.956,-23.534,-30.611,-13.626,0.0,92.0
88477,-0.258,0.247,0.845,30.260,5.076,-4.756,0.0,98.0
88537,-0.216,0.631,0.722,-9.107,15.069,-7.527,0.0,98.0
88596,-0.446,0.388,0.670,-28.855,-2.611,2.275,0.0,92.0
88649,-0.489,0.441,0.761,-6.748,-4.313,3.756,37.0,104.0
88709,-0.483,0.355,0.860,-2.000,-7.092,-5.031,0.0,99.0
88768,-0.439,0.333,0.959,14.130,-5.931,-0.809,0.0,98.0
88828,-0.471,0.436,0.964,9.573,-9.382,8.198,0.0,103.0
88888,-0.379,0.358,0.917,21.924,-8.405,38.038,0.0,97.0
88947,-0.388,0.410,0.842,9.985,-4.809,53.084,0.0,98.0
88997,-0.284,0.418,0.835,24.305,11.649,75.221,37.0,101.0
89058,-0.249,0.452,0.768,18.947,21.924,89.870,0.0,102.0
89123,-0.190,0.540,0.813,-0.176,30.756,111.718,0.0,0.0
89182,-0.012,0.868,0.855,24.626,55.565,135.344,36.0,0.0
89247,0.068,1.028,0.881,-12.641,54.137,129.137,0.0,0.0
89304,0.237,1.086,0.720,35.771,77.450,114.046,30.0,0.0
89367,0.133,1.091,0.557,-29.466,84.046,111.618,0.0,159.0
89433,0.098,0.747,0.528,-6.954,75.733,112.015,0.0,0.0
89488,0.160,0.658,0.454,-8.145,69.489,112.527,34.0,0.0
89537,0.223,0.672,0.478,-5.763,53.786,97.275,31.0,81.0
89586,0.325,0.688,0.489,-6.641,51.427,93.115,36.0,69.0
89634,0.350,0.887,0.579,4.000,70.168,95.901,32.0,68.0
89686,0.260,0.766,0.617,-27.863,74.924,104.305,31.0,67.0
89734,0.344,0.693,0.665,11.298,84.901,104.931,30.0,66.0
89782,0.206,0.941,0.568,1.038,83.534,94.450,34.0,65.0
89830,0.216,0.761,0.605,-17.305,76.382,82.687,32.0,65.0
89887,0.105,0.705,0.619,7.099,74.855,70.000,0.0,65.0
89935,0.051,0.704,0.707,-25.687,55.740,50.504,31.0,65.0
89984,-0.083,0.750,0.703,31.305,43.962,45.748,28.0,65.0
90032,-0.074,0.833,0.705,1.237,37.313,53.237,30.0,65.0
90080,0.039,0.619,0.772,-15.634,43.122,54.374,31.0,66.0
90131,0.043,0.595,0.757,8.588,55.374,47.473,31.0,66.0
90179,0.044,0.669,0.724,-2.908,63.122,43.160,31.0,66.0
90227,0.044,0.531,0.752,-7.542,62.779,39.443,28.0,67.0
90275,0.035,0.612,0.739,8.496,58.725,41.656,30.0,66.0
90324,0.062,0.686,0.722,-24.802,46.145,42.092,30.0,91.0
90373,0.056,0.466,0.820,-6.382,35.015,43.420,36.0,66.0
90465,0.007,0.597,0.779,-9.252,18.099,49.290,30.0,68.0
90513,0.023,0.600,0.808,0.519,7.962,57.779,30.0,66.0
90561,0.142,0.738,0.849,-2.511,1.748,58.427,30.0,66.0
90616,-0.040,0.841,0.790,38.443,-15.267,23.534,30.0,0.0
90676,0.186,0.945,0.863,11.275,-8.672,23.374,30.0,0.0
90738,0.097,0.734,0.924,3.878,-8.695,12.588,38.0,0.0
90795,0.152,0.742,0.842,4.985,-12.702,18.679,49.0,0.0
90849,0.168,0.675,0.702,-14.840,-19.305,25.229,29.0,0.0
90904,0.126,0.552,0.613,-11.321,-28.954,29.084,29.0,0.0
90959,0.136,0.540,0.583,14.588,-32.916,33.985,30.0,0.0
91014,0.320,0.628,0.633,-8.466,-18.221,37.244,30.0,0.0
91069,0.426,0.448,0.697,-18.534,6.244,43.374,27.0,0.0
91124,0.422,0.627,0.762,11.405,30.550,48.084,34.0,0.0
91182,0.379,0.688,0.739,-51.779,31.366,52.519,24.0,0.0
91236,0.378,0.420,0.852,-21.420,28.756,46.588,23.0,0.0
91300,0.382,0.528,0.924,23.969,29.702,41.893,0.0,0.0
91365,0.149,0.713,0.848,4.122,23.969,23.244,0.0,0.0
91420,0.219,0.598,0.820,0.046,20.557,23.557,22.0,0.0
91474,0.149,0.441,0.785,-21.298,13.198,23.427,27.0,0.0
91534,0.241,0.282,0.742,2.679,-1.855,17.969,100.0,0.0
91588,0.210,0.271,0.689,8.321,-7.916,5.305,23.0,0.0
91642,0.227,0.283,0.771,11.611,-0.237,-9.160,19.0,0.0
91710,0.191,0.433,0.999,45.206,-10.206,-2.893,0.0,0.0
91774,0.263,0.473,0.968,-68.870,-17.847,-36.962,0.0,0.0
91830,0.403,0.400,1.147,-18.504,-27.359,-52.061,23.0,0.0
91894,0.443,0.560,1.030,-92.672,-28.695,-95.435,0.0,0.0
91954,0.618,0.618,0.877,-137.847,-7.618,-109.489,107.0,0.0
92009,0.379,0.586,0.788,-221.855,20.557,-133.901,30.0,0.0
92064,0.196,-0.261,1.033,-173.366,31.000,-114.855,29.0,0.0
92120,0.028,-0.074,0.923,-36.221,11.931,-81.023,30.0,0.0
92175,0.054,0.100,0.817,-3.351,-10.809,-51.947,31.0,0.0
92233,0.116,0.118,0.817,-20.198,-21.702,-42.473,30.0,0.0
92283,0.208,0.011,0.926,-26.954,-22.107,-34.855,29.0,122.0
92333,0.242,-0.044,1.022,-22.824,-10.038,-32.641,31.0,90.0
92388,0.148,-0.116,1.136,-8.504,6.244,-35.321,30.0,0.0
92443,0.160,-0.114,1.175,-10.817,17.000,-24.611,30.0,0.0
92498,-0.054,-0.103,1.200,-3.756,19.748,-37.863,30.0,0.0
92554,-0.055,-0.132,1.166,15.687,10.573,-39.565,29.0,0.0
92609,0.139,-0.063,1.013,-0.725,17.176,-36.031,29.0,0.0
92664,0.108,-0.098,0.923,-4.031,6.824,-34.473,31.0,0.0
92723,0.151,-0.079,0.813,-1.786,-6.756,-35.847,35.0,0.0
92778,0.191,-0.126,0.828,5.015,-9.489,-40.557,30.0,0.0
92833,0.193,-0.070,0.864,3.656,-9.534,-34.977,29.0,0.0
92888,0.220,-0.074,0.950,0.565,-12.115,-24.275,30.0,0.0
92943,0.256,-0.126,0.990,1.672,-14.038,-23.084,30.0,0.0
92999,0.241,-0.060,1.121,13.901,-7.443,-35.137,32.0,0.0
93054,0.048,0.007,1.141,39.649,16.885,-47.115,29.0,0.0
93110,0.047,0.102,1.056,38.313,22.099,-36.565,31.0,0.0
93165,-0.110,0.102,0.916,122.962,44.466,-40.229,31.0,0.0
93222,-0.060,0.378,0.938,-2.672,51.229,-72.992,29.0,184.0
93321,0.125,0.454,0.965,-21.282,22.076,-50.053,33.0,0.0
93376,0.174,0.208,1.133,-75.489,4.237,-36.435,35.0,187.0
93431,0.128,0.073,1.127,-79.122,-21.595,-15.489,27.0,0.0
93486,0.077,-0.043,1.110,-76.130,-30.023,-16.924,26.0,182.0
93541,0.066,0.026,1.056,-59.672,-31.122,-23.947,24.0,0.0
93595,0.008,-0.100,1.076,-69.206,-19.405,-33.412,24.0,0.0
93650,-0.004,-0.135,1.117,-21.855,-7.237,-44.000,31.0,0.0
93707,-0.006,-0.095,1.046,-7.618,3.802,-49.947,30.0,0.0
93765,-0.161,-0.050,1.045,-1.435,-3.672,-44.664,32.0,0.0
93830,-0.025,-0.108,0.998,12.191,-18.198,-44.344,0.0,0.0
93885,0.163,-0.013,0.879,-1.008,-7.977,-38.221,23.0,0.0
93940,0.115,-0.084,0.905,13.130,-14.832,-36.809,25.0,0.0
93996,0.114,-0.008,0.837,19.275,-19.183,-32.115,22.0,0.0
94050,0.137,-0.095,0.799,3.191,-16.756,-22.229,23.0,0.0
94105,0.164,-0.139,0.868,-5.817,1.977,-25.664,25.0,0.0
94161,0.256,-0.099,0.968,-14.947,10.557,-23.290,36.0,0.0
94220,0.297,-0.124,1.027,-12.725,-3.885,-23.214,38.0,0.0
94276,0.311,-0.046,1.143,1.511,-3.221,-18.870,32.0,0.0
94327,0.247,-0.017,1.141,17.160,16.069,-15.298,31.0,124.0
94379,0.156,0.066,1.104,-15.824,13.962,2.817,40.0,122.0
94435,0.038,-0.015,1.157,-1.649,24.573,-6.069,42.0,0.0
94490,0.033,-0.029,1.034,3.779,15.000,-6.069,38.0,0.0
94556,0.167,-0.059,0.881,6.084,11.084,-4.832,0.0,0.0
94621,0.128,-0.054,0.777,1.985,5.221,-4.130,0.0,0.0
94686,0.075,-0.119,0.711,21.542,4.573,-16.748,0.0,0.0
94746,0.066,-0.063,0.775,34.191,33.847,-39.237,0.0,108.0
94809,-0.176,0.051,0.843,39.779,88.733,-38.504,0.0,104.0
94860,-0.469,-0.010,0.949,81.328,124.038,-58.298,42.0,102.0
94919,-0.603,0.047,0.850,151.267,155.015,-82.061,0.0,102.0
94969,-0.695,0.297,0.592,126.176,181.916,-101.519,41.0,93.0
95023,-0.866,0.055,0.544,173.260,197.397,-129.878,82.0,112.0
95077,-1.055,-0.010,0.346,250.130,195.191,-172.305,86.0,121.0
95130,-1.124,0.629,0.128,179.702,143.740,-204.550,83.0,95.0
95195,-1.126,0.012,0.258,165.031,137.305,-183.344,0.0,0.0
95253,-1.232,0.541,0.117,131.695,78.977,-124.695,16.0,0.0
95308,-1.061,0.304,0.216,123.313,50.206,-78.611,21.0,0.0
95364,-1.183,0.484,0.132,87.641,31.328,-50.336,23.0,0.0
95419,-1.378,0.400,0.065,80.664,26.710,-12.802,27.0,0.0
95474,-1.342,0.479,-0.033,4.290,4.000,40.702,27.0,0.0
95529,-1.417,0.255,0.034,-66.725,-32.702,104.069,24.0,0.0
95585,-1.463,0.191,0.002,-76.962,-60.137,143.634,20.0,0.0
95646,-1.118,0.212,-0.041,-85.389,-68.511,164.603,0.0,122.0
95712,-0.836,0.149,0.000,-91.466,-81.878,163.076,0.0,0.0
95773,-0.709,0.172,0.053,-71.267,-79.450,152.779,0.0,67.0
95840,-0.681,0.253,0.060,-36.214,-62.763,129.779,0.0,80.0
95899,-0.793,0.450,0.039,-29.733,-37.916,57.954,0.0,96.0
95958,-0.826,0.281,0.062,-17.702,-4.183,-21.702,0.0,90.0
96016,-1.025,0.227,0.002,-3.214,31.687,-83.626,0.0,90.0
96074,-1.104,0.072,0.010,41.824,63.099,-127.069,0.0,89.0
96132,-1.286,0.144,0.058,71.053,68.023,-148.557,0.0,85.0
96233,-1.162,0.227,0.057,151.985,65.168,-175.481,0.0,81.0
96281,-0.966,0.366,0.006,96.313,62.893,-175.176,28.0,80.0
96339,-0.961,0.318,0.074,32.389,60.504,-160.985,30.0,0.0
96395,-0.970,0.200,0.148,20.336,55.282,-129.794,36.0,0.0
96450,-0.907,0.207,0.196,32.534,39.870,-84.855,40.0,0.0
96505,-1.073,0.282,0.167,47.710,26.397,-45.618,39.0,0.0
96570,-1.150,0.358,0.101,39.069,12.702,2.771,0.0,0.0
96626,-1.284,0.406,0.003,-40.863,-8.160,73.534,37.0,0.0
96681,-1.531,0.167,-0.042,-104.817,-50.168,150.542,48.0,0.0
96732,-1.857,0.015,-0.130,-116.305,-94.260,229.565,27.0,112.0
96789,-1.756,0.009,-0.118,-99.733,-114.244,250.130,20.0,0.0
96855,-1.137,0.108,-0.095,-88.489,-113.893,250.130,0.0,0.0
96911,-0.670,0.204,-0.045,-92.878,-93.115,204.496,0.0,57.0
96975,-0.574,0.240,0.029,-63.153,-66.244,144.748,0.0,0.0
97033,-0.599,0.320,0.046,-48.840,-33.573,64.733,0.0,69.0
97090,-0.740,0.285,0.118,-16.534,-6.130,-15.015,0.0,68.0
97146,-0.807,0.278,0.147,20.145,33.099,-65.504,0.0,44.0
97204,-0.946,0.281,0.129,39.916,64.626,-114.145,0.0,68.0
97268,-1.086,0.319,0.110,64.969,86.817,-154.328,0.0,0.0
97336,-1.323,0.301,0.103,74.183,78.641,-166.870,0.0,0.0
97399,-1.227,0.256,0.072,145.886,73.427,-166.985,0.0,178.0
97454,-1.017,0.200,0.083,150.664,44.260,-149.000,37.0,174.0
97509,-0.930,0.358,0.049,171.435,31.748,-120.214,25.0,0.0
97564,-1.002,0.659,-0.037,87.878,21.389,-94.115,27.0,0.0
97619,-0.897,0.496,0.125,0.519,21.977,-43.061,28.0,0.0
97684,-0.978,0.410,0.172,13.824,19.824,-4.656,0.0,0.0
97739,-1.156,0.437,0.067,32.573,21.397,26.656,31.0,0.0
97795,-1.314,0.471,-0.036,-11.939,18.160,61.313,31.0,0.0
97853,-1.535,0.162,-0.025,-84.664,-22.000,138.389,29.0,0.0
97907,-1.637,0.139,-0.010,-79.687,-55.672,182.473,26.0,0.0
97973,-1.264,0.123,0.040,-57.565,-78.634,193.298,0.0,0.0
98030,-0.962,0.200,0.073,-55.244,-83.412,176.389,0.0,62.0
98078,-0.695,0.089,0.134,-62.084,-90.198,146.733,50.0,57.0
98136,-0.483,0.140,0.227,-36.824,-90.786,102.695,0.0,64.0
98182,-0.614,0.254,0.206,13.145,-73.527,39.206,51.0,26.0
98237,-0.680,0.362,0.200,50.229,-56.458,-12.122,0.0,29.0
98292,-0.867,0.470,0.094,41.076,-35.366,-80.931,0.0,27.0
98351,-1.059,0.495,-0.007,22.840,-24.015,-118.756,0.0,28.0
98406,-1.103,0.287,0.098,91.092,-1.939,-135.733,0.0,30.0
98461,-1.188,0.553,-0.076,135.000,7.443,-137.244,0.0,23.0
98526,-1.176,0.406,-0.000,148.588,10.244,-171.519,0.0,0.0
98591,-0.950,0.393,-0.086,195.565,16.046,-176.649,0.0,0.0
98646,-0.833,0.386,-0.074,154.962,25.244,-165.328,17.0,0.0
98701,-0.848,0.426,-0.070,108.771,27.802,-141.878,21.0,0.0
98755,-0.875,0.346,0.027,65.702,30.809,-110.580,23.0,0.0
98813,-1.123,0.321,0.069,74.542,40.336,-84.710,25.0,0.0
98869,-1.358,0.386,0.025,68.924,44.557,-53.733,27.0,0.0
98924,-1.221,0.326,0.041,-7.679,29.985,2.305,26.0,0.0
98979,-1.183,0.135,0.161,-69.168,-6.893,110.962,24.0,0.0
99034,-1.552,0.104,0.149,-69.458,-37.939,168.023,20.0,0.0
99132,-1.036,0.127,0.197,-33.191,-95.565,204.679,17.0,0.0
99197,-0.808,0.288,0.078,-75.634,-85.794,177.168,0.0,0.0
99255,-0.782,0.180,0.186,-91.649,-81.008,129.878,0.0,59.0
99311,-0.785,0.230,0.201,-48.313,-63.702,92.176,0.0,60.0
99373,-0.848,0.418,0.095,-19.450,-32.809,51.611,0.0,73.0
99431,-0.911,0.379,0.143,-30.725,-16.053,-11.542,0.0,76.0
99487,-1.044,0.220,0.146,10.908,23.260,-69.237,0.0,58.0
99550,-0.898,0.214,0.054,44.481,57.885,-100.634,0.0,148.0
99615,-1.284,0.219,0.011,29.168,66.496,-137.359,0.0,0.0
99681,-1.047,0.075,0.123,100.565,68.763,-141.366,0.0,0.0
99735,-0.864,0.266,0.009,111.992,68.275,-141.809,18.0,0.0
99791,-0.819,0.281,0.089,62.267,58.817,-137.511,36.0,0.0
99847,-0.938,0.205,0.167,50.267,54.366,-126.725,31.0,0.0
99905,-1.052,0.221,0.173,66.221,47.779,-99.718,32.0,0.0
99961,-1.066,0.318,0.185,43.725,32.725,-68.015,36.0,0.0
100018,-1.197,0.279,0.156,27.328,12.275,-28.962,37.0,0.0
100073,-1.359,0.315,0.086,22.656,-3.641,27.198,38.0,0.0
100129,-1.368,0.202,-0.007,-30.008,-45.802,108.015,37.0,0.0
100185,-1.596,0.189,-0.103,-75.366,-74.084,179.221,33.0,0.0
100241,-1.458,0.112,-0.104,-91.435,-93.336,210.672,30.0,0.0
100306,-0.950,0.108,-0.034,-69.427,-93.496,214.786,0.0,0.0
100372,-0.740,0.230,0.002,-74.328,-84.557,180.588,0.0,0.0
100436,-0.711,0.268,0.030,-85.939,-60.885,114.992,0.0,131.0
100494,-0.796,0.213,0.074,-72.886,-41.840,59.290,0.0,57.0
100551,-0.890,0.226,0.103,-12.206,-15.702,-14.771,0.0,57.0
100599,-0.941,0.266,0.071,37.985,21.550,-66.809,51.0,57.0
100660,-0.908,0.183,0.065,49.046,48.260,-94.443,0.0,105.0
100724,-1.072,0.356,0.066,49.580,79.977,-124.183,0.0,194.0
100790,-1.299,0.186,0.133,46.344,97.084,-163.763,0.0,193.0
100855,-1.180,-0.049,0.364,155.176,64.145,-173.901,0.0,0.0
100924,-0.995,0.273,0.088,223.664,30.962,-150.519,0.0,0.0
100981,-0.927,0.641,0.039,79.351,16.748,-140.237,58.0,0.0
101046,-0.951,0.494,0.104,-52.847,26.725,-114.260,0.0,0.0
101111,-1.046,0.371,0.110,-91.252,32.076,-66.443,0.0,0.0
101168,-1.314,0.278,0.105,-68.847,16.992,-2.534,41.0,0.0
101233,-1.422,0.260,0.010,-65.496,-19.374,67.901,0.0,0.0
101289,-1.593,0.126,-0.123,-111.321,-70.038,163.565,30.0,0.0
101345,-1.483,0.110,-0.141,-107.206,-89.450,208.260,21.0,0.0
101400,-1.115,0.266,-0.215,-111.817,-80.313,209.153,21.0,0.0
101469,-0.819,0.315,-0.218,-168.321,-79.580,181.344,0.0,0.0
101527,-0.707,0.179,-0.024,-140.878,-69.534,135.206,0.0,76.0
101594,-0.824,0.272,-0.035,-85.466,-45.229,86.992,0.0,0.0
101652,-0.959,0.279,0.023,-42.939,-19.260,20.542,0.0,81.0
101710,-1.045,0.211,0.072,-1.382,7.466,-26.336,0.0,84.0
101770,-1.020,0.135,0.108,39.252,41.496,-51.412,0.0,86.0
101829,-0.988,0.247,0.114,53.191,72.542,-75.832,0.0,88.0
101888,-1.167,0.164,0.146,48.748,77.473,-111.573,0.0,87.0
101947,-1.066,0.107,0.132,92.573,73.809,-128.542,0.0,88.0
102017,-0.858,0.250,0.084,109.588,79.458,-129.336,0.0,0.0
102082,-0.894,0.343,0.068,33.504,74.679,-133.275,0.0,0.0
102180,-1.051,0.142,0.183,20.611,63.336,-90.382,24.0,0.0
102246,-1.127,0.243,0.198,26.351,43.931,-57.305,0.0,0.0
102302,-1.159,0.272,0.177,13.573,19.366,-24.397,33.0,0.0
102358,-1.383,0.309,0.114,-2.779,-2.389,5.160,16.0,0.0
102412,-1.348,0.205,0.015,-38.229,-52.725,70.107,16.0,0.0
102468,-1.671,0.104,-0.094,-66.832,-91.229,143.641,26.0,0.0
102537,-1.432,0.051,-0.115,-60.473,-121.618,207.015,0.0,0.0
102603,-0.883,0.194,-0.082,-49.298,-111.489,214.740,0.0,0.0
102663,-0.694,0.316,-0.082,-75.046,-89.863,164.107,0.0,94.0
102722,-0.734,0.266,-0.038,-79.878,-66.145,111.664,0.0,100.0
102789,-0.835,0.261,0.008,-53.649,-37.046,63.351,0.0,0.0
102854,-0.882,0.264,0.074,-14.313,2.000,0.687,0.0,0.0
102920,-0.957,0.211,0.124,3.183,36.176,-47.267,0.0,0.0
102985,-0.977,0.217,0.139,27.817,69.458,-87.366,0.0,0.0
103051,-1.091,0.170,0.152,44.603,84.649,-122.985,0.0,0.0
103119,-1.204,0.134,0.100,108.473,81.237,-148.344,0.0,0.0
103186,-0.929,0.310,0.041,105.053,82.794,-152.985,0.0,0.0
103251,-0.934,0.327,0.069,28.122,80.573,-151.191,0.0,0.0
103307,-1.064,0.178,0.149,4.977,68.832,-120.542,28.0,0.0
103373,-1.052,0.189,0.212,23.183,53.443,-70.985,0.0,0.0
103439,-1.133,0.269,0.180,7.885,24.076,-27.855,0.0,0.0
103511,-1.392,0.374,0.096,-0.153,-10.084,24.290,0.0,0.0
103575,-1.260,0.273,0.042,-60.275,-56.023,101.901,0.0,0.0
103629,-1.597,0.224,-0.015,-67.321,-99.145,138.275,27.0,0.0
103688,-1.572,0.185,-0.113,-43.099,-114.756,167.870,36.0,0.0
103753,-1.151,0.196,-0.126,-39.962,-113.733,212.160,0.0,0.0
103818,-0.853,0.335,-0.149,-68.420,-97.573,207.687,0.0,0.0
103882,-0.799,0.267,-0.075,-96.618,-82.649,165.771,0.0,0.0
103948,-0.755,0.235,0.019,-68.847,-56.420,110.977,0.0,0.0
104011,-0.728,0.257,0.105,-22.351,-16.084,24.450,188.0,0.0
104076,-0.800,0.314,0.127,-1.000,38.122,-38.611,185.0,0.0
104140,-0.789,0.240,0.175,14.443,88.084,-100.809,0.0,0.0
104207,-1.059,0.205,0.184,18.641,110.153,-154.351,180.0,0.0
104270,-1.273,0.081,0.185,87.824,109.672,-185.588,176.0,0.0
104334,-1.167,0.250,0.063,111.183,112.092,-183.573,178.0,0.0
104398,-1.090,0.326,0.052,32.679,99.267,-173.886,195.0,0.0
104454,-1.138,0.163,0.158,5.435,86.099,-132.962,26.0,0.0
104518,-1.078,0.210,0.171,9.397,66.588,-84.000,0.0,0.0
104583,-1.125,0.270,0.208,-5.679,39.679,-36.611,0.0,0.0
104637,-1.102,0.223,0.218,-16.702,7.985,-1.420,17.0,0.0
104702,-1.369,0.309,0.138,-28.145,-15.695,23.290,0.0,0.0
104770,-1.299,0.122,0.027,-58.802,-78.328,103.038,0.0,0.0
104835,-1.552,0.234,-0.137,-83.580,-111.412,150.870,194.0,0.0
104890,-1.398,0.263,-0.198,-105.382,-117.168,146.389,35.0,0.0
104951,-1.102,0.179,-0.161,-100.992,-118.183,159.176,132.0,0.0
105012,-0.902,0.332,-0.142,-92.481,-110.328,155.786,122.0,0.0
105072,-0.699,0.406,-0.027,-90.244,-85.710,136.298,119.0,0.0
105133,-0.650,0.572,0.084,-84.107,-55.229,110.817,113.0,0.0
105195,-0.762,0.599,0.219,-86.473,-39.763,89.328,150.0,0.0
105256,-0.688,0.553,0.379,-51.580,-12.107,91.435,98.0,0.0
105349,-0.569,0.459,0.591,-112.886,31.534,70.924,45.0,64.0
105410,-0.660,0.538,0.677,-84.725,44.565,74.977,146.0,0.0
105458,-0.672,0.528,0.718,-76.504,32.008,76.092,39.0,60.0
105505,-0.422,0.591,0.745,-54.779,49.008,93.824,36.0,58.0
105552,-0.357,0.675,0.636,-104.557,69.557,111.061,35.0,57.0
105600,-0.418,0.424,0.648,-150.565,55.389,120.908,31.0,59.0
105647,-0.418,0.260,0.705,-143.886,33.519,130.580,29.0,58.0
105694,-0.375,0.227,0.758,-115.573,9.580,125.145,30.0,59.0
105744,-0.371,0.223,0.842,-114.168,-12.405,117.267,29.0,58.0
105791,-0.288,0.172,0.975,-92.015,-29.855,113.626,26.0,54.0
105837,-0.203,0.222,1.057,-68.550,-24.252,117.397,25.0,50.0
105883,-0.228,0.273,1.034,-55.878,-22.901,129.939,30.0,47.0
105929,-0.212,0.371,1.094,-54.519,-16.695,144.405,23.0,41.0
105975,-0.313,0.359,1.117,-36.947,-4.901,144.886,26.0,37.0
106021,-0.263,0.484,1.007,-27.191,-1.634,169.458,32.0,35.0
106066,-0.035,0.456,0.946,-46.618,1.542,172.107,36.0,32.0
106125,-0.147,0.438,0.935,-43.802,3.435,156.779,0.0,31.0
106170,-0.058,0.241,1.011,-37.702,-7.191,175.809,20.0,31.0
106215,-0.041,0.216,0.922,-35.618,-12.664,193.786,19.0,31.0
106262,-0.044,0.198,0.831,-36.061,-18.588,197.687,18.0,57.0
106308,-0.054,0.248,0.852,-41.305,-33.557,183.336,17.0,50.0
106354,0.114,0.056,0.925,-31.435,-53.023,155.511,18.0,49.0
106399,0.167,0.172,0.926,-2.420,-56.145,124.366,16.0,49.0
106445,0.188,0.189,0.973,4.939,-57.649,95.351,16.0,48.0
106491,0.180,0.243,1.000,-2.420,-53.244,72.176,13.0,50.0
106540,0.128,0.098,1.034,20.328,-40.527,40.053,11.0,50.0
106584,0.016,0.053,1.043,-0.053,-35.412,70.336,10.0,23.0
106628,0.140,0.050,1.016,20.817,-36.168,76.626,10.0,23.0
106672,0.209,0.011,0.994,43.214,-40.779,56.588,10.0,21.0
106716,0.240,0.122,0.960,51.740,-40.893,35.336,10.0,21.0
106760,0.235,0.142,0.917,56.328,-35.244,30.443,9.0,20.0
106803,0.205,0.173,0.854,42.924,-37.939,33.969,10.0,20.0
106847,0.329,0.125,0.839,31.710,-36.740,31.748,10.0,20.0
106891,0.440,0.153,0.895,26.061,-31.565,29.267,8.0,21.0
106938,0.567,0.169,1.024,31.878,-20.954,24.763,8.0,22.0
106982,0.569,0.279,1.004,34.573,-1.328,17.221,9.0,21.0
107026,0.385,0.258,0.884,13.893,-4.214,21.412,9.0,20.0
107069,0.355,0.190,0.854,15.756,-13.076,24.198,7.0,22.0
107124,0.786,-0.058,0.904,57.244,7.145,6.702,0.0,22.0
107168,0.671,0.377,0.678,49.794,54.321,-36.145,9.0,21.0
107224,0.231,0.569,0.772,-63.405,22.458,-39.794,0.0,22.0
107268,0.161,0.132,1.110,-34.893,-3.015,-53.855,10.0,22.0
107312,0.258,0.178,1.014,37.160,-5.229,-37.595,9.0,25.0
107370,0.306,0.289,0.867,25.053,0.267,-32.397,0.0,23.0
107414,0.439,0.294,0.890,-21.061,9.374,-33.611,10.0,30.0
107464,0.332,0.262,0.933,-19.046,7.870,-37.038,11.0,119.0
107525,0.313,0.354,0.963,-16.885,0.626,-34.298,0.0,119.0
107584,0.253,0.283,0.971,-22.351,-7.672,-32.000,0.0,98.0
107643,0.254,0.251,0.950,-9.198,-5.260,-39.198,0.0,97.0
107709,0.198,0.317,0.950,-24.229,-9.099,-51.969,0.0,0.0
107817,0.192,0.329,0.937,-17.198,-8.061,-70.840,0.0,0.0
107883,0.131,0.303,0.918,-26.481,-1.183,-92.496,0.0,0.0
107940,0.344,0.213,0.884,6.779,-2.427,-114.443,9.0,0.0
107995,0.252,0.440,0.862,10.855,4.756,-123.313,11.0,0.0
108049,0.302,0.441,0.923,-14.985,24.611,-123.336,11.0,0.0
108104,0.308,0.404,0.965,-16.687,33.374,-95.153,16.0,0.0
108160,0.417,0.321,0.943,-18.511,24.611,-58.748,16.0,0.0
108214,0.266,0.287,0.888,-4.893,-7.924,-39.252,16.0,0.0
108269,0.234,0.191,0.853,-5.443,-24.405,-44.855,17.0,0.0
108324,0.269,0.073,0.931,7.366,-10.748,-69.130,17.0,0.0
108379,0.154,0.059,0.922,6.511,25.687,-97.160,18.0,0.0
108447,-0.003,-0.051,0.965,44.290,66.649,-133.649,0.0,0.0
108504,-0.581,0.168,0.636,185.740,92.015,-195.374,40.0,0.0
108560,-0.817,0.310,0.261,213.359,89.214,-231.618,32.0,0.0
108622,-1.371,0.624,0.150,80.580,95.481,-236.183,143.0,0.0
108679,-1.359,0.094,0.245,172.137,113.580,-162.985,38.0,0.0
108734,-1.183,0.401,-0.039,216.771,106.786,-144.168,0.0,30.0
108790,-0.973,0.539,0.021,113.115,77.725,-154.344,0.0,25.0
108845,-0.968,0.367,0.076,73.756,81.969,-139.412,0.0,17.0
108903,-1.040,0.368,0.063,51.252,79.252,-114.519,0.0,16.0
108958,-1.030,0.276,0.154,30.901,68.008,-80.679,0.0,16.0
109014,-1.087,0.275,0.235,41.977,54.076,-51.115,0.0,17.0
109069,-1.138,0.376,0.227,25.000,37.420,-26.649,0.0,20.0
109124,-1.241,0.426,0.194,-21.656,18.656,0.229,0.0,26.0
109180,-1.300,0.224,0.147,-58.893,-21.939,43.985,0.0,36.0
109246,-1.332,0.164,0.056,-62.221,-71.481,108.710,0.0,0.0
109312,-1.624,0.120,-0.094,-52.099,-120.931,152.198,0.0,0.0
109377,-1.140,0.171,-0.070,-30.496,-118.656,172.435,0.0,0.0
109446,-0.787,0.311,-0.089,-51.313,-92.145,150.626,0.0,0.0
109512,-0.665,0.255,-0.021,-71.023,-67.565,113.076,0.0,0.0
109578,-0.679,0.257,0.046,-63.473,-38.847,69.771,0.0,0.0
109643,-0.776,0.211,0.154,-17.802,-20.649,13.634,0.0,0.0
109709,-0.867,0.278,0.148,31.107,15.076,-39.183,0.0,0.0
109774,-1.033,0.271,0.148,23.183,49.679,-93.130,0.0,0.0
109840,-0.935,0.251,0.121,39.115,81.481,-137.664,0.0,0.0
109905,-1.227,0.188,0.098,36.924,82.870,-161.229,0.0,0.0
109962,-1.287,0.106,0.107,82.954,77.031,-144.565,35.0,0.0
110021,-1.041,0.277,0.079,87.855,64.824,-115.168,28.0,0.0
110076,-0.992,0.308,0.097,44.427,46.519,-96.489,30.0,0.0
110142,-0.948,0.253,0.156,34.221,40.985,-76.076,0.0,0.0
110209,-0.945,0.311,0.161,17.382,33.328,-54.725,0.0,0.0
110274,-0.969,0.328,0.176,-9.244,26.038,-39.061,0.0,0.0
110340,-1.109,0.315,0.139,-34.206,9.916,-10.985,0.0,0.0
110395,-1.428,0.256,0.011,-57.321,-23.137,42.214,17.0,0.0
110450,-1.401,0.230,-0.136,-89.893,-67.748,108.000,17.0,0.0
110505,-1.517,0.251,-0.281,-120.840,-82.473,161.252,27.0,0.0
110565,-1.391,0.235,-0.347,-165.893,-92.763,179.244,30.0,0.0
110631,-0.928,0.114,-0.161,-143.473,-97.328,174.023,0.0,0.0
110702,-0.734,0.232,-0.146,-70.008,-77.168,146.725,0.0,0.0
110768,-0.808,0.359,-0.105,-81.481,-48.847,112.977,0.0,0.0
110875,-0.929,0.234,0.166,-30.046,-8.160,-5.725,0.0,0.0
110940,-0.895,0.282,0.192,43.695,35.947,-57.206,0.0,0.0
111004,-0.952,0.331,0.165,0.672,46.198,-87.618,0.0,0.0
111070,-0.986,0.080,0.247,7.802,51.756,-83.664,0.0,0.0
111137,-1.074,0.114,0.198,53.924,53.527,-76.450,0.0,0.0
111202,-0.929,0.197,0.166,66.328,52.153,-75.611,0.0,0.0
111266,-0.834,0.172,0.172,73.137,49.763,-78.977,0.0,0.0
111322,-0.887,0.192,0.135,83.679,47.718,-74.595,36.0,0.0
111377,-0.844,0.199,0.135,87.886,46.351,-65.817,38.0,0.0
111433,-0.969,0.244,0.089,84.985,45.908,-61.748,40.0,0.0
111498,-1.032,0.259,0.057,86.046,48.443,-54.405,0.0,0.0
111562,-1.171,0.222,0.017,92.267,44.107,-20.641,0.0,0.0
111627,-1.053,0.143,0.033,45.519,21.824,17.412,0.0,0.0
111694,-1.338,0.019,0.155,45.038,-3.916,76.794,0.0,0.0
111760,-1.480,-0.068,0.181,84.924,-43.336,105.863,0.0,0.0
111824,-1.107,0.202,0.176,49.046,-67.443,153.740,0.0,0.0
111889,-0.952,0.210,0.213,-2.542,-96.504,146.939,0.0,0.0
111954,-0.846,0.215,0.274,3.634,-103.664,122.435,0.0,0.0
112011,-0.740,0.296,0.264,38.130,-108.038,79.527,51.0,0.0
112075,-0.678,0.378,0.223,31.847,-84.588,33.504,0.0,0.0
112140,-0.700,0.389,0.216,4.382,-61.550,-12.313,0.0,0.0
112205,-0.870,0.189,0.279,17.122,-73.634,-60.267,0.0,0.0
112273,-0.844,0.314,0.244,143.275,-47.252,-84.435,0.0,0.0
112337,-0.978,0.663,0.131,88.595,-27.519,-108.847,0.0,0.0
112403,-0.981,0.364,0.217,83.237,-9.267,-146.618,0.0,0.0
112467,-0.743,0.258,0.175,128.382,4.672,-118.046,0.0,0.0
112532,-0.734,0.406,0.129,108.969,5.573,-96.534,0.0,0.0
112598,-0.840,0.412,0.199,83.321,19.130,-111.641,0.0,0.0
112662,-1.063,0.365,0.213,82.031,39.870,-112.908,0.0,0.0
112728,-1.352,0.263,0.189,54.893,33.031,-88.427,0.0,0.0
112792,-1.480,0.176,0.145,77.130,22.641,-55.076,0.0,0.0
112856,-1.004,0.141,0.110,42.313,-5.969,38.977,117.0,0.0
112919,-0.984,-0.062,0.117,-10.305,-30.756,56.466,174.0,0.0
112984,-1.120,-0.089,0.100,43.656,-38.557,76.557,0.0,0.0
113040,-0.923,0.108,0.103,30.985,-42.153,86.336,51.0,0.0
113105,-0.733,0.129,0.185,-0.092,-31.573,52.725,0.0,0.0
113162,-0.768,0.099,0.215,-2.908,-26.733,19.618,51.0,0.0
113219,-0.809,0.154,0.206,14.588,-32.023,2.542,71.0,0.0
113276,-0.894,0.120,0.202,56.130,-41.244,-21.122,58.0,0.0
113333,-0.984,0.189,0.157,96.573,-45.267,-22.351,58.0,0.0
113393,-1.228,0.301,0.129,91.878,-46.847,-29.595,61.0,0.0
113449,-1.056,0.266,0.205,90.496,-23.733,-30.206,55.0,0.0
113507,-1.007,0.287,0.299,41.046,-2.695,-37.580,56.0,0.0
113564,-1.073,0.179,0.318,-1.427,8.267,-37.710,58.0,0.0
113622,-0.937,0.105,0.394,-11.550,0.870,-41.679,66.0,0.0
113678,-0.876,-0.002,0.433,6.244,-10.450,-33.344,59.0,0.0
113735,-0.951,0.060,0.434,6.328,-27.252,-32.107,66.0,0.0
113793,-0.835,0.031,0.448,11.344,-30.954,-35.427,62.0,0.0
113861,-0.860,0.084,0.361,-7.405,-29.565,-20.679,0.0,0.0
113918,-0.912,0.035,0.336,-9.061,-25.985,-17.573,63.0,0.0
114019,-0.942,0.022,0.352,-19.244,-20.466,3.916,66.0,0.0
114076,-0.880,-0.019,0.415,-8.626,-25.198,14.550,67.0,0.0
114135,-0.810,-0.005,0.469,-12.214,-20.565,9.786,66.0,0.0
114192,-0.811,-0.035,0.479,-7.420,-10.908,0.061,67.0,0.0
114249,-0.716,-0.051,0.507,-12.824,-5.931,-5.908,70.0,0.0
114308,-0.754,-0.032,0.504,4.634,2.382,-15.756,71.0,0.0
114366,-0.709,0.028,0.475,-3.107,13.832,-16.527,80.0,0.0
114427,-0.865,-0.008,0.458,-22.046,18.878,-18.267,81.0,0.0
114486,-0.944,-0.038,0.484,-22.802,10.939,-6.893,82.0,0.0
114544,-0.949,-0.094,0.489,-24.702,6.252,1.282,83.0,0.0
114603,-0.918,-0.083,0.476,-46.595,5.870,3.023,91.0,0.0
114662,-0.839,-0.151,0.480,-45.779,-1.099,-1.992,85.0,0.0
114720,-0.895,-0.169,0.468,-17.214,-1.252,-8.145,90.0,0.0
114780,-0.901,-0.121,0.374,-21.695,-0.908,-0.756,86.0,0.0
114839,-0.882,-0.203,0.391,-14.947,-3.969,7.237,94.0,0.0
114897,-0.724,-0.211,0.381,24.130,9.015,8.069,94.0,0.0
114960,-0.782,-0.136,0.321,24.282,27.038,-1.588,96.0,0.0
115017,-0.850,-0.172,0.305,35.076,43.702,-3.374,58.0,0.0
115075,-0.822,-0.058,0.316,18.191,55.527,-7.748,58.0,0.0
115132,-0.787,-0.139,0.421,-14.435,59.145,-17.733,58.0,0.0
115188,-0.877,-0.108,0.507,-6.481,60.847,-16.939,57.0,0.0
115246,-0.852,-0.040,0.482,-21.122,60.481,-16.252,56.0,0.0
115303,-0.952,0.004,0.421,-22.557,53.382,-7.122,58.0,0.0
115360,-0.955,0.044,0.312,-36.344,48.634,7.099,57.0,0.0
115418,-1.269,0.066,0.091,-55.573,44.420,-19.954,54.0,0.0
115477,-1.434,0.080,-0.120,-99.870,24.214,-4.374,53.0,0.0
115534,-1.329,-0.155,-0.218,-126.206,-21.573,3.206,52.0,0.0
115591,-1.031,-0.278,-0.205,-31.695,-52.298,15.679,51.0,0.0
115648,-0.948,-0.073,-0.386,25.786,-50.183,15.802,51.0,0.0
115705,-0.937,0.030,-0.377,-14.084,-30.511,-2.855,52.0,0.0
115762,-0.824,-0.082,-0.296,-62.450,-10.885,-12.046,52.0,0.0
115819,-0.943,-0.050,-0.107,-78.832,-10.550,-16.260,51.0,0.0
115876,-1.071,-0.296,0.032,-25.015,-9.107,-18.550,50.0,0.0
115936,-1.048,-0.168,0.064,37.992,2.687,31.916,51.0,0.0
115993,-0.978,-0.046,0.057,-4.023,-0.130,21.595,51.0,0.0
116051,-0.881,-0.256,0.156,-11.191,-6.183,13.740,74.0,0.0
116112,-0.845,-0.139,0.133,21.618,4.405,22.908,121.0,0.0
116173,-0.960,-0.326,0.060,10.008,-15.244,12.099,121.0,0.0
116234,-0.945,-0.427,-0.013,120.038,-17.137,20.405,123.0,0.0
116297,-0.942,-0.018,-0.125,107.069,4.786,-1.351,164.0,0.0
116362,-0.766,-0.153,0.151,59.649,18.107,-15.634,169.0,0.0
116427,-0.753,0.078,0.297,60.336,38.344,-32.908,0.0,0.0
116496,-0.852,0.207,0.407,49.740,44.908,-41.153,0.0,0.0
116560,-1.102,0.240,0.358,38.786,42.855,-34.733,0.0,0.0
116616,-1.193,0.228,0.210,16.137,17.962,3.504,17.0,0.0
116681,-1.427,0.337,0.131,-6.557,-11.221,56.603,0.0,0.0
116747,-1.513,0.151,0.140,-48.817,-66.733,116.763,0.0,0.0
116811,-1.529,0.122,0.029,-39.160,-102.405,154.962,181.0,0.0
116876,-0.990,0.083,0.062,-7.985,-123.359,170.595,184.0,0.0
116941,-0.611,0.239,0.036,-9.366,-101.481,150.267,197.0,0.0
117050,-0.534,0.262,0.136,-32.412,-45.519,55.763,195.0,0.0
117128,-0.820,0.298,0.215,10.420,5.038,-58.214,192.0,0.0
117193,-1.174,0.169,0.133,48.718,53.008,-115.473,193.0,0.0
117259,-1.172,0.215,0.043,64.473,78.901,-116.145,196.0,0.0
117324,-1.384,0.087,0.073,62.733,61.511,-124.260,199.0,0.0
117390,-1.131,0.119,0.087,149.420,60.779,-117.053,0.0,0.0
117455,-0.895,0.343,-0.018,132.969,60.550,-115.702,0.0,0.0
117522,-0.821,0.295,0.078,55.435,49.771,-106.344,0.0,0.0
117587,-0.929,0.225,0.205,39.099,54.328,-87.038,0.0,0.0
117656,-0.977,0.325,0.193,32.336,48.382,-66.275,0.0,0.0
117722,-1.116,0.290,0.200,25.435,38.855,-46.695,0.0,0.0
117777,-1.414,0.240,0.156,29.405,8.260,4.046,17.0,0.0
117832,-1.303,0.257,0.075,-1.481,-29.153,91.191,17.0,0.0
117898,-1.435,0.291,-0.043,-66.702,-63.450,148.710,0.0,0.0
117963,-1.610,0.098,-0.164,-110.397,-104.267,194.611,0.0,0.0
118029,-1.028,0.140,-0.083,-69.237,-104.756,229.076,0.0,0.0
118094,-0.666,0.328,-0.090,-93.603,-90.137,193.725,0.0,0.0
118161,-0.597,0.242,0.015,-102.145,-72.466,128.649,0.0,0.0
118230,-0.751,0.295,0.092,-41.344,-28.511,54.382,0.0,0.0
118295,-0.944,0.322,0.047,-19.122,11.893,-48.718,0.0,0.0
118362,-1.088,0.240,-0.016,16.687,56.481,-95.954,0.0,0.0
118427,-1.054,0.230,0.044,26.458,98.855,-120.290,0.0,0.0
118493,-1.355,0.171,0.038,27.962,105.878,-150.389,0.0,0.0
118558,-1.109,0.060,0.155,78.069,108.557,-148.427,0.0,0.0
118630,-0.946,0.271,0.083,55.244,93.099,-128.977,0.0,0.0
118694,-0.909,0.188,0.198,22.931,67.634,-106.679,0.0,0.0
118749,-0.973,0.170,0.249,46.962,51.519,-78.176,17.0,0.0
118816,-1.014,0.257,0.259,45.252,28.908,-55.084,0.0,0.0
118881,-1.150,0.281,0.186,35.389,0.504,-21.130,0.0,0.0
118945,-1.429,0.295,0.067,15.595,-28.351,46.099,0.0,0.0
119000,-1.485,0.197,-0.059,-33.771,-69.008,138.023,17.0,0.0
119065,-1.687,0.313,-0.243,-80.450,-85.084,188.565,0.0,0.0
119130,-1.289,0.123,-0.185,-95.053,-96.031,215.847,0.0,0.0
119194,-0.805,0.260,-0.122,-103.191,-83.916,215.794,0.0,0.0
119260,-0.579,0.251,-0.034,-110.855,-77.298,154.901,0.0,0.0
119327,-0.676,0.452,0.120,-30.840,-48.695,115.244,0.0,0.0
119392,-0.824,0.845,0.366,-121.595,-64.206,66.389,0.0,0.0
119456,-0.699,0.750,0.672,-123.099,-54.977,43.931,0.0,0.0
119522,-0.566,0.666,0.841,-200.160,-50.641,-2.794,0.0,0.0
119585,-0.590,0.217,0.977,-162.870,-48.573,-6.122,186.0,0.0
119650,-0.649,0.123,0.827,-197.130,-76.008,-33.618,186.0,0.0
119714,-0.339,-0.330,0.929,-121.107,-90.565,-21.733,0.0,0.0
119776,-0.171,-0.206,0.848,-68.115,-110.168,-21.542,124.0,0.0
119836,-0.054,-0.130,0.758,-32.237,-128.672,-11.817,126.0,0.0
119904,0.193,-0.139,0.666,-24.244,-124.519,-5.702,0.0,0.0
119969,0.370,-0.266,0.738,-33.794,-100.443,-1.710,0.0,0.0
120034,0.476,-0.286,0.705,-11.489,-74.511,-8.725,0.0,0.0
120099,0.609,-0.316,0.839,-0.939,-54.565,-0.115,0.0,0.0
120164,0.501,-0.240,0.935,0.893,-16.405,-7.267,0.0,0.0
120228,0.412,-0.212,0.976,24.771,5.511,-5.397,0.0,0.0
120337,0.472,-0.188,0.804,3.947,25.519,10.031,0.0,0.0
120401,0.315,-0.107,0.730,1.389,19.023,8.763,0.0,0.0
120466,0.351,-0.184,0.741,-8.466,3.702,10.420,0.0,0.0
120534,0.446,-0.252,0.841,-15.885,1.511,4.695,0.0,0.0
120599,0.461,-0.309,0.947,-6.809,2.046,-4.947,0.0,0.0
120664,0.528,-0.388,1.001,-13.931,3.786,1.557,0.0,0.0
120728,0.369,-0.437,0.980,0.015,13.679,-6.214,0.0,0.0
120794,0.157,-0.385,0.942,8.435,21.198,-8.153,0.0,0.0
120858,0.160,-0.393,0.804,27.359,47.412,-9.458,0.0,0.0
120924,-0.090,-0.013,0.405,72.603,89.985,-5.672,0.0,0.0
120988,-0.104,-0.228,0.365,117.641,129.275,-5.779,0.0,0.0
121054,-0.175,-0.084,0.536,120.786,176.244,-41.473,0.0,0.0
121112,-0.267,0.344,0.707,172.634,202.886,-84.405,46.0,0.0
121168,-0.533,0.430,1.096,134.115,192.611,-93.634,41.0,0.0
121225,-0.608,0.358,1.329,96.763,180.924,-79.748,41.0,0.0
121289,-1.105,0.789,1.269,77.992,129.214,-86.122,0.0,0.0
121355,-1.141,1.082,0.770,117.038,88.847,-6.008,0.0,0.0
121419,-1.064,0.715,0.828,-54.000,43.435,13.374,0.0,0.0
121485,-1.103,0.863,0.551,-48.359,0.824,65.840,0.0,0.0
121549,-0.689,0.581,0.425,-75.748,-48.840,88.015,0.0,0.0
121615,-0.452,0.243,0.435,-74.679,-71.786,93.817,0.0,0.0
121682,-0.295,0.242,0.372,15.985,-51.359,91.115,0.0,0.0
121748,-0.448,0.368,0.235,52.565,-15.130,46.008,0.0,0.0
121812,-0.834,0.577,0.139,41.534,39.687,-56.473,0.0,0.0
121878,-1.112,0.229,0.077,-11.168,67.573,-127.450,0.0,0.0
121944,-1.197,0.045,0.092,39.763,80.870,-144.527,0.0,0.0
122008,-1.329,0.207,0.005,77.290,78.672,-138.489,0.0,0.0
122074,-1.363,0.138,0.055,99.664,67.519,-138.344,0.0,0.0
122139,-1.054,0.303,0.064,104.672,77.603,-130.763,0.0,0.0
122204,-0.899,0.350,0.062,12.275,74.733,-125.038,0.0,0.0
122272,-0.872,0.160,0.200,3.076,69.282,-103.786,0.0,0.0
122337,-0.917,0.189,0.213,43.473,54.481,-76.137,0.0,0.0
122402,-1.029,0.260,0.205,44.779,33.168,-48.427,0.0,0.0
122468,-1.198,0.273,0.167,27.885,8.443,12.305,0.0,0.0
122532,-1.388,0.204,0.058,-11.916,-26.664,90.679,0.0,0.0
122598,-1.536,0.144,-0.068,-63.130,-67.916,177.382,0.0,0.0
122663,-1.820,0.155,-0.190,-99.626,-96.458,224.496,0.0,0.0
122728,-1.285,0.072,-0.108,-102.298,-110.252,231.366,0.0,0.0
122797,-0.660,0.195,-0.019,-79.229,-89.000,188.336,0.0,0.0
122862,-0.514,0.282,0.008,-48.267,-57.198,121.252,0.0,0.0
122928,-0.645,0.402,-0.039,-54.855,-21.824,57.847,0.0,0.0
122993,-0.783,0.329,0.052,-62.794,7.977,-5.260,0.0,0.0
123058,-0.855,0.228,0.106,-17.405,42.336,-66.305,0.0,0.0
123123,-0.992,0.217,0.124,15.176,74.290,-110.000,0.0,0.0
123189,-1.094,0.171,0.116,49.679,101.092,-138.389,0.0,0.0
123253,-1.346,0.162,0.110,58.122,98.198,-159.847,0.0,0.0
123319,-1.381,0.121,0.106,95.664,85.466,-156.168,0.0,0.0
123387,-0.956,0.246,0.098,88.466,79.794,-123.176,0.0,0.0
123453,-0.876,0.237,0.139,25.718,53.618,-89.702,0.0,0.0
123518,-0.922,0.185,0.219,43.282,45.282,-63.359,0.0,0.0
