Timestamp(ms),AccelX(g),AccelY(g),AccelZ(g),GyroX(deg/s),GyroY(deg/s),GyroZ(deg/s),DistanceLeft(cm),DistanceRight(cm)
123627,-1.030,0.348,0.173,49.023,25.550,-37.702,0.0,0.0
123693,-1.327,0.374,0.084,0.145,11.038,1.595,0.0,0.0
123757,-1.418,0.183,0.004,-56.084,-33.443,97.855,0.0,0.0
123823,-1.932,-0.004,-0.156,-87.886,-95.496,203.649,0.0,0.0
123888,-1.394,0.077,-0.076,-69.107,-109.435,247.458,0.0,0.0
123954,-0.757,0.290,-0.077,-77.466,-76.824,209.511,0.0,0.0
124022,-0.545,0.262,-0.063,-134.198,-61.351,151.351,0.0,0.0
124088,-0.628,0.229,0.025,-111.473,-38.481,86.145,0.0,0.0
124153,-0.838,0.291,0.051,-70.679,-6.046,5.863,0.0,0.0
124219,-0.997,0.180,0.083,-18.328,28.046,-59.817,0.0,0.0
124283,-1.156,0.162,0.051,41.267,65.832,-84.557,0.0,0.0
124349,-1.065,0.223,0.012,47.275,101.969,-101.420,0.0,0.0
124414,-1.344,0.151,0.058,27.992,107.519,-136.084,0.0,0.0
124480,-1.132,0.015,0.145,101.779,100.802,-139.374,0.0,0.0
124546,-0.913,0.231,0.079,120.534,86.252,-119.145,0.0,0.0
124614,-0.856,0.240,0.132,53.687,56.870,-90.130,0.0,0.0
124669,-0.960,0.171,0.202,50.809,42.634,-54.282,16.0,0.0
124735,-1.071,0.235,0.224,58.328,28.802,-30.756,0.0,0.0
124801,-1.112,0.257,0.199,41.847,14.580,-6.626,0.0,0.0
124855,-1.370,0.255,0.123,15.550,-11.901,37.924,16.0,0.0
124910,-1.509,0.138,0.052,-20.534,-60.351,102.366,17.0,0.0
124976,-1.771,0.066,-0.084,-27.260,-105.191,163.443,0.0,0.0
125041,-1.217,0.149,-0.069,-29.076,-108.290,197.176,0.0,0.0
125107,-0.703,0.269,-0.076,-60.389,-85.336,184.344,0.0,0.0
125176,-0.562,0.229,-0.021,-99.863,-71.298,139.298,0.0,0.0
125235,-0.641,0.198,0.044,-84.084,-45.153,91.298,0.0,81.0
125294,-0.864,0.255,0.068,-38.908,-17.374,33.740,0.0,81.0
125352,-0.978,0.250,0.092,7.351,19.588,-46.092,0.0,80.0
125411,-1.141,0.233,0.027,36.221,51.733,-92.618,0.0,81.0
125470,-1.051,0.232,0.029,25.237,84.908,-117.634,0.0,80.0
125528,-1.283,0.203,0.026,3.183,82.595,-143.863,177.0,79.0
125586,-1.197,-0.013,0.164,62.076,84.099,-143.130,0.0,79.0
125655,-0.940,0.196,0.059,150.718,100.855,-129.069,0.0,0.0
125720,-0.852,0.379,0.044,54.305,75.473,-116.695,0.0,0.0
125787,-0.947,0.246,0.198,10.298,73.962,-82.183,0.0,0.0
125852,-0.970,0.169,0.285,7.405,38.794,-48.107,0.0,0.0
125918,-1.171,0.178,0.267,49.191,10.450,1.695,0.0,0.0
125972,-1.366,0.378,0.097,44.053,-15.740,39.160,17.0,0.0
126039,-1.380,0.236,0.071,-6.092,-49.015,95.031,0.0,0.0
126104,-1.674,0.282,-0.090,-69.763,-83.908,151.221,0.0,0.0
126170,-1.361,0.212,-0.087,-90.084,-97.977,172.023,0.0,0.0
126238,-0.945,0.298,-0.103,-112.595,-93.542,185.863,0.0,0.0
126298,-0.705,0.240,-0.054,-117.053,-92.954,169.893,0.0,78.0
126359,-0.590,0.268,0.018,-89.519,-75.565,132.176,0.0,126.0
126417,-0.592,0.223,0.159,-34.809,-41.336,66.985,0.0,78.0
126477,-0.835,0.676,0.266,12.420,-21.771,9.137,0.0,80.0
126535,-0.858,0.439,0.496,15.023,-8.198,-26.595,0.0,81.0
126597,-0.827,0.448,0.287,71.504,18.916,-42.763,0.0,124.0
126658,-0.962,0.328,0.123,60.122,22.504,-66.099,0.0,126.0
126725,-0.844,0.355,0.129,38.435,59.053,-115.794,0.0,0.0
126837,-0.781,0.192,0.139,91.229,103.191,-197.595,0.0,0.0
126899,-1.106,0.343,0.031,56.824,101.084,-220.267,52.0,0.0
126964,-1.268,0.188,0.095,26.443,100.282,-196.580,0.0,0.0
127029,-1.251,0.223,0.177,22.229,77.847,-117.634,0.0,0.0
127093,-1.207,0.345,0.208,3.962,44.321,-32.061,0.0,0.0
127158,-1.268,0.430,0.210,-30.092,13.924,8.832,0.0,0.0
127222,-1.312,0.150,0.166,-52.290,-38.458,81.771,0.0,0.0
127287,-1.578,0.118,-0.024,-30.145,-99.160,186.458,0.0,0.0
127349,-1.700,0.167,-0.257,-75.336,-131.435,250.130,0.0,100.0
127409,-1.049,0.249,-0.162,-89.046,-123.878,246.489,0.0,107.0
127474,-0.665,0.206,-0.060,-85.664,-103.374,199.786,0.0,0.0
127536,-0.430,0.296,0.004,-49.580,-68.076,141.504,0.0,144.0
127597,-0.542,0.321,0.007,-54.015,-32.634,57.649,0.0,141.0
127659,-0.728,0.384,0.072,-25.710,-0.565,-39.130,0.0,139.0
127719,-0.996,0.310,0.179,24.779,33.450,-90.267,0.0,134.0
127778,-0.985,0.359,0.121,13.031,67.374,-123.191,0.0,98.0
127838,-1.226,0.241,0.114,-18.084,85.313,-143.878,0.0,97.0
127899,-1.321,0.088,0.109,25.176,85.641,-146.435,0.0,96.0
127959,-1.012,0.092,0.111,99.695,101.824,-134.076,0.0,97.0
128020,-0.890,0.302,0.034,90.702,99.458,-127.466,0.0,147.0
128082,-0.954,0.264,0.102,34.817,88.718,-121.656,0.0,145.0
128144,-1.037,0.205,0.156,32.985,86.901,-94.855,0.0,146.0
128195,-1.086,0.277,0.237,10.305,70.176,-64.786,17.0,149.0
128247,-1.174,0.265,0.273,-10.298,44.107,-41.748,16.0,152.0
128299,-1.428,0.255,0.244,-3.397,12.802,-8.099,16.0,158.0
128365,-1.339,0.115,0.170,-1.817,-41.809,55.031,0.0,167.0
128417,-1.379,0.312,0.007,-48.863,-85.557,130.939,10.0,176.0
128466,-1.660,0.262,-0.128,-135.832,-125.076,136.023,9.0,107.0
128526,-1.425,0.028,-0.078,-135.786,-150.886,138.733,0.0,108.0
128585,-1.073,0.047,-0.046,-54.450,-152.710,148.382,0.0,105.0
128646,-0.822,0.238,-0.097,-27.794,-138.924,138.527,0.0,106.0
128705,-0.680,0.324,-0.102,-95.038,-112.740,107.511,0.0,106.0
128764,-0.687,0.141,0.048,-87.779,-79.557,72.359,0.0,96.0
128824,-0.755,0.204,0.106,-2.137,-22.344,19.344,0.0,98.0
128886,-0.758,0.233,0.117,28.450,33.305,-31.191,0.0,99.0
128945,-1.006,0.162,0.144,34.649,81.191,-80.015,0.0,99.0
129004,-1.040,0.138,0.127,81.359,122.679,-117.634,0.0,100.0
129063,-1.359,0.154,0.066,93.985,134.656,-160.740,0.0,100.0
129123,-1.389,0.100,0.053,106.046,126.611,-170.290,0.0,101.0
129185,-1.125,0.182,0.089,104.771,120.183,-146.870,0.0,148.0
129248,-1.015,0.301,0.069,36.527,97.565,-124.519,0.0,148.0
129299,-1.000,0.179,0.202,5.573,77.061,-88.832,16.0,149.0
129364,-0.994,0.158,0.242,23.191,50.580,-48.198,0.0,152.0
129427,-1.035,0.237,0.248,44.000,20.168,-10.870,0.0,158.0
129490,-1.153,0.261,0.155,32.267,-7.992,23.122,0.0,163.0
129543,-1.343,0.242,0.072,-10.641,-36.809,73.427,16.0,172.0
129597,-1.436,0.175,0.008,-56.374,-74.076,135.718,17.0,181.0
129661,-1.842,0.057,-0.153,-79.260,-118.870,184.252,0.0,196.0
129727,-1.387,0.078,-0.132,-52.962,-137.405,210.908,0.0,0.0
129793,-0.838,0.286,-0.118,-63.206,-104.183,192.931,0.0,0.0
129898,-0.556,0.249,-0.013,-105.580,-55.137,91.794,0.0,144.0
129963,-0.618,0.256,0.010,-87.061,-21.374,41.611,0.0,147.0
130023,-0.871,0.275,0.067,-49.153,16.710,-21.435,0.0,114.0
130083,-1.022,0.168,0.096,-14.076,49.710,-62.191,0.0,113.0
130144,-1.162,0.161,0.111,35.794,86.000,-92.053,0.0,113.0
130204,-1.130,0.161,0.088,48.466,107.137,-112.702,0.0,114.0
130265,-1.285,0.118,0.136,47.107,108.511,-127.229,0.0,115.0
130325,-1.257,0.083,0.153,87.420,98.824,-119.794,0.0,116.0
130390,-0.991,0.194,0.133,88.389,86.870,-109.130,0.0,191.0
130457,-0.897,0.246,0.148,47.328,66.221,-91.931,0.0,190.0
130523,-0.890,0.174,0.197,47.153,50.611,-69.504,0.0,192.0
130577,-0.911,0.234,0.182,50.511,33.160,-41.229,17.0,195.0
130631,-1.030,0.289,0.169,35.779,20.298,-20.145,17.0,0.0
130697,-1.148,0.197,0.143,24.397,0.153,16.847,0.0,0.0
130762,-1.393,0.210,0.071,17.260,-24.435,77.366,0.0,0.0
130827,-1.364,0.187,0.030,-46.817,-55.015,140.603,0.0,0.0
130892,-1.463,0.277,-0.031,-103.473,-78.069,156.511,0.0,0.0
130958,-1.319,0.116,-0.004,-110.267,-94.160,136.420,0.0,0.0
131026,-0.786,0.167,0.026,-54.389,-89.435,143.321,0.0,0.0
131092,-0.607,0.363,-0.042,-65.771,-72.611,116.359,0.0,0.0
131155,-0.632,0.333,0.015,-89.031,-51.718,69.450,0.0,165.0
131215,-0.718,0.290,0.082,-48.611,-21.282,22.931,0.0,97.0
131274,-0.843,0.318,0.111,-2.634,17.718,-25.550,0.0,97.0
131334,-0.942,0.313,0.141,14.420,56.710,-67.092,0.0,99.0
131395,-0.931,0.235,0.157,2.145,92.840,-97.565,0.0,141.0
131458,-1.135,0.149,0.212,-15.626,105.031,-98.679,0.0,141.0
131520,-1.302,0.039,0.219,28.870,97.794,-93.840,0.0,142.0
131585,-1.075,0.171,0.211,32.252,82.809,-71.534,0.0,143.0
131647,-0.897,0.244,0.231,-0.046,71.443,-58.221,0.0,143.0
131709,-0.869,0.252,0.271,-47.481,66.069,-57.557,0.0,144.0
131772,-0.957,0.214,0.285,-73.954,54.198,-53.908,0.0,143.0
131821,-1.025,0.183,0.309,-95.061,26.618,-36.969,11.0,109.0
131884,-1.102,0.159,0.286,-102.221,0.473,-27.649,0.0,146.0
131933,-1.280,0.204,0.126,-108.565,-34.374,-20.397,9.0,112.0
131995,-1.189,0.269,-0.080,-118.366,-66.618,-10.366,0.0,148.0
132062,-1.358,0.389,-0.377,-189.252,-82.618,-8.573,0.0,154.0
132125,-1.280,0.348,-0.426,-184.374,-92.886,-23.618,0.0,162.0
132189,-1.113,0.241,-0.412,-150.565,-79.374,4.153,0.0,171.0
132253,-0.990,0.469,-0.554,-110.420,-60.893,18.504,0.0,182.0
132319,-0.866,0.328,-0.503,-148.504,-35.122,24.496,0.0,191.0
132384,-0.762,0.355,-0.394,-110.847,-9.496,30.115,0.0,0.0
132450,-0.778,0.346,-0.297,-133.023,5.443,35.809,0.0,0.0
132515,-0.990,0.272,-0.173,-119.153,16.595,36.298,0.0,0.0
132584,-1.324,0.234,-0.209,-132.191,19.290,50.840,0.0,0.0
132649,-1.150,0.051,-0.121,-142.145,5.893,69.336,0.0,196.0
132715,-1.202,-0.276,-0.090,-129.435,-13.382,51.336,0.0,0.0
132781,-1.275,-0.492,-0.066,-38.282,-5.366,38.756,0.0,0.0
132846,-1.177,-0.320,-0.096,-3.137,13.496,-6.641,0.0,0.0
132912,-0.867,-0.146,0.025,-32.198,35.580,-50.893,0.0,0.0
132977,-0.692,-0.073,0.133,-26.725,40.725,-73.962,0.0,0.0
133086,-0.812,0.199,0.162,-8.130,38.893,-65.076,0.0,0.0
133151,-0.861,0.251,0.185,-52.260,33.794,-55.053,0.0,0.0
133220,-1.123,0.192,0.185,-42.771,17.580,-33.557,0.0,0.0
133275,-1.408,0.309,0.014,-22.672,-7.420,9.084,17.0,0.0
133330,-1.733,0.183,-0.233,-92.985,-72.427,85.481,16.0,0.0
133396,-1.676,0.086,-0.230,-114.267,-101.954,167.015,0.0,0.0
133462,-1.292,0.020,-0.110,-66.244,-126.916,215.351,0.0,0.0
133527,-0.729,0.213,-0.082,-54.947,-118.870,216.183,0.0,0.0
133594,-0.624,0.302,-0.044,-75.221,-92.634,154.672,0.0,0.0
133659,-0.613,0.237,0.006,-73.924,-62.557,86.481,0.0,0.0
133725,-0.853,0.340,0.053,-50.511,-4.504,9.237,0.0,0.0
133793,-0.977,0.234,0.099,-20.176,54.168,-59.924,0.0,0.0
133859,-0.961,0.159,0.039,-19.267,108.802,-110.824,0.0,0.0
133925,-1.314,-0.042,0.063,5.122,131.237,-133.076,0.0,0.0
133991,-1.424,-0.050,0.095,91.344,120.107,-133.366,0.0,0.0
134056,-1.060,0.136,0.060,155.725,110.603,-115.427,0.0,0.0
134122,-0.894,0.427,0.020,85.092,97.275,-120.260,0.0,0.0
134188,-0.923,0.268,0.189,-11.756,90.565,-117.656,0.0,0.0
134243,-1.021,0.074,0.302,-0.015,64.374,-77.534,16.0,0.0
134312,-1.177,0.084,0.293,64.733,26.962,-30.237,0.0,0.0
134378,-1.440,0.277,0.119,75.672,-13.588,39.214,0.0,0.0
134433,-1.409,0.174,0.011,5.099,-66.008,127.397,17.0,0.0
134499,-1.708,0.154,-0.133,-56.382,-99.679,187.267,0.0,0.0
134564,-1.413,0.151,-0.149,-81.069,-113.305,207.969,0.0,0.0
134631,-0.881,0.228,-0.104,-95.588,-97.420,195.321,0.0,0.0
134696,-0.619,0.255,-0.074,-113.870,-83.687,153.176,0.0,0.0
134762,-0.645,0.269,0.013,-85.122,-57.969,96.763,0.0,0.0
134828,-0.741,0.287,0.018,-80.626,-26.275,39.443,0.0,0.0
134901,-1.015,0.226,0.062,-36.153,22.992,-38.794,0.0,0.0
134966,-1.140,0.140,0.024,21.573,70.985,-82.916,0.0,0.0
135031,-1.139,0.076,0.040,42.779,100.550,-104.053,0.0,0.0
135096,-1.293,0.059,0.105,74.939,98.695,-124.679,0.0,0.0
135160,-1.031,0.118,0.126,135.504,113.053,-132.626,0.0,0.0
135225,-0.886,0.328,0.033,85.962,105.603,-137.809,0.0,0.0
135279,-0.960,0.223,0.163,8.321,88.000,-121.305,16.0,0.0
135333,-1.061,0.145,0.226,20.901,80.298,-88.679,17.0,0.0
135388,-1.106,0.184,0.268,27.565,51.328,-49.473,17.0,0.0
135445,-1.158,0.184,0.278,26.145,16.824,-9.802,17.0,0.0
135511,-1.492,0.230,0.166,25.519,-17.794,34.160,0.0,0.0
135565,-1.476,0.085,0.049,4.817,-86.473,122.282,17.0,0.0
135629,-1.683,0.157,-0.122,-22.794,-120.626,183.565,0.0,0.0
135694,-1.284,0.187,-0.131,-58.679,-123.969,201.832,0.0,0.0
135759,-0.818,0.216,-0.088,-78.977,-106.168,181.290,0.0,0.0
135822,-0.626,0.250,-0.025,-93.382,-85.740,134.374,198.0,162.0
135886,-0.646,0.264,0.004,-88.214,-52.908,85.702,0.0,186.0
135950,-0.770,0.243,0.063,-76.214,-20.282,36.908,192.0,188.0
136015,-0.896,0.205,0.134,-31.359,22.031,-31.847,198.0,161.0
136078,-1.122,0.148,0.092,16.359,58.702,-69.405,196.0,162.0
136140,-1.055,0.187,0.078,50.588,96.153,-93.191,196.0,162.0
136203,-1.283,0.146,0.077,46.817,99.290,-118.053,196.0,161.0
136309,-0.949,0.177,0.096,141.244,111.473,-133.687,0.0,163.0
136373,-0.899,0.375,0.027,61.786,96.756,-134.214,0.0,163.0
136435,-0.965,0.174,0.181,0.763,80.313,-110.191,0.0,164.0
136499,-1.041,0.090,0.246,39.183,58.496,-62.344,0.0,165.0
136554,-1.062,0.185,0.238,70.153,22.962,-20.489,16.0,166.0
136606,-1.215,0.282,0.178,57.672,3.443,10.695,16.0,169.0
136670,-1.402,0.217,0.103,31.321,-24.115,46.679,0.0,172.0
136733,-1.454,0.179,0.003,-15.740,-66.122,129.366,0.0,178.0
136798,-1.601,0.171,-0.085,-65.260,-102.565,175.679,0.0,186.0
136862,-1.075,0.154,-0.041,-65.252,-99.130,181.954,0.0,196.0
136928,-0.768,0.258,-0.069,-81.191,-83.832,165.046,0.0,0.0
136992,-0.682,0.256,-0.039,-109.817,-67.198,129.992,187.0,0.0
137059,-0.732,0.233,0.022,-104.450,-43.618,77.466,184.0,0.0
137121,-0.892,0.209,0.079,-58.176,-11.847,18.435,181.0,170.0
137177,-0.966,0.175,0.121,-11.931,28.160,-28.664,180.0,53.0
137232,-1.081,0.160,0.077,7.695,59.038,-54.504,178.0,50.0
137288,-1.084,0.113,0.123,50.511,74.771,-86.626,0.0,48.0
137344,-1.279,0.135,0.084,99.046,88.214,-124.573,181.0,51.0
137402,-1.194,0.157,0.040,122.878,99.611,-143.084,181.0,99.0
137462,-0.919,0.276,0.045,90.626,104.893,-142.115,0.0,99.0
137522,-0.879,0.264,0.064,15.038,92.802,-131.069,0.0,99.0
137583,-0.974,0.108,0.210,20.725,82.740,-102.626,0.0,99.0
137638,-0.990,0.167,0.237,50.466,64.863,-71.702,16.0,0.0
137703,-1.108,0.240,0.249,44.351,39.649,-49.641,0.0,0.0
137761,-1.271,0.216,0.260,35.008,7.588,-8.435,84.0,0.0
137807,-1.432,0.105,0.099,26.321,-44.847,59.069,16.0,53.0
137853,-1.492,0.153,0.006,1.489,-77.985,132.733,16.0,48.0
137910,-1.685,0.173,-0.105,-41.542,-108.183,178.458,0.0,53.0
137967,-1.349,0.158,-0.097,-72.328,-122.252,191.321,0.0,60.0
138025,-0.917,0.168,-0.058,-62.198,-104.344,182.176,0.0,71.0
138088,-0.691,0.269,-0.059,-74.359,-89.183,157.191,188.0,0.0
138153,-0.691,0.250,-0.021,-98.405,-68.748,111.031,0.0,0.0
138217,-0.742,0.215,0.029,-83.237,-42.092,65.977,182.0,195.0
138281,-0.912,0.250,0.079,-49.031,-4.313,9.695,182.0,0.0
138345,-1.076,0.134,0.103,-5.809,32.305,-39.198,180.0,196.0
138407,-1.049,0.131,0.065,43.565,71.038,-71.573,180.0,170.0
138470,-1.151,0.187,0.086,77.137,87.969,-112.153,180.0,169.0
138530,-1.265,0.111,0.112,114.924,102.031,-155.916,182.0,127.0
138594,-0.993,0.219,0.068,120.298,118.595,-165.076,0.0,123.0
138655,-0.915,0.335,0.036,27.756,103.947,-158.412,0.0,122.0
138721,-1.012,0.088,0.200,-3.290,85.183,-125.405,0.0,0.0
138785,-1.064,0.088,0.235,63.656,59.992,-68.794,0.0,0.0
138841,-1.078,0.268,0.207,73.115,26.183,-27.756,17.0,0.0
138906,-1.215,0.306,0.173,34.878,3.725,7.038,0.0,0.0
138971,-1.482,0.124,0.074,5.992,-38.458,71.977,0.0,0.0
139036,-1.606,0.169,-0.129,-51.519,-88.084,170.443,0.0,0.0
139097,-1.454,0.177,-0.152,-98.237,-108.878,207.160,0.0,114.0
139165,-1.131,0.101,-0.143,-94.405,-112.305,207.427,0.0,0.0
139231,-0.616,0.174,-0.042,-89.939,-101.198,191.710,0.0,0.0
139296,-0.486,0.271,0.017,-67.618,-70.267,128.382,0.0,0.0
139405,-0.770,0.326,0.070,-56.969,1.000,-2.435,0.0,199.0
139469,-1.020,0.222,0.077,-25.626,47.634,-74.901,0.0,199.0
139535,-1.140,0.157,0.063,29.397,91.672,-112.496,0.0,0.0
139600,-1.229,0.206,0.032,27.893,111.588,-110.634,0.0,0.0
139666,-1.377,0.041,0.130,44.107,102.634,-120.130,0.0,0.0
139735,-1.051,0.086,0.148,118.183,99.313,-110.595,0.0,0.0
139800,-0.803,0.284,0.105,89.763,79.855,-103.137,0.0,0.0
139854,-0.866,0.230,0.184,27.237,62.962,-88.084,16.0,0.0
139910,-1.001,0.182,0.221,18.695,52.374,-64.924,16.0,0.0
139965,-1.042,0.199,0.263,20.809,35.824,-40.168,17.0,0.0
140019,-1.115,0.197,0.229,16.374,10.412,-19.557,16.0,0.0
140075,-1.386,0.203,0.172,34.824,-13.458,13.275,17.0,0.0
140140,-1.447,0.198,0.033,23.557,-51.870,70.672,0.0,0.0
140206,-1.575,0.181,-0.104,-42.924,-93.672,158.122,0.0,0.0
140274,-1.254,0.200,-0.106,-91.305,-108.313,179.573,0.0,0.0
140340,-0.854,0.229,-0.067,-91.046,-97.634,171.260,0.0,0.0
140405,-0.684,0.267,-0.021,-92.351,-88.466,142.779,0.0,0.0
140468,-0.653,0.287,0.020,-78.679,-65.382,95.954,0.0,146.0
140530,-0.711,0.245,0.086,-56.145,-41.290,52.863,0.0,149.0
140593,-0.886,0.283,0.117,-18.962,4.122,-16.069,0.0,149.0
140657,-1.061,0.194,0.142,27.809,51.809,-70.427,0.0,180.0
140723,-1.061,0.205,0.091,36.893,93.939,-93.924,0.0,0.0
140787,-1.309,0.128,0.095,19.420,95.992,-117.176,0.0,182.0
140856,-1.135,0.023,0.156,115.527,100.099,-122.733,0.0,0.0
140921,-0.862,0.297,0.031,110.473,97.328,-116.282,0.0,0.0
140987,-0.841,0.239,0.125,25.763,78.863,-109.809,0.0,0.0
141052,-1.019,0.145,0.200,46.092,76.756,-89.214,0.0,0.0
141108,-1.041,0.288,0.210,51.290,58.450,-68.687,17.0,0.0
141163,-1.142,0.249,0.245,21.740,32.939,-44.206,16.0,0.0
141217,-1.360,0.264,0.209,24.183,3.061,-0.275,17.0,0.0
141273,-1.382,0.234,0.092,0.992,-43.435,63.840,17.0,0.0
141331,-1.563,0.164,-0.049,-27.443,-94.977,141.954,16.0,0.0
141396,-1.674,0.172,-0.163,-42.053,-121.947,187.366,0.0,0.0
141463,-1.140,0.200,-0.144,-77.786,-117.366,218.649,0.0,0.0
141529,-0.777,0.219,-0.080,-99.466,-102.214,195.504,0.0,0.0
141594,-0.598,0.189,0.029,-69.153,-79.893,152.901,0.0,0.0
141660,-0.586,0.242,0.057,-30.664,-53.305,86.618,0.0,0.0
141725,-0.673,0.347,0.107,25.122,-23.748,-6.489,0.0,0.0
141791,-0.973,0.323,0.090,48.061,24.328,-84.290,0.0,0.0
141856,-1.116,0.301,0.004,25.374,79.527,-133.397,0.0,0.0
141926,-1.254,0.172,0.087,-2.290,86.099,-161.397,0.0,0.0
141991,-1.260,0.036,0.152,70.550,102.847,-170.687,0.0,0.0
142057,-1.028,0.307,0.020,79.580,118.656,-165.214,0.0,200.0
142123,-0.926,0.241,0.085,-30.924,89.618,-143.954,0.0,0.0
142178,-1.017,0.077,0.187,21.160,81.267,-95.115,12.0,0.0
142243,-0.978,0.198,0.203,55.328,52.962,-59.649,0.0,0.0
142299,-1.106,0.308,0.209,41.053,29.748,-30.855,16.0,0.0
142354,-1.291,0.308,0.174,13.687,7.573,-0.351,18.0,0.0
142419,-1.368,0.240,0.082,-24.382,-32.382,56.092,0.0,0.0
142488,-1.700,0.052,-0.052,-56.641,-101.298,152.878,0.0,0.0
142598,-1.441,0.084,-0.167,-71.191,-144.321,246.908,0.0,0.0
142663,-0.811,0.177,-0.081,-67.275,-130.344,229.153,0.0,0.0
142730,-0.619,0.204,-0.009,-33.618,-103.557,185.420,0.0,0.0
142795,-0.529,0.352,-0.035,-47.137,-68.809,112.924,0.0,0.0
142861,-0.612,0.311,0.052,-54.473,-24.084,12.160,0.0,0.0
142932,-0.794,0.254,0.158,-9.962,43.382,-83.069,0.0,0.0
142997,-1.013,0.234,0.096,17.443,112.443,-140.718,0.0,0.0
143065,-1.240,0.213,0.002,13.473,150.450,-181.382,0.0,0.0
143129,-1.476,0.033,0.070,19.947,146.374,-188.229,0.0,0.0
143195,-1.250,0.007,0.116,96.137,142.534,-158.344,0.0,0.0
143259,-1.067,0.242,0.062,77.344,111.481,-123.359,0.0,0.0
143313,-1.053,0.196,0.188,36.947,83.725,-94.137,11.0,0.0
143368,-0.972,0.177,0.233,44.405,63.863,-64.794,16.0,0.0
143432,-1.021,0.215,0.253,47.771,38.450,-33.840,0.0,0.0
143497,-1.171,0.269,0.210,19.221,3.344,-4.939,0.0,0.0
143551,-1.413,0.136,0.065,-0.168,-45.450,62.176,16.0,0.0
143608,-1.436,0.249,-0.073,-75.443,-86.107,143.076,16.0,0.0
143665,-1.609,0.191,-0.152,-127.496,-123.931,171.947,77.0,167.0
143721,-1.590,0.104,-0.175,-186.618,-150.702,155.924,0.0,56.0
143778,-1.051,-0.066,0.005,-104.870,-160.252,153.695,0.0,64.0
143844,-0.723,0.194,-0.002,-41.969,-139.031,135.863,0.0,0.0
143908,-0.629,0.281,-0.005,-79.672,-108.115,81.130,0.0,0.0
143973,-0.607,0.169,0.071,-60.924,-68.023,36.496,0.0,0.0
144038,-0.794,0.225,0.138,4.534,-8.550,-9.412,0.0,0.0
144103,-1.012,0.263,0.105,25.641,45.817,-48.931,0.0,0.0
144171,-1.120,0.145,0.151,34.206,103.679,-80.718,0.0,0.0
144236,-1.167,0.162,0.106,29.626,133.099,-97.023,0.0,0.0
144301,-1.173,0.051,0.122,59.985,131.198,-115.397,0.0,0.0
144365,-1.012,0.171,0.115,82.924,143.916,-110.656,0.0,0.0
144414,-0.982,0.280,0.068,10.160,131.695,-104.824,9.0,104.0
144462,-1.062,0.067,0.211,-11.931,115.916,-84.519,10.0,103.0
144512,-1.062,0.050,0.242,37.160,96.031,-57.878,9.0,105.0
144576,-0.986,0.126,0.280,42.870,66.718,-34.298,0.0,0.0
144633,-1.097,0.197,0.275,22.832,22.611,-10.763,16.0,0.0
144698,-1.341,0.222,0.243,5.023,-12.748,9.107,0.0,0.0
144752,-1.425,0.046,0.084,-17.275,-88.458,70.046,17.0,0.0
144803,-1.584,0.044,-0.006,-19.130,-137.824,129.534,10.0,140.0
144866,-1.657,0.065,-0.092,8.061,-174.389,147.992,0.0,154.0
144929,-1.206,0.065,-0.058,51.511,-168.542,157.756,0.0,169.0
144994,-0.810,0.185,-0.095,80.145,-124.664,167.206,0.0,0.0
145059,-0.695,0.361,-0.101,28.229,-86.282,138.985,0.0,0.0
145124,-0.641,0.306,-0.013,-21.328,-58.214,97.496,0.0,0.0
145192,-0.786,0.314,0.041,-33.015,-20.870,33.832,0.0,0.0
145257,-0.810,0.282,0.111,-23.771,18.641,-29.542,0.0,0.0
145323,-1.034,0.201,0.127,-23.359,66.840,-95.611,0.0,0.0
145388,-1.088,0.174,0.127,20.550,95.740,-135.817,0.0,0.0
145453,-1.342,0.062,0.133,72.626,110.168,-176.359,0.0,0.0
145518,-1.219,0.254,0.016,90.977,118.145,-199.954,0.0,0.0
145583,-1.046,0.248,0.046,7.427,103.817,-182.260,0.0,0.0
145648,-1.051,0.082,0.166,27.496,86.336,-126.290,0.0,0.0
145757,-1.046,0.344,0.168,50.962,35.267,-28.924,0.0,0.0
145824,-1.027,0.289,0.212,11.328,10.412,3.153,0.0,0.0
145890,-1.266,0.353,0.114,-2.221,-13.290,43.000,0.0,0.0
145944,-1.420,0.107,0.048,-23.679,-57.824,122.573,17.0,0.0
146010,-1.697,0.121,-0.109,-43.282,-94.260,197.725,0.0,0.0
146074,-1.555,0.277,-0.272,-99.214,-93.870,217.832,0.0,0.0
146140,-0.963,0.191,-0.140,-112.427,-93.344,198.145,0.0,0.0
146205,-0.672,0.177,-0.048,-93.382,-84.489,154.954,0.0,0.0
146271,-0.737,0.238,0.007,-38.244,-70.382,96.779,0.0,0.0
146338,-0.742,0.256,0.012,-25.947,-45.687,47.031,0.0,0.0
146404,-0.931,0.284,0.084,-12.069,10.137,-15.252,0.0,0.0
146469,-1.056,0.288,0.005,-4.344,67.870,-75.924,0.0,0.0
146534,-1.042,0.186,0.034,-13.122,114.160,-127.504,0.0,0.0
146599,-1.325,0.128,0.052,24.527,119.840,-165.687,0.0,0.0
146665,-1.206,0.043,0.141,82.351,122.611,-175.954,0.0,0.0
146729,-1.014,0.259,0.058,88.718,115.221,-163.504,0.0,0.0
146795,-0.988,0.236,0.145,13.244,85.710,-131.550,0.0,0.0
146850,-1.067,0.132,0.229,27.557,67.435,-82.702,17.0,0.0
146908,-1.026,0.206,0.250,38.519,36.313,-36.466,16.0,0.0
146973,-1.137,0.245,0.194,28.038,7.763,-2.992,0.0,0.0
147027,-1.356,0.224,0.130,16.527,-24.023,52.458,16.0,0.0
147083,-1.380,0.126,0.036,-3.145,-68.992,125.046,17.0,0.0
147148,-1.714,0.111,-0.102,-30.328,-103.000,183.191,0.0,0.0
147213,-1.458,0.187,-0.149,-41.527,-120.252,199.962,0.0,0.0
147278,-0.990,0.261,-0.108,-48.450,-98.244,186.122,0.0,0.0
147344,-0.906,0.268,-0.070,-78.405,-96.061,165.221,0.0,0.0
147409,-0.710,0.240,0.025,-55.756,-89.779,159.763,0.0,0.0
147478,-0.652,0.285,0.093,-30.740,-56.710,104.282,0.0,0.0
147544,-0.700,0.346,0.117,-12.863,-3.786,3.908,0.0,0.0
147608,-0.832,0.294,0.083,7.252,62.939,-81.191,0.0,0.0
147674,-1.013,0.244,0.045,-12.748,112.053,-132.504,0.0,0.0
147739,-1.288,0.062,0.135,12.374,121.496,-183.069,0.0,0.0
147805,-1.341,0.054,0.103,103.420,137.267,-200.038,0.0,0.0
147870,-1.182,0.240,0.017,90.191,125.481,-194.542,0.0,0.0
147936,-0.989,0.155,0.145,29.679,89.458,-146.931,0.0,0.0
147990,-1.118,0.173,0.170,47.061,70.351,-85.305,17.0,0.0
148059,-0.994,0.232,0.198,35.763,43.076,-45.511,0.0,0.0
148124,-1.065,0.268,0.197,21.481,17.397,-7.023,0.0,0.0
148190,-1.395,0.183,0.124,20.389,-17.466,42.534,0.0,0.0
148245,-1.461,0.128,0.012,-1.458,-66.809,143.321,16.0,0.0
148311,-1.628,0.169,-0.101,-48.863,-99.802,199.191,0.0,0.0
148373,-1.377,0.118,-0.100,-83.718,-124.924,212.481,0.0,159.0
148439,-1.013,0.211,0.010,-51.534,-117.580,197.710,0.0,0.0
148504,-0.764,0.481,0.117,-75.550,-116.679,174.702,0.0,0.0
148574,-0.682,0.661,0.363,-148.115,-121.504,125.061,0.0,0.0
148639,-0.794,0.554,0.643,-168.527,-137.130,67.718,0.0,0.0
148705,-0.694,0.414,0.812,-114.290,-137.771,40.031,0.0,0.0
148770,-0.493,0.556,0.707,-85.176,-136.298,24.298,0.0,0.0
148836,-0.387,0.190,0.865,-106.473,-112.672,0.511,0.0,0.0
148901,-0.438,0.068,0.890,-49.206,-89.725,15.466,0.0,0.0
149010,0.238,0.021,0.697,-44.405,-64.427,27.626,0.0,0.0
149075,0.333,-0.076,0.628,-21.649,-60.550,16.008,0.0,0.0
149141,0.410,-0.051,0.658,-18.076,-44.718,2.405,0.0,0.0
149210,0.550,-0.043,0.788,-5.366,-26.863,0.351,0.0,0.0
149275,0.437,-0.066,0.942,-7.313,-22.305,4.130,0.0,0.0
149341,0.533,-0.018,1.058,2.718,-14.710,4.206,0.0,0.0
149406,0.469,0.110,1.051,-4.832,-4.336,6.053,0.0,0.0
149472,0.458,0.125,1.039,5.977,7.878,5.916,0.0,199.0
149536,0.406,0.102,0.946,-1.985,15.328,12.046,0.0,194.0
149601,0.379,0.080,0.771,4.290,14.298,13.260,0.0,177.0
149665,0.314,0.005,0.747,-1.122,12.496,9.389,0.0,177.0
149729,0.336,-0.014,0.699,2.595,11.489,-0.214,0.0,177.0
149796,0.385,-0.038,0.624,21.412,19.321,-5.931,0.0,176.0
149861,0.295,-0.058,0.763,15.641,62.542,-28.687,0.0,176.0
149925,-0.103,0.123,0.669,77.435,125.542,-31.893,0.0,175.0
149988,-0.380,-0.020,0.828,111.099,206.863,-72.718,175.0,174.0
150051,-0.735,0.149,0.694,192.901,248.305,-109.954,175.0,175.0
150117,-1.187,0.614,0.567,208.298,221.901,-170.298,0.0,0.0
150182,-1.228,0.327,0.468,161.160,177.954,-216.198,0.0,0.0
150248,-1.132,0.346,0.241,158.107,149.534,-215.969,0.0,0.0
150305,-1.258,0.522,0.048,85.183,112.282,-207.618,56.0,0.0
150375,-1.193,0.355,0.152,1.450,90.305,-160.687,0.0,0.0
150440,-1.170,0.307,0.228,-32.176,65.908,-89.359,0.0,0.0
150506,-1.127,0.260,0.245,-22.221,34.183,-30.565,0.0,0.0
150572,-1.286,0.328,0.197,-2.099,2.557,15.260,0.0,0.0
150627,-1.266,0.157,0.116,-3.641,-47.802,101.206,14.0,0.0
150692,-1.648,0.217,-0.074,-39.985,-83.015,168.664,0.0,0.0
150759,-1.439,0.206,-0.161,-105.015,-103.221,200.794,0.0,0.0
150824,-0.956,0.193,-0.073,-121.405,-95.756,190.260,0.0,0.0
150894,-0.667,0.229,-0.034,-114.878,-93.107,158.374,0.0,0.0
150959,-0.642,0.253,0.038,-79.802,-71.855,115.122,179.0,0.0
151023,-0.735,0.332,0.074,-48.481,-37.023,45.481,176.0,0.0
151092,-0.912,0.255,0.070,-12.221,18.412,-48.305,176.0,0.0
151155,-1.100,0.169,-0.002,36.344,77.656,-103.321,175.0,0.0
151219,-1.151,0.212,-0.059,5.710,133.878,-122.733,175.0,0.0
151281,-1.394,0.093,0.025,-22.153,122.908,-142.565,174.0,175.0
151346,-1.111,-0.088,0.234,78.725,115.107,-133.237,0.0,0.0
151411,-0.941,0.159,0.113,143.954,104.550,-119.473,0.0,0.0
151468,-0.903,0.237,0.135,68.435,61.634,-97.374,17.0,0.0
151533,-1.000,0.124,0.218,62.832,47.427,-59.099,0.0,0.0
151598,-1.002,0.237,0.231,54.328,29.321,-25.115,0.0,0.0
151652,-1.051,0.249,0.222,19.550,11.931,-9.107,17.0,0.0
151706,-1.304,0.242,0.167,24.893,-0.557,15.275,16.0,0.0
151760,-1.314,0.180,0.070,2.290,-35.748,64.168,17.0,0.0
151825,-1.712,0.188,-0.092,-40.687,-76.084,133.061,0.0,0.0
151890,-1.612,0.113,-0.151,-76.160,-111.481,190.397,0.0,0.0
151955,-0.991,0.163,-0.074,-71.466,-97.023,207.649,0.0,0.0
152023,-0.593,0.256,-0.069,-102.130,-84.664,180.244,0.0,0.0
152088,-0.567,0.221,0.030,-100.221,-65.550,124.756,0.0,0.0
152152,-0.697,0.239,0.066,-71.420,-32.351,55.893,186.0,0.0
152259,-1.020,0.184,0.085,-4.321,39.420,-63.336,184.0,0.0
152324,-1.176,0.198,0.049,36.847,75.527,-94.702,185.0,0.0
152387,-1.171,0.214,0.031,54.031,98.748,-119.565,186.0,0.0
152453,-1.316,0.125,0.077,62.695,101.542,-146.321,0.0,0.0
152517,-1.057,0.127,0.121,105.183,103.305,-141.031,0.0,0.0
152594,-0.909,0.294,0.086,56.252,84.351,-124.969,0.0,0.0
152658,-0.944,0.141,0.210,28.229,62.870,-100.450,0.0,0.0
152724,-0.969,0.168,0.254,66.542,45.817,-68.099,0.0,0.0
152788,-1.033,0.355,0.195,45.282,26.916,-47.580,0.0,0.0
152853,-1.422,0.294,0.122,1.053,1.466,-3.443,0.0,0.0
152907,-1.514,0.107,0.004,-27.427,-63.298,117.511,17.0,0.0
152973,-1.783,0.067,-0.093,-61.695,-104.855,199.214,0.0,0.0
153038,-1.533,0.111,-0.114,-84.557,-131.916,239.786,0.0,0.0
153103,-0.929,0.133,-0.049,-86.298,-118.206,217.992,0.0,0.0
153171,-0.617,0.236,-0.039,-94.962,-92.267,169.290,0.0,0.0
153236,-0.596,0.229,0.009,-98.489,-63.145,107.802,193.0,0.0
153292,-0.754,0.188,0.074,-78.893,-22.466,31.924,53.0,0.0
153355,-0.917,0.122,0.114,-33.260,15.916,-34.580,190.0,161.0
153419,-1.193,0.079,0.056,48.847,56.779,-87.153,191.0,0.0
153484,-1.126,0.156,0.003,105.069,95.779,-123.718,194.0,0.0
153549,-1.374,0.262,-0.006,97.863,116.595,-192.069,0.0,0.0
153615,-1.273,0.044,0.102,138.023,130.748,-222.427,0.0,0.0
153672,-1.125,0.274,-0.010,133.168,124.481,-213.618,17.0,0.0
153728,-1.096,0.274,0.102,49.977,98.183,-186.137,19.0,0.0
153792,-1.123,0.162,0.233,39.519,81.008,-130.450,0.0,0.0
153858,-1.008,0.173,0.298,72.664,33.519,-41.573,0.0,0.0
153922,-1.090,0.344,0.186,45.641,-6.107,35.618,0.0,0.0
153988,-1.364,0.321,0.064,-29.863,-29.565,98.550,0.0,0.0
154052,-1.644,0.136,-0.107,-102.061,-83.779,177.786,0.0,0.0
154118,-1.789,0.099,-0.244,-116.725,-114.000,233.015,0.0,0.0
154183,-1.504,0.095,-0.229,-113.786,-116.580,244.344,0.0,0.0
154252,-0.835,0.213,-0.126,-114.511,-105.198,207.748,0.0,0.0
154316,-0.588,0.222,-0.041,-105.061,-76.519,145.481,0.0,0.0
154374,-0.716,0.236,-0.024,-97.931,-46.321,85.160,58.0,0.0
154428,-0.992,0.222,0.012,-68.061,-21.214,30.198,55.0,150.0
154482,-0.886,0.120,0.090,-21.802,8.252,-10.794,54.0,151.0
154545,-1.008,0.177,0.081,34.618,54.183,-60.198,200.0,151.0
154607,-0.897,0.213,0.091,82.427,108.031,-112.931,200.0,152.0
154673,-1.217,0.304,0.047,65.191,148.359,-191.702,0.0,0.0
154740,-1.462,-0.018,0.124,78.824,156.687,-230.221,0.0,0.0
154806,-1.270,0.067,0.088,130.267,141.084,-193.786,0.0,0.0
154861,-1.116,0.224,0.151,87.649,96.176,-142.382,17.0,0.0
154926,-1.068,0.254,0.233,48.260,67.176,-98.603,0.0,0.0
154991,-1.019,0.269,0.268,28.122,35.336,-47.412,0.0,0.0
155057,-1.089,0.218,0.212,17.290,0.344,6.145,0.0,0.0
155122,-1.324,0.234,0.096,-2.267,-27.977,77.695,0.0,0.0
155176,-1.458,0.109,-0.026,-46.565,-81.733,168.260,16.0,0.0
155242,-1.882,0.083,-0.174,-90.420,-120.221,233.275,0.0,0.0
155311,-1.434,0.150,-0.150,-91.069,-125.939,243.641,0.0,0.0
155376,-0.773,0.282,-0.103,-93.374,-90.725,197.878,0.0,0.0
155480,-0.525,0.187,0.011,-128.069,-50.328,102.702,0.0,118.0
155543,-0.723,0.180,0.066,-93.962,-22.687,47.580,0.0,158.0
155606,-0.934,0.184,0.123,-26.053,17.344,-25.641,199.0,151.0
155668,-1.061,0.139,0.105,38.641,59.145,-86.626,199.0,149.0
155730,-1.118,0.122,0.025,86.496,93.069,-119.412,200.0,147.0
155793,-1.345,0.266,-0.017,87.046,106.565,-154.092,0.0,146.0
155858,-1.410,0.065,0.052,128.763,105.450,-181.137,0.0,0.0
155927,-1.090,0.303,-0.042,148.534,104.198,-158.053,0.0,0.0
155993,-0.868,0.372,0.025,14.450,82.511,-130.939,0.0,0.0
156058,-0.976,0.167,0.220,-15.580,73.687,-79.336,0.0,0.0
156112,-1.023,0.145,0.299,33.275,42.176,-39.290,17.0,0.0
156178,-1.038,0.284,0.262,36.473,19.244,-17.038,0.0,0.0
156233,-1.341,0.268,0.147,14.290,-9.901,20.198,17.0,0.0
156288,-1.418,0.229,0.042,-23.626,-55.595,91.886,16.0,0.0
156353,-1.812,0.022,-0.086,-49.489,-116.344,170.580,0.0,0.0
156421,-1.512,0.102,-0.140,-25.298,-138.374,236.687,0.0,166.0
156486,-0.864,0.322,-0.118,-56.015,-111.794,221.244,0.0,0.0
156552,-0.656,0.271,-0.046,-125.786,-88.412,169.168,0.0,0.0
156617,-0.643,0.264,0.024,-116.794,-51.771,113.595,0.0,0.0
156690,-0.846,0.281,0.043,-97.519,-11.443,29.947,0.0,181.0
156753,-0.975,0.169,0.100,-41.275,24.870,-30.481,0.0,180.0
156816,-1.039,0.104,0.078,35.664,69.198,-64.595,200.0,150.0
156873,-1.022,0.224,0.034,53.626,110.168,-101.893,0.0,75.0
156931,-1.320,0.133,0.066,60.183,115.038,-149.107,0.0,73.0
156991,-1.233,0.011,0.108,140.000,123.740,-162.130,0.0,72.0
157056,-1.035,0.276,0.013,136.992,119.489,-152.527,0.0,0.0
157121,-0.961,0.224,0.108,43.153,89.122,-131.473,0.0,0.0
157186,-1.112,0.190,0.165,49.008,82.122,-96.107,0.0,0.0
157240,-1.019,0.248,0.243,71.275,51.588,-65.374,17.0,0.0
157304,-1.143,0.296,0.231,49.504,29.389,-44.557,0.0,0.0
157370,-1.343,0.371,0.086,22.374,-0.344,13.176,0.0,0.0
157424,-1.293,0.190,0.046,-37.748,-57.389,117.015,16.0,0.0
157492,-1.865,0.070,-0.151,-59.420,-108.588,195.427,0.0,0.0
157556,-1.558,0.208,-0.227,-73.588,-114.557,240.672,0.0,0.0
157615,-0.980,0.180,-0.110,-95.550,-102.504,209.336,0.0,90.0
157680,-0.668,0.157,-0.042,-70.008,-98.290,181.351,0.0,0.0
157736,-0.571,0.317,0.008,-55.954,-60.840,139.130,0.0,51.0
157793,-0.713,0.399,-0.032,-108.000,-23.351,70.244,0.0,48.0
157849,-0.953,0.252,0.064,-94.099,-0.924,-11.168,0.0,49.0
157905,-1.020,0.114,0.143,-35.046,32.099,-54.511,0.0,50.0
157962,-1.010,0.168,0.074,23.794,69.176,-74.183,0.0,50.0
158020,-1.058,0.228,0.049,36.038,100.275,-110.771,194.0,46.0
158076,-1.265,0.160,0.034,64.802,117.511,-149.023,195.0,47.0
158133,-1.192,0.128,0.052,109.580,128.710,-173.328,0.0,44.0
158189,-1.056,0.219,0.039,106.122,130.015,-175.122,0.0,45.0
158235,-1.025,0.266,0.050,50.519,110.046,-159.863,16.0,59.0
158280,-1.070,0.167,0.158,30.565,93.893,-127.160,11.0,43.0
158330,-1.104,0.139,0.194,31.008,74.618,-81.176,79.0,60.0
158386,-1.108,0.264,0.207,30.412,52.679,-39.954,0.0,44.0
158445,-1.136,0.312,0.170,-60.870,28.641,-14.763,0.0,43.0
158534,-1.370,-0.024,0.144,-27.443,-54.061,56.336,15.0,50.0
158580,-1.342,0.023,0.077,8.550,-97.794,121.244,13.0,52.0
158626,-1.646,0.212,-0.152,8.954,-130.061,157.183,11.0,57.0
158683,-1.481,0.374,-0.262,-87.595,-142.595,157.321,0.0,50.0
158739,-1.118,0.085,-0.137,-116.382,-134.473,162.092,0.0,52.0
158796,-0.782,0.175,-0.057,-105.504,-127.649,148.046,195.0,62.0
158855,-0.660,0.195,-0.003,-83.076,-109.496,111.962,193.0,87.0
158917,-0.739,0.270,-0.027,-95.244,-77.160,68.099,191.0,158.0
158983,-0.925,0.179,0.096,-43.000,-30.290,15.542,189.0,160.0
159044,-0.969,0.183,0.093,10.176,23.641,-21.656,188.0,161.0
159107,-1.149,0.191,0.046,22.969,73.458,-51.985,185.0,162.0
159169,-1.146,0.150,0.014,5.908,110.802,-62.473,184.0,162.0
159230,-1.304,0.066,0.073,7.153,118.863,-88.473,184.0,162.0
159290,-1.088,-0.063,0.188,99.015,113.679,-103.405,185.0,110.0
159350,-0.791,0.141,0.116,175.053,117.183,-110.756,0.0,108.0
159410,-0.842,0.350,0.049,94.427,94.244,-118.489,0.0,106.0
159462,-1.089,0.134,0.190,30.573,69.160,-88.473,17.0,106.0
159511,-1.083,0.090,0.258,50.130,54.229,-45.870,16.0,108.0
159561,-1.101,0.236,0.261,52.550,35.489,-22.031,16.0,110.0
159626,-1.032,0.226,0.270,22.588,10.053,-6.725,0.0,0.0
159686,-1.404,0.183,0.178,29.611,-19.580,24.527,0.0,121.0
159740,-1.401,0.180,0.056,-0.412,-70.863,96.863,12.0,0.0
159793,-1.736,0.156,-0.077,-49.153,-111.183,144.725,17.0,141.0
159857,-1.470,0.077,-0.072,-44.443,-132.153,169.603,0.0,0.0
159923,-0.902,0.171,-0.067,-17.466,-112.931,182.664,0.0,0.0
159991,-0.658,0.328,-0.094,-81.069,-92.366,158.588,0.0,0.0
160056,-0.588,0.230,-0.039,-96.183,-71.481,108.069,190.0,0.0
160116,-0.669,0.245,0.040,-47.145,-20.115,51.664,188.0,133.0
160178,-0.906,0.335,0.024,-56.137,37.260,-13.153,0.0,134.0
160239,-1.227,0.048,0.089,-31.924,63.229,-76.344,0.0,134.0
160302,-1.068,-0.041,0.083,74.137,112.305,-97.550,0.0,135.0
160363,-1.417,0.139,-0.029,98.046,108.221,-125.275,0.0,135.0
160429,-1.301,-0.006,0.104,135.802,90.519,-133.718,0.0,0.0
160496,-0.949,0.312,0.006,159.679,95.466,-136.878,0.0,0.0
160562,-0.881,0.375,0.031,32.588,74.519,-143.908,0.0,0.0
160617,-0.991,0.155,0.149,14.893,72.542,-114.069,17.0,0.0
160681,-1.093,0.121,0.192,41.084,53.679,-65.176,0.0,0.0
160747,-1.103,0.264,0.185,44.191,27.779,-19.023,0.0,0.0
160813,-1.321,0.329,0.135,-3.664,-0.313,21.771,0.0,0.0
160878,-1.306,0.147,0.068,-51.153,-51.840,94.817,0.0,0.0
160932,-1.768,0.018,-0.089,-100.725,-114.076,178.618,16.0,0.0
160996,-1.672,0.000,-0.118,-80.527,-154.603,205.840,0.0,172.0
161064,-0.855,0.121,-0.014,-20.191,-134.779,190.886,0.0,0.0
161130,-0.641,0.357,-0.108,-40.710,-95.450,146.359,0.0,0.0
161196,-0.613,0.250,-0.022,-97.397,-70.565,90.954,0.0,0.0
161261,-0.788,0.163,0.051,-74.626,-36.069,48.229,0.0,0.0
161327,-0.976,0.188,0.088,-20.153,14.511,-7.992,0.0,0.0
161392,-1.118,0.191,0.078,35.191,52.710,-68.901,0.0,0.0
161458,-1.031,0.161,0.042,60.015,87.756,-105.886,0.0,0.0
161522,-1.369,0.242,0.014,48.191,93.985,-143.092,0.0,0.0
