Timestamp(ms),AccelX(g),AccelY(g),AccelZ(g),GyroX(deg/s),GyroY(deg/s),GyroZ(deg/s),DistanceLeft(cm),DistanceRight(cm)
32596,0.227,-0.825,-0.182,-8.198,63.641,-67.130,36.0,81.0
32641,-0.004,-0.745,0.091,10.885,89.260,-117.725,36.0,74.0
32685,-0.448,-0.701,0.225,28.031,59.031,-80.053,49.0,70.0
32728,-1.648,-0.951,-0.084,92.962,54.099,-93.977,45.0,58.0
32771,-2.000,-0.857,-0.270,111.466,116.237,-150.702,39.0,63.0
32821,-2.000,0.001,-0.012,104.931,123.893,-100.527,152.0,65.0
32865,-1.524,0.311,-0.026,74.267,53.023,-67.763,51.0,73.0
32919,-0.869,0.738,0.029,56.023,5.359,-48.328,149.0,97.0
32965,-0.539,1.272,0.167,6.420,-13.748,-11.649,51.0,98.0
33009,-0.763,1.185,0.168,-74.412,-29.534,73.061,52.0,64.0
33053,-1.298,0.697,-0.066,-149.458,-33.267,184.198,50.0,76.0
33099,-2.000,-0.033,-0.465,-183.702,-38.496,225.824,43.0,92.0
33150,-2.000,-0.877,-0.836,-151.321,-99.450,188.435,149.0,94.0
33196,-1.672,-0.759,-0.613,-99.237,-95.939,142.641,37.0,99.0
33242,-0.745,-0.603,-0.478,-79.458,-41.557,96.221,44.0,105.0
33291,-0.169,-0.581,-0.388,-55.626,0.336,25.542,45.0,110.0
33337,0.236,-0.605,-0.177,-37.313,20.611,-39.618,42.0,113.0
33383,0.553,-0.474,-0.132,-13.023,30.969,-71.855,39.0,109.0
33429,0.110,-0.409,-0.199,9.710,133.229,-75.733,43.0,105.0
33477,-1.836,-0.261,-0.026,66.168,133.160,-53.481,123.0,70.0
33526,-2.000,-0.179,-0.383,79.527,-5.069,-88.626,126.0,67.0
33574,-1.874,0.121,-0.099,15.832,-41.092,-7.901,126.0,67.0
33624,-0.976,0.090,0.047,-3.916,-23.214,-9.168,122.0,72.0
33670,-0.571,0.233,0.206,19.191,-53.435,-26.366,49.0,103.0
33720,-0.290,0.351,0.171,30.626,-70.740,-32.473,47.0,116.0
33766,-0.266,0.752,0.105,-9.565,-67.496,-26.328,49.0,104.0
33811,-0.600,0.944,-0.253,-100.626,-37.122,22.000,47.0,93.0
33857,-1.729,0.922,-0.803,-172.435,68.038,72.916,47.0,97.0
33907,-2.000,0.187,-0.999,-184.786,54.969,73.435,124.0,95.0
33955,-2.000,-0.286,-0.725,-163.282,-35.046,64.672,120.0,73.0
34004,-1.097,-0.371,-0.472,-146.870,-40.145,59.496,115.0,76.0
34054,-0.447,-0.423,-0.113,-128.817,-33.046,41.351,112.0,83.0
34112,0.192,-0.650,-0.046,-86.107,-67.977,2.573,109.0,0.0
34160,0.516,-0.540,-0.226,-8.809,-49.809,-24.099,39.0,157.0
34209,-0.195,-0.507,-0.137,43.084,-17.198,-67.466,43.0,154.0
34255,-1.975,-0.535,-0.223,76.893,29.786,-144.886,45.0,101.0
34306,-2.000,-0.219,-0.484,43.656,192.122,-95.450,117.0,100.0
34358,-2.000,0.117,0.307,-19.924,54.519,-14.626,51.0,0.0
34399,-1.055,0.227,-0.005,-13.427,-79.153,-32.519,107.0,0.0
34450,-0.575,0.298,-0.040,-5.061,-66.130,-22.160,104.0,135.0
34497,-0.301,0.537,0.131,-14.282,-48.603,-3.885,46.0,105.0
34546,-0.310,0.691,0.009,-66.015,-67.237,9.802,46.0,104.0
34592,-0.527,0.909,-0.561,-153.802,-59.748,45.214,45.0,102.0
34642,-1.434,0.827,-1.490,-227.031,84.725,74.183,116.0,101.0
34690,-2.000,-0.296,-1.433,-250.137,33.359,60.435,50.0,110.0
34735,-2.000,-0.678,-1.177,-250.137,-69.511,84.519,47.0,94.0
34781,-1.085,-0.673,-0.812,-228.641,-8.954,47.183,47.0,97.0
34827,-0.692,-0.561,-0.431,-185.649,29.145,33.137,45.0,101.0
34882,-0.290,-0.556,-0.152,-132.099,19.763,0.191,102.0,0.0
34923,0.159,-0.515,-0.053,-52.282,-34.786,-34.122,36.0,0.0
35016,-0.362,-0.356,-0.022,10.771,-33.779,-82.847,113.0,101.0
35062,-1.924,-0.306,-0.446,35.740,51.878,-113.221,49.0,95.0
35115,-2.000,0.145,-0.571,-20.366,138.641,-2.298,50.0,0.0
35167,-2.000,0.333,-0.010,-85.595,-16.198,27.618,51.0,0.0
35218,-1.319,0.355,-0.272,-98.053,-215.015,60.015,121.0,127.0
35265,-1.052,0.085,0.183,-67.489,-250.137,82.229,45.0,109.0
35309,0.065,0.012,-0.490,-22.618,-250.137,44.374,31.0,82.0
35355,1.517,0.212,-1.465,12.420,178.702,15.847,33.0,45.0
35405,-0.671,1.187,-2.000,-87.542,250.130,158.450,113.0,101.0
35456,-2.000,-0.355,0.684,-200.153,68.160,52.527,118.0,97.0
35504,-1.667,0.456,-0.965,-171.427,-250.137,-32.481,116.0,73.0
35548,-0.303,-0.176,-0.798,-70.000,-234.603,-88.382,36.0,71.0
35593,0.546,-0.071,-1.032,-6.351,250.130,-83.053,44.0,67.0
35641,-2.000,-0.518,-0.460,-3.779,250.130,-1.260,117.0,73.0
35690,-2.000,-0.212,0.431,-80.435,-250.137,-13.321,113.0,84.0
35734,0.531,-0.417,-0.774,-62.855,-250.137,17.939,44.0,56.0
35782,1.406,0.009,-0.738,38.725,250.130,47.985,45.0,83.0
35832,-2.000,-0.279,-0.511,96.855,250.130,54.573,116.0,88.0
35877,-2.000,0.168,0.311,55.282,-250.137,-63.160,46.0,80.0
35921,-1.349,0.211,-0.240,-1.977,-250.137,-49.260,33.0,73.0
35965,1.163,0.272,-0.655,-13.550,-124.931,-39.863,31.0,73.0
36009,0.635,0.751,-1.284,19.305,250.130,4.740,32.0,79.0
36059,-1.464,1.081,-1.050,-23.321,250.130,82.458,115.0,88.0
36109,-2.000,0.201,1.228,-122.740,-102.107,13.359,117.0,92.0
36158,-1.649,0.436,-0.881,-156.092,-250.137,58.214,38.0,87.0
36202,0.364,-0.146,-1.487,-102.886,-123.725,80.641,31.0,85.0
36248,-0.538,0.120,-1.817,-85.336,250.130,79.435,46.0,90.0
36300,-2.000,-0.849,0.982,-4.733,250.130,-26.863,148.0,99.0
36353,-1.975,0.009,0.075,-2.603,-250.137,-76.985,143.0,101.0
36398,0.254,0.065,-1.055,-64.206,-250.137,-120.282,33.0,100.0
36443,1.697,-0.232,-1.188,-61.885,142.176,-95.504,33.0,77.0
36493,-0.071,-0.241,-1.048,-44.122,250.130,29.832,144.0,74.0
36545,-2.000,-1.554,0.288,63.527,250.130,43.290,148.0,94.0
36598,-2.000,-0.568,-0.343,69.389,-250.137,8.733,147.0,71.0
36649,-0.600,0.081,-0.376,43.084,-250.137,-78.145,146.0,74.0
36694,0.728,0.461,-1.089,27.954,250.130,-30.382,33.0,74.0
36741,-0.780,0.899,-1.146,36.603,250.130,51.061,47.0,100.0
36798,-2.000,0.567,0.839,48.313,250.130,80.870,147.0,0.0
36842,-1.974,0.361,-0.032,-2.679,-250.137,-59.107,146.0,0.0
36886,-1.201,0.623,-1.729,-86.221,-250.137,-36.855,36.0,57.0
36929,0.727,0.341,-2.000,-128.565,69.641,141.397,33.0,59.0
36984,-1.979,-0.247,-2.000,-183.916,250.130,119.450,148.0,93.0
37037,-2.000,-0.823,0.543,-29.351,184.710,-26.244,150.0,96.0
37089,-2.000,0.143,-0.811,-10.824,-250.137,-127.931,142.0,100.0
37136,-0.034,-0.033,-1.646,-50.916,-250.137,-158.794,36.0,108.0
37192,2.000,0.342,-1.191,-34.260,126.069,-41.847,0.0,110.0
37238,-1.140,0.058,-0.900,-47.160,250.130,166.557,51.0,102.0
37291,-2.000,-0.591,1.990,-13.046,-42.832,78.214,142.0,99.0
37337,-2.000,-0.250,-0.759,26.733,-250.137,14.015,33.0,103.0
37388,0.009,0.100,-0.472,-13.298,-250.137,-4.649,32.0,136.0
37477,-0.434,0.330,-1.049,-88.802,250.130,38.053,31.0,108.0
37531,-1.907,0.109,-0.647,-37.298,250.130,29.221,141.0,128.0
37590,-2.000,0.349,1.232,-5.847,-199.634,-41.267,141.0,0.0
37627,-1.245,0.559,-0.959,-56.710,-250.137,-37.664,35.0,0.0
37673,0.544,0.421,-1.652,-120.756,-250.137,-1.290,33.0,112.0
37721,-0.087,0.750,-2.000,-182.130,250.130,129.595,36.0,105.0
37773,-2.000,-0.999,-1.317,-150.603,250.130,4.328,149.0,102.0
37825,-2.000,0.069,-0.634,-123.214,-250.137,-61.282,146.0,96.0
37871,-0.736,0.026,-1.242,-130.656,-250.137,-32.550,32.0,39.0
37917,0.865,-0.067,-1.154,-130.473,-222.908,3.466,31.0,97.0
37962,0.929,-0.005,-1.269,-107.328,250.130,26.298,32.0,102.0
38009,-1.614,-0.183,-0.828,-95.435,250.130,82.420,45.0,102.0
38062,-2.000,-0.163,0.723,-148.176,-234.511,59.099,141.0,102.0
38110,-1.250,-0.360,-0.885,-121.519,-250.137,80.420,30.0,141.0
38158,1.310,-0.343,-1.354,-75.214,108.870,47.412,30.0,134.0
38205,-1.751,-0.001,-1.393,-96.359,250.130,101.931,45.0,99.0
38260,-2.000,0.210,1.352,-81.053,-89.977,-47.244,143.0,102.0
38306,-1.401,0.312,-0.662,-68.634,-250.137,-39.008,33.0,106.0
38351,1.339,0.067,-1.539,-58.008,-207.771,-94.756,30.0,82.0
38398,0.396,0.395,-0.840,-44.145,250.130,25.092,30.0,118.0
38456,-1.611,0.376,-1.068,-92.511,250.130,93.870,141.0,200.0
38508,-2.000,0.296,1.036,-114.450,-250.137,10.252,134.0,99.0
38552,-1.123,0.555,-1.344,-148.282,-250.137,59.870,31.0,62.0
38596,0.667,0.189,-1.264,-149.779,-119.511,98.137,30.0,58.0
38642,-1.212,-0.034,-0.587,-147.893,250.130,88.931,30.0,56.0
38692,-2.000,-0.220,1.089,-95.427,31.344,-68.061,33.0,57.0
38734,-1.062,0.008,-0.164,-73.351,-229.298,-82.565,31.0,54.0
38777,0.549,-0.057,-0.797,-88.603,40.702,-59.473,32.0,56.0
38820,0.204,-0.464,-1.119,-77.000,250.130,-29.053,46.0,60.0
38872,-1.233,-0.534,-0.500,-52.901,250.130,-14.962,145.0,96.0
38922,-2.000,-0.059,1.043,-35.229,-250.137,-7.298,130.0,85.0
38964,-1.393,-0.218,-1.149,-20.412,-250.137,-1.695,37.0,56.0
39016,0.547,-0.365,-0.937,-13.275,-104.687,22.328,148.0,48.0
39064,-0.718,0.313,-1.266,-19.298,250.130,106.672,146.0,54.0
39112,-2.000,-0.247,1.118,14.137,250.130,35.985,79.0,101.0
39159,-2.000,0.036,0.438,41.931,-250.137,-11.099,70.0,101.0
39207,-0.174,0.479,-0.770,24.603,-250.137,-42.992,142.0,56.0
39250,0.975,0.485,-0.876,-9.550,76.626,-10.672,44.0,58.0
39293,-0.982,0.481,-0.173,-48.809,250.130,126.282,38.0,63.0
39341,-2.000,0.050,0.673,-94.977,-65.229,78.260,68.0,91.0
39383,-1.124,0.074,-0.541,-86.267,-202.756,-29.244,32.0,55.0
39429,-1.872,-0.109,-0.325,-94.084,-19.221,50.481,31.0,60.0
39472,-1.703,-0.208,0.190,-92.405,-9.511,73.489,30.0,66.0
39515,-0.499,-0.302,0.220,-62.847,-45.588,22.679,30.0,73.0
39558,0.760,-0.235,-0.472,-32.160,188.160,-52.901,30.0,72.0
39608,0.098,-0.329,-0.604,13.214,250.130,-91.534,139.0,78.0
39654,-2.000,-0.482,0.994,73.191,146.046,-36.290,60.0,99.0
39700,-2.000,-0.247,-0.142,28.244,-250.137,8.809,73.0,68.0
39743,-1.219,-0.465,-1.169,40.519,-250.137,24.282,31.0,65.0
39797,1.014,-0.282,-1.084,41.901,24.382,-17.214,174.0,71.0
39886,-2.000,-0.338,1.149,97.656,250.130,7.160,60.0,99.0
39937,-2.000,0.046,0.428,84.832,-250.137,-61.863,117.0,98.0
39979,-0.255,0.552,-1.077,18.092,-250.137,-98.290,35.0,43.0
40027,1.624,0.588,-1.409,-12.412,161.206,-68.916,144.0,47.0
40079,-1.078,0.680,-0.810,-101.206,250.130,129.863,146.0,95.0
40128,-2.000,-0.445,0.671,-100.321,-143.412,39.649,112.0,95.0
40174,-1.874,0.153,-1.130,-81.191,-250.137,44.481,42.0,98.0
40216,0.090,-0.311,-0.912,-62.061,-160.130,20.420,30.0,58.0
40264,0.094,0.056,-0.841,-45.473,250.130,22.901,32.0,99.0
40313,-1.561,-0.301,-0.117,-9.359,250.130,-31.916,123.0,72.0
40361,-2.000,-0.109,1.160,41.718,-250.137,-125.504,122.0,71.0
40406,-0.670,0.039,-1.158,-13.145,-250.137,-66.977,38.0,79.0
40450,1.639,-0.276,-1.833,4.107,-35.748,-16.435,35.0,63.0
40499,0.014,0.211,-1.015,-3.588,250.130,99.435,121.0,98.0
40548,-2.000,-0.920,1.199,52.718,191.069,30.740,123.0,67.0
40594,-2.000,-0.516,-0.521,106.473,-250.137,-15.809,51.0,96.0
40643,0.202,0.151,-1.160,61.076,3.260,-17.947,47.0,98.0
40693,-0.640,0.514,-0.904,14.023,250.130,44.710,121.0,111.0
40745,-2.000,0.240,0.935,68.092,181.031,9.878,59.0,0.0
40797,-1.555,0.373,0.323,57.023,-250.137,-76.908,121.0,103.0
40841,0.058,0.786,-1.401,-32.580,-250.137,-75.611,36.0,87.0
40886,0.213,0.575,-1.753,-119.802,250.130,123.824,36.0,83.0
40942,-2.000,0.381,-2.000,-207.260,250.130,161.366,123.0,0.0
40984,-2.000,-0.275,-0.151,-115.527,-123.137,-35.634,124.0,0.0
41034,-2.000,0.184,-0.414,-79.389,-250.137,-127.359,121.0,99.0
41078,-0.490,0.037,-1.297,-129.473,-250.137,-138.893,42.0,103.0
41124,0.938,-0.182,-1.140,-142.954,177.771,-8.725,34.0,104.0
41171,-0.374,-0.175,-0.957,-135.466,250.130,75.687,51.0,103.0
41221,-2.000,-0.520,1.325,-65.847,155.740,48.863,109.0,102.0
41271,-1.766,-0.267,-0.190,-68.244,-250.137,6.206,106.0,100.0
41316,0.029,-0.500,-1.707,-40.122,-226.649,4.374,33.0,101.0
41366,-0.491,0.181,-1.792,-58.107,250.130,113.176,121.0,97.0
41426,-2.000,-0.021,-0.510,-43.985,250.130,37.985,0.0,0.0
41472,-2.000,0.257,0.588,-0.405,-250.137,-63.229,104.0,0.0
41519,-1.285,0.563,-1.084,-19.702,-250.137,-112.176,44.0,112.0
41565,0.995,0.364,-1.366,-61.542,-250.137,-86.099,31.0,118.0
41611,0.196,0.591,-1.023,-117.557,250.130,100.107,36.0,109.0
41661,-2.000,0.055,0.134,-172.122,250.130,114.733,103.0,106.0
41707,-2.000,0.517,-0.532,-202.237,-250.137,54.214,45.0,100.0
41761,0.037,0.208,-1.877,-167.351,-250.137,39.878,196.0,103.0
41807,-0.614,-0.323,-1.953,-140.672,250.130,16.534,44.0,98.0
41857,-2.000,-0.650,0.598,-112.107,250.130,-46.595,103.0,25.0
41906,-2.000,0.009,0.419,-108.840,-250.137,-53.237,101.0,103.0
41952,-0.327,0.184,-0.921,-133.130,-250.137,-23.473,34.0,106.0
41998,1.404,-0.120,-1.459,-108.435,-103.313,11.015,29.0,124.0
42044,-0.413,0.038,-0.414,-86.130,250.130,84.435,38.0,109.0
42090,-2.000,-0.677,1.701,-52.710,-142.542,29.412,36.0,99.0
42135,-1.911,-0.144,-0.610,-22.198,-250.137,-1.252,30.0,101.0
42181,0.669,-0.046,-0.792,-37.794,-118.710,-21.557,27.0,105.0
42229,-0.318,0.195,-0.886,-39.878,250.130,20.061,30.0,100.0
42328,-2.000,0.384,1.600,-22.466,49.237,-38.198,109.0,0.0
42370,-1.440,0.587,-0.588,-81.886,-250.137,-41.260,108.0,0.0
42421,0.078,0.499,-1.323,-114.985,-250.137,-11.901,120.0,99.0
42471,0.953,0.274,-1.313,-138.275,170.573,51.359,122.0,102.0
42517,-2.000,0.195,-1.892,-184.023,250.130,138.634,43.0,93.0
42567,-2.000,-0.363,0.938,-124.916,4.710,-26.511,123.0,91.0
42613,-1.755,0.118,-0.654,-74.000,-250.137,-55.397,40.0,91.0
42662,0.682,-0.220,-1.115,-90.145,-139.473,-110.244,122.0,28.0
42704,0.348,-0.191,-1.119,-57.015,250.130,-61.206,31.0,29.0
42755,-1.622,-0.505,-0.781,-9.634,250.130,6.802,121.0,96.0
42803,-2.000,-0.124,0.740,2.244,-240.221,-11.069,122.0,64.0
42847,-1.087,-0.355,-0.997,-5.336,-250.137,-2.458,40.0,63.0
42889,0.827,-0.399,-1.562,-6.748,-79.389,-56.115,44.0,28.0
42935,-0.165,0.083,-1.499,-18.336,250.130,77.237,46.0,95.0
42993,-2.000,-0.864,0.753,38.985,250.130,31.435,152.0,0.0
43036,-2.000,0.012,-0.166,47.870,-250.137,-22.145,120.0,0.0
43081,0.364,0.228,-1.069,22.603,-250.137,-82.496,33.0,44.0
43124,1.319,0.502,-1.188,1.939,250.130,-39.740,33.0,44.0
43174,-0.517,0.531,-1.040,-47.191,250.130,82.137,126.0,96.0
43227,-2.000,-0.249,2.000,-34.351,83.733,22.374,153.0,93.0
43271,-2.000,0.187,-1.553,-86.611,-250.137,28.290,38.0,68.0
43316,-0.060,-0.372,-1.676,-92.069,-250.137,61.489,43.0,73.0
43361,-0.284,-0.154,-1.486,-84.206,250.130,102.695,37.0,89.0
43412,-2.000,-0.741,-0.467,-39.160,250.130,17.122,119.0,95.0
43465,-2.000,-0.070,0.761,30.840,-250.137,-91.328,117.0,86.0
43510,-0.206,0.208,-1.287,-35.824,-250.137,-131.008,37.0,93.0
43556,1.766,-0.171,-1.677,-40.611,118.099,-71.710,44.0,91.0
43608,-1.129,-0.303,-0.307,-17.824,250.130,134.069,146.0,86.0
43659,-2.000,-1.128,0.914,71.038,-190.573,15.618,149.0,84.0
43705,-0.601,-0.836,-0.611,103.939,-209.740,-123.275,50.0,87.0
43757,-0.083,0.125,-1.050,72.695,250.130,-11.947,152.0,82.0
43805,-2.000,-0.158,-0.351,33.565,250.130,41.275,153.0,15.0
43856,-1.734,0.269,0.122,29.847,-97.786,24.046,152.0,84.0
43912,0.084,0.619,-0.809,4.328,1.084,11.710,149.0,95.0
43964,-2.000,0.285,1.123,-43.733,-189.977,31.893,149.0,89.0
44008,-1.156,0.075,-0.455,-82.084,-250.137,55.313,36.0,66.0
44058,0.353,0.299,-0.968,-82.252,-250.130,26.679,148.0,69.0
44102,-1.857,-0.458,0.337,-98.672,74.237,21.809,34.0,67.0
44153,-1.685,-0.573,0.259,-112.107,-78.802,-58.336,149.0,69.0
44197,-0.058,-0.440,-0.621,-101.824,188.931,-46.458,37.0,70.0
44242,-1.942,-0.680,0.725,-82.382,139.656,10.038,41.0,74.0
44291,-0.260,-0.313,-0.011,-50.130,-109.687,-43.626,39.0,74.0
44342,1.042,-0.154,-0.759,28.733,151.145,5.641,143.0,79.0
44394,-1.331,-0.137,0.648,7.969,197.611,69.603,146.0,96.0
44438,-2.000,-0.931,-0.436,1.191,-250.137,-38.611,39.0,65.0
44482,-0.363,-0.930,-1.050,57.015,-99.672,-34.389,37.0,60.0
44526,-1.175,-0.070,-0.364,42.664,250.130,90.031,37.0,68.0
44578,-2.000,-0.232,0.930,30.450,132.618,25.695,147.0,96.0
44623,-0.918,-0.101,0.362,84.786,-189.618,-24.672,46.0,76.0
44672,0.568,0.531,-0.482,93.817,3.565,-67.649,48.0,67.0
44762,-1.210,0.257,0.613,-58.695,-250.137,-65.634,50.0,98.0
44816,-0.882,-0.083,-0.240,-54.779,-250.137,-104.511,0.0,72.0
44881,-1.035,-0.113,0.126,-80.580,-167.435,-81.603,0.0,181.0
44939,-1.052,-1.668,0.377,-210.664,-137.076,-164.168,0.0,146.0
44997,0.607,-1.897,-0.789,-134.023,191.756,-228.427,188.0,176.0
45054,-1.513,-1.057,0.458,-22.221,250.130,-59.489,185.0,152.0
45112,-1.592,-0.255,0.753,-37.000,-250.137,23.252,176.0,187.0
45165,1.376,-0.447,-1.313,27.031,-250.137,-54.038,166.0,102.0
45221,0.249,-0.646,0.008,10.542,202.313,40.282,159.0,123.0
45274,-1.200,-2.000,0.967,-6.656,-71.748,80.374,153.0,110.0
45326,0.534,-1.811,-0.461,29.229,-74.130,30.954,149.0,99.0
45377,-0.919,-0.830,0.873,-48.153,87.580,57.718,141.0,100.0
45425,-1.132,-0.861,0.593,-46.718,-250.137,30.969,137.0,58.0
45478,1.521,-0.520,-0.702,-26.275,-173.229,-21.076,0.0,68.0
45534,-0.554,0.172,0.549,-59.626,250.130,35.710,0.0,65.0
45581,-2.000,-0.559,1.107,-23.366,-250.137,16.214,118.0,35.0
45636,-0.396,-1.250,-0.598,-16.641,-250.137,-10.794,180.0,86.0
45689,-1.357,-1.625,0.567,-2.504,-250.137,28.618,0.0,78.0
45743,-0.110,-1.944,-0.748,13.160,-250.137,42.458,0.0,79.0
45797,1.722,-1.035,-1.507,25.504,250.130,36.725,0.0,85.0
45850,-1.865,-0.780,0.948,-54.023,250.130,125.160,0.0,88.0
45904,-0.916,-0.898,0.107,-8.061,-250.137,28.573,0.0,96.0
45959,0.969,-0.306,-0.780,25.198,-188.366,-36.115,0.0,88.0
46013,-0.322,-0.759,0.442,30.519,-74.122,40.366,0.0,94.0
46068,0.463,-1.909,-0.401,45.023,-48.573,9.427,0.0,113.0
46128,-0.612,-0.800,0.602,-34.176,246.076,105.817,0.0,127.0
46184,-0.937,-1.401,0.591,-26.496,-174.466,80.901,0.0,127.0
46229,0.793,-0.649,-0.350,-34.099,14.008,21.878,30.0,109.0
46284,-0.408,-0.621,0.134,-66.443,187.687,59.145,0.0,109.0
46338,-1.310,-0.286,0.853,-52.702,-213.893,23.176,0.0,78.0
46382,0.524,-0.234,-0.469,-42.267,-173.229,26.374,30.0,77.0
46435,-0.015,-0.207,0.044,-61.511,78.565,94.573,0.0,81.0
46491,-1.918,-1.836,0.759,-64.344,-230.840,44.374,0.0,122.0
46544,0.586,-2.000,-1.084,-6.870,-239.786,-82.725,0.0,27.0
46603,0.437,-0.826,-0.746,-40.412,250.130,-35.748,0.0,92.0
46657,-2.000,-1.274,1.115,-29.664,36.618,11.374,0.0,101.0
46708,-0.379,-0.444,-0.084,-8.618,-250.137,-2.809,0.0,28.0
46772,1.082,-0.242,-0.792,10.672,-45.328,5.511,0.0,0.0
46819,-1.361,-1.003,0.610,-24.435,137.214,64.290,0.0,0.0
46855,-1.699,-1.768,0.391,16.229,-250.137,47.458,0.0,19.0
46905,-0.185,-1.879,-0.954,37.573,-250.137,24.817,0.0,21.0
46959,1.899,-1.165,-1.074,36.626,169.557,44.626,0.0,24.0
47013,-0.943,-0.753,-0.360,3.260,250.130,84.481,0.0,41.0
47069,-2.000,-0.393,1.737,-11.405,-45.939,-22.496,0.0,35.0
47109,-0.464,-0.219,-0.152,-8.687,-250.137,-58.160,28.0,22.0
47150,1.200,-0.021,-0.666,-3.168,-143.275,-44.580,30.0,19.0
47190,0.465,-0.141,-0.306,-17.626,244.748,37.496,30.0,28.0
47241,-1.830,-1.643,0.445,-15.511,250.130,62.031,0.0,30.0
47296,-1.947,-1.723,0.479,-3.450,-250.137,-6.115,0.0,44.0
47348,0.564,-1.502,-0.946,-7.298,-250.137,-34.695,0.0,61.0
47446,-0.833,-0.745,-0.049,-40.176,250.130,32.885,0.0,34.0
47500,-1.562,-0.350,1.281,18.313,-158.137,-43.282,0.0,25.0
47551,0.391,-0.348,-0.592,53.618,-250.137,-57.779,0.0,26.0
47605,0.936,-0.324,-0.598,63.290,154.550,16.397,0.0,25.0
47656,-1.258,-1.903,0.971,-8.214,147.061,86.351,0.0,36.0
47711,-0.139,-1.964,-0.035,76.763,11.168,0.901,0.0,25.0
47762,0.270,-0.798,-0.693,30.489,250.130,-11.305,0.0,32.0
47816,-2.000,-0.709,1.546,-34.107,193.191,-26.061,0.0,38.0
47867,-1.033,-0.399,0.035,18.992,-250.137,-48.374,0.0,31.0
47921,1.028,0.049,-0.620,-12.924,-116.031,-37.802,0.0,21.0
47976,-1.099,-0.164,0.659,-40.916,76.664,61.076,0.0,25.0
48017,-1.029,-1.661,0.068,6.076,-250.137,3.038,36.0,18.0
48067,0.749,-1.322,-0.609,21.794,11.031,-50.527,0.0,19.0
48124,-0.915,-1.486,0.030,-60.947,250.130,53.183,0.0,85.0
48176,-1.319,-1.264,0.634,-55.160,-140.603,10.008,0.0,36.0
48231,0.729,-0.993,-0.561,-28.786,-127.038,-80.519,0.0,36.0
48282,0.139,-0.183,-0.165,16.137,250.130,-82.664,0.0,39.0
48337,-2.000,-0.295,1.446,27.840,-135.870,-59.359,0.0,47.0
48393,-0.237,-0.783,-0.651,51.817,-250.137,1.389,0.0,38.0
48448,1.670,-1.792,-1.000,73.092,100.229,14.053,0.0,38.0
48500,-0.566,-1.384,-0.405,20.252,250.130,148.672,0.0,51.0
48557,-2.000,-1.124,1.459,48.130,158.061,25.931,0.0,60.0
48609,-0.695,-0.419,0.162,16.389,-250.137,-57.641,0.0,52.0
48664,0.815,-0.073,-0.531,-27.053,53.649,-53.992,0.0,55.0
48717,-0.571,-0.023,-0.105,-40.733,250.130,50.718,0.0,63.0
48774,-2.000,-0.369,0.975,17.817,-61.489,24.847,0.0,63.0
48831,-1.645,-0.743,-0.720,-70.725,-250.137,42.015,0.0,75.0
48884,0.359,-2.000,-1.378,-94.405,-202.008,-8.107,0.0,74.0
48940,-0.111,-1.907,-0.754,-50.870,250.130,5.344,0.0,93.0
48995,-2.000,-1.058,1.036,-27.870,136.130,-28.031,0.0,100.0
49050,-0.813,-0.392,0.146,-41.008,-250.137,-19.023,0.0,112.0
49105,1.106,-0.672,-0.921,6.588,-107.160,-48.893,0.0,88.0
49161,0.228,0.074,-0.192,32.000,250.130,59.588,0.0,112.0
49216,-2.000,-1.624,1.253,-23.756,-87.496,70.924,0.0,102.0
49270,-0.876,-1.926,-0.531,20.450,-250.137,19.580,0.0,79.0
49329,1.630,-1.204,-1.367,5.000,70.916,31.573,0.0,95.0
49385,-1.127,-0.857,-0.523,-29.084,250.130,79.328,0.0,130.0
49440,-2.000,-0.383,1.415,15.290,-144.191,-38.779,0.0,101.0
49497,-0.535,-0.076,-0.347,-22.557,-250.137,-43.489,0.0,102.0
49552,0.561,-0.085,-0.625,-43.191,-76.374,9.702,0.0,110.0
49604,-0.892,-0.578,-0.052,-35.351,128.206,74.634,119.0,120.0
49654,-2.000,-1.621,0.378,-86.374,-250.137,28.061,109.0,112.0
49716,-0.892,-1.857,-0.840,-80.244,-250.137,9.321,0.0,0.0
49767,1.012,-1.094,-1.153,-45.313,151.664,47.031,0.0,0.0
49812,-0.485,-0.742,-0.487,-98.305,250.130,70.939,0.0,177.0
49871,-2.000,-1.014,1.105,-47.473,81.282,11.069,0.0,173.0
49928,-0.654,-0.127,-0.240,-16.397,-250.137,-38.260,136.0,172.0
49981,0.903,-0.539,-1.176,-9.267,-220.527,12.893,124.0,146.0
50033,-0.355,-1.145,-0.096,-16.687,122.023,110.588,117.0,127.0
50091,-1.778,-1.670,0.707,2.496,-250.137,51.641,0.0,135.0
50192,0.598,-1.048,-0.725,-25.817,250.130,-24.267,0.0,143.0
50243,-1.923,-0.982,0.708,-30.550,250.130,25.176,84.0,137.0
50298,-1.235,-0.252,0.374,-35.824,-250.137,-32.756,79.0,166.0
50352,-0.154,-0.001,-0.356,-49.229,-250.137,-8.099,0.0,69.0
50405,-0.192,-0.415,-0.284,-50.237,-216.771,18.672,0.0,60.0
50461,0.650,-1.217,-1.183,-27.092,217.382,29.046,0.0,62.0
50515,-2.000,-2.000,0.540,-129.099,250.130,80.206,0.0,81.0
50570,-1.637,-1.308,-0.734,-93.649,-250.137,-11.176,0.0,83.0
50626,1.745,-0.914,-1.477,-38.366,-178.260,-19.840,0.0,107.0
50682,-0.386,-0.275,-0.081,-58.481,250.130,43.099,0.0,102.0
50742,-1.839,-0.706,1.212,-51.679,-250.137,4.374,0.0,120.0
50803,0.133,-0.907,-0.850,43.145,-250.137,-9.397,0.0,0.0
50850,0.056,-0.721,0.210,3.763,-35.282,-14.145,0.0,0.0
50900,-0.446,-2.000,0.213,4.267,-20.000,-28.893,0.0,19.0
50952,1.022,-1.113,-0.910,58.618,250.130,-29.664,0.0,21.0
51008,-1.812,-0.289,-0.633,-32.107,250.130,100.802,0.0,58.0
51069,-2.000,-0.457,0.756,-20.244,-250.137,-8.702,0.0,0.0
51118,0.743,-0.317,-1.229,-2.290,-250.137,-27.244,0.0,0.0
51169,0.708,0.094,-0.701,4.786,235.595,15.992,0.0,29.0
51223,-2.000,-0.646,1.430,-75.519,88.542,83.908,0.0,30.0
51279,-2.000,-1.590,-0.279,-52.641,-250.137,28.214,0.0,54.0
51333,1.417,-2.000,-1.551,-6.198,-199.389,-48.397,0.0,50.0
51386,0.478,-0.940,-1.331,-3.458,250.130,43.565,0.0,62.0
51440,-2.000,-1.052,-0.643,-11.916,250.130,49.863,0.0,73.0
51487,-2.000,-0.093,1.091,-17.748,-250.137,-60.084,86.0,75.0
51542,-0.375,-0.009,-1.056,-31.855,-250.137,-25.840,0.0,76.0
51597,1.865,-0.413,-1.300,30.076,-0.824,-46.076,0.0,90.0
51655,-0.780,-1.200,-0.301,-4.420,250.130,63.336,0.0,93.0
51710,-2.000,-2.000,1.289,12.229,-12.893,109.252,0.0,104.0
51770,-0.697,-0.867,0.295,-7.183,-250.137,-7.702,0.0,62.0
51826,1.561,-0.371,-1.141,40.618,161.198,-98.718,0.0,67.0
51883,-1.109,0.276,-0.613,-13.763,250.130,30.977,0.0,140.0
51937,-2.000,-0.379,1.569,-15.473,-250.137,-4.702,0.0,83.0
51990,-0.458,-0.141,-1.045,6.565,-250.137,-38.511,0.0,81.0
52043,0.803,-1.002,-1.320,2.939,228.855,31.183,0.0,90.0
52099,-2.000,-2.000,0.621,-90.130,250.130,96.260,0.0,106.0
52157,-1.206,-1.828,-0.004,-9.969,-250.137,19.489,0.0,127.0
52209,1.872,-0.097,-1.119,-6.931,20.252,-73.473,0.0,53.0
52261,-0.225,-0.353,-0.472,-43.420,250.130,-35.321,0.0,62.0
52315,-2.000,0.070,1.982,-30.168,-141.244,6.115,0.0,71.0
52367,-1.027,-0.634,-0.854,-3.153,-250.137,36.565,0.0,69.0
52419,1.504,-1.503,-1.436,16.328,-250.137,-20.061,0.0,56.0
52471,0.702,-1.479,-0.761,-45.649,250.130,14.137,0.0,47.0
52524,-2.000,-1.687,-0.616,79.198,250.130,112.305,0.0,62.0
52575,-2.000,-0.171,1.413,3.351,-250.137,-8.275,0.0,50.0
52630,-0.399,-0.503,-0.431,-30.023,-250.137,-38.389,200.0,61.0
52687,1.734,0.139,-0.857,12.176,102.183,-32.405,197.0,136.0
52747,-0.682,0.053,-0.749,-7.359,250.130,68.397,0.0,186.0
52802,-2.000,-0.117,1.486,-59.565,-147.351,18.809,0.0,117.0
52852,-2.000,-1.153,-1.669,-108.733,-250.137,-4.718,36.0,184.0
52950,0.877,-1.086,-1.300,-53.664,250.130,99.794,164.0,123.0
53010,-2.000,-1.389,-0.587,-19.718,250.130,72.321,0.0,0.0
53068,-1.644,0.026,0.440,-32.527,-250.137,-62.069,171.0,0.0
53123,1.007,-0.215,-1.589,-50.053,-250.137,-21.931,159.0,62.0
53174,0.714,-0.390,-0.651,-41.817,217.565,63.679,0.0,44.0
53224,-2.000,-1.965,0.334,-15.962,249.313,128.221,120.0,106.0
53284,-2.000,-1.747,0.124,-5.489,-250.137,63.977,0.0,0.0
53339,0.149,-1.073,-0.842,-30.450,-250.137,71.267,0.0,84.0
53390,0.986,-0.513,-1.025,-12.511,250.130,51.855,0.0,37.0
53445,-1.043,0.006,-0.709,-60.832,250.130,88.542,0.0,42.0
53496,-2.000,-0.044,1.582,-90.611,-193.092,-73.206,0.0,43.0
53551,-1.181,0.327,-0.983,-110.008,-250.137,-33.519,0.0,99.0
53597,1.438,-0.611,-1.907,-79.931,-67.000,-8.985,20.0,74.0
53652,-0.946,-0.852,-2.000,-105.573,250.130,93.099,0.0,97.0
53705,-2.000,-1.018,0.848,-61.573,-250.137,-169.611,0.0,72.0
53758,-1.341,-0.899,-1.902,-99.298,-250.137,-18.137,0.0,77.0
53813,2.000,-0.560,-1.861,-32.053,-40.588,11.908,0.0,82.0
53867,-0.196,-0.124,-1.011,-77.427,250.130,86.412,0.0,94.0
53923,-2.000,-0.854,2.000,-56.305,-33.870,-17.168,0.0,130.0
53977,-1.665,-1.174,-1.487,-4.527,-250.137,42.389,0.0,71.0
54023,2.000,-1.388,-1.932,26.733,-47.802,0.260,30.0,73.0
54079,-0.196,-1.080,-1.281,-7.916,250.130,76.092,0.0,113.0
54137,-2.000,-0.853,2.000,3.878,-79.718,-52.550,0.0,174.0
54179,-0.613,-0.512,-1.045,-46.267,-250.137,-61.580,30.0,49.0
54223,1.988,-0.333,-1.503,-44.305,-53.611,-32.412,25.0,70.0
54278,-0.114,-0.085,-0.387,-31.863,250.130,51.725,0.0,103.0
54335,-2.000,-0.237,1.076,-6.588,98.450,0.237,0.0,147.0
54396,-1.668,-0.522,0.088,-74.053,-250.137,37.893,0.0,0.0
54443,0.462,-1.721,-0.963,-81.817,-205.313,60.206,0.0,0.0
54501,0.186,-1.643,-1.161,-42.588,250.130,86.901,0.0,38.0
54555,-2.000,-1.601,0.460,67.924,250.130,4.435,0.0,92.0
54609,-1.481,-0.135,0.535,0.603,-250.137,-81.168,0.0,90.0
54661,0.268,-0.114,-0.943,-18.679,-250.137,-59.519,0.0,32.0
54716,1.674,-0.100,-1.085,22.748,157.420,22.420,0.0,40.0
54769,-0.993,-1.124,-0.434,21.847,250.130,109.198,0.0,65.0
54824,-2.000,-1.536,1.489,35.427,-250.137,4.878,0.0,43.0
54867,-0.636,-1.506,-0.737,-3.252,-250.137,-21.435,35.0,55.0
54912,2.000,-0.692,-1.143,-6.786,65.252,-49.466,31.0,28.0
54963,0.060,-0.218,-0.956,-12.160,250.130,52.542,0.0,48.0
55020,-2.000,-0.186,0.508,40.145,250.130,21.237,0.0,71.0
55073,-1.930,0.149,0.570,-14.893,-250.137,-22.260,0.0,72.0
55115,-0.868,-0.564,-0.532,-24.092,-250.137,19.885,31.0,34.0
55166,1.245,-1.528,-1.003,-25.756,-112.893,-7.122,0.0,37.0
55222,-0.349,-1.632,-0.766,1.916,250.130,35.992,0.0,43.0
55274,-2.000,-1.623,1.325,54.420,250.130,-0.588,0.0,52.0
55329,-1.324,-0.583,-0.272,-38.672,-250.137,-42.588,0.0,41.0
55384,1.263,-0.560,-1.206,-23.779,-215.565,-69.176,0.0,37.0
55440,0.693,-0.040,-0.573,22.977,250.130,0.450,0.0,44.0
55494,-1.290,-0.640,0.199,38.313,250.130,67.176,0.0,94.0
55546,-2.000,-1.792,0.749,-31.687,-250.137,40.924,0.0,48.0
55632,2.000,-0.814,-0.918,55.382,53.466,-66.084,34.0,50.0
55685,0.199,-0.323,-0.970,36.962,250.130,7.817,0.0,55.0
55744,-2.000,0.099,-0.324,6.313,250.130,10.046,0.0,107.0
55797,-2.000,-0.157,0.291,-50.496,-250.137,-12.328,0.0,77.0
55851,-0.860,-0.413,-1.460,-39.008,-250.137,27.977,0.0,52.0
55904,1.951,-0.858,-1.220,45.840,-5.031,29.053,0.0,54.0
55958,-1.568,-1.623,-1.211,-51.153,250.130,24.763,0.0,76.0
56011,-2.000,-1.355,1.689,-48.878,-250.137,-85.023,0.0,77.0
56067,-0.098,-0.641,-1.114,-57.832,-250.137,-58.389,0.0,91.0
56122,1.527,0.052,-1.097,-60.473,196.435,-22.221,0.0,94.0
56177,-1.572,-0.223,1.107,18.313,204.992,-14.420,0.0,103.0
56231,-1.164,-0.566,-0.076,20.069,-250.137,-4.542,0.0,91.0
56285,1.809,-1.541,-1.433,70.359,-97.275,0.748,0.0,70.0
56342,-1.295,-2.000,0.678,-29.466,178.771,86.076,0.0,76.0
56396,-0.029,-1.376,0.081,17.160,-43.702,-37.443,0.0,81.0
56450,-0.047,-0.314,0.008,-14.328,250.130,10.824,0.0,74.0
56506,-1.854,-0.633,1.040,-11.122,-29.687,4.015,0.0,107.0
56558,0.457,-0.302,-0.595,19.573,-106.031,-64.427,171.0,76.0
56612,-0.619,0.419,-0.176,-38.969,250.130,43.099,0.0,82.0
56664,-2.000,-1.132,0.603,-97.779,-197.763,64.130,155.0,85.0
56716,-0.410,-2.000,-1.161,21.046,-250.137,-49.481,143.0,96.0
56768,0.249,-0.868,-1.117,-60.290,250.130,5.908,135.0,105.0
56823,-2.000,-1.721,1.377,-136.267,-230.710,-22.542,126.0,116.0
56876,0.063,-0.755,-1.166,-11.611,-250.137,-4.832,115.0,137.0
56934,1.134,0.314,-1.063,-0.130,142.130,22.649,176.0,172.0
56985,-2.000,-0.781,1.113,-82.901,-18.626,42.466,94.0,132.0
57047,-0.215,-1.500,-0.616,54.137,-250.137,9.954,0.0,0.0
57107,0.081,-0.812,-0.095,-49.321,162.031,99.191,0.0,188.0
57164,-1.455,-2.000,0.556,-17.046,-177.069,63.382,0.0,134.0
57224,1.143,-0.837,-0.812,41.038,42.840,-25.870,0.0,167.0
57283,-0.967,-0.485,-0.438,-58.031,250.130,20.916,0.0,116.0
57337,-2.000,-0.054,1.051,-96.214,-250.137,-77.489,125.0,163.0
57395,-0.070,-0.702,-1.741,-1.771,-250.137,-14.565,0.0,124.0
57452,0.961,-0.077,-1.061,-1.221,223.847,17.832,0.0,130.0
57503,-2.000,-1.508,0.278,-152.389,250.130,52.214,86.0,143.0
57562,-1.456,-2.000,-0.606,-27.481,-250.137,-8.565,0.0,146.0
57621,0.523,-0.400,-0.919,-65.221,-68.427,-14.611,0.0,167.0
57674,-1.558,-1.185,0.597,-164.344,-176.527,1.084,0.0,59.0
57731,0.326,-0.822,-0.772,7.565,-250.137,-34.443,0.0,61.0
57785,1.118,0.113,-0.824,23.252,176.053,12.885,0.0,68.0
57838,-1.161,-0.657,0.140,-83.198,250.130,55.992,0.0,77.0
57893,-1.782,-2.000,0.557,-29.550,-250.137,59.107,0.0,89.0
57949,0.762,-1.729,-0.715,83.687,-226.427,71.069,0.0,100.0
58005,-0.021,-0.789,-0.573,28.618,250.130,30.947,0.0,105.0
58061,-2.000,-0.402,1.328,-35.985,-19.771,-48.939,0.0,114.0
58122,-1.116,-0.169,-0.346,-43.855,-250.137,-64.519,0.0,0.0
58170,1.660,-0.186,-1.366,22.351,-115.695,-57.053,0.0,0.0
58228,-0.139,-0.289,-0.874,-18.840,250.130,37.969,0.0,93.0
58279,-2.000,-2.000,1.883,-121.130,-141.031,-17.931,0.0,26.0
58335,-1.504,-1.966,-1.333,-43.092,-250.137,-16.473,0.0,28.0
58430,0.065,-0.524,-1.045,-22.748,250.130,-5.885,0.0,41.0
58486,-2.000,-0.487,1.493,-70.183,219.061,-30.176,0.0,42.0
58539,-1.034,-0.630,0.201,3.069,-250.137,-15.466,0.0,50.0
58592,1.980,-0.839,-1.347,128.000,-220.458,-57.573,0.0,60.0
58646,0.385,-0.822,-0.540,47.763,250.130,57.382,0.0,70.0
58703,-2.000,-1.933,1.400,-6.695,184.687,77.046,0.0,66.0
58762,-0.951,-1.395,0.080,31.580,-250.137,14.947,0.0,63.0
58819,1.564,-0.392,-0.675,31.878,-48.191,-58.290,0.0,71.0
58873,-0.049,-0.009,-1.184,3.969,250.130,8.137,0.0,94.0
58919,-2.000,0.428,1.580,-49.939,250.130,-7.733,66.0,93.0
58974,-2.000,-0.214,0.346,-66.802,-250.137,0.282,0.0,97.0
59026,-1.148,-1.067,-0.947,-50.962,-250.137,35.198,0.0,61.0
59078,1.572,-1.788,-0.903,-0.893,-32.321,-25.382,0.0,66.0
59134,-0.363,-1.750,-0.627,5.542,250.130,79.397,0.0,120.0
59190,-2.000,-0.819,1.523,-3.435,177.183,-16.382,0.0,78.0
59244,-1.497,-0.237,0.042,-102.901,-250.137,-50.740,0.0,85.0
59299,0.050,-1.012,-1.332,-24.084,-250.137,-33.908,0.0,107.0
59352,2.000,0.193,-1.049,56.740,249.122,-27.847,0.0,56.0
59407,-0.653,-0.589,-0.714,25.954,250.130,62.282,0.0,110.0
59458,-2.000,-1.905,1.851,10.397,6.763,118.733,0.0,54.0
59513,-0.979,-1.809,-0.030,21.183,-250.137,22.313,0.0,49.0
59566,1.478,-0.636,-0.779,29.389,39.832,-73.817,0.0,56.0
59617,-0.726,-0.064,-0.167,-26.557,250.130,24.115,0.0,49.0
59672,-2.000,-0.180,1.523,-14.740,-169.275,-25.725,0.0,47.0
59727,-0.667,0.124,-0.130,-15.145,-250.137,-45.282,0.0,61.0
59779,1.148,-0.504,-0.990,3.191,69.595,17.137,0.0,37.0
59831,-1.725,-1.333,-0.407,-31.588,250.130,71.695,0.0,56.0
59886,-2.000,-1.819,1.130,-126.626,-250.137,3.908,0.0,43.0
59942,-0.769,-1.411,-0.865,-75.664,-250.137,5.374,0.0,130.0
60002,1.708,-0.205,-1.075,-36.046,157.641,-0.527,198.0,177.0
60061,-0.681,-0.579,-0.585,-19.817,250.130,-35.275,192.0,0.0
60118,-2.000,0.140,1.584,-43.168,-131.809,-12.351,187.0,81.0
60172,-1.459,-1.449,-0.601,-36.824,-250.137,116.565,179.0,113.0
60218,1.751,-1.841,-1.245,50.298,-250.137,-39.061,44.0,97.0
60273,1.078,-1.038,-0.836,49.870,250.130,26.153,0.0,107.0
60331,-2.000,-1.316,0.145,32.901,250.130,9.756,166.0,192.0
60389,-2.000,-0.585,0.321,-17.557,-250.137,-6.733,159.0,0.0
60442,0.629,-0.272,-1.356,-31.275,-250.137,-4.603,0.0,67.0
60498,1.034,0.193,-0.763,-6.779,250.130,69.206,0.0,132.0
60551,-2.000,-0.021,0.439,-76.145,250.130,75.802,159.0,104.0
60614,-2.000,-1.718,-0.594,-82.397,-250.137,22.244,0.0,35.0
60666,-0.413,-1.803,-0.842,-96.496,-250.137,6.282,0.0,23.0
60730,0.643,-0.923,-0.957,-22.046,250.130,13.489,0.0,0.0
60779,-2.000,-0.568,1.692,-116.061,167.977,1.901,0.0,0.0
60835,-1.728,-0.379,-0.013,-55.527,-250.137,-68.710,0.0,87.0
60892,1.402,-0.512,-1.659,28.771,-250.137,-66.985,0.0,90.0
60948,-0.084,-0.760,-0.226,1.603,222.656,90.053,0.0,83.0
61004,-2.000,-1.487,0.975,-61.305,-44.534,126.137,0.0,84.0
61064,-0.518,-1.552,-0.264,18.313,-250.137,48.153,0.0,84.0
61121,1.096,-0.346,-0.906,22.420,250.130,1.206,0.0,89.0
61221,-2.000,-0.625,1.398,-62.275,-129.870,-66.489,0.0,105.0
61279,-0.554,-0.079,-0.646,-52.000,-250.137,-34.221,0.0,94.0
61335,0.571,-0.091,-0.796,-59.794,-19.634,25.710,0.0,98.0
61393,-2.000,-1.518,0.414,-172.489,35.511,98.870,0.0,104.0
61449,-1.597,-1.829,-0.355,-84.267,-250.137,-3.290,0.0,77.0
61503,1.407,-1.275,-1.343,10.786,-167.359,-85.618,0.0,40.0
61560,0.116,-0.492,-0.709,-60.473,250.130,-2.504,0.0,90.0
61620,-2.000,-1.118,1.207,-78.603,14.756,5.573,0.0,96.0
61673,0.022,-0.460,-0.388,51.664,-250.137,-14.634,0.0,31.0
61736,0.788,-0.266,-0.724,25.649,157.832,26.153,0.0,0.0
61786,-2.000,-2.000,0.885,-25.962,-60.863,86.214,0.0,0.0
61825,-0.575,-1.622,-0.091,60.649,-250.137,56.435,0.0,26.0
61878,1.168,-1.090,-0.838,56.275,9.985,-0.710,0.0,19.0
61943,-0.741,0.189,-0.420,-16.847,250.130,60.267,0.0,187.0
61997,-1.662,-0.734,0.599,-32.611,-250.137,-54.481,0.0,32.0
62054,0.773,0.020,-0.925,14.359,-245.992,-27.015,0.0,37.0
62107,-1.225,-0.034,0.802,-113.267,-80.794,65.901,0.0,29.0
62160,-0.349,-1.951,-0.031,44.802,-250.137,-35.702,0.0,35.0
62215,0.617,-1.333,-1.002,44.809,250.130,-10.008,0.0,46.0
62270,-2.000,-1.831,0.933,-108.107,162.641,-0.824,0.0,48.0
62323,-0.530,-1.021,0.001,-13.076,-250.137,-30.550,0.0,35.0
62376,1.661,0.132,-1.228,28.260,139.718,-30.985,0.0,23.0
62434,-1.981,0.152,1.623,-94.985,107.855,-6.252,0.0,31.0
62487,-0.719,-1.382,-0.770,48.565,-250.137,-44.191,0.0,31.0
62543,1.929,-0.821,-1.237,120.672,168.252,-75.893,0.0,30.0
62597,-1.231,-1.245,0.357,-101.565,250.130,89.267,0.0,30.0
62650,-1.184,-2.000,1.041,96.802,-8.328,12.099,0.0,27.0
62703,0.192,-0.004,-0.146,94.031,98.992,-69.687,0.0,25.0
62759,-0.758,-0.184,0.592,-115.176,82.198,7.061,0.0,25.0
62813,-0.058,-0.753,0.363,51.473,-83.725,-49.389,0.0,24.0
62868,0.118,0.666,-0.589,106.916,250.130,-67.481,0.0,48.0
62924,-2.000,-1.538,1.008,-195.878,21.962,100.420,0.0,78.0
62978,-1.427,-2.000,0.125,4.237,-250.137,121.802,0.0,36.0
63035,1.743,-0.618,-1.376,84.275,65.550,-178.130,0.0,39.0
63089,-1.032,-0.257,-0.202,-118.672,250.130,-90.916,0.0,48.0
63144,-1.478,-1.333,0.851,-123.252,155.176,-19.550,0.0,54.0
63201,-0.643,-0.331,0.258,102.947,-206.977,49.977,0.0,69.0
63255,-0.720,0.154,0.259,-54.550,-250.137,45.962,0.0,49.0
63310,-0.311,-2.000,-0.812,1.939,-250.137,47.840,0.0,54.0
63365,1.156,-1.453,-0.585,146.748,143.557,-73.847,0.0,54.0
63420,-0.394,-0.427,-0.054,-12.038,250.130,81.351,0.0,56.0
63479,-1.075,-1.448,0.320,12.366,238.504,29.687,0.0,71.0
63535,-1.026,-0.768,-0.203,165.679,179.710,-224.664,0.0,73.0
63592,-0.877,1.281,0.668,-23.885,25.901,-50.840,0.0,82.0
63648,-1.249,-0.663,-0.298,-9.412,-132.725,46.748,0.0,79.0
63706,-1.563,-0.874,0.061,-47.672,-244.672,-35.679,0.0,89.0
63763,-0.797,-2.000,-0.896,-64.756,-250.137,90.878,0.0,89.0
63819,0.924,-1.950,-0.856,14.305,-123.046,-33.840,0.0,89.0
63879,-0.505,-1.364,-1.059,-1.366,250.130,-132.756,0.0,118.0
63938,-1.128,0.431,1.432,-155.893,146.389,44.802,0.0,135.0
