Timestamp(ms),AccelX(g),AccelY(g),AccelZ(g),GyroX(deg/s),GyroY(deg/s),GyroZ(deg/s),DistanceLeft(cm),DistanceRight(cm)
36722,-0.765,-0.447,0.286,-11.191,90.244,8.221,43.0,76.0
36766,-0.863,-0.406,0.327,-14.099,71.321,20.244,51.0,79.0
36811,-0.893,-0.323,0.360,-17.237,43.229,32.969,46.0,82.0
36858,-1.028,-0.267,0.114,-28.626,79.168,79.344,45.0,122.0
36917,-1.705,-0.335,0.061,-46.977,122.763,152.466,0.0,168.0
36970,-2.000,-0.396,-0.097,-112.710,51.702,233.489,0.0,84.0
37016,-1.929,-0.732,-0.362,-133.519,-45.260,242.756,50.0,86.0
37063,-1.096,-0.840,-0.419,-87.931,-87.061,172.916,34.0,91.0
37106,-0.412,-0.596,-0.313,-52.244,-69.809,107.832,31.0,57.0
37149,-0.008,-0.589,-0.313,-34.412,-19.481,35.275,38.0,60.0
37192,0.225,-0.637,-0.220,-20.084,32.130,-37.618,36.0,60.0
37237,0.206,-0.543,-0.052,-4.351,51.771,-103.130,45.0,100.0
37283,0.065,-0.422,0.031,15.855,32.824,-139.969,40.0,97.0
37328,-0.643,-0.692,-0.618,52.023,97.305,-178.130,51.0,92.0
37376,-2.000,-0.597,-0.874,73.763,217.275,-103.542,78.0,89.0
37426,-2.000,-0.544,-0.479,35.198,120.679,11.901,83.0,90.0
37473,-1.508,-0.297,-0.322,32.901,-70.305,-2.672,74.0,92.0
37520,-0.746,-0.045,-0.371,40.244,-88.260,-7.763,75.0,95.0
37568,-0.445,0.209,-0.192,37.359,-19.580,-30.557,80.0,96.0
37615,-0.475,0.385,-0.018,10.000,12.076,-35.122,75.0,94.0
37661,-0.556,0.628,0.075,-45.160,-3.183,2.710,70.0,92.0
37708,-0.872,0.421,-0.278,-118.435,-19.351,28.824,84.0,90.0
37756,-2.000,-0.618,-0.900,-120.573,-81.519,37.550,86.0,87.0
37808,-2.000,-1.260,-1.132,-46.603,-210.710,50.183,157.0,90.0
37856,-1.465,-0.832,-0.545,-65.092,-250.137,103.710,52.0,71.0
37898,-0.630,-0.588,-0.280,-82.344,-217.695,80.580,37.0,44.0
37941,0.001,-0.346,-0.204,-101.595,-140.282,76.809,35.0,56.0
37984,0.665,-0.348,-0.469,-92.542,-40.183,87.229,34.0,60.0
38027,0.893,-0.385,-0.663,-30.420,125.702,73.206,32.0,61.0
38072,0.232,-0.460,-0.264,33.718,245.855,45.206,34.0,101.0
38121,-1.369,-0.382,-0.910,118.450,250.130,27.145,124.0,68.0
38169,-2.000,0.096,-0.553,76.229,250.130,-22.725,129.0,67.0
38221,-2.000,-0.108,-0.156,-4.733,-172.565,68.458,129.0,67.0
38273,-1.339,0.148,-0.052,-20.595,-250.137,30.160,124.0,102.0
38318,-0.602,0.094,0.010,14.351,-250.137,-8.710,44.0,85.0
38361,0.471,0.314,-0.346,11.718,-250.137,-46.992,33.0,67.0
38405,1.563,0.648,-1.835,2.725,209.282,-59.145,32.0,81.0
38455,-0.617,1.112,-1.817,-86.580,250.130,129.382,116.0,103.0
38508,-2.000,-0.230,0.068,-151.794,250.130,53.382,63.0,0.0
38547,-2.000,0.593,-1.695,-149.527,-250.137,-28.748,72.0,0.0
38598,-1.471,0.766,-1.528,-168.038,-250.137,-37.924,118.0,105.0
38647,0.075,-0.239,-0.699,-105.611,-194.511,-21.962,30.0,112.0
38693,0.683,-0.258,-0.786,-62.962,250.130,-32.076,33.0,109.0
38739,-0.544,-0.311,-1.147,-12.092,250.130,-18.924,51.0,105.0
38791,-2.000,-0.410,0.267,12.275,250.130,24.221,117.0,107.0
38841,-2.000,-0.223,0.105,-45.458,-250.137,24.405,117.0,103.0
38887,-1.629,-0.106,-1.357,-48.924,-250.137,22.412,36.0,105.0
38935,-0.145,-0.195,-0.773,-22.260,-250.137,-24.443,32.0,146.0
38980,-0.084,0.018,-1.031,-11.595,250.130,-4.092,33.0,104.0
39040,-1.894,0.124,-1.274,-19.603,250.130,19.893,108.0,0.0
39138,-1.954,0.292,0.485,40.137,-250.137,-58.420,113.0,0.0
39185,-0.958,0.745,-1.263,-7.275,-250.137,-80.290,36.0,127.0
39233,0.793,0.846,-1.221,-97.542,-175.420,41.542,36.0,134.0
39283,-0.918,0.976,-2.000,-239.191,250.130,216.802,127.0,100.0
39339,-2.000,-1.038,-1.887,-234.145,250.130,5.962,107.0,0.0
39382,-2.000,-0.105,0.249,-145.626,-250.137,-115.260,114.0,0.0
39431,-1.388,0.305,-0.762,-159.565,-250.137,-130.931,98.0,102.0
39481,0.060,-0.373,-0.956,-84.397,-250.137,-69.664,34.0,115.0
39527,1.780,-0.125,-1.370,-53.160,-28.198,-60.359,31.0,124.0
39574,-0.060,0.055,-1.688,-62.527,250.130,58.779,42.0,116.0
39625,-2.000,-0.350,0.415,-154.763,250.130,81.336,102.0,123.0
39674,-2.000,-0.331,-0.172,-161.656,-250.137,-27.122,103.0,99.0
39721,-1.078,-0.284,-1.225,-49.786,-250.137,-43.076,43.0,100.0
39767,0.606,-0.127,-0.896,-2.832,176.809,-25.221,32.0,105.0
39823,-1.425,0.479,-2.000,-24.626,250.130,78.084,107.0,0.0
39868,-2.000,0.534,2.000,-29.672,-124.046,-2.160,105.0,0.0
39917,-1.832,0.360,-0.732,-43.901,-250.137,2.313,105.0,105.0
39964,0.705,-0.131,-1.466,-35.252,-250.137,-15.718,31.0,117.0
40011,1.413,0.801,-1.482,-52.405,250.130,48.725,45.0,112.0
40060,-2.000,0.743,-1.668,-223.282,250.130,121.153,107.0,98.0
40111,-2.000,-0.170,-0.531,-229.496,-138.359,-56.267,109.0,96.0
40157,-1.250,0.307,-1.229,-225.496,-250.137,-27.229,43.0,101.0
40203,-0.516,-0.217,-0.299,-189.275,-85.687,7.450,41.0,102.0
40249,0.050,-0.509,-0.092,-120.023,4.450,-52.229,44.0,79.0
40290,0.615,-0.453,-1.165,-60.298,250.130,-124.069,33.0,75.0
40341,-0.825,-0.294,-0.903,10.214,250.130,-33.328,112.0,103.0
40391,-2.000,-0.045,0.856,-69.656,-162.015,18.198,116.0,101.0
40439,-1.733,-0.157,-0.542,-64.229,-250.137,5.885,118.0,68.0
40482,-0.220,-0.526,-1.054,20.229,-250.137,-6.000,38.0,31.0
40523,0.562,-0.181,-1.459,46.702,250.130,-8.611,30.0,30.0
40574,-2.000,0.280,-2.000,40.573,250.130,74.023,120.0,99.0
40635,-2.000,0.016,1.722,-16.191,230.840,29.550,0.0,0.0
40681,-1.246,0.501,-0.479,-45.885,-250.137,-53.107,113.0,0.0
40725,-0.238,0.103,-0.883,-29.977,-250.137,-83.534,43.0,68.0
40772,1.606,0.101,-1.175,-52.130,-87.344,-100.855,118.0,40.0
40822,-0.370,0.309,-1.915,-112.740,250.130,52.290,121.0,79.0
40877,-2.000,-0.492,-0.356,-199.878,250.130,31.122,0.0,95.0
40928,-2.000,-0.033,-0.824,-176.954,-250.137,-43.847,119.0,95.0
40978,-0.931,-0.221,-1.095,-78.366,-250.137,-63.420,119.0,99.0
41024,0.007,-0.363,0.233,-18.634,-229.221,-129.855,31.0,90.0
41072,0.999,-0.242,-1.121,-4.427,250.069,-144.611,33.0,89.0
41118,-0.675,-0.080,-1.764,5.260,250.130,8.198,52.0,86.0
41174,-2.000,-0.008,0.344,-79.519,250.130,56.252,0.0,97.0
41226,-1.573,-0.429,-0.409,-113.458,-250.137,71.412,150.0,97.0
41276,-1.429,-0.594,-0.372,-25.771,-250.137,79.183,145.0,59.0
41321,-0.113,-0.550,-0.375,116.695,-151.740,7.023,31.0,89.0
41367,0.117,0.267,-1.206,129.084,250.130,-46.626,50.0,87.0
41425,-2.000,0.493,-1.802,106.435,250.130,70.053,150.0,0.0
41464,-2.000,0.263,1.352,10.802,-128.015,45.840,45.0,0.0
41520,-1.489,0.320,-0.608,-33.122,-250.137,-18.908,146.0,94.0
41607,0.556,0.091,-1.363,-62.160,-250.137,-13.389,34.0,73.0
41652,0.311,0.370,-2.000,-104.000,250.130,71.557,34.0,70.0
41704,-2.000,-0.426,-2.000,-130.015,250.130,103.214,151.0,99.0
41746,-2.000,-0.219,1.336,-19.008,-9.168,30.863,54.0,12.0
41799,-1.981,0.004,-0.838,-21.786,-250.137,-111.534,146.0,101.0
41845,-0.768,0.203,-1.197,-47.557,-250.137,-136.336,50.0,84.0
41890,0.199,-0.239,-1.046,-5.710,-250.137,-98.603,33.0,81.0
41937,1.663,-0.104,-2.000,-12.794,250.130,-3.130,34.0,72.0
41990,-1.260,0.367,-2.000,-66.565,250.130,150.107,143.0,98.0
42045,-2.000,-0.128,2.000,-57.588,250.130,37.275,0.0,100.0
42098,-2.000,-0.195,-1.226,16.397,-250.137,-4.435,147.0,99.0
42150,-1.167,0.207,-1.081,57.992,-250.137,-43.634,142.0,102.0
42198,0.507,0.319,-0.545,32.458,-237.244,-78.237,44.0,109.0
42250,0.820,0.198,-0.697,-0.885,250.130,-89.924,140.0,104.0
42308,-0.920,0.519,-1.232,-18.015,250.130,25.924,144.0,0.0
42359,-2.000,0.297,-0.231,-109.321,250.130,56.641,0.0,0.0
42406,-1.882,0.893,-0.850,-178.282,-250.137,-68.115,0.0,0.0
42451,-1.167,0.935,-1.740,-207.924,-250.137,-94.366,145.0,0.0
42504,-0.838,-0.412,-1.440,-130.260,-250.137,-77.534,145.0,100.0
42550,-0.227,-0.219,-0.990,-81.389,238.725,-43.649,36.0,100.0
42602,-0.541,-0.298,-1.133,-90.298,250.130,-20.168,142.0,99.0
42660,-1.259,-0.318,-0.686,-25.611,250.130,9.191,147.0,0.0
42708,-2.000,-0.199,1.080,-43.779,-237.053,-15.931,0.0,0.0
42761,-1.746,0.222,-1.181,-88.267,-250.137,-38.137,141.0,102.0
42811,-0.956,-0.372,-1.935,-33.771,-250.137,-0.420,47.0,105.0
42869,0.671,-0.003,-0.873,-7.282,239.733,-6.145,32.0,103.0
42920,-1.614,-0.044,-2.000,-11.916,250.130,8.336,141.0,102.0
42967,-2.000,0.307,-0.748,-31.328,250.130,43.672,147.0,8.0
43024,-2.000,0.146,0.844,-25.618,-250.137,-53.595,146.0,0.0
43067,-1.027,0.787,-1.078,-91.519,-250.137,-97.977,139.0,0.0
43112,-0.179,0.302,-1.399,-78.931,-250.137,-55.595,43.0,98.0
43163,0.838,0.440,-1.047,-111.336,-142.954,-5.076,143.0,100.0
43212,-0.805,0.199,-2.000,-179.450,250.130,70.672,45.0,97.0
43270,-2.000,-0.200,-2.000,-218.870,250.130,23.168,152.0,0.0
43317,-2.000,-0.599,-0.074,-103.626,36.275,-98.542,0.0,0.0
43368,-1.745,0.015,-0.742,-112.534,-250.137,-146.977,149.0,96.0
43419,-0.671,0.206,-0.942,-122.710,-250.137,-113.023,142.0,100.0
43470,1.046,-0.148,-0.917,-61.366,-214.763,-78.847,140.0,103.0
43522,0.365,-0.145,-1.280,-47.420,250.130,-34.015,142.0,100.0
43573,-2.000,-0.081,-0.971,-74.550,250.130,44.290,133.0,102.0
43627,-2.000,-0.315,-0.497,-122.595,-149.389,-5.656,150.0,96.0
43679,-1.301,0.033,-0.799,-98.771,-250.137,-10.565,145.0,97.0
43730,-0.666,0.106,-0.641,-50.084,-250.137,-26.618,142.0,101.0
43780,0.076,0.075,-0.497,-45.786,14.611,-52.863,142.0,62.0
43837,0.024,0.074,-1.169,-40.542,250.130,-69.489,144.0,0.0
43880,-1.327,0.129,-1.121,-13.840,250.130,3.504,137.0,0.0
43935,-2.000,0.092,0.955,-18.939,84.840,-33.573,112.0,0.0
43978,-1.526,0.227,-1.159,-73.771,-250.137,-61.748,128.0,0.0
44032,-0.976,0.582,-2.000,-129.053,-250.137,-23.969,127.0,93.0
44083,-0.261,-0.110,-1.646,-144.603,-66.779,47.817,148.0,93.0
44173,-1.188,-0.490,-1.315,-81.649,250.130,-64.252,76.0,96.0
44220,-1.565,-0.450,-0.051,-14.038,250.130,-69.206,58.0,104.0
44272,-1.906,-0.110,0.860,14.122,-250.137,-76.611,57.0,0.0
44311,-1.058,-0.071,-0.900,-7.344,-250.137,-41.084,62.0,0.0
44361,-0.468,-0.435,-1.677,24.847,-250.137,-17.595,145.0,72.0
44406,-0.076,-0.078,-1.070,24.901,80.168,58.168,42.0,86.0
44453,-1.225,-0.301,-1.387,-20.817,250.130,77.618,70.0,94.0
44509,-2.000,-0.127,-0.844,19.817,250.130,64.191,61.0,0.0
44548,-2.000,0.172,0.384,28.237,-233.908,4.687,58.0,0.0
44594,-1.128,0.265,-0.442,35.618,-250.137,-33.634,56.0,103.0
44638,0.022,0.248,-0.812,42.901,-250.137,-62.176,45.0,66.0
44681,1.020,0.461,-0.716,-12.046,-40.244,-23.260,38.0,64.0
44729,-0.091,0.226,-1.411,-58.397,250.130,57.901,74.0,97.0
44775,-2.000,0.079,-1.829,-133.244,250.130,73.321,60.0,95.0
44816,-1.998,-0.203,-0.877,-145.985,250.130,37.992,59.0,9.0
44872,-1.917,-0.024,-0.534,-30.817,-187.580,-33.992,61.0,0.0
44914,-1.424,0.141,-0.942,19.137,-250.137,-97.458,107.0,0.0
44964,-0.500,0.147,-0.928,18.305,-250.137,-124.412,143.0,76.0
45016,0.733,0.007,-0.743,11.565,-93.985,-114.893,142.0,101.0
45067,0.022,-0.333,-1.384,-6.656,250.130,-23.198,137.0,98.0
45111,-1.258,0.071,-0.881,-87.084,250.130,92.817,91.0,21.0
45159,-2.000,-0.823,-0.195,-65.176,40.092,105.550,78.0,98.0
45207,-1.901,-0.580,-0.772,21.519,-250.137,22.321,84.0,95.0
45258,-0.763,-0.059,-1.293,81.595,-250.137,-39.405,120.0,75.0
45309,-0.065,0.208,-0.814,54.687,65.061,-32.931,125.0,99.0
45358,-0.075,0.399,-0.987,54.687,250.130,-14.733,80.0,113.0
45410,-1.319,0.421,-0.607,61.000,250.130,45.137,52.0,0.0
45448,-2.000,0.286,0.554,-31.702,-111.229,40.481,53.0,0.0
45500,-1.613,0.289,-0.854,-72.359,-250.137,-11.611,55.0,0.0
45550,-0.923,0.437,-2.000,-130.779,-250.137,-8.099,120.0,96.0
45596,-0.078,-0.140,-1.930,-108.809,17.481,21.832,44.0,95.0
45643,-0.973,-0.056,-1.792,-93.107,250.130,3.313,62.0,96.0
45693,-1.706,-0.388,-1.149,-17.924,250.130,-25.290,63.0,100.0
45747,-1.821,-0.174,0.624,19.863,41.397,-40.679,67.0,0.0
45789,-0.903,-0.053,-0.087,25.824,-250.137,-88.550,121.0,0.0
45838,-0.380,0.016,-0.765,10.702,-250.137,-71.687,118.0,77.0
45888,0.208,-0.317,-1.525,11.321,-250.137,-25.939,120.0,99.0
45937,-0.186,0.191,-2.000,-34.679,250.130,115.695,123.0,67.0
45993,-2.000,-0.376,-1.502,-45.863,250.130,62.527,128.0,0.0
46036,-2.000,0.101,0.130,-11.855,-176.412,16.443,125.0,0.0
46096,-1.334,0.234,-0.883,-15.824,-250.137,-42.580,118.0,0.0
46138,-0.161,0.417,-0.718,-1.366,-250.137,-64.145,112.0,0.0
46186,0.412,0.402,-0.673,-8.397,-136.237,-45.275,51.0,136.0
46241,0.156,0.373,-1.315,-55.328,250.130,-21.725,106.0,0.0
46283,-1.491,0.390,-1.285,-145.000,250.130,38.084,108.0,0.0
46344,-1.668,0.051,-1.140,-207.962,230.122,-28.069,0.0,0.0
46391,-1.301,0.164,-1.261,-127.542,-244.420,-120.389,0.0,0.0
46433,-1.156,0.326,-1.353,-120.267,-250.137,-133.924,0.0,97.0
46482,-0.801,-0.040,-1.178,-106.328,-250.137,-95.405,100.0,99.0
46534,0.157,-0.040,-0.774,-88.237,-1.649,-55.168,97.0,101.0
46632,-0.417,-0.263,-0.828,-37.336,250.130,-12.809,100.0,0.0
46678,-2.000,-0.266,0.518,-42.534,17.359,15.672,161.0,0.0
46727,-2.000,-0.142,-1.043,-48.710,-250.137,-1.725,102.0,101.0
46777,-1.070,-0.153,-1.613,-30.244,-250.137,1.634,97.0,102.0
46826,0.459,0.038,-1.206,-19.328,44.160,-26.046,101.0,105.0
46877,-0.670,0.039,-1.428,-31.832,250.130,-33.489,97.0,130.0
46936,-2.000,0.177,0.323,10.962,250.130,-37.244,159.0,0.0
46981,-1.402,0.418,-0.035,-56.817,-250.137,-101.573,100.0,0.0
47031,-0.593,0.714,-0.898,-111.534,-250.137,-92.046,99.0,113.0
47078,0.490,0.485,-1.420,-169.267,-132.229,-3.473,48.0,113.0
47134,-0.647,0.264,-2.000,-217.794,250.130,34.389,126.0,0.0
47178,-2.000,-0.312,-1.605,-165.191,250.130,-25.939,139.0,0.0
47229,-1.765,0.092,-1.004,-145.496,-87.924,-94.305,130.0,98.0
47280,-0.710,0.104,-0.857,-153.115,-189.595,-79.481,110.0,99.0
47330,-0.218,-0.255,-0.125,-128.534,-143.031,-58.588,113.0,101.0
47382,-0.450,-0.543,-0.010,-14.824,-250.137,-55.366,113.0,81.0
47431,-0.283,-0.106,-0.679,-6.740,-250.137,-85.031,118.0,73.0
47481,0.048,-0.261,-1.725,-13.168,181.588,-19.725,115.0,99.0
47533,-1.558,0.125,-2.000,-84.901,250.130,101.519,123.0,95.0
47594,-2.000,-0.214,-0.626,-32.809,250.130,34.916,0.0,0.0
47639,-1.590,0.089,-0.322,0.756,-250.137,-60.870,163.0,0.0
47689,-0.746,0.216,-1.120,5.214,-250.137,-85.168,120.0,101.0
47740,0.681,0.189,-0.987,5.634,-106.710,-49.763,115.0,96.0
47794,-0.189,0.216,-1.243,-37.160,250.130,11.061,123.0,101.0
47848,-1.541,0.138,-1.259,-138.977,250.130,7.832,0.0,74.0
47909,-2.000,0.401,-0.505,-151.886,-250.137,-122.527,0.0,0.0
47952,-0.971,0.408,-1.962,-138.733,-250.137,-137.840,120.0,0.0
47997,0.308,-0.299,-1.135,-63.290,-133.664,-80.160,36.0,94.0
48049,0.015,-0.353,-0.836,-10.504,250.130,-32.183,122.0,97.0
48100,-0.447,-0.133,-1.123,36.725,250.130,-26.427,127.0,97.0
48150,-1.535,-0.085,-0.243,-4.397,250.130,44.023,0.0,7.0
48215,-1.619,-0.371,-0.524,-100.160,-250.137,-2.229,0.0,0.0
48261,-1.215,-0.387,-1.192,-72.336,-250.137,33.985,119.0,0.0
48311,-0.230,-0.730,-0.775,49.069,-196.496,3.282,118.0,85.0
48360,0.112,0.060,-0.963,112.107,250.130,-9.771,117.0,85.0
48410,-1.156,0.488,-1.920,133.947,250.130,43.412,0.0,10.0
48475,-1.970,0.818,-0.196,51.481,250.130,74.557,0.0,0.0
48523,-1.631,0.425,-0.595,-74.931,-250.137,-36.198,0.0,0.0
48564,-0.558,0.624,-1.116,-155.939,-250.137,-14.221,0.0,87.0
48614,0.120,-0.105,-1.451,-111.489,-250.137,-5.573,148.0,70.0
48669,-0.364,-0.765,-2.000,-47.206,250.130,-86.496,152.0,86.0
48722,-2.000,-0.119,-2.000,-46.878,250.130,-3.947,65.0,0.0
48762,-2.000,-0.749,0.122,-41.023,157.260,-55.870,51.0,0.0
48815,-1.583,-0.169,0.179,-24.405,-250.137,-107.870,49.0,0.0
48859,-0.976,0.236,-0.347,-26.382,-250.137,-129.710,148.0,0.0
48910,-0.049,-0.368,-1.084,58.550,-250.137,-124.107,146.0,75.0
48961,0.835,-0.407,-1.050,100.756,-186.122,-95.763,150.0,74.0
49007,-1.205,-0.775,-1.999,68.527,250.130,24.733,57.0,71.0
49062,-2.000,-0.403,-1.255,-47.924,250.130,128.771,155.0,93.0
49112,-2.000,-0.332,0.327,-18.244,30.740,60.145,155.0,16.0
49207,-0.413,0.066,-0.018,96.435,-250.137,-18.473,147.0,98.0
49258,0.653,0.471,-0.617,95.618,-138.870,-112.763,147.0,75.0
49315,-1.211,0.443,-1.140,-62.924,250.130,-18.893,152.0,94.0
49369,-2.000,-0.442,-1.176,-229.260,131.221,9.427,154.0,112.0
49420,-1.347,-0.558,-1.032,-175.206,-191.626,-58.313,153.0,91.0
49471,-0.889,-0.464,-0.448,-116.481,-177.672,-77.908,151.0,92.0
49522,-0.063,-0.679,-0.213,20.145,-89.656,-96.870,149.0,95.0
49576,0.240,-0.315,-0.807,141.878,177.321,-119.855,150.0,94.0
49632,-0.465,0.068,-1.241,46.954,250.130,-42.191,0.0,96.0
49681,-2.000,-0.428,-0.341,-170.359,113.992,57.573,0.0,9.0
49721,-1.187,-0.810,-1.316,-220.824,-232.939,60.221,0.0,92.0
49772,-1.654,-0.633,-0.760,-157.603,-250.137,76.718,152.0,94.0
49824,-1.100,-0.718,-0.631,-37.550,-250.137,66.527,145.0,100.0
49870,0.215,-0.293,-0.547,62.847,-206.145,-46.282,38.0,125.0
49923,0.628,0.305,-1.118,44.870,250.130,-108.260,57.0,0.0
49970,-1.451,0.666,-1.865,-14.504,250.130,-3.214,147.0,0.0
50029,-2.000,0.097,0.425,-114.740,242.298,-6.954,0.0,0.0
50073,-1.338,0.621,-0.898,-191.000,-250.137,-95.641,147.0,0.0
50125,-0.446,0.966,-1.485,-241.840,-250.137,-29.427,145.0,109.0
50170,0.270,-0.586,-1.705,-131.511,-97.252,-83.427,48.0,95.0
50222,-1.277,-0.812,-2.000,-46.412,250.130,-119.565,149.0,91.0
50282,-2.000,-0.399,-1.318,-98.450,250.130,-28.550,0.0,0.0
50329,-0.978,-0.143,-0.033,-92.053,-58.420,-106.550,0.0,0.0
50390,-0.588,0.118,0.334,-77.145,-250.137,-125.985,148.0,0.0
50433,-0.326,-0.147,-0.348,12.527,-250.137,-75.748,145.0,0.0
50484,-0.369,-0.055,-1.196,-17.282,-250.137,-99.779,147.0,96.0
50536,-0.531,0.057,-1.954,-134.504,147.893,58.824,150.0,92.0
50601,-1.773,-0.666,-1.466,-180.046,250.130,52.870,153.0,0.0
50644,-1.965,-0.014,0.010,-119.740,-64.481,-25.061,153.0,0.0
50702,-1.538,0.066,-0.402,-92.290,-250.137,-47.840,148.0,0.0
50746,0.288,0.036,-1.086,-21.718,-208.542,-74.015,144.0,0.0
50805,0.728,0.315,-0.969,3.519,240.168,-60.214,145.0,0.0
50848,-1.189,0.173,-1.376,-29.641,250.130,-32.275,139.0,0.0
50906,-2.000,0.206,0.015,-143.206,17.397,-77.053,150.0,0.0
50949,-1.100,0.563,-1.291,-250.137,-250.137,-94.695,134.0,0.0
50999,-0.422,0.420,-1.722,-217.565,-250.137,-28.397,146.0,94.0
51051,-0.536,-0.527,-0.805,-78.611,-25.687,-54.580,147.0,94.0
51102,-0.355,-0.372,-0.820,48.420,165.504,-91.443,147.0,95.0
51149,-0.407,-0.503,-1.617,81.260,250.130,-140.916,86.0,94.0
51206,-2.000,0.131,0.221,-21.313,229.725,-62.916,129.0,0.0
51249,-0.928,-0.083,-0.596,-123.321,-250.137,-39.397,82.0,0.0
51296,-0.534,-0.021,-0.497,-104.473,-250.137,24.802,76.0,94.0
51347,-0.529,-0.663,-0.533,11.962,-250.137,28.817,147.0,94.0
51396,-0.234,-0.375,-1.117,139.870,60.931,-28.008,148.0,56.0
51444,-1.199,0.292,-2.000,119.542,250.130,44.382,98.0,94.0
51485,-1.753,0.538,-1.200,-23.901,250.130,80.511,41.0,14.0
51535,-2.000,-0.040,0.277,-61.328,78.992,30.046,32.0,0.0
51574,-1.155,0.495,-0.104,-98.802,-250.137,-73.687,69.0,0.0
51623,-0.621,0.584,-0.516,-105.931,-250.137,-41.511,57.0,97.0
51670,0.486,-0.053,-1.372,-44.672,-246.794,25.885,59.0,96.0
51764,-2.000,-0.093,-2.000,-111.351,250.130,55.229,32.0,0.0
51815,-2.000,-0.078,0.176,-59.336,-136.840,-71.954,37.0,0.0
51862,-1.126,0.153,-0.538,-55.328,-250.137,-140.954,59.0,102.0
51908,-0.770,0.057,-0.560,-39.893,-250.137,-148.496,57.0,101.0
51954,0.693,-0.450,-0.883,40.137,-250.137,-165.718,36.0,103.0
52003,1.097,-0.014,-1.472,42.885,244.145,-66.863,142.0,72.0
52058,-2.000,0.086,-2.000,-50.565,250.130,150.084,149.0,96.0
52111,-2.000,-0.283,-0.736,-68.145,237.550,83.634,68.0,0.0
52151,-1.707,-0.346,-0.872,-24.626,-244.992,21.305,83.0,0.0
52200,-1.160,0.055,-0.627,18.977,-250.137,15.794,100.0,98.0
52249,-0.567,0.081,-0.264,77.992,-250.137,-11.702,108.0,100.0
52299,0.452,0.213,-0.855,116.573,-133.031,-76.679,114.0,99.0
52349,0.692,0.800,-1.742,51.176,250.130,-56.924,125.0,91.0
52403,-1.745,0.327,-2.000,-113.176,250.130,26.061,72.0,0.0
52441,-1.954,-0.158,-0.354,-178.893,208.008,-50.160,51.0,0.0
52496,-1.575,0.268,-0.650,-114.664,-250.137,-111.878,59.0,0.0
52535,-1.588,0.468,-1.280,-23.916,-250.137,-149.603,63.0,0.0
52584,-0.265,0.161,-1.803,53.863,-250.137,-149.397,121.0,73.0
52634,0.778,0.133,-1.680,50.252,250.130,-97.450,118.0,99.0
52689,-0.641,-0.059,-1.775,-20.412,250.130,-11.267,114.0,0.0
52729,-2.000,-1.070,0.474,-53.557,233.550,-11.779,75.0,0.0
52783,-1.145,-0.215,-0.285,-97.145,-250.137,-67.931,76.0,0.0
52826,-1.408,-0.043,-1.195,-103.878,-250.137,-17.649,125.0,0.0
52879,-0.568,-0.533,-1.732,9.527,-250.137,-8.153,122.0,97.0
52928,0.601,0.208,-2.000,133.397,250.130,-15.679,121.0,82.0
52981,-1.271,1.147,-2.000,62.344,250.130,88.038,80.0,0.0
53023,-2.000,0.403,-0.024,61.038,196.534,39.229,109.0,0.0
53069,-1.308,0.240,-0.525,11.725,-250.137,-51.626,141.0,5.0
53126,-0.815,0.506,-1.031,-52.748,-250.137,-120.519,127.0,0.0
53168,-0.750,0.631,-0.942,-83.321,-250.137,-70.489,122.0,0.0
53218,-0.728,0.417,-1.342,-112.817,-250.137,12.718,122.0,98.0
53271,-0.659,-0.146,-2.000,-84.534,203.450,7.092,120.0,95.0
53321,-1.556,-0.395,-2.000,-115.748,250.130,-0.344,116.0,95.0
53377,-1.607,-0.557,-0.889,-75.420,250.130,-47.153,115.0,0.0
53419,-2.000,-0.293,1.136,8.779,-245.176,-105.435,112.0,0.0
53469,-1.506,0.463,-0.472,-34.779,-250.137,-145.336,107.0,102.0
53515,-0.216,0.109,-1.835,-41.832,-250.137,-128.733,51.0,100.0
53565,0.680,-0.115,-1.325,-35.153,-78.366,-29.519,121.0,99.0
53612,-1.540,-0.513,-0.702,-100.069,235.802,128.947,49.0,96.0
53662,-2.000,-0.644,0.057,-100.000,81.824,29.763,127.0,94.0
53711,-1.183,-0.487,-0.512,-18.779,-142.412,-39.985,51.0,97.0
53761,-0.005,-0.015,-0.894,-4.107,164.206,-47.084,104.0,99.0
53816,-0.546,0.311,-1.201,-12.000,250.130,16.618,105.0,0.0
53862,-2.000,0.188,0.413,33.466,250.130,63.176,188.0,0.0
53921,-1.724,0.388,0.384,-55.916,-250.137,-30.908,165.0,0.0
53962,-0.735,0.462,-1.579,-174.267,-250.137,-71.298,104.0,0.0
54012,0.333,-0.132,-1.789,-193.725,-222.221,-7.710,104.0,107.0
54068,-0.210,-0.142,-2.000,-142.580,250.130,38.893,107.0,0.0
54117,-2.000,-0.478,-0.297,-31.664,250.130,-22.282,175.0,0.0
54167,-1.911,0.070,-0.609,-72.450,-250.137,-155.702,113.0,99.0
54260,0.790,-0.046,-1.248,-105.122,-250.137,-99.931,120.0,101.0
54311,1.009,-0.202,-1.105,-78.702,250.130,-22.878,120.0,101.0
54368,-0.608,-0.346,-1.296,-43.267,250.130,0.191,125.0,0.0
54413,-2.000,0.002,0.183,-95.733,-139.473,-32.053,159.0,0.0
54462,-1.933,-0.213,-1.333,-91.046,-250.137,-11.779,112.0,94.0
54512,-0.389,-0.269,-1.452,-24.397,-250.137,-3.137,112.0,98.0
54572,0.377,0.177,-1.158,-3.153,228.557,-39.824,115.0,0.0
54617,-1.316,-0.015,-1.704,16.237,250.130,-46.573,172.0,0.0
54667,-1.969,0.442,0.122,-24.427,250.130,-36.740,0.0,9.0
54727,-1.478,0.219,-0.125,-61.718,-250.137,-103.954,0.0,0.0
54770,-0.730,0.696,-1.253,-115.794,-250.137,-55.534,121.0,0.0
54820,0.784,0.046,-1.705,-124.420,-173.382,-2.290,122.0,93.0
54872,-0.480,-0.542,-2.000,-112.656,250.130,-30.779,133.0,90.0
54932,-2.000,-0.920,-1.216,-17.336,250.130,-60.053,0.0,0.0
54982,-1.588,-0.112,-0.610,-46.840,-250.137,-119.023,0.0,0.0
55024,-0.727,0.007,-1.172,-54.992,-250.137,-101.779,0.0,94.0
55074,0.181,-0.228,-1.143,-11.260,-250.137,-57.710,123.0,95.0
55124,1.093,-0.023,-0.982,-18.069,99.053,1.397,124.0,93.0
55182,-0.814,-0.245,-1.497,-50.908,250.130,108.489,128.0,0.0
55229,-2.000,-0.652,-0.452,-61.802,124.840,87.626,0.0,0.0
55276,-1.720,-0.411,-0.928,-23.328,-250.137,27.473,0.0,0.0
55319,-0.724,0.043,-0.751,14.344,-250.137,8.221,120.0,0.0
55369,0.256,0.177,-0.554,18.427,-94.122,-13.076,117.0,98.0
55422,0.260,0.273,-0.384,35.466,221.664,-25.817,122.0,98.0
55473,-0.354,0.293,-0.674,29.382,250.130,-28.947,0.0,14.0
55527,-2.000,0.002,0.062,-77.427,128.824,-40.122,0.0,10.0
55581,-1.508,0.351,-1.747,-192.076,-250.137,-75.443,0.0,91.0
55631,-0.471,-0.040,-1.542,-146.145,-250.137,-29.893,122.0,83.0
55684,0.325,-0.496,-1.394,0.191,109.847,-39.351,151.0,94.0
55737,-0.581,-0.187,-1.882,87.481,250.130,-30.595,154.0,98.0
55790,-1.649,0.182,-0.268,39.809,250.130,31.351,68.0,0.0
55833,-1.758,-0.200,0.143,-26.267,-250.137,-55.855,64.0,0.0
55884,-0.943,0.228,-0.937,-67.206,-250.137,-65.076,155.0,88.0
55937,0.039,-0.329,-1.425,-24.183,-250.137,51.252,149.0,87.0
55989,-0.274,-0.212,-1.551,39.198,219.473,69.847,151.0,94.0
56035,-1.701,-0.178,-1.740,32.962,250.130,120.832,44.0,95.0
56087,-2.000,0.209,0.059,54.557,250.130,81.504,35.0,0.0
56125,-1.517,0.059,0.044,67.786,-250.137,-3.565,32.0,0.0
56165,-1.052,0.311,-0.712,68.160,-250.137,-48.695,33.0,16.0
56215,-0.206,0.198,-1.198,35.084,-250.137,-72.267,146.0,66.0
56269,1.269,0.383,-1.420,-19.450,177.718,-45.336,149.0,67.0
56323,-1.417,0.144,-2.000,-130.374,250.130,70.550,155.0,97.0
56364,-2.000,-0.443,-0.840,-150.198,182.015,-34.763,45.0,9.0
56419,-1.595,-0.088,-1.580,-114.374,-250.137,-92.389,0.0,93.0
56471,-0.733,0.239,-1.119,-65.947,-250.137,-74.618,149.0,96.0
56522,0.642,-0.423,-0.732,-31.328,-73.893,-87.580,144.0,74.0
56570,0.239,-0.449,-0.521,22.076,250.130,-74.008,145.0,25.0
56626,-0.910,-0.366,-0.115,78.298,250.130,-37.870,0.0,102.0
56681,-2.000,-0.134,0.029,41.496,-250.137,-35.580,151.0,96.0
56733,-1.004,-0.493,-2.000,-5.916,-250.137,73.786,148.0,95.0
56824,-1.024,-0.029,-1.437,22.015,250.130,73.359,148.0,18.0
56884,-1.445,0.113,-0.781,71.886,250.130,83.015,152.0,0.0
56931,-1.250,0.123,-0.031,89.092,177.565,29.954,0.0,0.0
56967,-1.310,0.142,0.011,100.748,-145.939,8.557,0.0,6.0
57033,-1.099,0.500,-0.762,16.687,-250.137,-65.557,0.0,0.0
57077,-0.965,0.784,-1.481,-170.664,-250.137,-5.939,149.0,0.0
57135,-0.271,0.247,-1.592,-209.145,-250.137,71.412,148.0,0.0
57181,-0.152,-0.293,-2.000,-177.756,250.130,5.817,150.0,0.0
57238,-1.473,-0.635,-2.000,-104.260,250.130,-38.885,155.0,0.0
57281,-2.000,-0.393,-0.144,22.061,248.122,-27.649,136.0,0.0
57326,-1.946,0.128,-0.119,-17.641,-250.137,-110.779,132.0,7.0
57378,-1.167,0.469,-1.207,-59.221,-250.137,-142.519,147.0,99.0
57430,0.388,0.015,-1.597,-46.939,-250.137,-74.511,143.0,99.0
57481,0.964,0.038,-1.668,-74.893,250.130,32.863,145.0,96.0
57538,-2.000,-0.273,-2.000,-95.153,250.130,99.603,151.0,0.0
57585,-2.000,-0.177,-0.372,-101.550,-152.824,-0.099,153.0,0.0
57641,-1.426,0.063,-0.782,-50.534,-250.137,-19.641,148.0,0.0
57686,-0.213,0.242,-0.810,-40.076,-250.137,-43.466,143.0,0.0
57737,0.588,0.180,-0.754,-6.023,46.168,-73.466,142.0,104.0
57794,-0.012,0.371,-1.005,4.748,250.130,-58.618,146.0,0.0
57840,-1.823,0.329,-0.342,-42.313,250.130,-68.626,0.0,0.0
57889,-1.521,0.392,-1.214,-170.481,-250.137,-146.313,0.0,8.0
57940,-0.855,0.598,-2.000,-242.183,-250.137,-128.534,150.0,93.0
57996,0.499,-0.358,-1.974,-198.443,48.595,-59.649,147.0,95.0
58053,-0.320,-0.467,-1.318,-90.221,250.130,-27.412,150.0,0.0
58097,-2.000,-0.575,1.222,100.886,126.557,-28.641,151.0,0.0
58155,-1.725,0.191,-0.574,-9.511,-250.137,-106.076,147.0,0.0
58198,0.293,0.156,-1.900,-130.275,-250.137,-21.550,145.0,0.0
58249,1.379,0.122,-1.948,-136.031,220.786,61.305,147.0,98.0
58306,-1.344,-0.307,-1.887,-26.733,250.130,88.855,141.0,0.0
58350,-2.000,0.251,0.344,34.908,-250.137,-48.504,145.0,0.0
58409,-1.880,0.655,-2.000,-27.122,-250.137,-79.947,135.0,195.0
58455,0.966,0.467,-1.635,-84.313,-58.573,0.115,37.0,103.0
58511,-0.056,0.294,-0.921,-98.771,250.130,53.756,131.0,195.0
58567,-1.179,-0.096,0.128,-27.290,250.130,7.878,128.0,0.0
58610,-0.468,0.076,-0.430,-31.626,90.779,-79.405,131.0,0.0
58667,-1.529,0.565,-0.780,-134.214,-208.824,-109.702,136.0,0.0
58706,-0.810,0.634,-1.716,-203.130,-250.137,-98.305,82.0,0.0
58754,-0.187,-0.172,-1.785,-141.656,-100.443,-112.992,77.0,96.0
58802,0.111,-0.353,-1.647,-46.427,250.130,-105.679,74.0,95.0
58857,-0.899,-0.262,-1.064,52.420,250.130,-24.802,58.0,0.0
58895,-2.000,-0.402,0.781,75.412,-16.107,-17.214,51.0,0.0
58943,-1.738,-0.306,-0.594,18.313,-250.137,-50.351,82.0,100.0
58992,-0.748,-0.078,-1.743,-41.725,-250.137,2.420,115.0,94.0
59039,1.274,-0.586,-2.000,3.046,-26.908,38.260,71.0,95.0
59085,-0.941,0.125,-2.000,2.298,250.130,127.824,63.0,94.0
59126,-2.000,0.003,-1.387,63.664,250.130,108.168,39.0,7.0
59166,-2.000,0.154,0.411,60.290,48.443,51.595,36.0,5.0
59219,-1.821,0.138,-0.511,59.260,-250.137,-33.962,32.0,0.0
59258,-0.650,0.665,-1.350,39.252,-250.137,-31.679,58.0,0.0
59343,0.616,0.368,-2.000,-62.710,250.130,29.099,68.0,17.0
59396,-1.734,0.029,-2.000,-150.534,250.130,57.649,38.0,0.0
59433,-2.000,-0.317,0.152,-135.695,-91.962,-69.588,50.0,0.0
59481,-2.000,-0.047,-1.145,-81.656,-250.137,-81.863,61.0,99.0
59531,-1.412,0.052,-2.000,-41.740,-250.137,-96.267,122.0,97.0
59576,1.481,-0.304,-1.803,-21.664,-58.580,-116.489,38.0,99.0
59628,-0.050,-0.259,-1.883,-25.664,250.130,-44.519,145.0,98.0
59684,-2.000,-0.324,-0.647,34.977,250.130,35.947,74.0,0.0
59724,-2.000,-0.244,0.077,-72.977,-250.137,4.069,74.0,0.0
59772,-1.284,-0.115,-1.643,-76.328,-250.137,3.313,88.0,96.0
59821,0.650,-0.433,-2.000,17.008,-250.137,-10.107,128.0,67.0
59869,-0.352,0.169,-2.000,40.069,250.130,63.397,84.0,96.0
59922,-2.000,0.411,-1.896,86.939,250.130,110.748,65.0,0.0
59961,-1.996,0.296,0.667,49.198,-138.802,43.267,57.0,0.0
60013,-1.525,0.121,-0.426,64.214,-250.137,-6.008,54.0,0.0
60055,0.269,0.458,-1.404,-1.282,-250.137,-37.771,68.0,0.0
60103,1.018,0.519,-1.787,-62.489,149.779,13.565,70.0,109.0
60155,-0.928,0.142,-1.936,-138.931,250.130,55.321,57.0,0.0
60194,-2.000,-0.430,-0.122,-59.473,16.282,-85.992,59.0,0.0
60247,-1.966,0.113,-1.220,-19.198,-250.137,-118.374,59.0,0.0
60286,-1.463,0.457,-1.851,-78.992,-250.137,-80.794,62.0,0.0
60337,0.441,-0.100,-1.857,-84.542,-250.137,-72.458,120.0,101.0
60386,1.195,0.042,-1.340,-55.664,250.130,-22.359,117.0,76.0
60437,-0.854,-0.183,-0.657,-13.397,250.130,18.183,121.0,110.0
60496,-2.000,-0.233,0.836,-30.695,-123.710,30.420,129.0,0.0
60539,-1.251,-0.258,-2.000,-56.321,-250.137,36.710,124.0,0.0
60590,0.073,-0.461,-1.869,-2.313,-135.252,21.534,122.0,97.0
60647,-0.336,0.177,-1.992,36.252,250.130,25.779,123.0,0.0
60690,-1.738,0.464,-1.009,65.107,250.130,52.458,124.0,0.0
60733,-2.000,0.372,0.897,43.282,74.237,31.275,80.0,6.0
60788,-1.880,0.146,-0.150,25.145,-250.137,-5.779,118.0,0.0
60830,-0.196,0.698,-1.545,-28.160,-250.137,-63.718,108.0,0.0
60882,1.674,1.048,-2.000,-71.389,54.389,-88.473,106.0,99.0
60933,-1.069,0.253,-2.000,-158.779,250.130,12.939,0.0,11.0
60986,-2.000,-0.660,-1.598,-70.878,244.626,-99.206,0.0,7.0
61041,-0.903,0.022,-1.860,-83.534,-190.282,-148.382,0.0,97.0
61093,-0.684,0.009,-0.863,-129.275,-198.481,-77.023,159.0,98.0
61144,-0.440,-0.067,-0.274,-133.603,-250.137,-39.405,100.0,101.0
61193,0.608,-0.285,-0.714,-91.412,-141.046,-39.878,96.0,102.0
61243,0.976,-0.084,-1.284,-34.557,250.130,-54.466,99.0,105.0
61293,-1.518,-0.144,-1.884,-38.779,250.130,72.145,163.0,8.0
61352,-2.000,-0.122,-0.637,-63.336,-184.496,-52.092,164.0,0.0
61396,-1.179,0.445,-2.000,-87.069,-250.137,-50.298,147.0,0.0
61447,1.228,0.146,-2.000,-58.092,14.588,-51.214,101.0,105.0
61505,-0.502,0.173,-1.284,-25.176,250.130,3.168,158.0,0.0
61550,-2.000,-0.004,1.199,50.626,119.061,-38.901,164.0,0.0
61597,-1.045,0.390,-1.017,-45.603,-250.137,-110.450,162.0,7.0
61642,0.544,0.650,-1.975,-131.519,-186.687,-92.649,110.0,12.0
61701,0.022,0.357,-1.726,-184.672,164.359,-11.595,153.0,0.0
61752,-1.446,-0.330,-1.046,-107.649,-119.992,-133.405,0.0,0.0
61845,0.504,-0.093,-1.949,-65.664,50.794,-161.321,128.0,95.0
61893,-0.048,-0.220,-1.614,-64.229,250.130,-103.504,154.0,10.0
61937,-1.735,-0.375,0.037,-58.061,250.130,-87.595,91.0,5.0
61984,-0.978,0.154,0.231,-54.611,-194.298,-113.580,153.0,6.0
62042,-1.757,0.377,-0.681,-123.389,-250.137,-55.779,152.0,0.0
62085,-0.490,-0.072,-2.000,-135.802,-250.137,-18.511,121.0,0.0
62134,0.877,-0.216,-1.979,-42.466,147.412,22.275,120.0,70.0
62188,-1.851,0.089,-2.000,-33.992,250.130,52.397,127.0,95.0
62249,-2.000,0.122,0.500,-32.359,-13.382,-31.687,0.0,0.0
62291,-0.483,0.420,-0.878,-36.359,-250.137,-54.389,123.0,0.0
62343,0.688,0.210,-1.006,-24.611,-105.527,-57.351,116.0,99.0
62393,-0.490,0.098,-0.353,-20.496,191.870,12.084,122.0,100.0
62446,-1.249,0.204,-0.143,-18.641,12.260,2.336,150.0,98.0
62496,-1.463,0.340,-1.033,-111.618,-250.137,-20.702,123.0,94.0
62547,-0.243,0.143,-1.707,-97.137,-145.092,-66.374,124.0,91.0
62603,0.031,-0.219,-2.000,-50.992,250.130,-110.916,152.0,94.0
62653,-1.914,0.214,-1.484,31.916,250.130,-0.206,0.0,8.0
62717,-2.000,-0.087,1.261,70.779,-250.137,-33.802,0.0,0.0
62763,-0.383,-0.019,-2.000,-17.053,-250.137,-82.656,153.0,0.0
62813,1.758,0.184,-1.674,-25.626,95.496,26.649,128.0,92.0
62868,-1.156,-0.348,-1.559,-47.618,250.130,167.718,0.0,94.0
62929,-2.000,-0.255,-0.525,62.427,61.641,19.397,0.0,0.0
62977,-0.686,0.022,-1.321,23.366,-115.489,13.664,0.0,0.0
63013,-0.911,0.421,-0.353,1.695,-162.557,-10.328,0.0,7.0
63072,-0.246,0.492,-0.569,-3.229,-177.000,-11.344,0.0,106.0
63123,0.630,0.742,-1.372,-33.771,237.267,17.817,0.0,8.0
63187,-1.708,0.186,-0.730,-114.267,250.130,89.366,0.0,0.0
63235,-1.249,0.212,-1.186,-87.153,-250.137,-53.481,0.0,0.0
63282,0.544,-0.343,-2.000,9.389,-87.267,-89.969,0.0,0.0
63330,-0.690,0.183,-1.181,-8.298,250.130,-32.718,0.0,0.0
63377,-1.870,-0.377,0.378,-1.725,-38.473,-35.183,0.0,0.0
63421,0.222,0.104,-0.583,4.939,-187.985,-32.511,57.0,0.0
63467,0.436,-0.033,-0.633,-65.595,36.901,3.542,57.0,98.0
63529,-0.682,-0.742,-1.057,-66.924,-37.298,18.061,44.0,0.0
63569,-0.137,-0.578,-2.000,91.252,162.878,115.557,40.0,0.0
63623,-1.110,0.333,-1.942,86.878,250.130,127.351,41.0,0.0
63676,-2.000,-0.129,-0.662,-4.427,-102.603,-0.282,44.0,0.0
63729,-0.788,0.654,-0.807,20.237,-250.137,-44.779,36.0,0.0
63769,1.074,0.331,-1.110,113.298,-16.290,40.366,31.0,0.0
63811,0.360,0.618,-0.818,82.641,250.130,61.046,36.0,9.0
63853,-0.845,0.381,-0.643,2.756,250.130,25.412,41.0,4.0
63898,-1.102,-0.017,-0.879,-135.740,-95.099,-141.542,44.0,3.0
63961,-0.581,0.511,-1.425,-159.328,-250.137,-198.534,0.0,0.0
64008,-0.677,-0.078,-1.381,14.809,-250.137,-103.870,155.0,0.0
64061,0.578,-0.054,-2.000,172.702,106.870,-65.084,153.0,95.0
64123,-0.699,0.307,-1.687,-33.450,250.130,-24.137,0.0,0.0
64173,-1.358,-0.370,0.343,-80.863,-116.557,-119.511,0.0,0.0
64222,-0.633,0.084,-0.041,-84.168,-250.137,-103.786,0.0,0.0
64268,-0.023,-0.201,-0.439,-1.496,-250.137,0.733,146.0,0.0
64321,-0.614,-0.479,-1.209,69.420,-250.137,-6.641,146.0,96.0
64421,-1.208,-0.374,-0.853,-75.794,111.534,41.496,147.0,99.0
64481,-0.344,0.005,-0.415,24.595,156.038,25.947,146.0,0.0
64530,-0.641,0.404,-0.351,163.893,250.130,16.603,0.0,0.0
64568,-1.556,0.242,-0.305,29.290,-114.702,-112.069,0.0,10.0
64617,-1.045,0.634,-0.845,-99.137,-250.137,-165.244,152.0,8.0
64666,-0.391,0.646,-0.565,-147.229,-250.137,-95.832,148.0,12.0
64726,0.708,0.302,-1.593,-46.244,-23.557,-21.824,149.0,0.0
64775,-1.269,-0.614,-2.000,-80.221,250.130,-127.237,0.0,0.0
64829,-2.000,-0.799,-0.790,-82.198,0.740,-177.153,0.0,4.0
64886,-0.986,0.190,-0.340,-39.611,-250.137,-97.771,0.0,97.0
64940,0.602,-0.140,-1.095,105.191,-200.298,1.214,148.0,96.0
64994,-0.458,0.275,-0.516,-100.580,-25.275,-65.733,148.0,95.0
65048,-0.830,-0.310,-0.252,-176.779,-155.847,-56.450,148.0,94.0
65101,-0.438,-1.069,-0.434,-10.649,-185.183,34.893,149.0,92.0
65156,-0.446,-0.737,-2.000,248.313,193.458,57.672,151.0,91.0
65216,-1.579,0.174,-1.192,-70.260,250.130,39.992,153.0,0.0
65265,-1.304,-0.329,0.189,-113.641,37.130,-80.466,152.0,0.0
65325,-0.789,0.057,0.466,-21.870,-103.527,-5.092,149.0,0.0
65371,0.199,0.195,-0.796,168.847,-49.450,39.847,148.0,0.0
65431,-0.727,0.687,-1.420,-8.374,122.710,-11.031,151.0,0.0
65477,-0.750,-0.147,-1.274,-250.137,-28.863,-112.183,152.0,0.0
65538,-0.874,-0.434,-0.683,-250.137,-30.725,-155.176,151.0,0.0
65584,-0.461,-0.374,-0.853,45.710,-65.023,-64.595,151.0,0.0
65638,-0.334,0.145,-1.620,169.504,168.176,-41.954,153.0,93.0
65692,-0.875,0.161,-1.148,-83.779,36.252,-37.328,151.0,96.0
65750,-0.312,-0.069,-0.541,-208.695,-102.878,-164.130,148.0,100.0
65804,-0.307,0.034,0.119,-113.611,-105.595,-78.618,151.0,95.0
65858,-0.079,-0.445,-1.346,143.328,-43.328,104.466,140.0,93.0
65906,-0.898,0.319,-1.151,-111.519,-31.939,-8.725,140.0,12.0
65955,-0.848,-0.704,-0.809,-211.000,-19.924,-52.046,139.0,15.0
66004,-0.835,-0.598,-0.388,-38.130,4.115,-24.847,138.0,12.0
66064,-0.333,-0.314,-1.041,219.779,35.786,60.885,151.0,0.0
66110,-0.916,0.592,-0.867,29.718,115.282,-21.176,141.0,0.0
66172,-0.634,0.000,-0.734,-99.962,-10.382,-58.008,139.0,0.0
66219,-0.519,0.074,0.208,-60.214,-41.137,-45.061,138.0,0.0
66272,0.064,0.040,-0.799,111.176,-58.595,60.519,133.0,95.0
66324,-1.052,0.354,-1.071,-52.573,-6.145,-31.313,134.0,91.0
66383,-0.843,-0.630,-1.676,-206.679,-46.740,-136.931,135.0,0.0
66429,-0.711,-0.778,-0.515,-126.511,58.504,-121.679,138.0,0.0
66479,-0.550,-0.720,-0.580,101.504,38.351,20.450,139.0,7.0
66538,-0.375,-0.144,-0.496,218.382,43.420,44.565,139.0,0.0
66584,-0.848,-0.268,-1.140,-23.557,-125.595,-80.786,87.0,0.0
66640,-0.305,-0.145,-0.856,-134.710,-188.237,-94.664,89.0,0.0
66683,-0.630,-0.678,0.056,-89.672,-111.489,-54.977,84.0,0.0
66734,-0.858,-1.159,0.211,85.748,-137.427,-11.489,93.0,93.0
66785,-1.070,-1.233,-0.437,250.130,-117.626,-70.244,87.0,92.0
66839,-1.409,-0.416,0.067,199.802,-125.038,-174.206,156.0,91.0
66900,-1.293,-0.649,-0.057,100.618,-250.137,-182.595,0.0,169.0
66951,0.049,-0.460,-0.334,12.802,-201.824,-137.489,32.0,142.0
67004,-0.247,-0.859,0.230,-20.290,-26.901,-93.244,30.0,141.0
