Timestamp(ms),AccelX(g),AccelY(g),AccelZ(g),GyroX(deg/s),GyroY(deg/s),GyroZ(deg/s),DistanceLeft(cm),DistanceRight(cm)
43728,-0.933,-0.022,0.260,2.550,9.458,6.702,0.0,3.0
43778,-0.949,-0.011,0.227,2.382,8.038,6.221,0.0,2.0
43826,-0.933,-0.017,0.227,0.588,7.985,5.870,0.0,2.0
43875,-0.940,-0.022,0.226,1.282,9.542,3.504,0.0,3.0
43923,-0.960,-0.053,0.236,1.664,7.191,6.107,0.0,3.0
43972,-0.949,-0.011,0.232,0.374,-2.351,2.626,0.0,3.0
44020,-0.944,-0.011,0.231,1.305,-6.206,4.160,0.0,3.0
44069,-0.927,-0.029,0.236,-0.008,-8.565,4.397,0.0,3.0
44121,-0.940,-0.030,0.246,0.229,-6.626,5.863,0.0,3.0
44169,-0.952,0.008,0.260,1.122,-6.802,4.573,0.0,3.0
44218,-0.945,-0.024,0.267,-0.947,-4.206,-0.473,0.0,3.0
44266,-0.906,-0.018,0.217,1.595,12.855,6.366,0.0,3.0
44315,-0.943,-0.028,0.244,1.962,9.496,11.466,0.0,3.0
44363,-0.976,-0.044,0.262,-0.519,-0.359,4.305,0.0,3.0
44412,-0.945,-0.033,0.254,1.947,-4.977,4.214,0.0,3.0
44461,-0.948,-0.017,0.243,-1.336,-1.557,4.198,0.0,3.0
44510,-0.930,-0.025,0.261,-1.366,-2.718,4.672,0.0,3.0
44561,-0.932,-0.026,0.254,1.130,-0.221,6.473,0.0,3.0
44610,-0.942,-0.024,0.260,1.687,-1.053,3.687,0.0,3.0
44658,-0.952,-0.031,0.315,1.305,-6.137,2.237,0.0,3.0
44707,-0.936,-0.051,0.250,1.534,-9.412,2.672,0.0,3.0
44756,-0.910,-0.036,0.257,0.969,-3.649,3.031,0.0,3.0
44805,-0.915,-0.029,0.281,2.115,7.092,9.687,0.0,3.0
44854,-0.920,-0.045,0.280,1.733,14.031,11.313,0.0,3.0
44903,-0.944,-0.030,0.281,4.511,7.771,7.435,0.0,3.0
44951,-0.797,-0.195,0.423,5.359,-9.649,-1.794,0.0,3.0
45000,-0.899,-0.029,0.252,0.443,1.847,4.832,0.0,3.0
45051,-0.940,-0.030,0.256,0.885,-7.824,4.473,0.0,3.0
45101,-0.931,-0.037,0.271,-0.015,-9.718,1.183,0.0,3.0
45150,-0.930,-0.036,0.282,-0.115,-9.130,0.069,0.0,3.0
45198,-0.907,-0.037,0.290,2.176,-5.473,3.076,0.0,3.0
45247,-0.909,-0.045,0.289,0.855,-1.626,4.321,0.0,4.0
45296,-0.903,-0.039,0.301,0.412,3.885,7.542,0.0,3.0
45344,-0.918,-0.043,0.280,1.679,8.947,7.092,0.0,3.0
45393,-0.935,-0.037,0.279,1.504,5.718,5.985,0.0,4.0
45443,-0.945,-0.036,0.282,0.824,-0.405,4.756,0.0,3.0
45494,-0.921,-0.038,0.298,0.427,-2.588,5.374,0.0,3.0
45543,-0.922,-0.039,0.283,0.618,1.099,4.718,0.0,3.0
45592,-0.920,-0.043,0.285,1.206,3.832,6.298,0.0,3.0
45640,-0.931,-0.039,0.282,0.496,0.519,6.008,0.0,3.0
45689,-0.933,-0.040,0.281,0.748,0.779,6.634,0.0,3.0
45739,-0.919,-0.038,0.284,0.626,0.130,5.046,0.0,3.0
45788,-0.926,-0.041,0.287,0.641,0.183,6.000,0.0,3.0
45836,-0.919,-0.043,0.286,0.763,0.908,4.985,0.0,3.0
45885,-0.928,-0.035,0.293,0.397,0.954,6.015,0.0,3.0
45934,-0.921,-0.039,0.283,0.611,3.061,6.084,0.0,3.0
45986,-0.928,-0.040,0.296,0.855,1.939,5.641,0.0,3.0
46034,-0.927,-0.042,0.280,0.557,1.977,6.557,0.0,3.0
46084,-0.926,-0.036,0.292,-1.076,-1.015,5.496,0.0,3.0
46133,-0.927,-0.038,0.291,0.916,0.389,5.748,0.0,3.0
46225,-0.923,-0.035,0.281,0.756,0.336,6.008,0.0,3.0
46274,-0.921,-0.039,0.295,-0.008,-1.359,6.145,0.0,3.0
46322,-0.915,-0.040,0.301,-1.328,-2.618,6.802,0.0,3.0
46371,-0.925,-0.039,0.301,-0.015,0.260,6.954,0.0,4.0
46420,-0.926,-0.039,0.305,0.679,-1.069,5.481,0.0,4.0
46473,-0.921,-0.029,0.307,0.519,-1.489,5.702,0.0,4.0
46522,-0.916,-0.037,0.301,0.939,1.412,5.267,0.0,4.0
46571,-0.927,-0.041,0.296,1.382,3.084,4.267,0.0,4.0
46620,-0.919,-0.039,0.307,2.298,5.489,4.298,0.0,4.0
46669,-0.915,-0.033,0.299,0.878,4.954,6.031,0.0,3.0
46718,-0.920,-0.036,0.297,0.588,3.305,7.695,0.0,3.0
46768,-0.936,-0.034,0.292,0.336,0.000,7.420,0.0,3.0
46816,-0.918,-0.034,0.287,-0.977,-3.519,5.443,0.0,3.0
46866,-0.906,-0.038,0.301,0.939,-0.290,5.412,0.0,4.0
46914,-0.917,-0.035,0.307,0.794,4.802,6.901,0.0,3.0
46966,-0.915,-0.031,0.298,-0.214,7.160,7.618,0.0,3.0
47015,-0.920,-0.032,0.288,1.183,8.649,6.656,0.0,3.0
47065,-0.939,-0.036,0.278,1.679,3.977,5.733,0.0,3.0
47114,-0.935,-0.025,0.276,0.550,-3.374,5.458,0.0,3.0
47163,-0.923,-0.040,0.282,0.046,-5.252,3.908,0.0,3.0
47212,-0.916,-0.034,0.296,-0.092,-5.053,4.870,0.0,3.0
47261,-0.921,-0.039,0.315,1.000,2.267,5.710,0.0,3.0
47310,-0.912,-0.040,0.297,1.214,6.595,5.809,0.0,3.0
47360,-0.932,-0.037,0.289,0.595,2.321,6.832,0.0,3.0
47410,-0.927,-0.032,0.279,0.443,3.137,7.084,0.0,4.0
47462,-0.921,-0.037,0.286,0.626,0.573,5.748,0.0,4.0
47511,-0.910,-0.031,0.293,0.427,3.275,5.565,0.0,4.0
47560,-0.919,-0.034,0.285,0.458,5.267,7.809,0.0,3.0
47609,-0.923,-0.034,0.289,0.053,3.580,5.779,0.0,3.0
47659,-0.934,-0.016,0.283,0.221,-0.939,5.687,0.0,3.0
47708,-0.924,-0.036,0.295,-1.305,-3.824,4.779,0.0,4.0
47757,-0.917,-0.035,0.287,-1.084,-4.916,3.664,0.0,3.0
47806,-0.922,-0.035,0.297,-1.374,-8.183,3.710,0.0,4.0
47855,-0.910,-0.038,0.291,-3.786,-9.656,5.702,0.0,4.0
47908,-0.905,-0.038,0.315,-1.962,-1.740,7.038,0.0,5.0
47958,-0.917,-0.030,0.312,-1.443,-2.099,5.702,0.0,5.0
48007,-0.906,-0.041,0.296,0.771,6.374,6.656,0.0,5.0
48056,-0.924,-0.032,0.294,0.832,5.817,5.908,0.0,4.0
48105,-0.911,-0.035,0.309,0.916,2.954,4.786,0.0,4.0
48155,-0.921,-0.042,0.300,0.718,3.626,5.687,0.0,4.0
48204,-0.913,-0.043,0.305,0.977,1.221,4.817,0.0,4.0
48253,-0.927,-0.037,0.303,0.595,2.435,5.824,0.0,4.0
48303,-0.918,-0.038,0.302,-0.115,2.191,6.504,0.0,4.0
48352,-0.938,-0.033,0.304,0.611,-0.725,5.115,0.0,4.0
48405,-0.906,-0.043,0.299,0.305,-2.534,5.496,0.0,4.0
48454,-0.915,-0.038,0.309,0.115,1.244,6.275,0.0,4.0
48503,-0.916,-0.036,0.312,-0.015,2.290,6.511,0.0,4.0
48553,-0.921,-0.036,0.309,0.130,2.160,6.229,0.0,4.0
48603,-0.919,-0.032,0.302,0.710,2.985,5.282,0.0,4.0
48652,-0.927,-0.034,0.298,0.740,2.740,5.275,0.0,4.0
48744,-0.934,-0.037,0.297,-0.466,-4.893,4.313,0.0,4.0
48794,-0.909,-0.044,0.300,-1.359,-6.710,4.595,0.0,4.0
48847,-0.900,-0.046,0.318,-0.366,0.916,6.237,0.0,4.0
48900,-0.922,-0.036,0.318,0.748,6.237,5.947,0.0,5.0
48953,-0.923,-0.037,0.298,0.115,5.672,6.435,0.0,4.0
49003,-0.927,-0.040,0.300,0.969,2.328,5.855,0.0,4.0
49052,-0.913,-0.040,0.305,0.794,-0.511,5.099,0.0,4.0
49101,-0.905,-0.042,0.307,0.802,2.450,5.901,0.0,4.0
49150,-0.924,-0.039,0.302,0.672,3.565,5.901,0.0,4.0
49201,-0.925,-0.037,0.310,0.542,0.397,5.321,0.0,4.0
49250,-0.913,-0.047,0.307,0.802,-0.534,4.733,0.0,4.0
49299,-0.914,-0.042,0.306,1.076,2.931,5.908,0.0,4.0
49349,-0.917,-0.041,0.304,0.870,2.313,5.565,0.0,4.0
49401,-0.919,-0.039,0.295,0.779,1.031,5.748,0.0,4.0
49452,-0.924,-0.038,0.312,1.038,1.893,6.000,0.0,4.0
49501,-0.928,-0.042,0.296,0.618,1.389,5.542,0.0,4.0
49550,-0.921,-0.039,0.308,0.244,0.198,5.618,0.0,4.0
49600,-0.918,-0.032,0.299,0.687,0.450,5.351,0.0,4.0
49649,-0.915,-0.040,0.306,0.634,-0.321,5.405,0.0,4.0
49699,-0.924,-0.041,0.312,0.718,0.718,5.611,0.0,4.0
49748,-0.916,-0.041,0.306,0.908,1.290,5.733,0.0,4.0
49799,-0.922,-0.038,0.311,0.832,0.901,5.267,0.0,4.0
49851,-0.911,-0.041,0.298,0.725,0.321,5.733,0.0,4.0
49901,-0.917,-0.045,0.310,0.969,1.878,5.985,0.0,4.0
49950,-0.910,-0.042,0.301,0.695,0.595,5.779,0.0,4.0
50006,-0.917,-0.040,0.314,0.802,0.748,5.580,0.0,5.0
50055,-0.917,-0.037,0.300,0.634,1.275,5.878,0.0,5.0
50103,-0.913,-0.040,0.303,1.061,2.305,5.840,0.0,4.0
50152,-0.920,-0.045,0.317,0.786,0.863,5.611,0.0,4.0
50200,-0.914,-0.043,0.306,0.634,1.260,5.672,0.0,4.0
50248,-0.923,-0.039,0.309,0.924,2.374,5.863,0.0,4.0
50297,-0.920,-0.038,0.304,0.809,1.206,5.618,0.0,4.0
50349,-0.918,-0.041,0.306,0.748,0.275,5.527,0.0,4.0
50397,-0.931,-0.043,0.299,0.847,-0.267,5.031,0.0,5.0
50446,-0.910,-0.038,0.313,0.733,0.115,5.130,0.0,5.0
50495,-0.923,-0.046,0.304,0.969,2.099,5.534,0.0,5.0
50543,-0.915,-0.046,0.311,1.046,1.229,5.252,0.0,5.0
50592,-0.911,-0.039,0.306,0.611,0.198,5.481,0.0,5.0
50640,-0.910,-0.041,0.312,0.542,0.725,6.389,0.0,5.0
50690,-0.917,-0.041,0.311,0.763,2.145,5.824,0.0,5.0
50738,-0.917,-0.044,0.308,1.160,2.008,5.481,0.0,5.0
50787,-0.923,-0.043,0.313,0.924,1.168,5.321,0.0,5.0
50838,-0.913,-0.043,0.315,0.878,0.229,5.252,0.0,5.0
50887,-0.910,-0.042,0.320,0.885,1.191,5.557,0.0,5.0
50935,-0.918,-0.042,0.310,0.786,2.252,5.672,0.0,5.0
50984,-0.920,-0.038,0.305,0.855,1.107,5.618,0.0,5.0
51034,-0.915,-0.041,0.312,0.641,0.870,5.603,0.0,5.0
51082,-0.914,-0.039,0.313,0.977,2.244,5.710,0.0,5.0
51131,-0.920,-0.036,0.312,0.847,1.023,5.519,0.0,5.0
51180,-0.911,-0.044,0.316,1.000,0.802,5.595,0.0,5.0
51271,-0.910,-0.035,0.310,0.779,0.870,5.443,0.0,5.0
51323,-0.919,-0.044,0.305,0.664,0.031,5.382,0.0,4.0
51372,-0.907,-0.037,0.317,0.969,1.061,5.435,0.0,4.0
51421,-0.915,-0.042,0.314,0.656,0.206,5.244,0.0,4.0
51470,-0.909,-0.036,0.319,0.992,1.435,5.237,0.0,4.0
51518,-0.924,-0.042,0.313,1.023,1.214,5.763,0.0,4.0
51567,-0.918,-0.041,0.310,1.008,1.198,5.427,0.0,4.0
51616,-0.914,-0.041,0.311,0.786,1.947,6.061,0.0,4.0
51665,-0.918,-0.040,0.305,0.824,2.481,5.710,0.0,5.0
51714,-0.918,-0.047,0.314,0.916,1.084,5.550,0.0,4.0
51763,-0.911,-0.045,0.311,0.847,1.008,5.763,0.0,4.0
51815,-0.910,-0.042,0.310,0.565,1.168,5.969,0.0,5.0
51863,-0.911,-0.045,0.302,0.931,2.206,5.656,0.0,4.0
51912,-0.915,-0.040,0.313,0.962,0.626,5.115,0.0,5.0
51961,-0.909,-0.041,0.317,0.641,1.092,5.725,0.0,4.0
52011,-0.920,-0.047,0.306,0.916,3.168,5.817,0.0,5.0
52059,-0.919,-0.039,0.308,1.008,0.885,5.733,0.0,5.0
52108,-0.917,-0.042,0.308,0.733,-0.092,5.389,0.0,5.0
52157,-0.914,-0.040,0.312,1.084,1.573,5.198,0.0,5.0
52206,-0.912,-0.041,0.317,0.908,1.977,5.794,0.0,5.0
52255,-0.918,-0.043,0.315,0.817,0.504,5.435,0.0,4.0
52306,-0.915,-0.045,0.316,0.863,0.824,5.481,0.0,4.0
52356,-0.912,-0.048,0.297,0.992,1.748,5.740,0.0,5.0
52405,-0.912,-0.039,0.325,0.817,0.893,5.641,0.0,5.0
52454,-0.926,-0.040,0.309,1.008,1.664,5.985,0.0,4.0
52503,-0.924,-0.045,0.316,1.000,1.557,5.481,0.0,5.0
52552,-0.922,-0.039,0.306,0.771,0.939,5.664,0.0,5.0
52601,-0.922,-0.038,0.315,0.832,1.198,5.542,0.0,5.0
52649,-0.912,-0.048,0.302,0.710,1.702,5.908,0.0,5.0
52699,-0.914,-0.040,0.310,0.748,1.534,5.511,0.0,5.0
52751,-0.923,-0.045,0.320,0.809,0.702,5.366,0.0,5.0
52800,-0.910,-0.040,0.305,0.679,1.275,5.504,0.0,4.0
52849,-0.915,-0.041,0.314,0.863,1.992,6.038,0.0,5.0
52898,-0.915,-0.046,0.308,0.710,1.290,5.244,0.0,5.0
52947,-0.914,-0.042,0.309,0.748,0.977,5.962,0.0,5.0
52997,-0.911,-0.033,0.306,0.855,1.641,5.641,0.0,4.0
53046,-0.915,-0.044,0.320,0.924,1.290,5.420,0.0,5.0
53095,-0.921,-0.042,0.313,0.656,0.160,5.527,0.0,5.0
53144,-0.918,-0.047,0.309,0.450,1.282,5.916,0.0,5.0
53193,-0.909,-0.045,0.310,0.771,1.817,5.840,0.0,5.0
53245,-0.910,-0.043,0.314,0.672,0.023,5.351,0.0,5.0
53295,-0.918,-0.042,0.305,0.695,1.000,5.550,0.0,4.0
53344,-0.917,-0.035,0.320,0.794,0.458,5.382,0.0,4.0
53393,-0.915,-0.036,0.309,0.771,1.069,5.794,0.0,4.0
53442,-0.916,-0.042,0.310,0.947,1.000,5.290,0.0,4.0
53491,-0.913,-0.041,0.313,0.679,0.580,5.580,0.0,4.0
53540,-0.914,-0.036,0.310,1.015,1.473,5.504,0.0,4.0
53590,-0.920,-0.044,0.306,0.847,0.847,5.382,0.0,4.0
53639,-0.917,-0.045,0.321,0.672,0.076,5.328,0.0,4.0
53688,-0.916,-0.044,0.301,1.122,1.863,5.656,0.0,4.0
53783,-0.912,-0.042,0.311,0.916,0.947,5.580,0.0,4.0
53832,-0.913,-0.044,0.308,1.015,1.748,5.672,0.0,4.0
53881,-0.917,-0.046,0.319,0.794,1.504,5.817,0.0,4.0
53931,-0.911,-0.045,0.311,0.870,0.718,5.244,0.0,4.0
53980,-0.915,-0.045,0.315,0.855,0.740,5.351,0.0,4.0
54029,-0.917,-0.037,0.317,0.962,1.046,5.725,0.0,4.0
54078,-0.918,-0.043,0.316,1.115,1.527,5.565,0.0,4.0
54128,-0.918,-0.046,0.323,0.947,1.344,5.427,0.0,4.0
54177,-0.908,-0.046,0.319,0.992,2.496,6.046,0.0,4.0
54230,-0.922,-0.038,0.321,1.023,1.634,5.489,0.0,4.0
54279,-0.913,-0.037,0.311,0.824,0.160,5.557,0.0,4.0
54328,-0.911,-0.043,0.321,0.947,2.198,5.557,0.0,4.0
54377,-0.915,-0.045,0.314,0.832,1.115,5.679,0.0,4.0
54427,-0.910,-0.046,0.321,0.771,0.733,5.374,0.0,4.0
54476,-0.909,-0.042,0.317,0.893,1.649,5.267,0.0,4.0
54525,-0.910,-0.040,0.320,0.954,1.183,5.511,0.0,4.0
54575,-0.915,-0.044,0.323,0.863,0.947,5.359,0.0,4.0
54624,-0.917,-0.045,0.313,0.847,1.031,5.542,0.0,4.0
54674,-0.916,-0.040,0.311,0.908,1.198,5.466,0.0,4.0
54726,-0.914,-0.041,0.315,0.771,1.382,5.573,0.0,4.0
54775,-0.922,-0.040,0.316,0.824,1.191,5.466,0.0,4.0
54824,-0.905,-0.045,0.324,0.832,0.679,5.359,0.0,4.0
54875,-0.914,-0.044,0.319,0.809,1.473,5.573,0.0,4.0
54924,-0.909,-0.042,0.315,0.939,1.397,5.519,0.0,4.0
54973,-0.912,-0.046,0.314,0.794,1.321,5.847,0.0,4.0
55022,-0.917,-0.041,0.317,0.931,1.473,5.504,0.0,4.0
55072,-0.913,-0.042,0.320,0.832,0.832,5.527,0.0,4.0
55121,-0.911,-0.047,0.314,0.885,1.664,5.580,0.0,4.0
55171,-0.912,-0.048,0.321,0.740,1.603,5.702,0.0,4.0
55224,-0.911,-0.037,0.319,0.618,0.641,5.481,0.0,4.0
55273,-0.911,-0.035,0.309,0.695,0.863,5.679,0.0,4.0
55322,-0.907,-0.041,0.319,0.863,1.573,5.534,0.0,4.0
55372,-0.909,-0.042,0.315,1.000,2.504,5.725,0.0,4.0
55421,-0.916,-0.044,0.321,1.084,1.397,5.351,0.0,4.0
55471,-0.912,-0.038,0.314,0.733,0.534,5.412,0.0,4.0
55521,-0.908,-0.042,0.316,0.702,0.649,5.435,0.0,4.0
55570,-0.911,-0.039,0.316,0.870,1.504,5.840,0.0,4.0
55619,-0.913,-0.045,0.319,0.702,1.313,5.611,0.0,4.0
55672,-0.909,-0.040,0.310,0.763,1.046,5.626,0.0,4.0
55721,-0.914,-0.040,0.313,0.908,1.092,5.817,0.0,4.0
55772,-0.911,-0.037,0.316,0.855,0.924,5.397,0.0,4.0
55821,-0.916,-0.043,0.315,0.809,1.023,5.756,0.0,4.0
55870,-0.909,-0.047,0.308,0.817,0.824,5.382,0.0,4.0
55920,-0.916,-0.043,0.311,0.992,1.198,5.565,0.0,4.0
55969,-0.915,-0.044,0.316,0.656,0.908,5.679,0.0,4.0
56019,-0.917,-0.044,0.320,0.931,1.076,5.344,0.0,4.0
56069,-0.922,-0.041,0.321,0.802,1.076,5.489,0.0,4.0
56118,-0.919,-0.042,0.315,1.008,0.947,5.443,0.0,4.0
56171,-0.916,-0.044,0.317,0.954,1.992,5.649,0.0,4.0
56221,-0.912,-0.047,0.319,0.924,1.298,5.626,0.0,4.0
56313,-0.914,-0.038,0.319,0.557,0.420,5.901,0.0,4.0
56364,-0.905,-0.039,0.316,0.847,1.527,5.672,0.0,4.0
56418,-0.915,-0.042,0.316,0.969,1.603,5.534,0.0,4.0
56467,-0.914,-0.040,0.317,1.023,1.038,5.305,0.0,4.0
56515,-0.915,-0.045,0.325,0.992,0.740,5.252,0.0,4.0
56564,-0.907,-0.047,0.308,0.863,1.702,5.611,0.0,4.0
56612,-0.917,-0.049,0.324,0.885,0.947,5.481,0.0,4.0
56662,-0.915,-0.043,0.309,0.863,0.466,5.550,0.0,4.0
56713,-0.911,-0.044,0.321,0.992,1.618,5.366,0.0,4.0
56761,-0.919,-0.039,0.318,0.901,1.611,5.649,0.0,5.0
56812,-0.921,-0.043,0.316,0.901,0.840,5.405,0.0,36.0
56860,-0.914,-0.040,0.322,0.985,1.229,5.344,0.0,4.0
56909,-0.915,-0.040,0.320,0.824,1.649,5.473,0.0,4.0
56957,-0.915,-0.045,0.315,0.863,1.366,5.641,0.0,4.0
56992,-0.913,-0.038,0.320,0.962,0.863,5.435,0.0,4.0
57041,-0.911,-0.044,0.318,0.786,0.962,5.321,0.0,4.0
57091,-0.913,-0.046,0.320,0.840,1.382,5.534,0.0,4.0
57142,-0.914,-0.039,0.324,0.992,1.046,5.290,0.0,4.0
57192,-0.912,-0.043,0.315,0.947,1.000,5.511,0.0,36.0
57241,-0.908,-0.041,0.317,1.038,1.168,5.527,0.0,4.0
57291,-0.918,-0.046,0.321,0.931,1.618,5.679,0.0,36.0
57342,-0.912,-0.040,0.322,0.824,0.832,5.496,0.0,36.0
57392,-0.907,-0.045,0.314,0.802,0.504,5.550,0.0,4.0
57440,-0.913,-0.043,0.315,0.924,1.763,5.496,0.0,4.0
57489,-0.912,-0.046,0.324,0.977,1.107,5.718,0.0,4.0
57539,-0.913,-0.045,0.322,0.901,1.595,5.695,0.0,36.0
57590,-0.912,-0.046,0.330,0.824,1.160,5.573,0.0,36.0
57643,-0.922,-0.042,0.313,0.939,1.260,5.809,0.0,5.0
57693,-0.915,-0.047,0.321,0.901,1.695,5.679,0.0,36.0
57742,-0.903,-0.046,0.314,1.023,1.466,5.198,0.0,4.0
57790,-0.910,-0.048,0.318,0.916,1.084,5.550,0.0,4.0
57839,-0.916,-0.043,0.324,0.832,1.489,5.901,0.0,4.0
57890,-0.917,-0.042,0.318,0.847,1.321,5.443,0.0,36.0
57938,-0.915,-0.042,0.321,0.832,0.939,5.534,0.0,4.0
57988,-0.911,-0.048,0.319,0.809,1.954,5.740,0.0,4.0
58037,-0.917,-0.042,0.313,0.802,1.221,5.740,0.0,4.0
58088,-0.915,-0.044,0.309,0.847,1.427,5.649,0.0,4.0
58137,-0.921,-0.042,0.313,0.931,1.885,5.496,0.0,4.0
58186,-0.916,-0.045,0.318,0.916,1.779,5.496,0.0,4.0
58235,-0.916,-0.042,0.326,0.855,1.092,5.649,0.0,4.0
58284,-0.916,-0.042,0.317,0.565,0.641,5.359,0.0,4.0
58333,-0.911,-0.047,0.324,0.855,1.427,5.733,0.0,4.0
58382,-0.908,-0.042,0.316,0.840,1.099,5.718,0.0,4.0
58432,-0.910,-0.044,0.315,0.824,1.008,5.565,0.0,36.0
58481,-0.912,-0.041,0.311,0.817,1.489,5.832,0.0,4.0
58530,-0.913,-0.041,0.312,0.817,0.473,5.466,0.0,5.0
58583,-0.911,-0.038,0.313,0.641,1.092,5.733,0.0,5.0
58633,-0.911,-0.047,0.317,0.916,0.954,5.260,0.0,36.0
58682,-0.907,-0.045,0.318,0.840,0.893,5.336,0.0,4.0
58733,-0.903,-0.041,0.318,0.847,1.145,5.443,0.0,36.0
58825,-0.911,-0.047,0.324,0.924,1.145,5.435,0.0,4.0
58874,-0.911,-0.041,0.322,0.947,1.305,5.489,0.0,4.0
58909,-0.921,-0.042,0.313,0.916,1.321,5.672,0.0,4.0
58958,-0.912,-0.046,0.321,0.962,0.695,5.405,0.0,4.0
58994,-0.911,-0.043,0.319,0.908,1.099,5.550,0.0,4.0
59043,-0.912,-0.040,0.317,1.099,1.824,5.603,0.0,4.0
59099,-0.918,-0.041,0.310,1.076,1.321,5.634,0.0,4.0
59148,-0.916,-0.042,0.317,0.878,0.573,5.405,0.0,4.0
59184,-0.917,-0.043,0.316,0.885,1.023,5.664,0.0,4.0
59233,-0.923,-0.042,0.318,0.870,0.832,5.366,0.0,6.0
59283,-0.908,-0.039,0.320,0.939,1.748,5.695,0.0,36.0
59332,-0.918,-0.042,0.317,0.962,1.573,5.450,0.0,4.0
59381,-0.917,-0.046,0.317,0.855,0.595,5.527,0.0,4.0
59430,-0.910,-0.046,0.311,0.985,0.924,5.534,0.0,4.0
59480,-0.916,-0.043,0.315,0.992,1.954,5.641,0.0,4.0
59532,-0.912,-0.048,0.320,0.870,0.870,5.366,0.0,4.0
59581,-0.913,-0.048,0.323,0.878,0.855,5.779,0.0,4.0
59630,-0.913,-0.042,0.305,1.061,1.863,5.687,0.0,4.0
59679,-0.917,-0.047,0.312,0.947,1.382,5.634,0.0,4.0
59730,-0.918,-0.043,0.316,0.824,0.939,5.244,0.0,36.0
59782,-0.913,-0.044,0.314,1.008,1.351,5.748,0.0,36.0
59831,-0.914,-0.045,0.333,0.908,1.053,5.534,0.0,4.0
59880,-0.913,-0.047,0.321,0.885,0.847,5.550,0.0,4.0
59915,-0.913,-0.042,0.325,1.053,1.588,5.718,0.0,4.0
59966,-0.906,-0.044,0.326,0.901,1.794,5.740,0.0,36.0
60020,-0.917,-0.044,0.328,0.840,0.710,5.359,0.0,36.0
60069,-0.906,-0.043,0.316,0.832,1.641,5.595,0.0,4.0
60121,-0.917,-0.049,0.317,0.985,1.321,5.481,0.0,36.0
60171,-0.915,-0.044,0.321,0.817,1.229,5.527,0.0,4.0
60220,-0.914,-0.045,0.317,0.939,0.969,5.527,0.0,4.0
60269,-0.912,-0.044,0.317,1.031,1.168,5.496,0.0,4.0
60320,-0.914,-0.049,0.320,0.779,1.534,5.603,0.0,36.0
60369,-0.908,-0.042,0.317,0.939,0.733,5.359,0.0,6.0
60419,-0.913,-0.047,0.323,0.885,1.427,5.939,0.0,4.0
60454,-0.916,-0.042,0.311,0.908,1.389,5.763,0.0,4.0
60507,-0.913,-0.044,0.327,0.763,1.092,5.511,0.0,4.0
60542,-0.910,-0.045,0.320,0.962,1.374,5.534,0.0,4.0
60592,-0.917,-0.041,0.306,0.740,1.626,5.840,0.0,4.0
60641,-0.916,-0.044,0.315,0.824,1.527,5.855,0.0,4.0
60690,-0.917,-0.044,0.310,0.840,1.573,5.603,0.0,4.0
60739,-0.912,-0.049,0.316,0.908,0.824,5.473,0.0,4.0
60788,-0.908,-0.046,0.319,0.664,1.557,5.924,0.0,4.0
60838,-0.918,-0.044,0.320,0.954,0.863,5.496,0.0,5.0
60889,-0.914,-0.049,0.318,0.725,1.023,5.641,0.0,36.0
60942,-0.912,-0.042,0.313,0.962,1.366,5.550,0.0,4.0
60991,-0.909,-0.047,0.312,0.740,1.145,5.618,0.0,4.0
61042,-0.919,-0.045,0.319,0.908,1.397,5.634,0.0,36.0
61093,-0.911,-0.037,0.319,0.885,1.237,5.626,0.0,36.0
61146,-0.912,-0.040,0.320,0.695,0.802,5.481,0.0,36.0
61197,-0.917,-0.043,0.322,0.863,1.244,5.351,0.0,36.0
61289,-0.914,-0.044,0.315,0.947,0.969,5.588,0.0,4.0
61340,-0.913,-0.048,0.322,0.878,1.336,5.634,0.0,36.0
61390,-0.914,-0.046,0.318,0.977,1.885,5.695,0.0,4.0
61440,-0.917,-0.045,0.314,1.000,0.969,5.374,0.0,4.0
61494,-0.912,-0.046,0.316,0.901,0.969,5.527,0.0,36.0
61546,-0.916,-0.045,0.326,1.031,1.313,5.595,0.0,36.0
61595,-0.915,-0.045,0.314,0.962,1.282,5.550,0.0,4.0
61644,-0.916,-0.043,0.319,0.855,1.176,5.550,0.0,4.0
61697,-0.918,-0.045,0.320,0.863,1.023,5.664,0.0,36.0
61748,-0.909,-0.045,0.310,0.954,1.618,5.542,0.0,36.0
61797,-0.912,-0.044,0.320,0.817,0.954,5.481,0.0,4.0
61847,-0.913,-0.042,0.315,0.969,1.397,5.473,0.0,4.0
61896,-0.913,-0.046,0.326,0.947,1.366,5.351,0.0,4.0
61949,-0.922,-0.042,0.321,0.908,1.221,5.885,0.0,4.0
61999,-0.911,-0.042,0.324,1.076,1.443,5.176,0.0,4.0
62048,-0.911,-0.041,0.317,0.954,1.511,5.748,0.0,4.0
62098,-0.914,-0.049,0.330,0.947,1.298,5.305,0.0,5.0
62147,-0.911,-0.045,0.328,0.824,0.763,5.611,0.0,4.0
62197,-0.904,-0.041,0.324,0.954,1.710,5.443,0.0,4.0
62246,-0.915,-0.042,0.321,0.809,1.901,5.824,0.0,4.0
62296,-0.905,-0.050,0.317,0.931,0.443,5.344,0.0,4.0
62346,-0.915,-0.042,0.316,0.916,1.221,5.611,0.0,4.0
62395,-0.903,-0.041,0.313,0.870,1.916,5.611,0.0,4.0
62448,-0.918,-0.042,0.316,0.847,1.221,5.473,0.0,4.0
62497,-0.915,-0.038,0.322,0.863,0.901,5.458,0.0,4.0
62547,-0.916,-0.040,0.312,1.061,2.214,5.763,0.0,4.0
62597,-0.915,-0.041,0.318,1.023,0.611,5.160,0.0,4.0
62647,-0.917,-0.045,0.311,0.901,0.649,5.557,0.0,4.0
62696,-0.917,-0.045,0.317,1.099,2.221,5.809,0.0,4.0
62751,-0.921,-0.041,0.320,0.855,1.137,5.656,0.0,4.0
62800,-0.908,-0.050,0.321,0.977,0.252,4.939,0.0,4.0
62849,-0.906,-0.045,0.323,0.992,2.008,5.580,0.0,4.0
62898,-0.920,-0.045,0.318,1.053,1.389,5.634,0.0,4.0
62949,-0.914,-0.047,0.323,0.832,0.137,5.260,0.0,4.0
62997,-0.911,-0.044,0.311,1.031,1.771,5.565,0.0,4.0
63046,-0.919,-0.045,0.323,0.824,1.885,5.718,0.0,4.0
63094,-0.913,-0.038,0.311,0.824,0.748,5.305,0.0,4.0
63143,-0.907,-0.045,0.321,0.870,1.458,5.771,0.0,4.0
63192,-0.914,-0.046,0.318,0.931,1.649,5.557,0.0,4.0
63241,-0.913,-0.042,0.317,0.824,0.855,5.595,0.0,4.0
63289,-0.911,-0.043,0.314,0.977,1.282,5.511,0.0,4.0
63338,-0.914,-0.045,0.313,0.840,1.656,5.809,0.0,4.0
63389,-0.918,-0.043,0.317,0.855,1.038,5.466,0.0,4.0
63438,-0.916,-0.047,0.319,0.786,1.336,5.504,0.0,4.0
63486,-0.912,-0.046,0.322,0.863,1.771,5.702,0.0,4.0
63536,-0.917,-0.047,0.314,0.901,0.733,5.626,0.0,4.0
63584,-0.916,-0.043,0.325,0.748,0.565,5.534,0.0,4.0
63633,-0.913,-0.046,0.315,1.053,1.817,5.511,0.0,4.0
63682,-0.919,-0.043,0.315,0.901,1.260,5.595,0.0,4.0
63730,-0.915,-0.040,0.317,0.702,0.420,5.366,0.0,4.0
63822,-0.908,-0.042,0.321,0.634,0.534,5.473,0.0,4.0
63872,-0.910,-0.042,0.319,0.924,1.389,5.382,0.0,4.0
63923,-0.910,-0.036,0.330,0.863,0.603,5.573,0.0,4.0
63974,-0.905,-0.042,0.316,1.008,1.618,5.626,0.0,36.0
64022,-0.913,-0.041,0.319,0.817,1.275,5.580,0.0,4.0
64071,-0.913,-0.044,0.316,0.794,1.534,5.679,0.0,4.0
64120,-0.915,-0.044,0.316,1.015,1.260,5.542,0.0,4.0
64168,-0.913,-0.042,0.314,0.977,0.809,5.519,0.0,4.0
64220,-0.905,-0.045,0.325,0.878,1.344,5.565,0.0,36.0
64269,-0.917,-0.044,0.331,1.099,1.649,5.626,0.0,4.0
64318,-0.913,-0.043,0.310,0.832,0.809,5.542,0.0,4.0
64366,-0.910,-0.042,0.328,0.794,0.802,5.511,0.0,4.0
64420,-0.915,-0.047,0.314,1.214,1.649,5.542,0.0,36.0
64470,-0.911,-0.041,0.321,0.855,1.397,5.832,0.0,4.0
64520,-0.919,-0.041,0.321,1.115,1.351,5.427,0.0,36.0
64569,-0.917,-0.045,0.311,0.824,1.321,5.573,0.0,4.0
64618,-0.917,-0.045,0.321,1.130,1.435,5.389,0.0,4.0
64667,-0.922,-0.039,0.315,0.985,1.901,5.702,0.0,4.0
64715,-0.914,-0.041,0.316,0.763,1.061,5.473,0.0,4.0
64766,-0.913,-0.040,0.324,0.901,0.809,5.321,0.0,36.0
64816,-0.916,-0.043,0.328,1.000,1.908,5.748,0.0,4.0
64868,-0.912,-0.048,0.325,1.122,1.580,5.542,0.0,4.0
64916,-0.915,-0.046,0.317,0.901,1.046,5.618,0.0,4.0
64965,-0.912,-0.042,0.305,0.763,0.489,5.504,0.0,4.0
65014,-0.906,-0.043,0.319,0.878,1.405,5.565,0.0,4.0
65063,-0.916,-0.040,0.324,1.008,1.427,5.473,0.0,4.0
65113,-0.912,-0.044,0.313,0.809,0.756,5.580,0.0,4.0
65161,-0.911,-0.047,0.313,0.962,1.275,5.290,0.0,4.0
65210,-0.913,-0.044,0.318,0.977,1.382,5.458,0.0,4.0
65259,-0.915,-0.045,0.316,1.015,1.718,5.695,0.0,4.0
65308,-0.916,-0.044,0.324,0.924,0.969,5.359,0.0,4.0
65360,-0.914,-0.041,0.314,0.954,1.282,5.473,0.0,4.0
65410,-0.916,-0.052,0.313,0.809,1.267,5.427,0.0,4.0
65459,-0.916,-0.046,0.321,1.031,1.534,5.595,0.0,4.0
65508,-0.913,-0.050,0.317,0.893,0.573,5.275,0.0,4.0
65556,-0.912,-0.048,0.314,0.992,1.153,5.481,0.0,4.0
65605,-0.908,-0.045,0.315,0.969,1.870,5.603,0.0,4.0
65654,-0.908,-0.043,0.312,0.855,1.519,5.718,0.0,4.0
65703,-0.909,-0.045,0.331,0.901,1.015,5.542,0.0,4.0
65753,-0.914,-0.047,0.315,0.992,0.992,5.328,0.0,4.0
65802,-0.911,-0.044,0.330,0.855,1.725,5.718,0.0,4.0
65854,-0.908,-0.044,0.320,0.931,1.626,5.542,0.0,4.0
65903,-0.909,-0.043,0.320,1.000,1.588,5.710,0.0,4.0
65952,-0.911,-0.038,0.318,0.893,1.450,5.702,0.0,4.0
66001,-0.916,-0.046,0.315,1.000,1.145,5.221,0.0,4.0
66051,-0.910,-0.042,0.321,0.863,0.916,5.405,0.0,4.0
66100,-0.913,-0.049,0.307,0.878,1.656,5.702,0.0,4.0
66149,-0.923,-0.048,0.312,0.733,1.435,5.641,0.0,4.0
66198,-0.909,-0.044,0.321,0.786,1.145,5.557,0.0,4.0
66247,-0.911,-0.045,0.317,0.962,1.420,5.443,0.0,4.0
66342,-0.918,-0.042,0.316,0.794,0.710,5.351,0.0,4.0
66392,-0.907,-0.042,0.327,0.901,1.267,5.954,0.0,4.0
66441,-0.914,-0.047,0.313,1.046,1.656,5.534,0.0,4.0
66477,-0.911,-0.045,0.315,0.725,0.420,5.481,0.0,4.0
66526,-0.911,-0.043,0.321,0.824,0.931,5.489,0.0,4.0
66562,-0.913,-0.042,0.302,0.832,1.527,5.824,0.0,4.0
66611,-0.915,-0.042,0.314,0.885,1.153,5.771,0.0,5.0
66647,-0.910,-0.042,0.319,0.962,1.145,5.534,0.0,4.0
66696,-0.915,-0.046,0.318,0.733,0.885,5.588,0.0,4.0
66745,-0.908,-0.045,0.319,0.916,1.015,5.412,0.0,4.0
66801,-0.913,-0.040,0.312,1.153,1.733,5.649,0.0,4.0
66850,-0.912,-0.047,0.317,0.634,0.435,5.290,0.0,4.0
66899,-0.914,-0.043,0.318,0.832,1.573,5.725,0.0,4.0
66949,-0.916,-0.049,0.318,0.992,1.641,5.542,0.0,4.0
66998,-0.917,-0.045,0.316,0.924,1.542,5.656,0.0,4.0
67048,-0.909,-0.045,0.315,0.847,0.817,5.389,0.0,4.0
67097,-0.914,-0.045,0.316,0.794,0.618,5.466,0.0,4.0
67146,-0.912,-0.045,0.312,0.931,0.977,5.511,0.0,4.0
67195,-0.913,-0.042,0.320,0.847,1.382,5.626,0.0,4.0
67245,-0.923,-0.045,0.322,0.954,1.229,5.534,0.0,4.0
67292,-0.914,-0.041,0.324,1.031,1.191,5.534,0.0,4.0
67341,-0.913,-0.043,0.322,1.046,1.832,5.916,0.0,4.0
67391,-0.917,-0.041,0.313,1.183,1.504,5.382,0.0,4.0
67440,-0.917,-0.043,0.323,1.000,1.015,5.511,0.0,4.0
67489,-0.917,-0.043,0.325,1.015,0.794,5.351,0.0,6.0
67538,-0.915,-0.041,0.330,0.924,1.397,5.481,0.0,4.0
67589,-0.911,-0.048,0.321,0.916,1.756,5.725,0.0,4.0
67638,-0.914,-0.045,0.315,0.794,0.931,5.511,0.0,4.0
67687,-0.909,-0.039,0.312,0.916,1.366,5.710,0.0,4.0
67740,-0.916,-0.047,0.321,0.870,1.641,5.565,0.0,4.0
67789,-0.920,-0.043,0.309,0.992,1.626,5.664,0.0,4.0
67838,-0.911,-0.037,0.326,0.756,0.580,5.328,0.0,4.0
67888,-0.912,-0.044,0.318,1.076,1.771,5.588,0.0,4.0
67938,-0.914,-0.043,0.316,0.969,1.748,5.718,0.0,4.0
67987,-0.911,-0.038,0.314,1.023,0.878,5.534,0.0,4.0
68036,-0.912,-0.044,0.321,1.015,1.115,5.481,0.0,4.0
68086,-0.917,-0.045,0.321,0.924,1.115,5.527,0.0,4.0
68135,-0.915,-0.043,0.318,0.855,0.885,5.481,0.0,4.0
68189,-0.902,-0.045,0.317,0.977,1.511,5.634,0.0,4.0
68242,-0.918,-0.038,0.305,0.847,1.191,5.557,0.0,4.0
68291,-0.915,-0.045,0.316,0.779,0.061,5.183,0.0,4.0
68344,-0.915,-0.047,0.315,1.008,2.053,5.649,0.0,4.0
68395,-0.918,-0.041,0.317,0.969,1.046,5.496,0.0,4.0
68444,-0.909,-0.044,0.323,0.924,0.710,5.443,0.0,4.0
68493,-0.919,-0.044,0.324,0.878,1.901,5.626,0.0,4.0
68546,-0.913,-0.041,0.318,0.901,1.420,5.595,0.0,4.0
68596,-0.916,-0.046,0.318,0.985,0.992,5.573,0.0,4.0
68649,-0.911,-0.044,0.311,0.893,1.260,5.527,0.0,4.0
68703,-0.906,-0.045,0.322,0.901,1.626,5.664,0.0,4.0
68752,-0.913,-0.047,0.319,0.824,0.374,5.275,0.0,6.0
68845,-0.918,-0.041,0.315,1.198,2.527,5.863,0.0,4.0
68894,-0.913,-0.041,0.310,0.969,0.145,5.160,0.0,4.0
68944,-0.904,-0.045,0.324,0.939,1.366,5.595,0.0,4.0
68994,-0.915,-0.042,0.313,1.015,2.527,5.649,0.0,4.0
69044,-0.915,-0.045,0.328,0.733,0.305,5.405,0.0,4.0
69093,-0.919,-0.039,0.316,0.931,1.573,5.664,0.0,4.0
69148,-0.917,-0.042,0.318,0.901,1.130,5.374,0.0,4.0
69196,-0.912,-0.041,0.315,0.687,1.206,5.710,0.0,4.0
69249,-0.911,-0.039,0.318,0.947,2.374,5.855,0.0,4.0
69297,-0.917,-0.044,0.311,0.817,1.771,5.626,0.0,4.0
69346,-0.918,-0.047,0.323,0.824,0.641,5.435,0.0,4.0
69396,-0.912,-0.040,0.319,0.924,0.496,5.565,0.0,36.0
69446,-0.919,-0.037,0.241,1.145,-8.664,4.672,0.0,36.0
69497,-0.958,-0.094,0.474,3.282,-14.458,3.802,0.0,36.0
69547,-0.875,-0.075,0.426,4.359,-13.191,0.847,0.0,8.0
69582,-0.939,-0.074,0.245,3.733,8.466,7.298,0.0,9.0
69630,-0.929,-0.046,0.336,-0.015,3.786,5.954,0.0,9.0
69666,-0.890,-0.022,0.323,2.000,-3.954,4.489,0.0,9.0
69718,-0.899,-0.042,0.343,0.649,1.427,5.221,0.0,9.0
69767,-0.902,-0.050,0.349,0.924,1.718,5.626,0.0,9.0
69803,-0.906,-0.053,0.342,0.672,1.176,5.809,0.0,9.0
69852,-0.901,-0.051,0.334,0.924,1.740,5.664,0.0,9.0
69886,-0.907,-0.048,0.350,0.817,1.519,5.702,0.0,9.0
69936,-0.900,-0.050,0.345,0.802,1.076,5.443,0.0,9.0
69971,-0.899,-0.042,0.347,0.893,1.267,5.687,0.0,9.0
70021,-0.905,-0.050,0.351,0.962,1.618,5.496,0.0,9.0
70055,-0.900,-0.051,0.350,0.679,1.458,5.718,0.0,9.0
70108,-0.910,-0.043,0.344,0.672,2.031,5.473,0.0,9.0
70157,-0.908,-0.052,0.342,0.985,1.679,5.649,0.0,9.0
70193,-0.903,-0.040,0.345,0.756,0.924,5.458,0.0,9.0
70242,-0.898,-0.049,0.339,0.771,0.832,5.511,0.0,9.0
70277,-0.903,-0.046,0.348,0.809,1.473,5.626,0.0,9.0
70326,-0.908,-0.042,0.336,0.954,1.397,5.710,0.0,9.0
70375,-0.912,-0.047,0.341,0.847,0.893,5.473,0.0,9.0
70424,-0.903,-0.040,0.342,0.939,1.298,5.565,0.0,9.0
70473,-0.904,-0.050,0.341,0.924,1.252,5.626,0.0,9.0
70522,-0.904,-0.047,0.352,0.954,1.290,5.481,0.0,9.0
70575,-0.911,-0.044,0.337,0.756,0.855,5.756,0.0,9.0
70624,-0.899,-0.054,0.345,1.229,1.771,5.405,0.0,9.0
70660,-0.907,-0.045,0.342,0.870,1.130,5.496,0.0,9.0
70709,-0.905,-0.046,0.352,0.908,0.748,5.641,0.0,9.0
70745,-0.895,-0.050,0.343,0.832,1.366,5.282,0.0,9.0
70794,-0.904,-0.044,0.348,0.992,1.916,5.557,0.0,9.0
70843,-0.901,-0.047,0.350,0.840,1.389,5.580,0.0,9.0
70879,-0.898,-0.050,0.349,0.954,1.183,5.496,0.0,9.0
70928,-0.904,-0.048,0.344,0.832,1.000,5.443,0.0,9.0
70977,-0.901,-0.046,0.343,0.939,1.221,5.405,0.0,9.0
71033,-0.906,-0.046,0.349,0.763,0.817,5.275,0.0,9.0
71083,-0.900,-0.046,0.344,1.076,1.748,5.634,0.0,9.0
71136,-0.910,-0.051,0.341,0.977,1.038,5.580,0.0,9.0
71228,-0.900,-0.048,0.348,0.901,1.366,5.359,0.0,9.0
71281,-0.900,-0.046,0.343,0.840,1.290,5.504,0.0,9.0
71330,-0.912,-0.051,0.356,0.893,1.160,5.504,0.0,9.0
71384,-0.905,-0.045,0.349,0.954,1.763,5.733,0.0,9.0
71433,-0.899,-0.045,0.336,1.038,0.618,5.374,0.0,9.0
71486,-0.898,-0.049,0.342,0.969,1.046,5.466,0.0,9.0
71538,-0.902,-0.045,0.346,0.924,1.534,5.710,0.0,9.0
71587,-0.898,-0.049,0.340,0.878,0.840,5.351,0.0,9.0
71636,-0.906,-0.051,0.352,0.817,1.435,5.832,0.0,9.0
71687,-0.904,-0.052,0.340,1.053,1.931,5.687,0.0,9.0
71736,-0.907,-0.049,0.350,0.954,0.733,5.595,0.0,9.0
71785,-0.902,-0.045,0.342,0.908,0.908,5.405,0.0,9.0
71838,-0.898,-0.047,0.346,1.107,1.924,5.626,0.0,9.0
71887,-0.907,-0.045,0.349,0.870,0.786,5.580,0.0,9.0
71941,-0.906,-0.049,0.346,0.969,0.855,5.573,0.0,9.0
71991,-0.909,-0.048,0.349,0.840,0.855,5.489,0.0,9.0
72046,-0.888,-0.013,0.332,0.969,1.137,5.145,0.0,6.0
72095,-0.904,-0.049,0.345,0.580,0.977,5.603,0.0,6.0
72148,-0.898,-0.048,0.347,0.641,0.718,6.122,0.0,6.0
72199,-0.901,-0.046,0.355,-0.031,-0.824,6.443,0.0,6.0
72251,-0.901,-0.045,0.368,-0.840,-2.725,6.061,0.0,5.0
72301,-0.895,-0.045,0.368,-1.473,-3.931,6.832,0.0,4.0
72336,-0.883,-0.045,0.353,0.366,-3.183,5.763,0.0,4.0
72385,-0.880,-0.037,0.344,-1.435,2.550,5.710,0.0,4.0
72421,-0.927,-0.069,0.346,4.366,5.664,3.504,0.0,4.0
72473,-0.935,-0.064,0.403,9.053,-11.328,-0.901,0.0,3.0
72509,-1.071,0.029,0.473,8.321,-40.977,14.130,0.0,3.0
72558,-1.194,-0.054,0.561,21.908,-105.405,23.611,0.0,4.0
72612,-1.105,-0.005,0.637,22.382,-151.305,31.893,0.0,36.0
72657,-1.024,0.113,0.787,12.084,-187.496,37.496,87.0,34.0
72701,-0.918,0.079,0.859,6.725,-197.244,36.321,83.0,34.0
72745,-0.784,0.262,1.146,-2.977,-170.702,20.763,68.0,34.0
72788,-0.750,0.096,1.263,3.321,-177.542,22.527,66.0,34.0
72833,-0.618,0.045,0.944,22.000,-183.008,5.351,65.0,35.0
72879,-0.483,0.228,0.988,9.977,-170.931,3.023,62.0,38.0
72927,-0.351,0.017,0.726,4.565,-91.702,5.641,89.0,80.0
72972,-0.346,-0.086,0.852,22.282,-72.824,36.214,65.0,74.0
73019,-0.078,-0.156,0.664,51.718,-44.710,48.214,75.0,75.0
73063,0.194,0.032,0.650,71.153,-12.473,69.947,44.0,80.0
73110,0.391,0.367,0.784,54.962,9.817,103.252,65.0,84.0
73156,0.362,0.277,0.802,35.489,24.107,104.519,63.0,89.0
73202,0.389,0.426,0.858,22.198,7.397,78.359,61.0,93.0
73247,0.426,0.354,0.858,8.168,-14.779,57.908,59.0,62.0
73295,0.412,0.203,0.940,-4.076,-41.550,22.466,56.0,64.0
73339,0.535,0.033,0.794,2.290,-44.427,0.748,56.0,66.0
73384,0.583,0.199,0.812,-0.824,-11.702,-2.672,59.0,67.0
73428,0.482,0.194,0.856,-13.443,-4.466,-5.695,30.0,69.0
73472,0.434,0.275,0.818,-7.229,7.740,-5.221,25.0,69.0
73515,0.308,0.397,0.843,-8.786,4.229,-0.198,17.0,69.0
73558,0.275,0.275,0.746,-11.351,-5.374,-0.992,20.0,71.0
