Timestamp(ms),AccelX(g),AccelY(g),AccelZ(g),GyroX(deg/s),GyroY(deg/s),GyroZ(deg/s),DistanceLeft(cm),DistanceRight(cm)
48657,-0.971,-0.021,0.176,9.786,-29.626,-6.168,0.0,3.0
48706,-0.936,0.012,0.194,1.008,-28.420,-6.855,0.0,2.0
48755,-0.935,-0.016,0.238,5.198,-14.534,-4.954,0.0,3.0
48803,-0.918,-0.027,0.255,-1.260,-7.977,-5.015,0.0,2.0
48852,-0.927,-0.048,0.273,0.580,-2.229,2.183,0.0,2.0
48902,-0.935,-0.032,0.314,0.328,-11.221,-2.527,0.0,3.0
48950,-0.926,-0.058,0.302,1.389,-26.282,-4.443,0.0,3.0
48999,-0.915,-0.093,0.309,6.977,-28.809,-6.573,0.0,5.0
49053,-0.826,0.099,0.254,8.191,-9.290,-15.817,0.0,39.0
49102,-0.907,0.031,0.297,14.153,16.977,-1.336,0.0,4.0
49150,-0.950,-0.016,0.333,1.389,0.382,-7.779,0.0,4.0
49202,-0.956,-0.012,0.278,-1.237,-14.382,-5.305,0.0,40.0
49251,-0.920,-0.015,0.346,-3.366,-22.954,-10.527,0.0,5.0
49300,-0.878,-0.045,0.353,-3.634,-33.939,-8.931,0.0,3.0
49348,-0.844,-0.072,0.380,-2.626,-15.458,-6.038,0.0,3.0
49384,-0.876,-0.049,0.403,1.237,1.924,-1.435,0.0,3.0
49432,-0.861,-0.040,0.395,-0.962,3.336,-0.176,0.0,3.0
49487,-0.896,-0.048,0.375,-1.656,5.618,1.115,0.0,3.0
49537,-0.905,-0.033,0.381,-2.824,0.786,-1.351,0.0,3.0
49571,-0.855,-0.037,0.385,-2.008,-16.252,-6.710,0.0,3.0
49620,-0.889,-0.036,0.401,-0.321,-15.901,-6.443,0.0,4.0
49656,-0.886,-0.073,0.420,0.771,-7.809,-5.275,0.0,3.0
49704,-0.870,-0.030,0.418,0.863,-4.504,-5.427,0.0,3.0
49740,-0.868,-0.050,0.406,-1.290,6.008,-2.511,0.0,3.0
49788,-0.893,-0.040,0.390,1.099,3.328,-3.260,0.0,3.0
49824,-0.865,-0.045,0.413,0.290,-4.489,-4.611,0.0,3.0
49875,-0.852,-0.047,0.415,0.000,1.908,-2.183,0.0,3.0
49910,-0.877,-0.062,0.420,-0.122,3.718,-2.817,0.0,3.0
49959,-0.888,-0.057,0.425,0.931,1.878,-3.740,0.0,3.0
49995,-0.877,-0.039,0.411,-0.412,-1.061,-4.313,0.0,3.0
50043,-0.889,-0.054,0.409,0.695,-4.214,-3.489,0.0,3.0
50079,-0.863,-0.052,0.420,0.198,-5.733,-4.824,0.0,4.0
50128,-0.867,-0.046,0.411,0.267,-1.931,-3.962,0.0,4.0
50163,-0.867,-0.049,0.426,-0.153,1.969,-2.573,0.0,4.0
50212,-0.875,-0.043,0.427,-0.069,2.260,-2.336,0.0,4.0
50268,-0.871,-0.054,0.421,-0.511,0.107,-3.015,0.0,4.0
50317,-0.863,-0.041,0.417,0.130,-0.565,-3.481,0.0,4.0
50352,-0.864,-0.046,0.423,-0.115,1.336,-3.313,0.0,4.0
50401,-0.868,-0.044,0.421,-0.183,0.405,-3.237,0.0,4.0
50437,-0.870,-0.043,0.423,0.191,-2.290,-3.389,0.0,4.0
50486,-0.873,-0.045,0.427,-0.237,-1.580,-3.527,0.0,4.0
50521,-0.867,-0.055,0.428,0.435,0.038,-3.198,0.0,4.0
50570,-0.864,-0.048,0.427,-0.031,0.321,-3.298,0.0,4.0
50605,-0.861,-0.049,0.432,0.153,0.588,-2.840,0.0,4.0
50654,-0.867,-0.046,0.427,-0.076,1.634,-2.611,0.0,4.0
50710,-0.870,-0.051,0.422,0.008,0.038,-3.221,0.0,4.0
50759,-0.865,-0.052,0.427,-0.198,0.588,-3.046,0.0,4.0
50794,-0.860,-0.052,0.432,0.099,0.802,-2.840,0.0,4.0
50843,-0.864,-0.054,0.437,0.038,0.290,-3.000,0.0,5.0
50879,-0.867,-0.054,0.433,0.084,0.046,-3.374,0.0,5.0
50970,-0.872,-0.057,0.428,0.046,1.763,-2.710,0.0,5.0
51006,-0.871,-0.050,0.432,0.542,-0.023,-3.366,0.0,5.0
51055,-0.866,-0.050,0.426,0.176,0.023,-3.183,0.0,5.0
51091,-0.866,-0.042,0.431,0.115,0.527,-3.115,0.0,5.0
51143,-0.865,-0.051,0.430,-0.046,0.519,-3.137,0.0,5.0
51178,-0.859,-0.051,0.433,-0.015,0.656,-2.931,0.0,5.0
51227,-0.861,-0.048,0.432,0.092,0.244,-3.336,0.0,5.0
51263,-0.860,-0.052,0.434,0.092,1.458,-2.863,0.0,4.0
51312,-0.869,-0.051,0.438,-0.061,1.069,-2.794,0.0,5.0
51348,-0.863,-0.062,0.439,-0.328,0.427,-2.817,0.0,5.0
51397,-0.859,-0.043,0.422,0.000,0.290,-3.015,0.0,4.0
51432,-0.866,-0.049,0.439,-0.420,1.855,-2.939,0.0,4.0
51481,-0.850,-0.042,0.419,0.267,1.534,-2.954,0.0,5.0
51537,-0.870,-0.056,0.436,-0.237,0.641,-3.282,0.0,5.0
51587,-0.868,-0.043,0.438,-0.015,1.137,-2.779,0.0,5.0
51622,-0.865,-0.052,0.417,-0.130,1.420,-2.916,0.0,5.0
51672,-0.868,-0.051,0.429,0.107,1.443,-3.130,0.0,5.0
51707,-0.865,-0.054,0.428,-0.206,0.214,-3.229,0.0,5.0
51757,-0.864,-0.049,0.434,0.053,1.115,-2.924,0.0,5.0
51792,-0.865,-0.050,0.438,-0.115,0.702,-3.099,0.0,5.0
51842,-0.857,-0.048,0.439,0.145,1.115,-2.794,0.0,5.0
51877,-0.861,-0.049,0.451,-0.107,1.000,-2.893,0.0,5.0
51927,-0.864,-0.047,0.432,0.176,1.092,-3.046,0.0,5.0
51983,-0.869,-0.050,0.416,-0.031,0.786,-2.817,0.0,5.0
52032,-0.865,-0.048,0.434,0.618,0.481,-3.053,0.0,5.0
52068,-0.857,-0.052,0.426,-0.130,0.985,-3.008,0.0,5.0
52117,-0.858,-0.058,0.429,0.145,0.550,-3.267,0.0,5.0
52170,-0.856,-0.052,0.434,-0.183,0.656,-2.786,0.0,5.0
52219,-0.863,-0.055,0.439,-0.038,1.282,-2.771,0.0,5.0
52273,-0.867,-0.053,0.429,-0.053,0.756,-3.099,0.0,5.0
52322,-0.863,-0.050,0.437,-0.198,0.916,-2.840,0.0,5.0
52375,-0.856,-0.052,0.427,-0.229,0.969,-2.817,0.0,5.0
52427,-0.864,-0.039,0.439,0.008,0.908,-3.359,0.0,5.0
52481,-0.850,-0.048,0.427,0.176,0.992,-3.031,0.0,4.0
52530,-0.869,-0.044,0.428,0.076,0.771,-3.122,0.0,4.0
52583,-0.855,-0.051,0.427,-0.069,1.107,-2.962,0.0,4.0
52633,-0.859,-0.054,0.433,-0.061,0.954,-2.947,0.0,4.0
52685,-0.867,-0.053,0.437,-0.153,1.053,-2.779,0.0,4.0
52736,-0.862,-0.045,0.429,0.092,1.008,-3.038,0.0,4.0
52789,-0.862,-0.050,0.433,0.046,0.763,-3.107,0.0,4.0
52838,-0.859,-0.057,0.432,-0.130,0.870,-2.985,0.0,4.0
52891,-0.863,-0.045,0.437,0.015,1.046,-2.924,0.0,4.0
52943,-0.858,-0.055,0.430,0.008,0.786,-2.931,0.0,4.0
52997,-0.866,-0.051,0.438,-0.206,0.618,-2.397,0.0,4.0
53047,-0.861,-0.053,0.436,-0.046,1.298,-2.962,0.0,4.0
53099,-0.850,-0.048,0.434,-0.130,0.626,-3.664,0.0,4.0
53149,-0.868,-0.049,0.425,-0.626,1.153,-2.786,0.0,4.0
53202,-0.862,-0.047,0.424,0.221,0.198,-3.084,0.0,4.0
53252,-0.861,-0.049,0.442,-0.046,1.664,-2.840,0.0,4.0
53305,-0.864,-0.053,0.430,-0.061,1.443,-2.885,0.0,4.0
53398,-0.857,-0.053,0.437,-0.015,1.344,-3.145,0.0,4.0
53454,-0.862,-0.054,0.442,0.008,0.756,-3.000,0.0,4.0
53505,-0.862,-0.054,0.434,-0.084,1.069,-2.802,0.0,4.0
53558,-0.863,-0.054,0.432,-0.015,0.695,-3.214,0.0,4.0
53607,-0.864,-0.052,0.440,-0.092,0.511,-3.008,0.0,4.0
53660,-0.865,-0.054,0.435,-0.076,1.237,-2.931,0.0,4.0
53710,-0.860,-0.052,0.422,0.031,1.015,-3.130,0.0,4.0
53764,-0.862,-0.052,0.431,0.122,1.160,-3.145,0.0,4.0
53813,-0.858,-0.055,0.440,-0.031,0.924,-2.931,0.0,4.0
53866,-0.866,-0.052,0.426,-0.031,0.977,-3.061,0.0,4.0
53919,-0.867,-0.051,0.443,0.084,1.168,-3.137,0.0,4.0
53972,-0.862,-0.051,0.433,-0.069,1.023,-3.015,0.0,4.0
54023,-0.858,-0.056,0.436,-0.076,0.786,-2.786,0.0,4.0
54076,-0.864,-0.051,0.435,0.069,1.489,-2.878,0.0,5.0
54125,-0.871,-0.055,0.436,-0.092,1.015,-2.908,0.0,4.0
54178,-0.863,-0.051,0.442,0.198,0.802,-3.092,0.0,4.0
54228,-0.852,-0.054,0.441,0.160,0.931,-3.282,0.0,4.0
54282,-0.861,-0.056,0.426,0.237,1.504,-2.840,0.0,4.0
54331,-0.864,-0.053,0.442,0.061,0.679,-2.824,0.0,4.0
54384,-0.866,-0.049,0.437,0.031,0.763,-3.252,0.0,4.0
54437,-0.862,-0.051,0.438,0.183,-0.076,-3.473,0.0,4.0
54491,-0.867,-0.048,0.433,0.076,1.260,-2.893,0.0,4.0
54541,-0.860,-0.054,0.434,0.206,1.107,-2.947,0.0,4.0
54594,-0.869,-0.043,0.438,-0.252,1.176,-2.977,0.0,4.0
54644,-0.861,-0.051,0.429,-0.092,0.534,-3.267,0.0,4.0
54700,-0.861,-0.048,0.434,0.046,1.137,-2.954,0.0,4.0
54734,-0.856,-0.053,0.430,0.137,0.855,-3.008,0.0,4.0
54782,-0.868,-0.054,0.432,-0.099,1.153,-2.977,0.0,4.0
54818,-0.857,-0.054,0.435,0.176,0.710,-3.305,0.0,4.0
54870,-0.865,-0.045,0.429,0.137,1.237,-3.206,0.0,4.0
54904,-0.868,-0.055,0.440,-0.115,1.031,-2.702,0.0,4.0
54953,-0.863,-0.051,0.440,-0.023,1.145,-2.847,0.0,4.0
54988,-0.862,-0.050,0.438,0.130,0.641,-3.282,0.0,4.0
55036,-0.864,-0.057,0.428,-0.023,1.099,-2.947,0.0,4.0
55072,-0.869,-0.055,0.438,0.008,1.275,-2.916,0.0,4.0
55120,-0.861,-0.049,0.431,0.008,0.672,-3.191,0.0,4.0
55155,-0.860,-0.043,0.435,-0.046,0.901,-2.992,0.0,4.0
55204,-0.866,-0.052,0.434,0.198,1.466,-3.092,0.0,4.0
55239,-0.868,-0.052,0.433,-0.115,1.107,-2.863,0.0,4.0
55291,-0.861,-0.050,0.433,-0.107,1.183,-2.908,0.0,4.0
55326,-0.863,-0.055,0.431,-0.130,0.985,-3.160,0.0,4.0
55375,-0.866,-0.050,0.432,0.046,1.344,-2.931,0.0,4.0
55410,-0.855,-0.041,0.434,-0.076,0.489,-3.099,0.0,4.0
55459,-0.860,-0.047,0.435,0.092,0.985,-3.061,0.0,4.0
55494,-0.866,-0.052,0.432,-0.084,1.229,-2.740,0.0,4.0
55543,-0.868,-0.046,0.428,-0.076,1.008,-2.855,0.0,4.0
55578,-0.861,-0.057,0.437,-0.038,0.603,-2.947,0.0,4.0
55627,-0.856,-0.049,0.427,-0.069,0.954,-2.908,0.0,4.0
55683,-0.870,-0.052,0.438,-0.008,1.000,-2.985,0.0,4.0
55731,-0.865,-0.050,0.440,-0.061,0.443,-2.962,0.0,4.0
55823,-0.863,-0.052,0.429,0.000,1.084,-3.298,0.0,4.0
55859,-0.860,-0.043,0.440,-0.092,0.511,-2.802,0.0,4.0
55907,-0.861,-0.049,0.428,-0.115,1.076,-2.824,0.0,5.0
55943,-0.865,-0.045,0.439,0.031,1.351,-3.038,0.0,4.0
55992,-0.871,-0.046,0.432,-0.290,0.687,-2.924,0.0,4.0
56027,-0.861,-0.050,0.427,-0.069,1.153,-3.160,0.0,4.0
56076,-0.865,-0.046,0.440,0.053,1.038,-2.893,0.0,4.0
56131,-0.860,-0.051,0.441,-0.137,1.015,-2.947,0.0,4.0
56180,-0.869,-0.053,0.435,-0.046,0.962,-2.802,0.0,4.0
56215,-0.866,-0.050,0.440,-0.031,1.115,-2.863,0.0,4.0
56264,-0.861,-0.050,0.437,-0.092,0.985,-3.099,0.0,5.0
56300,-0.867,-0.052,0.438,-0.099,0.878,-2.947,0.0,5.0
56348,-0.862,-0.051,0.426,-0.061,0.855,-2.924,0.0,4.0
56384,-0.868,-0.044,0.438,-0.038,1.176,-2.802,0.0,4.0
56433,-0.862,-0.048,0.442,-0.252,0.809,-2.992,0.0,4.0
56468,-0.866,-0.053,0.423,-0.046,1.084,-2.924,0.0,5.0
56517,-0.861,-0.047,0.426,-0.069,0.794,-2.901,0.0,5.0
56572,-0.867,-0.058,0.433,-0.168,0.702,-3.107,0.0,4.0
56622,-0.857,-0.052,0.438,-0.160,-0.206,-3.168,0.0,4.0
56657,-0.860,-0.053,0.435,-0.122,1.382,-3.145,0.0,4.0
56707,-0.864,-0.052,0.444,0.168,1.298,-3.267,0.0,4.0
56741,-0.859,-0.053,0.434,-0.099,0.947,-3.374,0.0,4.0
56791,-0.861,-0.054,0.438,-0.168,0.649,-2.939,0.0,4.0
56826,-0.862,-0.053,0.438,-0.084,0.992,-2.893,0.0,4.0
56876,-0.868,-0.051,0.438,-0.015,1.260,-2.878,0.0,4.0
56910,-0.868,-0.046,0.427,-0.061,1.023,-3.168,0.0,4.0
56963,-0.854,-0.050,0.430,0.107,1.137,-3.023,0.0,4.0
56998,-0.867,-0.052,0.438,-0.130,0.733,-3.130,0.0,4.0
57048,-0.863,-0.049,0.438,0.214,1.092,-3.076,0.0,4.0
57083,-0.865,-0.050,0.440,0.061,0.664,-3.252,0.0,4.0
57132,-0.860,-0.046,0.442,0.031,1.130,-2.863,0.0,4.0
57167,-0.861,-0.056,0.432,0.038,0.954,-3.153,0.0,4.0
57217,-0.856,-0.060,0.438,-0.046,0.664,-3.198,0.0,4.0
57252,-0.863,-0.052,0.440,-0.084,1.115,-3.023,0.0,4.0
57302,-0.864,-0.050,0.433,0.115,1.023,-3.084,0.0,4.0
57357,-0.865,-0.050,0.433,0.176,1.198,-3.053,0.0,4.0
57406,-0.862,-0.053,0.435,0.008,1.076,-3.061,0.0,4.0
57442,-0.859,-0.047,0.443,-0.061,0.756,-2.931,0.0,4.0
57491,-0.854,-0.053,0.432,-0.046,0.794,-3.046,0.0,4.0
57527,-0.867,-0.050,0.445,-0.061,0.847,-3.053,0.0,4.0
57576,-0.860,-0.047,0.438,0.015,0.985,-3.137,0.0,4.0
57611,-0.862,-0.055,0.437,0.237,0.962,-3.122,0.0,4.0
57660,-0.861,-0.054,0.434,-0.076,0.435,-2.855,0.0,4.0
57696,-0.865,-0.052,0.442,0.076,1.550,-2.863,0.0,4.0
57745,-0.856,-0.051,0.436,0.046,1.092,-3.153,0.0,4.0
57801,-0.865,-0.052,0.440,0.031,1.061,-3.160,0.0,4.0
57850,-0.865,-0.052,0.436,0.130,1.115,-3.183,0.0,4.0
57886,-0.864,-0.049,0.433,-0.092,1.008,-2.878,0.0,4.0
57935,-0.862,-0.052,0.443,-0.038,0.771,-3.214,0.0,4.0
57971,-0.856,-0.050,0.443,0.038,1.206,-3.076,0.0,4.0
58063,-0.867,-0.050,0.439,0.053,0.786,-3.267,0.0,4.0
58117,-0.869,-0.057,0.431,0.046,1.137,-2.878,0.0,4.0
58166,-0.861,-0.046,0.441,-0.145,1.038,-2.802,0.0,4.0
58219,-0.854,-0.052,0.436,0.015,0.916,-3.099,0.0,4.0
58271,-0.863,-0.046,0.440,-0.015,1.244,-2.786,0.0,4.0
58324,-0.860,-0.052,0.442,-0.023,0.733,-2.954,0.0,4.0
58374,-0.869,-0.054,0.443,0.038,1.267,-2.802,0.0,4.0
58427,-0.866,-0.048,0.440,-0.115,0.878,-2.893,0.0,4.0
58476,-0.861,-0.057,0.433,0.053,1.023,-2.939,0.0,4.0
58529,-0.866,-0.052,0.435,0.023,1.008,-3.084,0.0,4.0
58578,-0.856,-0.052,0.439,-0.160,0.687,-2.718,0.0,4.0
58632,-0.865,-0.050,0.433,0.031,1.275,-2.939,0.0,4.0
58681,-0.861,-0.054,0.439,-0.046,0.847,-3.122,0.0,4.0
58734,-0.860,-0.048,0.427,0.092,0.962,-3.107,0.0,4.0
58781,-0.862,-0.052,0.428,-0.053,1.046,-2.885,0.0,4.0
58834,-0.862,-0.047,0.437,-0.061,1.061,-2.977,0.0,4.0
58884,-0.856,-0.057,0.433,-0.076,1.031,-2.931,0.0,4.0
58937,-0.865,-0.049,0.437,-0.115,0.939,-2.893,0.0,4.0
58987,-0.859,-0.047,0.432,0.015,0.992,-2.901,0.0,4.0
59039,-0.858,-0.050,0.426,0.000,1.023,-2.740,0.0,4.0
59089,-0.865,-0.052,0.431,-0.069,0.802,-2.847,0.0,4.0
59143,-0.863,-0.052,0.437,0.038,1.023,-2.847,0.0,4.0
59189,-0.866,-0.047,0.442,-0.145,0.962,-2.947,148.0,4.0
59242,-0.858,-0.049,0.441,0.130,0.985,-2.977,0.0,4.0
59295,-0.862,-0.048,0.439,0.038,0.840,-3.061,0.0,4.0
59344,-0.865,-0.052,0.438,0.107,1.160,-2.725,0.0,4.0
59398,-0.863,-0.051,0.436,0.046,1.046,-3.092,0.0,4.0
59447,-0.865,-0.057,0.439,0.099,1.260,-2.924,0.0,4.0
59500,-0.866,-0.049,0.438,0.008,0.924,-3.015,0.0,4.0
59550,-0.867,-0.049,0.429,-0.053,1.046,-3.183,0.0,4.0
59603,-0.863,-0.047,0.446,0.084,1.046,-2.931,0.0,5.0
59653,-0.870,-0.052,0.438,0.099,1.122,-2.832,0.0,5.0
59709,-0.859,-0.058,0.439,-0.092,0.832,-3.031,0.0,5.0
59759,-0.868,-0.051,0.442,0.053,0.817,-3.382,0.0,5.0
59812,-0.867,-0.062,0.447,-0.053,0.397,-3.427,0.0,4.0
59862,-0.860,-0.047,0.442,0.000,1.053,-2.809,0.0,4.0
59915,-0.866,-0.051,0.428,0.008,0.863,-2.832,0.0,4.0
59965,-0.865,-0.046,0.440,0.000,0.786,-2.924,0.0,4.0
60018,-0.864,-0.051,0.434,-0.008,1.153,-3.160,0.0,4.0
60068,-0.863,-0.055,0.429,-0.015,1.107,-2.824,0.0,4.0
60121,-0.864,-0.049,0.435,0.084,1.313,-2.840,0.0,4.0
60171,-0.864,-0.052,0.427,-0.015,0.939,-2.985,0.0,4.0
60227,-0.862,-0.054,0.442,-0.038,0.573,-2.809,0.0,5.0
60277,-0.866,-0.048,0.435,0.092,1.275,-3.260,0.0,5.0
60331,-0.861,-0.052,0.437,-0.023,0.359,-3.397,0.0,4.0
60381,-0.854,-0.051,0.436,0.038,0.779,-3.137,0.0,4.0
60434,-0.860,-0.048,0.432,0.053,1.252,-2.962,0.0,4.0
60483,-0.860,-0.058,0.432,-0.069,1.038,-2.901,0.0,4.0
60536,-0.859,-0.053,0.434,0.015,1.183,-3.053,0.0,5.0
60587,-0.866,-0.048,0.433,0.069,0.931,-3.206,0.0,5.0
60680,-0.858,-0.053,0.440,-0.122,1.145,-2.832,0.0,4.0
60733,-0.867,-0.048,0.430,0.061,0.733,-3.015,0.0,4.0
60788,-0.857,-0.050,0.432,0.038,0.664,-2.954,0.0,4.0
60823,-0.867,-0.055,0.430,0.244,1.595,-2.855,0.0,4.0
60871,-0.870,-0.053,0.438,0.038,0.641,-3.252,0.0,4.0
60906,-0.853,-0.057,0.443,0.489,-0.443,-3.427,0.0,4.0
60955,-0.865,-0.055,0.448,-0.107,1.550,-2.924,0.0,4.0
60990,-0.871,-0.051,0.433,-0.046,1.107,-2.916,0.0,4.0
61039,-0.864,-0.059,0.435,0.000,0.893,-3.015,0.0,4.0
61074,-0.861,-0.055,0.437,0.061,1.145,-2.893,0.0,4.0
61122,-0.863,-0.058,0.435,0.130,1.092,-3.000,0.0,4.0
61177,-0.858,-0.050,0.435,0.107,1.176,-3.092,0.0,5.0
61227,-0.862,-0.050,0.437,0.008,0.786,-2.748,0.0,4.0
61261,-0.870,-0.055,0.438,-0.099,1.046,-2.817,0.0,4.0
61310,-0.859,-0.051,0.436,-0.038,1.069,-3.099,0.0,4.0
61345,-0.862,-0.050,0.425,0.092,1.008,-3.069,0.0,4.0
61394,-0.864,-0.051,0.430,0.107,1.084,-2.931,0.0,5.0
61429,-0.867,-0.045,0.447,0.061,2.038,-2.489,0.0,5.0
61478,-0.865,-0.048,0.431,-0.313,1.031,-2.931,0.0,5.0
61513,-0.864,-0.054,0.441,0.076,0.481,-3.321,0.0,5.0
61564,-0.871,-0.046,0.436,-0.092,0.855,-3.053,0.0,5.0
61600,-0.863,-0.054,0.433,-0.015,1.153,-2.756,0.0,5.0
61648,-0.866,-0.050,0.437,-0.069,0.878,-2.947,0.0,5.0
61684,-0.859,-0.048,0.429,-0.061,1.611,-2.626,0.0,5.0
61732,-0.871,-0.047,0.435,-0.084,1.519,-3.053,0.0,5.0
61768,-0.861,-0.052,0.428,-0.008,0.847,-3.153,0.0,5.0
61817,-0.865,-0.050,0.440,0.084,0.672,-3.198,0.0,5.0
61852,-0.865,-0.050,0.442,-0.038,0.802,-3.221,0.0,5.0
61901,-0.867,-0.054,0.444,-0.008,1.000,-2.817,0.0,5.0
61957,-0.859,-0.049,0.428,-0.061,0.901,-2.695,0.0,5.0
62006,-0.872,-0.053,0.436,-0.046,0.954,-3.069,0.0,5.0
62041,-0.865,-0.053,0.432,0.046,0.893,-3.031,0.0,5.0
62090,-0.865,-0.048,0.425,0.000,1.290,-2.718,0.0,5.0
62125,-0.870,-0.049,0.431,-0.267,1.130,-2.901,0.0,5.0
62174,-0.864,-0.047,0.439,0.137,1.366,-3.099,0.0,5.0
62209,-0.862,-0.054,0.437,-0.145,0.893,-3.084,0.0,5.0
62258,-0.865,-0.053,0.440,0.000,1.366,-2.977,0.0,5.0
62294,-0.861,-0.044,0.442,-0.290,1.000,-2.779,0.0,5.0
62342,-0.858,-0.049,0.429,0.168,-0.672,-3.473,0.0,5.0
62398,-0.865,-0.046,0.433,0.015,1.206,-2.954,0.0,5.0
62447,-0.858,-0.048,0.428,0.053,0.695,-3.176,0.0,4.0
62482,-0.861,-0.046,0.437,-0.015,1.153,-3.031,0.0,5.0
62531,-0.864,-0.045,0.432,0.023,0.588,-3.000,0.0,5.0
62566,-0.864,-0.050,0.437,0.069,1.214,-2.824,0.0,5.0
62615,-0.860,-0.052,0.437,0.092,1.092,-3.084,0.0,5.0
62651,-0.861,-0.048,0.437,-0.008,1.160,-2.954,0.0,5.0
62700,-0.864,-0.052,0.433,0.076,1.313,-3.038,0.0,5.0
62735,-0.866,-0.050,0.443,0.023,0.962,-3.191,0.0,5.0
62787,-0.858,-0.051,0.438,0.008,0.885,-2.947,0.0,5.0
62823,-0.863,-0.052,0.429,0.115,1.053,-3.183,0.0,5.0
62915,-0.864,-0.048,0.434,0.023,0.611,-2.901,0.0,5.0
62950,-0.857,-0.052,0.431,0.252,1.237,-2.855,0.0,5.0
62999,-0.857,-0.050,0.432,0.038,1.649,-2.779,0.0,5.0
63035,-0.864,-0.052,0.433,0.008,1.023,-2.847,0.0,5.0
63084,-0.862,-0.050,0.436,0.023,0.832,-3.000,0.0,5.0
63119,-0.867,-0.050,0.435,0.084,1.275,-3.038,0.0,5.0
63168,-0.867,-0.047,0.436,0.160,0.992,-2.985,0.0,5.0
63204,-0.861,-0.052,0.431,0.046,0.847,-3.267,0.0,5.0
63256,-0.862,-0.049,0.435,0.137,0.969,-2.969,0.0,5.0
63291,-0.867,-0.051,0.432,0.092,0.931,-3.137,0.0,5.0
63340,-0.858,-0.048,0.437,0.229,1.084,-3.031,0.0,5.0
63376,-0.863,-0.048,0.438,0.076,0.771,-3.008,0.0,5.0
63425,-0.859,-0.048,0.433,0.137,0.985,-3.099,0.0,5.0
63461,-0.862,-0.048,0.429,0.046,0.916,-3.130,0.0,5.0
63510,-0.865,-0.052,0.434,-0.092,0.740,-3.160,0.0,5.0
63545,-0.869,-0.047,0.444,-0.084,0.969,-3.198,0.0,5.0
63594,-0.861,-0.046,0.431,0.115,1.031,-3.137,0.0,5.0
63650,-0.866,-0.055,0.434,0.031,0.885,-2.908,0.0,5.0
63699,-0.859,-0.048,0.445,0.069,1.069,-3.275,0.0,5.0
63735,-0.859,-0.049,0.433,0.023,0.740,-3.290,0.0,5.0
63784,-0.864,-0.053,0.429,0.069,1.008,-2.603,0.0,5.0
63820,-0.866,-0.046,0.434,0.053,1.229,-3.153,0.0,5.0
63869,-0.866,-0.045,0.430,0.115,0.916,-3.137,0.0,5.0
63904,-0.858,-0.050,0.431,-0.031,0.901,-2.939,0.0,5.0
63953,-0.856,-0.047,0.441,-0.092,1.237,-2.931,0.0,5.0
64007,-0.864,-0.048,0.433,-0.015,0.947,-3.130,0.0,5.0
64060,-0.862,-0.047,0.427,-0.061,0.672,-3.076,0.0,5.0
64095,-0.865,-0.042,0.429,0.015,1.046,-3.229,0.0,5.0
64144,-0.864,-0.047,0.434,0.092,1.000,-3.084,0.0,5.0
64197,-0.863,-0.047,0.425,-0.008,0.557,-3.031,0.0,5.0
64246,-0.861,-0.052,0.443,-0.076,1.206,-2.656,0.0,5.0
64300,-0.864,-0.053,0.435,0.031,0.847,-3.031,0.0,5.0
64349,-0.861,-0.057,0.420,0.099,0.947,-2.992,0.0,4.0
64385,-0.861,-0.053,0.432,0.053,0.954,-3.038,0.0,5.0
64434,-0.864,-0.051,0.437,-0.038,1.237,-3.061,0.0,5.0
64487,-0.869,-0.050,0.436,-0.084,1.115,-3.023,0.0,5.0
64540,-0.862,-0.055,0.433,-0.069,1.046,-3.145,0.0,5.0
64592,-0.859,-0.057,0.433,-0.084,0.626,-3.038,0.0,5.0
64643,-0.867,-0.055,0.440,0.000,1.702,-2.947,0.0,5.0
64696,-0.858,-0.052,0.435,-0.053,0.656,-2.885,0.0,5.0
64745,-0.865,-0.048,0.439,0.023,1.031,-3.244,0.0,5.0
64798,-0.861,-0.048,0.443,0.221,1.290,-2.794,0.0,5.0
64847,-0.864,-0.056,0.432,-0.008,0.977,-3.153,0.0,5.0
64901,-0.863,-0.053,0.436,0.031,1.252,-2.924,0.0,5.0
64950,-0.858,-0.052,0.439,0.038,0.931,-2.855,0.0,5.0
65006,-0.860,-0.056,0.444,0.046,1.015,-2.824,0.0,5.0
65056,-0.866,-0.051,0.430,0.145,0.977,-3.214,0.0,5.0
65110,-0.856,-0.047,0.433,0.031,0.962,-2.977,0.0,5.0
65159,-0.866,-0.045,0.429,0.008,1.038,-2.939,0.0,5.0
65212,-0.857,-0.049,0.433,-0.061,0.733,-3.008,0.0,5.0
65304,-0.864,-0.047,0.438,0.107,1.122,-2.847,0.0,5.0
65357,-0.867,-0.048,0.427,-0.107,0.863,-2.969,0.0,5.0
65408,-0.862,-0.045,0.429,-0.031,0.985,-2.954,0.0,5.0
65461,-0.862,-0.047,0.434,-0.198,0.916,-3.061,0.0,5.0
65510,-0.871,-0.054,0.443,-0.038,0.840,-3.069,0.0,5.0
65566,-0.864,-0.048,0.441,0.000,1.038,-2.885,0.0,5.0
65616,-0.868,-0.051,0.426,0.023,1.183,-2.969,0.0,5.0
65670,-0.863,-0.047,0.437,0.031,0.809,-3.298,0.0,5.0
65719,-0.866,-0.049,0.432,-0.069,1.481,-2.832,0.0,5.0
65772,-0.865,-0.048,0.430,0.015,0.679,-3.183,0.0,5.0
65822,-0.862,-0.050,0.435,0.046,0.885,-3.115,0.0,5.0
65875,-0.860,-0.047,0.432,0.046,1.084,-2.992,0.0,5.0
65925,-0.869,-0.046,0.427,0.046,1.008,-3.107,0.0,5.0
65983,-0.858,-0.054,0.437,-0.031,0.878,-3.176,0.0,5.0
66038,-0.856,-0.046,0.433,0.069,1.427,-2.885,0.0,5.0
66086,-0.863,-0.053,0.432,0.092,0.733,-3.107,0.0,5.0
66121,-0.864,-0.057,0.443,0.160,1.229,-3.183,0.0,5.0
66170,-0.864,-0.052,0.433,0.031,1.084,-3.031,0.0,5.0
66205,-0.865,-0.047,0.431,0.000,0.847,-3.252,0.0,5.0
66254,-0.859,-0.049,0.434,-0.076,0.496,-3.099,0.0,5.0
66289,-0.867,-0.051,0.436,0.031,1.092,-3.031,0.0,5.0
66337,-0.866,-0.049,0.435,0.061,1.053,-3.282,0.0,5.0
66372,-0.860,-0.050,0.430,0.092,0.924,-3.191,0.0,5.0
66421,-0.864,-0.057,0.428,-0.107,1.130,-2.794,0.0,5.0
66477,-0.863,-0.051,0.435,0.069,0.947,-3.206,0.0,5.0
66526,-0.862,-0.052,0.440,0.053,1.176,-2.969,0.0,5.0
66561,-0.867,-0.052,0.432,-0.038,1.282,-3.115,0.0,5.0
66610,-0.860,-0.050,0.435,0.092,1.420,-3.031,0.0,5.0
66644,-0.865,-0.047,0.436,-0.038,0.397,-2.908,0.0,5.0
66693,-0.862,-0.052,0.428,-0.031,0.985,-3.153,0.0,5.0
66728,-0.870,-0.050,0.434,-0.046,1.031,-2.962,0.0,5.0
66777,-0.871,-0.046,0.439,-0.046,0.969,-3.015,0.0,5.0
66812,-0.862,-0.052,0.439,-0.023,0.733,-3.122,0.0,5.0
66864,-0.864,-0.051,0.435,-0.008,0.985,-3.061,0.0,5.0
66898,-0.858,-0.050,0.436,0.015,1.183,-2.954,0.0,5.0
66948,-0.865,-0.054,0.430,0.084,0.878,-3.046,0.0,5.0
66982,-0.862,-0.049,0.435,0.069,1.168,-3.061,0.0,5.0
67032,-0.860,-0.049,0.433,-0.084,1.046,-2.931,0.0,5.0
67066,-0.863,-0.043,0.431,0.115,0.924,-2.969,0.0,5.0
67116,-0.864,-0.051,0.444,-0.008,0.840,-3.145,0.0,5.0
67151,-0.856,-0.050,0.426,0.160,1.069,-3.084,0.0,5.0
67200,-0.865,-0.053,0.445,-0.145,1.198,-2.885,0.0,5.0
67255,-0.860,-0.050,0.426,0.176,0.870,-3.145,0.0,5.0
67304,-0.863,-0.049,0.437,0.061,0.924,-3.084,0.0,5.0
67340,-0.861,-0.051,0.446,-0.122,1.160,-2.863,0.0,5.0
67388,-0.859,-0.056,0.433,0.000,1.038,-3.130,0.0,5.0
67424,-0.862,-0.049,0.434,0.038,0.779,-3.038,0.0,5.0
67473,-0.860,-0.052,0.428,0.130,1.031,-2.893,0.0,5.0
67508,-0.867,-0.050,0.437,0.153,1.550,-3.076,0.0,5.0
67557,-0.861,-0.049,0.443,-0.023,0.458,-3.015,0.0,5.0
67649,-0.859,-0.048,0.436,0.000,1.458,-2.908,0.0,5.0
67684,-0.860,-0.046,0.439,0.183,1.031,-2.832,0.0,5.0
67736,-0.858,-0.047,0.439,-0.122,0.840,-3.084,0.0,5.0
67771,-0.854,-0.048,0.434,-0.031,1.031,-2.817,0.0,5.0
67820,-0.862,-0.051,0.433,-0.099,1.214,-2.733,0.0,5.0
67856,-0.864,-0.050,0.437,0.023,1.107,-2.817,0.0,5.0
67905,-0.867,-0.051,0.435,-0.008,1.023,-2.817,0.0,5.0
67940,-0.860,-0.051,0.434,-0.038,1.389,-2.916,0.0,5.0
67989,-0.861,-0.048,0.445,0.092,0.824,-2.924,0.0,5.0
68025,-0.865,-0.058,0.437,-0.099,0.740,-2.885,0.0,5.0
68074,-0.861,-0.051,0.433,0.206,1.260,-2.824,0.0,5.0
68129,-0.865,-0.051,0.429,-0.031,0.748,-2.885,0.0,5.0
68178,-0.862,-0.056,0.435,0.137,1.038,-3.115,0.0,5.0
68213,-0.864,-0.045,0.438,-0.046,1.130,-2.809,0.0,5.0
68262,-0.860,-0.049,0.433,-0.023,1.046,-2.740,0.0,5.0
68298,-0.869,-0.050,0.433,0.145,1.565,-3.130,0.0,5.0
68347,-0.864,-0.050,0.430,-0.046,0.656,-3.573,0.0,5.0
68383,-0.865,-0.045,0.417,0.260,-0.420,-3.191,0.0,5.0
68432,-0.859,-0.052,0.427,0.015,1.412,-2.794,0.0,5.0
68467,-0.867,-0.057,0.438,0.008,1.099,-2.809,0.0,5.0
68516,-0.861,-0.044,0.431,-0.122,0.504,-3.092,0.0,5.0
68549,-0.858,-0.052,0.432,0.000,1.176,-2.824,0.0,5.0
68598,-0.866,-0.046,0.435,-0.115,1.015,-2.702,0.0,5.0
68634,-0.873,-0.047,0.429,0.153,1.221,-3.000,0.0,5.0
68683,-0.871,-0.051,0.435,-0.084,0.672,-2.985,0.0,5.0
68719,-0.864,-0.048,0.428,0.092,1.099,-3.038,0.0,5.0
68768,-0.864,-0.046,0.442,0.023,1.092,-2.916,0.0,5.0
68803,-0.867,-0.046,0.434,0.099,1.137,-2.985,0.0,5.0
68852,-0.867,-0.048,0.429,0.076,0.969,-3.023,0.0,5.0
68888,-0.868,-0.054,0.445,-0.015,0.931,-2.901,0.0,5.0
68940,-0.858,-0.053,0.438,-0.046,1.008,-2.870,0.0,5.0
68976,-0.865,-0.050,0.432,-0.008,0.802,-3.031,0.0,5.0
69025,-0.861,-0.048,0.434,-0.046,1.076,-3.130,0.0,5.0
69061,-0.864,-0.050,0.433,-0.046,0.855,-3.145,0.0,5.0
69110,-0.858,-0.056,0.435,-0.076,0.802,-2.855,0.0,5.0
69145,-0.862,-0.053,0.433,-0.015,1.244,-3.046,0.0,5.0
69195,-0.862,-0.047,0.432,0.053,1.313,-3.031,0.0,5.0
69230,-0.868,-0.048,0.434,0.092,1.122,-3.061,0.0,5.0
69279,-0.865,-0.052,0.437,0.153,1.366,-3.015,0.0,5.0
69336,-0.866,-0.052,0.433,-0.038,0.939,-2.847,0.0,5.0
69386,-0.867,-0.045,0.434,0.076,0.687,-3.382,0.0,5.0
69421,-0.862,-0.048,0.427,-0.145,0.863,-2.924,0.0,5.0
69470,-0.866,-0.046,0.435,-0.069,1.397,-2.931,0.0,5.0
69523,-0.861,-0.050,0.435,0.076,0.779,-3.160,0.0,5.0
69572,-0.872,-0.044,0.432,0.092,0.916,-3.023,0.0,5.0
69625,-0.869,-0.055,0.437,0.076,1.053,-3.046,0.0,5.0
69675,-0.858,-0.050,0.441,0.000,1.244,-2.962,0.0,5.0
69728,-0.865,-0.051,0.430,0.038,0.725,-3.046,0.0,5.0
69778,-0.866,-0.051,0.438,-0.107,1.046,-3.000,0.0,5.0
69833,-0.870,-0.052,0.436,0.000,1.008,-3.198,0.0,5.0
69926,-0.867,-0.049,0.438,0.099,0.786,-3.053,0.0,5.0
69980,-0.863,-0.047,0.436,0.076,1.015,-3.191,0.0,5.0
70029,-0.855,-0.053,0.435,-0.015,1.244,-2.794,0.0,5.0
70082,-0.870,-0.048,0.432,0.160,1.168,-3.130,0.0,5.0
70131,-0.860,-0.052,0.437,-0.015,0.573,-3.031,0.0,5.0
70184,-0.865,-0.053,0.431,0.023,1.389,-2.870,0.0,5.0
70234,-0.866,-0.047,0.431,0.221,0.771,-3.153,0.0,5.0
70287,-0.860,-0.046,0.437,0.107,0.611,-3.229,0.0,5.0
70340,-0.870,-0.051,0.431,0.168,1.420,-2.962,0.0,5.0
70393,-0.863,-0.055,0.432,-0.076,0.405,-3.290,0.0,5.0
70443,-0.856,-0.046,0.430,0.053,1.351,-3.046,0.0,5.0
70496,-0.860,-0.046,0.434,-0.176,0.595,-3.229,0.0,5.0
70545,-0.865,-0.048,0.435,-0.023,0.779,-2.908,0.0,5.0
70598,-0.865,-0.051,0.429,0.099,1.153,-3.053,0.0,5.0
70648,-0.858,-0.048,0.430,-0.099,0.756,-3.168,0.0,5.0
70702,-0.865,-0.051,0.434,-0.031,1.115,-3.084,0.0,5.0
70751,-0.857,-0.055,0.428,0.130,0.824,-2.954,0.0,5.0
70804,-0.858,-0.046,0.438,-0.122,0.878,-3.069,0.0,5.0
70857,-0.860,-0.053,0.439,0.023,1.145,-2.794,0.0,5.0
70910,-0.866,-0.054,0.432,0.107,1.084,-3.092,0.0,5.0
70960,-0.862,-0.052,0.435,0.061,0.634,-2.893,0.0,5.0
71013,-0.862,-0.052,0.436,0.069,1.160,-3.160,0.0,5.0
71063,-0.869,-0.051,0.435,-0.046,0.374,-3.023,0.0,5.0
71116,-0.866,-0.047,0.427,-0.031,1.298,-2.885,0.0,5.0
71165,-0.861,-0.052,0.425,0.076,0.969,-3.183,0.0,5.0
71219,-0.863,-0.047,0.430,-0.015,1.038,-3.153,0.0,5.0
71269,-0.861,-0.050,0.430,0.038,0.924,-3.221,0.0,5.0
71325,-0.863,-0.050,0.432,-0.137,0.740,-2.939,0.0,5.0
71375,-0.857,-0.044,0.427,0.099,1.214,-2.908,0.0,5.0
71429,-0.858,-0.052,0.428,-0.160,0.695,-3.137,0.0,5.0
71478,-0.870,-0.048,0.436,0.122,1.580,-3.038,0.0,5.0
71531,-0.864,-0.046,0.435,-0.069,0.802,-3.130,0.0,5.0
71581,-0.857,-0.051,0.438,0.061,1.481,-3.214,0.0,5.0
71634,-0.864,-0.049,0.430,0.191,0.977,-3.573,0.0,5.0
71684,-0.824,-0.047,0.411,-0.038,-2.740,-3.252,0.0,4.0
71738,-0.866,-0.049,0.442,-0.122,1.145,-2.840,0.0,5.0
71791,-0.860,-0.054,0.437,0.053,0.756,-2.878,0.0,4.0
71843,-0.862,-0.044,0.429,0.084,1.183,-3.183,0.0,4.0
71894,-0.860,-0.048,0.435,0.115,1.443,-2.962,0.0,5.0
71947,-0.867,-0.051,0.431,-0.122,0.718,-2.908,0.0,4.0
72002,-0.862,-0.049,0.447,0.099,0.779,-3.038,0.0,5.0
72037,-0.860,-0.053,0.431,0.038,1.427,-2.969,0.0,5.0
72086,-0.863,-0.048,0.438,0.107,0.771,-2.969,0.0,5.0
72121,-0.864,-0.045,0.434,-0.015,1.313,-2.771,0.0,5.0
72169,-0.860,-0.054,0.443,0.069,1.267,-3.084,0.0,5.0
72205,-0.864,-0.050,0.438,-0.053,0.939,-2.962,0.0,5.0
72256,-0.858,-0.056,0.434,-0.145,0.855,-2.924,0.0,5.0
72291,-0.854,-0.049,0.439,0.099,1.435,-3.137,0.0,5.0
72340,-0.865,-0.054,0.427,0.084,0.756,-2.885,0.0,5.0
72375,-0.869,-0.053,0.429,0.092,1.481,-2.992,0.0,5.0
72466,-0.863,-0.052,0.431,0.023,0.649,-3.000,0.0,5.0
72502,-0.863,-0.055,0.438,0.038,1.290,-2.847,0.0,5.0
72550,-0.866,-0.053,0.424,-0.069,0.947,-2.855,0.0,5.0
72586,-0.863,-0.049,0.437,0.008,0.794,-2.939,0.0,5.0
72634,-0.865,-0.050,0.436,0.031,1.298,-2.924,0.0,5.0
72689,-0.867,-0.050,0.433,0.031,0.939,-3.046,0.0,5.0
72738,-0.865,-0.053,0.423,-0.038,0.977,-3.000,0.0,5.0
72773,-0.868,-0.051,0.439,-0.107,1.107,-2.931,0.0,5.0
72822,-0.865,-0.050,0.425,-0.145,1.168,-2.687,0.0,5.0
72857,-0.865,-0.050,0.434,0.069,1.321,-3.061,0.0,5.0
72906,-0.860,-0.049,0.426,0.038,0.710,-3.321,0.0,5.0
72941,-0.857,-0.050,0.430,-0.237,0.908,-2.809,0.0,5.0
72990,-0.859,-0.053,0.440,-0.008,0.916,-3.137,0.0,5.0
73025,-0.860,-0.048,0.442,0.115,1.618,-2.771,0.0,5.0
73074,-0.865,-0.050,0.429,-0.321,1.359,-2.733,0.0,5.0
73129,-0.868,-0.049,0.430,0.000,0.672,-3.145,0.0,5.0
73179,-0.866,-0.048,0.426,0.031,1.260,-2.939,0.0,5.0
73213,-0.859,-0.049,0.431,-0.015,0.397,-3.229,0.0,5.0
73263,-0.865,-0.048,0.434,-0.015,0.649,-3.092,0.0,5.0
73297,-0.864,-0.050,0.442,0.137,1.359,-3.046,0.0,5.0
73347,-0.866,-0.048,0.428,0.084,1.069,-2.924,0.0,5.0
73381,-0.860,-0.048,0.440,-0.008,0.511,-3.282,0.0,5.0
73431,-0.853,-0.050,0.436,0.023,0.992,-3.183,0.0,5.0
73466,-0.858,-0.049,0.425,-0.008,1.107,-2.863,0.0,5.0
73518,-0.859,-0.052,0.435,0.092,0.931,-3.053,0.0,5.0
73553,-0.867,-0.053,0.437,0.084,1.351,-3.053,0.0,5.0
73603,-0.864,-0.048,0.439,0.084,1.168,-2.969,0.0,5.0
73637,-0.871,-0.056,0.431,-0.061,0.252,-3.244,0.0,5.0
73687,-0.860,-0.053,0.441,0.038,0.809,-3.198,0.0,5.0
73721,-0.859,-0.054,0.438,-0.069,1.824,-2.794,0.0,5.0
73771,-0.866,-0.056,0.431,0.000,1.115,-2.977,0.0,5.0
73805,-0.862,-0.053,0.435,0.046,0.847,-3.115,0.0,5.0
73854,-0.856,-0.046,0.435,0.183,1.137,-2.832,0.0,5.0
73911,-0.873,-0.052,0.434,-0.053,0.649,-3.069,0.0,5.0
73960,-0.859,-0.043,0.435,0.160,1.115,-3.122,0.0,5.0
73995,-0.861,-0.051,0.439,0.046,1.092,-3.008,0.0,5.0
74044,-0.862,-0.049,0.445,0.122,1.031,-2.840,0.0,5.0
74080,-0.862,-0.053,0.440,-0.061,0.756,-3.031,0.0,5.0
74128,-0.870,-0.051,0.437,0.046,0.992,-2.916,0.0,5.0
74164,-0.864,-0.047,0.423,-0.069,0.687,-3.084,0.0,5.0
74213,-0.863,-0.045,0.432,0.023,0.969,-2.962,0.0,5.0
74248,-0.859,-0.051,0.429,0.038,0.725,-2.870,0.0,5.0
74297,-0.863,-0.049,0.432,-0.046,0.924,-3.115,0.0,5.0
74353,-0.856,-0.051,0.429,0.076,1.275,-2.977,0.0,5.0
74402,-0.867,-0.051,0.427,-0.015,1.176,-2.817,0.0,5.0
74438,-0.860,-0.050,0.434,-0.122,0.573,-3.191,0.0,5.0
74487,-0.861,-0.051,0.430,0.015,0.710,-3.344,0.0,5.0
74522,-0.864,-0.048,0.441,0.107,1.595,-2.725,0.0,5.0
74571,-0.865,-0.046,0.432,-0.061,0.924,-3.107,0.0,5.0
74607,-0.858,-0.047,0.438,0.038,0.534,-3.130,0.0,5.0
74699,-0.861,-0.048,0.431,0.069,0.878,-3.137,0.0,5.0
74752,-0.864,-0.047,0.431,0.053,0.702,-2.908,0.0,5.0
74805,-0.857,-0.047,0.438,-0.145,1.099,-2.840,0.0,5.0
74840,-0.864,-0.051,0.438,-0.122,0.878,-3.099,0.0,5.0
74889,-0.860,-0.046,0.444,0.031,0.794,-3.069,0.0,5.0
74925,-0.865,-0.051,0.435,0.084,1.351,-2.855,0.0,5.0
74974,-0.868,-0.048,0.437,0.023,0.733,-3.130,0.0,5.0
75010,-0.860,-0.049,0.437,0.069,1.160,-2.977,0.0,5.0
75059,-0.867,-0.051,0.438,-0.038,1.466,-2.832,0.0,5.0
75095,-0.867,-0.059,0.428,0.099,1.038,-2.977,0.0,5.0
75144,-0.861,-0.041,0.437,0.107,0.840,-2.664,0.0,5.0
75179,-0.861,-0.056,0.441,0.061,0.908,-3.359,0.0,5.0
75231,-0.867,-0.052,0.438,0.046,1.160,-2.885,0.0,5.0
75267,-0.864,-0.050,0.428,0.160,1.336,-2.740,0.0,5.0
75316,-0.864,-0.052,0.435,-0.160,0.725,-3.107,0.0,5.0
75352,-0.857,-0.052,0.438,0.015,1.397,-2.870,0.0,5.0
75401,-0.862,-0.051,0.432,-0.038,1.237,-2.687,0.0,5.0
75454,-0.861,-0.049,0.443,0.061,1.321,-2.840,0.0,5.0
75503,-0.865,-0.046,0.435,-0.176,1.008,-2.939,0.0,5.0
75556,-0.864,-0.053,0.433,0.015,0.893,-2.977,0.0,5.0
75606,-0.866,-0.045,0.445,0.061,1.031,-2.870,0.0,5.0
75662,-0.866,-0.048,0.436,0.084,1.053,-3.053,0.0,5.0
75711,-0.866,-0.050,0.441,-0.008,0.992,-3.015,0.0,5.0
75764,-0.865,-0.046,0.432,0.031,1.008,-2.916,0.0,5.0
75813,-0.863,-0.049,0.432,0.015,0.824,-3.130,0.0,5.0
75867,-0.863,-0.049,0.431,0.031,0.954,-3.046,0.0,5.0
75916,-0.869,-0.049,0.433,-0.168,1.023,-3.069,0.0,5.0
75969,-0.864,-0.055,0.432,-0.023,0.885,-3.099,0.0,5.0
76018,-0.861,-0.049,0.423,-0.153,1.160,-2.954,0.0,5.0
76071,-0.867,-0.052,0.432,0.046,1.198,-2.947,0.0,5.0
76125,-0.857,-0.046,0.427,0.084,0.534,-3.092,0.0,5.0
76178,-0.860,-0.051,0.435,0.008,1.328,-2.794,0.0,5.0
76227,-0.873,-0.054,0.431,-0.023,0.740,-3.206,0.0,5.0
76280,-0.863,-0.049,0.433,0.084,1.244,-3.015,0.0,5.0
76329,-0.858,-0.047,0.428,-0.099,0.702,-3.053,0.0,5.0
76383,-0.857,-0.054,0.431,0.069,1.275,-3.099,0.0,5.0
76432,-0.875,-0.047,0.431,-0.031,0.595,-3.275,0.0,5.0
76485,-0.857,-0.054,0.439,0.053,0.779,-3.160,0.0,5.0
76535,-0.867,-0.047,0.436,0.092,1.336,-3.031,0.0,5.0
76589,-0.857,-0.050,0.431,0.099,0.618,-2.901,0.0,5.0
76641,-0.862,-0.048,0.433,-0.008,1.313,-2.832,0.0,5.0
76694,-0.865,-0.045,0.435,0.176,1.221,-3.137,0.0,5.0
76744,-0.865,-0.044,0.431,0.008,0.847,-2.977,0.0,5.0
76796,-0.865,-0.053,0.440,0.023,1.099,-2.588,0.0,5.0
76847,-0.869,-0.046,0.429,0.092,1.214,-3.305,0.0,5.0
76900,-0.863,-0.054,0.431,-0.008,0.725,-3.198,0.0,5.0
76949,-0.859,-0.051,0.435,-0.237,1.092,-2.885,0.0,5.0
77002,-0.871,-0.050,0.431,0.115,1.267,-2.954,0.0,5.0
77052,-0.862,-0.051,0.439,-0.046,0.885,-2.901,0.0,5.0
77115,-0.867,-0.047,0.437,0.153,1.290,-3.160,0.0,5.0
