Timestamp(ms),AccelX(g),AccelY(g),AccelZ(g),GyroX(deg/s),GyroY(deg/s),GyroZ(deg/s),DistanceLeft(cm),DistanceRight(cm)
33575,-0.293,0.139,0.947,3.153,0.168,-1.374,0.0,0.0
33636,-0.296,0.145,0.953,-3.435,-0.916,-2.687,0.0,0.0
33696,-0.269,0.133,0.946,-0.260,-0.450,-0.794,0.0,0.0
33756,-0.304,0.158,0.935,-1.824,0.550,-3.351,0.0,0.0
33816,-0.292,0.128,0.946,1.427,-0.145,-1.756,0.0,0.0
33875,-0.305,0.203,0.919,-5.580,0.855,-2.527,0.0,0.0
33936,-0.290,0.105,0.955,8.580,0.855,0.947,0.0,0.0
33996,-0.290,0.157,0.938,-5.427,0.611,-2.565,0.0,0.0
34059,-0.283,0.142,0.936,7.763,2.298,-0.672,0.0,0.0
34119,-0.311,0.164,0.910,3.099,5.023,-3.771,0.0,0.0
34179,-0.283,0.135,0.873,16.458,12.878,-4.985,0.0,0.0
34234,-0.276,0.115,0.824,35.046,33.611,-14.977,0.0,117.0
34289,-0.348,0.151,0.787,35.305,47.214,-21.489,0.0,116.0
34344,-0.306,-0.042,0.786,106.634,76.458,-28.160,0.0,108.0
34400,-0.468,0.099,0.591,191.603,105.305,-47.038,0.0,105.0
34454,-0.771,0.737,0.332,142.443,101.840,-67.527,0.0,107.0
34509,-0.822,0.464,0.469,35.992,101.931,-81.160,0.0,102.0
34567,-0.913,0.290,0.448,56.176,93.618,-79.580,0.0,100.0
34627,-0.960,0.296,0.320,110.084,81.336,-96.603,0.0,0.0
34688,-1.062,0.277,0.151,116.733,75.397,-100.023,0.0,0.0
34747,-1.159,0.239,0.063,97.458,60.328,-76.863,0.0,0.0
34807,-1.117,0.100,0.097,96.695,43.099,-50.924,0.0,0.0
34868,-1.012,0.110,0.061,151.618,28.802,-31.053,0.0,0.0
34928,-0.998,0.360,-0.177,163.275,19.603,-17.344,0.0,0.0
34989,-1.009,0.536,-0.160,29.695,6.061,-24.702,0.0,0.0
35049,-0.959,0.183,-0.025,8.489,14.076,-14.870,0.0,0.0
35112,-0.962,0.163,-0.006,25.504,0.344,13.954,0.0,0.0
35172,-0.988,0.200,-0.204,68.504,-4.794,30.954,0.0,0.0
35232,-0.979,0.267,-0.140,23.855,-2.076,59.382,0.0,0.0
35293,-0.897,0.446,-0.189,-36.718,7.595,52.893,0.0,0.0
35353,-0.907,0.242,-0.151,-89.832,11.565,27.420,0.0,0.0
35414,-0.953,0.091,-0.106,-61.649,20.023,22.763,0.0,0.0
35474,-0.930,0.295,-0.197,-47.031,14.015,19.611,0.0,0.0
35534,-0.879,0.358,-0.174,-94.863,15.786,4.885,0.0,0.0
35595,-0.900,0.321,-0.122,-101.771,33.321,-16.366,0.0,0.0
35658,-1.024,0.227,0.032,-69.099,28.481,-22.901,0.0,0.0
35719,-0.936,0.347,0.019,-24.298,14.061,-10.237,0.0,0.0
35779,-0.907,0.488,-0.131,-72.893,22.496,-16.977,0.0,0.0
35840,-0.930,0.376,-0.144,-114.924,23.725,-19.748,0.0,0.0
35900,-0.917,0.333,-0.141,-106.031,26.046,-14.695,0.0,0.0
35960,-0.922,0.363,-0.181,-111.542,25.779,-17.336,0.0,0.0
36016,-0.925,0.353,-0.177,-123.931,26.267,-14.275,0.0,111.0
36071,-0.934,0.303,-0.143,-120.603,26.214,-9.595,0.0,111.0
36127,-0.952,0.352,-0.178,-118.328,28.336,-4.237,0.0,115.0
36186,-0.958,0.336,-0.182,-124.557,26.565,0.229,0.0,117.0
36242,-0.991,0.288,-0.166,-117.153,20.611,11.504,0.0,123.0
36298,-0.989,0.252,-0.160,-96.519,11.420,24.221,0.0,127.0
36359,-0.978,0.222,-0.128,-64.802,1.481,37.351,0.0,0.0
36419,-0.976,0.256,-0.097,-31.198,-5.588,44.504,0.0,0.0
36480,-0.978,0.286,-0.065,-27.687,-9.809,44.863,0.0,0.0
36579,-0.945,0.229,0.005,-35.565,-14.420,21.985,0.0,125.0
36639,-0.944,0.210,0.023,-7.870,-20.557,5.084,0.0,0.0
36703,-0.944,0.184,0.015,44.206,-31.992,-7.878,0.0,0.0
36763,-0.927,0.239,-0.031,87.366,-40.504,-16.198,0.0,0.0
36819,-0.923,0.289,-0.071,111.076,-45.076,-25.344,0.0,130.0
36881,-0.934,0.347,-0.108,111.137,-46.802,-36.641,0.0,0.0
36937,-0.922,0.342,-0.114,118.962,-44.542,-44.542,0.0,123.0
36993,-0.929,0.365,-0.120,123.672,-38.931,-48.366,0.0,119.0
37049,-0.946,0.362,-0.116,128.107,-33.206,-49.672,0.0,115.0
37104,-0.946,0.375,-0.133,129.718,-26.863,-46.115,0.0,114.0
37166,-0.940,0.403,-0.134,116.527,-19.160,-42.053,0.0,0.0
37229,-0.963,0.442,-0.110,81.275,-7.061,-40.382,0.0,0.0
37289,-0.969,0.371,-0.048,62.473,-3.924,-36.313,0.0,0.0
37350,-0.994,0.302,0.005,61.176,-6.885,-18.550,0.0,0.0
37410,-0.934,0.387,-0.018,67.779,-5.702,6.824,0.0,0.0
37471,-0.910,0.408,-0.020,28.763,-3.198,12.046,0.0,0.0
37532,-1.011,0.384,0.007,-6.176,-3.748,15.763,0.0,0.0
37593,-0.940,0.355,0.064,-22.748,-6.855,23.153,0.0,0.0
37653,-0.979,0.358,0.165,-26.122,-8.947,30.985,0.0,0.0
37713,-1.143,0.448,0.290,-10.534,-25.321,58.191,0.0,0.0
37777,-1.040,0.721,0.363,9.382,-51.924,131.107,0.0,0.0
37837,-1.081,1.088,0.319,-20.008,-67.359,174.221,0.0,0.0
37894,-1.064,1.173,0.288,-84.290,-74.137,221.962,0.0,114.0
37947,-0.886,1.260,0.193,-115.260,-63.527,250.130,140.0,122.0
38003,-0.715,1.164,0.281,-105.427,-51.740,250.130,126.0,0.0
38060,-0.396,1.206,0.198,-102.595,-16.519,250.130,114.0,0.0
38114,-0.070,0.924,0.283,-150.305,4.695,250.130,36.0,0.0
38164,0.103,0.727,0.312,-130.099,36.389,250.130,31.0,188.0
38224,0.268,0.507,0.388,-156.099,39.992,207.992,0.0,190.0
38288,0.067,-0.028,0.405,-136.008,40.519,146.679,0.0,193.0
38348,0.165,0.005,0.448,-43.641,35.229,111.450,0.0,196.0
38410,0.130,-0.029,0.573,-58.802,37.153,90.183,0.0,0.0
38470,0.156,-0.264,0.785,-44.962,23.527,61.069,0.0,0.0
38531,0.312,-0.278,0.856,-3.427,20.153,41.695,0.0,0.0
38591,0.294,-0.229,0.864,3.794,20.748,25.397,0.0,0.0
38651,0.272,-0.040,0.920,1.740,17.198,28.695,0.0,0.0
38713,0.331,-0.135,0.980,-1.137,4.023,27.924,0.0,0.0
38773,0.260,-0.320,1.034,-38.176,-1.954,18.473,0.0,0.0
38837,0.226,-0.172,0.904,5.351,-2.763,21.466,0.0,0.0
38897,0.322,-0.351,0.925,-22.840,-6.321,14.137,0.0,0.0
38959,0.338,-0.288,0.863,-6.649,-4.473,19.740,0.0,0.0
39019,0.299,-0.331,0.886,6.168,-2.649,28.893,0.0,0.0
39074,0.340,-0.331,0.893,6.634,-6.290,41.992,0.0,115.0
39131,0.303,-0.341,0.897,16.519,-6.664,48.573,0.0,125.0
39192,0.256,-0.199,0.927,12.260,-14.237,59.260,0.0,0.0
39252,0.223,-0.257,0.924,9.282,-26.840,66.710,0.0,0.0
39313,0.248,-0.218,0.909,-1.198,-31.290,59.939,0.0,0.0
39377,0.279,-0.187,0.926,16.145,-23.649,51.901,0.0,0.0
39438,0.235,-0.213,0.948,4.863,-15.672,40.405,0.0,0.0
39499,0.295,-0.247,0.958,7.229,-11.389,32.313,0.0,0.0
39603,0.260,-0.275,0.935,9.321,-8.275,22.061,0.0,0.0
39663,0.237,-0.218,0.907,0.221,-8.863,15.710,0.0,0.0
39725,0.284,-0.318,0.938,-1.748,-6.634,9.634,0.0,0.0
39781,0.302,-0.240,0.949,3.847,-2.046,3.748,0.0,134.0
39838,0.261,-0.254,0.962,-2.122,0.885,0.893,0.0,132.0
39895,0.280,-0.268,0.916,-9.061,-2.069,-2.847,0.0,133.0
39959,0.274,-0.290,0.892,-7.855,-1.565,-3.481,0.0,0.0
40015,0.294,-0.305,0.908,-4.450,-2.687,-3.954,0.0,124.0
40077,0.307,-0.299,0.907,-3.748,-3.061,-4.092,0.0,0.0
40137,0.310,-0.308,0.908,-0.137,-2.450,-2.847,0.0,0.0
40198,0.313,-0.303,0.914,-4.153,-1.282,-3.656,0.0,0.0
40259,0.291,-0.283,0.915,-7.153,-0.450,-2.282,0.0,0.0
40320,0.323,-0.357,0.926,-7.191,-2.679,-3.366,0.0,0.0
40381,0.317,-0.293,0.900,-7.786,-2.534,-0.992,0.0,0.0
40441,0.305,-0.362,0.896,-5.481,-1.939,-0.710,0.0,0.0
40502,0.316,-0.312,0.898,-0.687,-0.412,0.969,0.0,0.0
40566,0.303,-0.377,0.904,-6.145,-3.053,-0.573,0.0,0.0
40622,0.334,-0.329,0.880,0.328,-1.397,-0.847,0.0,104.0
40677,0.288,-0.308,0.896,-3.779,-2.252,-1.534,0.0,102.0
40732,0.330,-0.352,0.889,-1.664,-0.450,-2.053,0.0,101.0
40787,0.316,-0.347,0.896,-0.321,1.420,-2.389,0.0,101.0
40843,0.318,-0.352,0.901,3.298,3.282,-0.695,0.0,101.0
40898,0.311,-0.341,0.888,-7.038,-1.153,-0.908,0.0,102.0
40953,0.294,-0.320,0.883,-0.305,-1.298,0.947,0.0,101.0
41015,0.326,-0.363,0.902,-1.847,-3.031,0.435,0.0,101.0
41072,0.327,-0.327,0.888,-0.153,-1.794,1.000,0.0,101.0
41126,0.324,-0.357,0.902,-1.038,-1.473,0.740,0.0,101.0
41181,0.311,-0.328,0.884,-0.130,-2.031,1.061,0.0,101.0
41235,0.307,-0.343,0.905,-2.565,-2.603,2.290,0.0,101.0
41289,0.321,-0.341,0.891,-0.397,-3.519,0.237,0.0,101.0
41344,0.298,-0.339,0.880,-1.718,-4.221,-0.618,0.0,101.0
41398,0.323,-0.300,0.882,-2.794,-2.626,-4.031,0.0,101.0
41452,0.290,-0.284,0.931,-2.473,-0.015,-7.359,0.0,102.0
41506,0.301,-0.303,0.958,-9.473,1.328,-15.679,0.0,110.0
41565,0.297,-0.275,0.939,-9.840,2.252,-26.710,0.0,116.0
41621,0.324,-0.254,0.855,-24.008,6.115,-36.252,0.0,134.0
41675,0.351,-0.397,0.861,-15.954,10.534,-43.672,0.0,101.0
41736,0.289,-0.287,0.807,-6.847,15.405,-51.580,0.0,0.0
41790,0.284,-0.349,0.850,-7.412,10.244,-59.779,0.0,96.0
41849,0.296,-0.286,0.803,-10.824,2.237,-76.061,0.0,0.0
41910,0.244,-0.396,0.805,19.939,3.046,-94.206,0.0,0.0
41970,0.216,-0.228,0.665,30.145,-15.313,-116.336,0.0,0.0
42030,0.432,-0.182,0.623,65.450,-27.870,-144.664,0.0,0.0
42093,0.298,-0.110,0.614,78.969,-21.557,-176.397,0.0,195.0
42142,0.182,0.175,0.390,104.290,-20.985,-193.481,32.0,191.0
42191,0.455,0.624,0.534,150.863,-14.832,-203.069,30.0,172.0
42240,0.168,0.622,0.308,61.099,-19.878,-212.718,30.0,150.0
42290,0.301,0.771,0.553,137.550,-0.626,-226.649,38.0,0.0
42345,-0.131,0.886,0.294,120.206,10.802,-244.786,40.0,0.0
42396,-0.177,1.048,0.388,148.504,23.511,-250.137,49.0,0.0
42492,-0.795,1.022,0.200,150.908,50.542,-250.137,155.0,118.0
42551,-1.159,0.875,0.065,130.359,40.382,-250.137,0.0,112.0
42611,-1.508,0.935,-0.037,125.893,45.458,-246.435,0.0,0.0
42664,-1.308,0.723,0.124,78.573,36.237,-162.756,0.0,89.0
42725,-1.338,0.421,0.238,109.382,11.557,-73.695,0.0,0.0
42785,-1.002,0.611,0.043,81.802,-3.496,-14.733,0.0,0.0
42846,-0.902,0.552,-0.073,7.397,-2.679,13.160,0.0,0.0
42905,-0.932,0.374,-0.080,-8.244,0.122,37.221,0.0,0.0
42966,-1.062,0.247,-0.059,-31.733,-8.725,36.389,0.0,0.0
43026,-0.910,0.052,-0.021,-35.000,-10.672,12.176,0.0,0.0
43089,-0.900,0.135,-0.092,3.832,5.771,6.168,0.0,0.0
43149,-0.935,0.183,-0.088,36.244,2.565,-0.290,0.0,0.0
43209,-0.967,0.321,-0.142,59.580,1.229,3.519,0.0,0.0
43270,-0.948,0.390,-0.127,26.023,-3.290,3.130,0.0,0.0
43330,-0.957,0.354,-0.103,-5.824,-0.260,2.420,0.0,0.0
43389,-0.924,0.301,-0.095,-25.015,2.298,-2.214,0.0,0.0
43450,-0.934,0.273,-0.105,-27.565,3.969,-6.145,0.0,0.0
43510,-0.954,0.278,-0.108,-24.496,4.779,-5.855,0.0,0.0
43571,-0.932,0.293,-0.094,-29.924,1.664,-5.397,0.0,0.0
43631,-0.949,0.301,-0.086,-30.687,3.603,-7.969,0.0,0.0
43695,-0.857,0.385,-0.024,-50.542,8.962,-13.328,0.0,0.0
43755,-0.917,0.572,0.063,-107.137,16.511,-20.061,0.0,0.0
43814,-1.152,0.639,0.132,-158.962,-25.443,-8.031,0.0,0.0
43875,-1.215,0.467,0.338,-86.427,-46.672,59.595,0.0,0.0
43935,-1.247,0.757,0.259,-70.466,-76.977,97.168,0.0,0.0
43991,-1.268,0.693,0.253,-100.282,-102.603,107.046,0.0,106.0
44046,-1.279,0.628,0.260,-129.664,-111.832,102.389,0.0,106.0
44101,-1.106,0.570,0.297,-136.809,-114.275,84.718,0.0,111.0
44165,-1.004,0.425,0.354,-146.237,-125.969,58.420,0.0,0.0
44221,-0.697,0.111,0.391,-81.542,-129.763,47.267,0.0,123.0
44281,-0.427,0.158,0.306,-78.878,-92.359,42.466,0.0,0.0
44342,-0.295,-0.000,0.358,-58.397,-51.557,34.053,0.0,0.0
44402,-0.177,0.124,0.597,17.405,-34.374,18.053,0.0,0.0
44463,-0.216,0.233,0.709,10.626,-14.282,9.412,0.0,0.0
44523,-0.163,0.291,0.791,-10.656,-7.527,-3.489,0.0,0.0
44583,-0.172,0.225,0.913,-10.115,2.962,2.580,0.0,0.0
44644,-0.176,0.197,0.955,-10.374,0.405,3.198,0.0,0.0
44707,-0.185,0.295,0.940,-2.992,5.580,-0.931,0.0,0.0
44768,-0.194,0.226,0.986,-14.786,0.473,-8.076,0.0,0.0
44828,-0.232,0.246,0.955,8.962,-0.260,-5.015,0.0,0.0
44889,-0.222,0.244,0.921,17.817,-2.405,-2.771,0.0,0.0
44949,-0.209,0.271,0.894,12.031,-1.885,-2.710,0.0,0.0
45009,-0.260,0.186,0.870,14.008,0.321,5.573,0.0,0.0
45070,-0.300,0.158,0.881,73.229,-14.519,39.931,0.0,0.0
45128,-0.456,0.341,0.608,122.626,-27.702,80.649,164.0,0.0
45189,-0.358,0.555,0.556,143.443,-46.840,91.763,0.0,0.0
45244,-0.379,0.580,0.249,163.145,-39.282,154.244,110.0,0.0
45302,0.061,0.810,0.111,166.527,19.878,109.817,107.0,0.0
45358,0.342,0.610,0.254,196.824,27.939,34.595,43.0,0.0
45410,0.180,0.892,-0.027,145.557,20.534,-105.870,51.0,0.0
45504,-0.300,1.504,0.115,181.191,-65.351,-199.817,128.0,109.0
45561,0.028,2.000,0.146,133.092,-69.359,-114.435,133.0,0.0
45618,0.226,2.000,0.185,-25.496,0.344,-20.305,135.0,0.0
45670,-0.042,1.483,0.233,-65.427,-1.122,97.618,133.0,122.0
45727,-0.124,1.769,-0.236,-51.321,-3.069,215.435,127.0,0.0
45787,0.062,1.200,-0.259,-104.405,31.710,250.130,120.0,0.0
45842,0.023,0.527,-0.122,-140.718,27.779,250.092,114.0,0.0
45897,0.091,0.207,0.046,-41.305,15.115,144.382,111.0,0.0
45954,0.068,0.236,0.018,34.893,10.931,5.550,115.0,0.0
46009,0.030,0.337,-0.001,45.489,4.985,-128.168,112.0,0.0
46065,-0.077,0.830,-0.046,103.489,-15.191,-201.031,115.0,0.0
46117,-0.029,1.668,-0.095,78.618,-32.786,-190.206,51.0,0.0
46164,0.546,1.763,0.304,-1.679,-21.740,-121.863,52.0,116.0
46221,0.695,1.605,0.563,-31.153,5.695,-35.664,123.0,0.0
46276,0.494,1.288,0.423,-67.588,-2.168,84.916,52.0,0.0
46332,0.349,1.165,0.053,-79.504,-17.252,162.550,49.0,0.0
46384,0.283,0.863,-0.046,-90.069,-4.313,174.046,47.0,0.0
46439,0.270,0.582,0.063,-45.763,16.855,131.992,42.0,0.0
46491,0.241,0.413,0.187,-24.153,24.634,40.260,42.0,0.0
46546,0.151,0.500,0.317,1.908,30.214,-44.183,43.0,0.0
46598,0.081,0.615,0.344,39.885,18.870,-121.611,37.0,0.0
46653,-0.149,0.737,0.257,17.504,1.214,-182.420,44.0,0.0
46705,-0.233,0.715,0.365,-3.038,-12.145,-250.137,54.0,0.0
46761,-0.511,0.575,0.294,11.733,-16.099,-250.137,127.0,124.0
46814,-0.955,0.722,0.201,-4.695,-28.794,-250.137,147.0,115.0
46875,-1.286,0.403,0.208,39.366,-26.527,-250.137,0.0,0.0
46934,-1.659,0.230,-0.032,183.168,-22.252,-250.137,0.0,151.0
46993,-1.507,0.384,-0.208,142.115,-21.542,-236.115,0.0,186.0
47054,-1.164,0.291,-0.179,77.183,-0.695,-156.504,0.0,0.0
47112,-1.132,0.196,-0.192,95.595,17.847,-100.878,142.0,0.0
47173,-1.032,0.226,-0.155,94.664,32.275,-82.886,0.0,0.0
47237,-1.012,0.205,-0.086,130.611,54.000,-62.985,0.0,0.0
47298,-1.032,0.372,-0.036,110.328,59.321,-47.450,0.0,0.0
47358,-1.046,0.318,0.194,19.298,63.038,-48.565,0.0,0.0
47419,-1.113,0.295,0.449,-39.878,52.557,3.863,0.0,0.0
47480,-1.169,0.441,0.634,-52.710,5.687,47.519,0.0,0.0
47541,-1.274,0.631,0.529,-129.878,-34.847,119.473,0.0,0.0
47602,-1.250,0.734,0.245,-169.046,-77.939,156.237,0.0,0.0
47662,-1.243,0.762,-0.041,-148.267,-90.855,188.115,0.0,173.0
47723,-1.119,0.983,-0.349,-137.710,-66.725,214.786,0.0,0.0
47787,-0.811,1.028,-0.620,-170.115,4.885,220.015,0.0,0.0
47848,-0.928,0.924,-0.702,-172.634,66.305,202.374,0.0,0.0
47903,-0.764,0.885,-0.641,-144.870,108.656,199.275,0.0,94.0
47964,-0.787,0.823,-0.592,-115.565,132.679,187.168,0.0,0.0
48025,-0.756,0.802,-0.402,-89.832,147.527,169.534,0.0,0.0
48083,-0.730,0.750,-0.204,-40.931,175.000,146.603,152.0,0.0
48142,-0.778,0.892,-0.084,-38.137,183.031,113.962,162.0,0.0
48199,-0.885,0.760,0.159,-71.847,159.534,75.229,135.0,0.0
48258,-0.885,0.626,0.380,-40.687,120.382,45.450,146.0,0.0
48318,-0.909,0.680,0.449,-40.382,85.901,16.221,141.0,0.0
48422,-0.866,0.462,0.531,-38.153,21.328,-31.244,0.0,0.0
48486,-0.865,0.308,0.571,3.145,-30.427,-66.565,0.0,133.0
48543,-0.943,0.266,0.493,58.641,-65.656,-96.847,168.0,0.0
48602,-1.066,0.229,0.314,148.863,-113.924,-118.473,172.0,0.0
48658,-1.143,0.290,0.015,246.481,-143.649,-118.969,173.0,147.0
48712,-1.101,0.491,-0.250,250.130,-147.359,-103.076,168.0,140.0
48769,-1.159,0.628,-0.363,166.076,-133.641,-96.611,0.0,134.0
48828,-1.070,0.415,-0.276,90.702,-106.656,-99.542,0.0,127.0
48883,-1.110,0.268,-0.257,123.771,-102.344,-90.855,0.0,121.0
48944,-1.046,0.394,-0.325,170.626,-101.115,-94.840,0.0,0.0
49004,-1.056,0.469,-0.327,160.870,-99.160,-119.000,0.0,0.0
49064,-1.032,0.540,-0.276,144.229,-79.908,-141.985,0.0,0.0
49124,-1.100,0.497,-0.213,99.710,-64.580,-156.107,0.0,0.0
49184,-1.057,0.409,-0.154,87.992,-37.595,-136.710,0.0,0.0
49245,-1.017,0.386,-0.175,91.656,-10.069,-95.878,0.0,0.0
49304,-0.942,0.417,-0.186,80.725,15.099,-65.756,0.0,0.0
49368,-0.960,0.389,-0.123,59.435,37.588,-58.565,0.0,0.0
49427,-0.988,0.380,-0.013,41.992,52.710,-52.748,0.0,0.0
49487,-0.975,0.326,0.228,44.733,52.908,-43.863,0.0,198.0
49547,-1.010,0.372,0.409,5.809,43.565,-19.641,0.0,197.0
49607,-1.063,0.261,0.496,-43.252,16.321,5.328,0.0,198.0
49668,-1.113,0.208,0.496,-16.466,-16.046,29.107,0.0,200.0
49727,-1.096,0.352,0.338,-23.298,-42.183,54.237,0.0,0.0
49787,-1.023,0.462,0.167,-56.824,-55.519,71.305,0.0,0.0
49848,-0.983,0.653,-0.039,-122.817,-48.557,59.130,0.0,0.0
49911,-1.091,0.517,-0.091,-161.313,-44.183,60.336,0.0,0.0
49971,-1.148,0.489,-0.204,-133.313,-38.137,89.733,0.0,0.0
50031,-1.111,0.526,-0.282,-133.458,-22.771,120.695,0.0,0.0
50092,-1.056,0.547,-0.303,-148.786,-0.015,134.779,0.0,0.0
50151,-1.038,0.488,-0.308,-178.229,25.427,129.359,0.0,191.0
50205,-1.072,0.508,-0.351,-195.664,47.931,122.947,0.0,88.0
50259,-1.029,0.457,-0.275,-196.168,63.313,121.382,0.0,94.0
50315,-1.072,0.396,-0.278,-198.061,71.931,117.588,0.0,105.0
50373,-1.093,0.351,-0.172,-160.511,74.641,124.000,0.0,119.0
50434,-1.112,0.271,-0.105,-111.603,69.634,130.565,0.0,0.0
50489,-1.039,0.353,-0.062,-51.809,84.046,134.679,0.0,112.0
50549,-0.966,0.428,0.029,-52.733,96.695,122.809,0.0,0.0
50605,-1.050,0.376,0.138,-72.115,98.977,85.733,0.0,126.0
50665,-1.000,0.354,0.278,-40.954,90.122,47.275,0.0,0.0
50725,-0.865,0.371,0.412,16.656,70.130,15.130,0.0,0.0
50786,-1.044,0.421,0.361,-48.374,42.290,9.496,0.0,0.0
50846,-0.915,0.193,0.478,-7.809,13.435,8.137,0.0,0.0
50909,-0.935,0.233,0.385,50.580,-26.198,0.809,0.0,0.0
50969,-0.936,0.243,0.228,103.740,-54.427,-21.916,0.0,0.0
51030,-0.961,0.285,0.061,149.466,-79.344,-32.924,0.0,0.0
51087,-1.019,0.334,-0.103,172.389,-97.977,-49.809,0.0,143.0
51143,-1.101,0.385,-0.217,192.366,-118.145,-70.160,0.0,137.0
51200,-1.086,0.374,-0.329,225.481,-126.580,-74.595,0.0,131.0
51256,-1.071,0.407,-0.364,197.153,-124.588,-60.084,0.0,127.0
51316,-1.068,0.450,-0.354,164.496,-107.626,-40.687,0.0,0.0
51421,-0.971,0.330,-0.240,122.206,-89.618,-51.771,0.0,0.0
51484,-1.041,0.288,-0.224,146.527,-92.954,-69.260,0.0,0.0
51545,-0.992,0.375,-0.271,151.679,-79.069,-87.534,0.0,0.0
51605,-0.900,0.394,-0.217,97.130,-65.817,-138.992,0.0,0.0
51665,-0.974,0.358,-0.088,20.031,-33.160,-180.489,0.0,0.0
51726,-1.022,0.139,0.072,-8.382,-0.031,-118.565,0.0,0.0
51782,-1.046,0.115,0.174,67.023,7.695,-59.008,143.0,0.0
51841,-0.976,0.369,0.135,77.244,7.969,3.359,148.0,0.0
51900,-0.910,0.452,0.137,43.321,8.985,24.076,0.0,0.0
51957,-0.874,0.495,0.049,-11.626,14.466,31.573,147.0,0.0
52018,-0.929,0.465,-0.064,-76.031,33.321,63.275,144.0,0.0
52075,-1.008,0.416,-0.103,-118.962,49.870,88.374,139.0,0.0
52135,-1.080,0.446,-0.082,-134.305,57.305,91.809,0.0,0.0
52196,-1.182,0.466,-0.014,-96.061,37.481,124.817,0.0,0.0
52256,-1.285,0.687,-0.047,-50.176,30.038,211.176,0.0,0.0
52317,-1.346,0.927,-0.198,47.756,32.237,250.130,0.0,0.0
52369,-1.256,1.205,-0.397,45.191,69.802,250.130,141.0,104.0
52420,-0.828,1.306,-0.392,6.733,104.886,250.130,131.0,108.0
52480,-0.461,1.101,-0.227,-63.763,108.206,250.130,121.0,0.0
52533,-0.082,0.629,-0.180,-69.435,88.565,250.130,112.0,162.0
52587,0.168,0.386,-0.118,-33.153,68.786,250.130,122.0,162.0
52647,0.352,0.379,-0.111,-19.397,57.557,236.779,0.0,0.0
52708,0.469,0.197,-0.025,-67.366,36.420,168.328,0.0,0.0
52768,0.737,-0.140,0.193,-48.458,19.756,96.939,0.0,0.0
52829,0.917,-0.219,0.228,42.382,11.076,54.168,0.0,0.0
52889,1.045,-0.116,0.226,89.168,-2.550,7.733,0.0,0.0
52950,1.103,0.083,0.212,61.130,-2.504,-28.771,0.0,0.0
53014,1.035,0.057,0.209,30.046,26.397,-84.328,0.0,0.0
53064,0.841,0.100,0.179,24.863,70.092,-129.458,27.0,0.0
53114,0.565,0.152,0.173,21.878,100.534,-174.099,28.0,0.0
53170,0.333,0.135,0.109,12.656,106.634,-240.672,29.0,0.0
53218,0.053,0.275,0.148,87.565,121.252,-250.137,37.0,146.0
53269,-0.224,0.513,0.101,120.427,136.160,-250.137,42.0,0.0
53325,-0.936,0.904,-0.158,33.366,136.061,-250.137,124.0,0.0
53384,-1.230,0.654,0.060,-85.061,119.779,-250.137,151.0,0.0
53444,-1.623,0.067,0.251,-28.519,137.603,-250.137,0.0,0.0
53505,-1.796,-0.169,0.213,4.893,104.939,-240.260,0.0,128.0
53560,-1.647,-0.161,0.158,68.344,79.954,-144.611,0.0,119.0
53616,-1.508,-0.146,0.010,172.290,51.687,-125.008,0.0,111.0
53671,-1.311,0.124,-0.101,140.695,30.611,-127.198,0.0,105.0
53732,-1.198,-0.075,-0.049,97.947,18.305,-100.214,0.0,0.0
53793,-1.009,-0.154,-0.060,105.817,15.573,-62.260,0.0,200.0
53854,-0.859,-0.131,-0.053,152.534,18.115,-47.237,0.0,194.0
53914,-0.756,-0.001,-0.059,153.763,24.763,-15.756,0.0,192.0
53975,-0.828,-0.047,0.016,83.221,37.603,-16.962,0.0,0.0
54038,-0.952,-0.304,0.132,-63.107,54.634,-32.847,0.0,0.0
54098,-0.893,-0.785,0.220,-103.328,44.603,-44.710,0.0,183.0
54158,-0.866,-0.906,0.243,33.740,37.092,-59.763,0.0,182.0
54219,-0.910,-0.344,0.086,125.115,18.641,-43.695,0.0,0.0
54280,-0.727,0.121,-0.002,82.557,6.504,14.145,0.0,0.0
54383,-0.830,0.445,-0.121,17.595,22.947,70.924,0.0,0.0
54445,-1.027,0.328,0.000,-22.344,33.771,125.626,0.0,0.0
54504,-1.380,0.347,0.044,-62.397,24.000,192.870,0.0,186.0
54567,-1.884,0.305,-0.081,-101.504,4.672,231.573,0.0,193.0
54629,-1.982,0.076,-0.082,-93.359,-39.992,250.130,0.0,0.0
54684,-1.956,0.362,-0.185,-46.504,-27.229,250.130,0.0,109.0
54737,-1.076,0.935,-0.170,-84.344,-28.565,250.130,149.0,117.0
54790,-0.706,0.626,-0.082,-109.298,-19.924,250.130,47.0,0.0
54845,-0.345,0.563,-0.003,-106.427,-13.969,250.130,34.0,0.0
54896,-0.024,0.434,0.114,-57.718,-7.809,201.992,29.0,0.0
54950,0.103,0.677,0.174,-36.153,-2.962,153.893,31.0,0.0
55000,0.305,0.546,0.264,-45.824,-7.771,85.244,26.0,163.0
55054,0.459,0.342,0.362,-8.748,3.252,25.924,28.0,0.0
55111,0.591,0.450,0.339,26.168,20.611,-32.763,129.0,0.0
55165,0.430,0.685,0.334,15.817,32.885,-92.603,30.0,0.0
55217,0.464,0.525,0.375,3.267,37.817,-134.351,37.0,0.0
55272,0.122,0.631,0.466,62.244,55.290,-157.519,32.0,0.0
55323,-0.039,0.665,0.237,87.145,57.672,-176.565,36.0,0.0
55380,-0.472,0.880,0.185,41.947,62.672,-229.817,127.0,0.0
55434,-0.627,0.602,0.231,-31.901,67.542,-250.137,136.0,128.0
55490,-1.161,0.411,0.284,3.466,79.656,-250.137,0.0,121.0
55549,-1.348,0.171,0.187,117.634,67.015,-250.137,0.0,115.0
55611,-1.667,0.194,-0.027,162.015,33.641,-250.137,0.0,0.0
55671,-1.446,0.302,-0.052,37.588,6.740,-189.565,0.0,0.0
55733,-1.224,-0.106,0.193,-17.115,5.718,-151.214,0.0,200.0
55793,-1.303,-0.396,0.284,99.794,-10.191,-112.779,0.0,195.0
55855,-1.147,-0.201,0.125,198.122,-37.427,-61.084,0.0,0.0
55916,-0.866,0.070,0.071,189.008,-44.046,-23.443,0.0,0.0
55983,-0.665,0.142,0.132,87.298,-34.076,-29.260,0.0,0.0
56042,-0.782,-0.012,0.238,-14.863,-14.725,-40.359,0.0,0.0
56105,-0.824,-0.321,0.302,-49.061,-4.443,-30.863,0.0,0.0
56165,-0.831,-0.281,0.252,-19.206,6.511,-18.427,0.0,0.0
56225,-0.785,-0.184,0.262,-5.244,12.496,-9.947,0.0,0.0
56285,-0.707,-0.041,0.271,-13.916,13.489,22.649,0.0,0.0
56345,-0.782,0.166,0.202,-12.466,19.626,52.832,0.0,0.0
56404,-0.777,0.221,0.139,-5.855,9.542,89.214,0.0,0.0
56465,-0.961,0.351,-0.097,50.588,31.626,102.817,0.0,0.0
56524,-1.348,0.579,-0.343,-15.863,57.748,115.374,0.0,0.0
56585,-1.651,0.526,-0.440,-153.565,90.863,162.855,0.0,195.0
56647,-1.782,0.339,-0.461,-249.870,92.382,217.565,0.0,0.0
56702,-1.623,0.276,-0.351,-250.137,72.053,236.886,0.0,111.0
56758,-1.465,0.290,-0.254,-217.916,53.557,249.389,0.0,121.0
56812,-1.156,0.490,-0.065,-141.137,37.305,250.130,155.0,131.0
56868,-0.828,0.651,-0.002,-80.908,31.824,250.130,135.0,0.0
56925,-0.558,0.914,-0.002,-51.802,33.939,250.130,127.0,0.0
56979,-0.404,0.849,0.135,-12.313,35.893,250.130,34.0,0.0
57029,-0.007,0.863,0.192,-27.878,46.237,249.336,29.0,0.0
57082,0.153,0.562,0.377,-84.069,41.557,206.740,26.0,0.0
57136,0.334,0.128,0.570,-67.763,26.366,130.214,24.0,0.0
57196,0.411,0.195,0.668,-19.282,11.466,56.992,0.0,0.0
57289,0.373,0.389,0.419,5.840,-14.252,-97.008,22.0,0.0
57339,0.229,0.458,0.375,7.115,-14.336,-157.870,25.0,0.0
57393,-0.046,0.655,0.299,38.130,-14.443,-215.382,27.0,0.0
57443,-0.211,0.594,0.188,63.794,-11.824,-248.107,30.0,0.0
57498,-0.681,0.905,0.193,80.489,-4.687,-250.137,36.0,0.0
57554,-0.669,0.785,0.125,21.710,-0.527,-250.137,132.0,0.0
57612,-1.324,0.461,0.162,118.053,13.855,-250.137,164.0,133.0
57667,-1.655,0.436,-0.037,228.282,-21.939,-250.137,0.0,122.0
57728,-2.000,0.273,-0.169,250.130,-77.611,-250.137,0.0,0.0
57788,-1.789,0.021,-0.345,250.130,-109.328,-185.237,0.0,0.0
57848,-1.301,0.563,-0.527,250.130,-107.710,-49.763,0.0,0.0
57909,-0.834,0.710,-0.308,112.344,-98.145,-37.725,0.0,0.0
57969,-0.707,0.482,-0.055,-17.687,-48.931,-50.534,0.0,0.0
58030,-0.705,0.249,0.064,-7.588,-27.504,-61.389,0.0,0.0
58089,-0.733,0.276,0.080,45.985,-0.015,-39.878,0.0,0.0
58152,-0.815,0.396,0.055,9.504,26.664,-11.641,0.0,0.0
58213,-0.896,0.305,0.113,-51.573,52.702,14.595,0.0,0.0
58273,-0.917,0.204,0.149,-89.718,60.817,37.534,0.0,0.0
58333,-0.978,0.135,0.092,-78.137,62.389,42.840,0.0,0.0
58393,-1.043,0.187,0.079,-55.443,59.527,51.015,0.0,0.0
58454,-1.063,0.155,0.053,-60.252,46.115,56.191,0.0,0.0
58514,-1.156,0.104,-0.001,-58.191,38.878,70.725,0.0,0.0
58574,-1.162,0.081,-0.006,-59.550,30.656,77.817,0.0,0.0
58635,-1.070,0.189,0.002,-52.573,24.298,78.473,0.0,0.0
58698,-0.931,0.266,-0.005,-43.458,20.634,53.412,0.0,0.0
58758,-0.885,0.348,-0.031,-40.542,22.122,24.985,0.0,0.0
58818,-0.870,0.367,-0.043,-53.450,17.122,-2.038,0.0,0.0
58878,-0.946,0.312,-0.045,-45.328,6.832,-13.702,0.0,0.0
58939,-0.924,0.281,-0.017,-7.901,-1.344,-12.634,0.0,0.0
58999,-0.959,0.339,-0.057,16.550,1.427,-8.053,0.0,0.0
59060,-0.936,0.367,-0.067,-3.351,5.160,2.832,0.0,0.0
59120,-0.936,0.360,-0.065,-23.519,12.763,6.931,0.0,0.0
59181,-0.906,0.320,-0.041,-23.794,12.924,6.740,0.0,0.0
59244,-1.015,0.302,0.011,-13.122,12.405,9.977,0.0,0.0
59304,-0.998,0.321,0.050,-18.595,9.260,15.336,0.0,0.0
59365,-0.933,0.302,0.069,-23.130,5.000,-4.382,0.0,0.0
59424,-0.778,0.382,0.195,-14.595,-8.038,-44.809,0.0,0.0
59485,-0.976,0.880,0.012,-19.618,-7.069,-37.107,0.0,0.0
59546,-0.892,0.909,0.012,-84.107,11.870,69.901,0.0,0.0
59600,-0.755,1.044,-0.037,-91.763,26.977,128.939,0.0,110.0
59657,-0.813,1.111,-0.063,-122.916,41.733,190.573,0.0,115.0
59711,-0.950,0.989,-0.057,-115.053,38.740,233.183,177.0,122.0
59768,-0.848,1.065,-0.009,-94.947,26.153,250.130,146.0,133.0
59825,-0.565,1.049,0.017,-47.244,20.282,250.130,130.0,0.0
59880,-0.374,1.112,0.008,-77.084,24.092,250.130,43.0,0.0
59931,-0.098,0.789,0.186,-93.099,11.183,250.130,37.0,0.0
59987,0.063,0.559,0.288,-72.214,0.969,226.351,122.0,0.0
60047,0.239,0.305,0.307,-52.573,-0.824,142.672,185.0,0.0
60107,0.333,0.220,0.357,-25.176,-2.053,46.435,0.0,0.0
60166,0.325,0.188,0.304,17.725,4.069,-61.160,156.0,0.0
60264,-0.054,0.371,0.298,69.122,23.000,-232.374,121.0,0.0
60319,-0.433,0.673,0.170,105.924,40.992,-250.137,43.0,0.0
60376,-0.782,1.195,0.213,82.740,44.916,-250.137,57.0,0.0
60429,-1.431,1.178,0.004,37.435,39.069,-250.137,148.0,133.0
60484,-1.676,0.921,0.280,88.336,18.947,-250.137,180.0,123.0
60540,-1.749,1.322,0.055,99.489,-38.901,-216.886,0.0,118.0
60596,-1.169,1.326,0.018,16.282,-51.344,-132.863,0.0,104.0
60641,-0.472,0.987,0.155,34.771,-51.198,-75.336,41.0,96.0
60687,-0.120,1.200,-0.005,33.634,-33.756,-26.427,43.0,93.0
60735,0.155,0.953,-0.047,2.191,-16.656,39.313,44.0,93.0
60780,0.179,0.840,-0.051,17.344,4.321,118.046,41.0,96.0
60826,-0.122,0.983,-0.068,28.244,29.267,177.969,40.0,100.0
60873,-0.403,1.236,0.003,46.076,57.450,233.176,38.0,118.0
60928,-0.660,1.550,0.038,21.344,90.641,250.130,172.0,122.0
60985,-0.981,1.680,0.100,-27.069,109.412,250.130,138.0,0.0
61040,-0.997,1.607,0.037,-73.427,83.176,250.130,43.0,0.0
61091,-0.797,0.963,0.103,-72.038,29.565,235.397,37.0,0.0
61147,-0.510,0.529,0.086,-54.725,5.000,135.595,44.0,0.0
61206,0.015,0.544,0.157,4.534,0.527,38.779,123.0,0.0
61262,0.271,0.860,0.170,21.863,3.641,-31.603,123.0,0.0
61319,0.307,1.115,0.175,-7.374,0.656,-48.771,123.0,0.0
61375,0.313,1.062,0.219,1.168,-1.542,-41.092,124.0,0.0
61430,0.224,1.049,0.196,-19.053,-7.740,-51.260,39.0,0.0
61481,0.154,0.888,0.210,-57.214,-16.252,-74.321,37.0,0.0
61536,0.073,0.613,0.241,-48.366,-26.298,-129.573,38.0,0.0
61588,-0.075,0.384,0.205,22.542,-26.015,-205.084,39.0,0.0
61643,-0.350,0.407,0.070,74.290,-16.725,-250.137,46.0,0.0
61701,-0.779,0.691,-0.095,75.886,-21.336,-250.137,149.0,129.0
61757,-1.278,0.851,-0.082,64.962,-8.038,-242.962,0.0,121.0
61814,-1.092,0.979,0.072,-37.443,18.695,-227.359,0.0,140.0
61860,-1.151,0.326,0.184,61.649,18.489,-170.336,29.0,111.0
61907,-1.135,0.309,0.083,157.763,-11.427,-104.504,38.0,112.0
61968,-0.917,0.402,0.069,209.183,-21.603,-35.763,0.0,0.0
62028,-1.034,0.781,-0.024,57.664,-12.733,13.908,0.0,0.0
62090,-1.036,0.622,0.236,-63.985,-16.947,38.115,0.0,0.0
62153,-1.226,0.583,0.432,-71.313,-83.672,63.405,0.0,0.0
62209,-1.112,0.699,0.381,-134.878,-154.702,56.702,0.0,102.0
62265,-1.074,0.323,0.525,-168.023,-187.847,35.374,0.0,106.0
62320,-0.911,0.167,0.656,-113.282,-209.206,58.496,0.0,110.0
62376,-0.696,0.312,0.667,-91.473,-213.130,47.489,0.0,110.0
62437,-0.348,0.204,0.713,-107.183,-176.733,44.756,0.0,0.0
62498,-0.278,0.096,0.724,-96.763,-151.855,31.282,0.0,0.0
62559,-0.100,-0.001,0.821,-92.618,-122.832,15.000,0.0,0.0
62620,0.043,-0.188,0.772,-84.282,-98.412,19.618,0.0,0.0
62685,0.052,-0.224,0.778,-49.802,-61.672,15.412,0.0,0.0
62745,0.254,-0.229,0.785,-47.992,-37.794,9.031,0.0,0.0
62807,0.223,-0.170,0.746,-18.061,-17.130,7.580,0.0,0.0
62867,0.219,-0.332,0.865,-18.305,1.779,7.405,0.0,0.0
62927,0.231,-0.229,0.892,-14.092,0.000,6.916,0.0,0.0
62989,0.253,-0.320,0.909,-0.450,0.679,7.023,0.0,0.0
63092,0.222,-0.281,0.905,3.069,0.840,3.115,0.0,0.0
63153,0.282,-0.388,0.936,-4.336,4.473,5.145,0.0,0.0
63214,0.218,-0.312,0.902,6.198,5.809,-2.824,0.0,0.0
63275,0.192,-0.327,0.955,8.061,2.313,-0.687,0.0,0.0
63333,0.235,-0.264,0.917,-5.084,0.611,-0.847,0.0,0.0
63399,0.223,-0.288,0.914,7.427,3.534,5.023,0.0,0.0
63460,0.225,-0.365,0.935,5.924,5.626,0.824,0.0,0.0
63519,0.186,-0.262,0.862,22.756,11.748,1.130,0.0,0.0
63580,0.124,-0.286,0.818,53.740,22.496,-1.260,0.0,0.0
63639,0.009,-0.061,0.583,113.824,53.885,4.130,0.0,0.0
63699,-0.004,-0.275,0.577,224.527,115.206,7.466,0.0,0.0
63759,-0.167,-0.076,0.217,250.130,197.466,4.947,0.0,0.0
63819,-0.701,0.374,0.132,250.130,196.305,-84.260,146.0,129.0
63875,-1.081,1.477,0.082,250.130,135.023,-151.557,142.0,118.0
63928,-1.252,1.422,0.130,93.046,94.336,-179.450,175.0,113.0
63988,-1.045,1.214,0.328,24.985,83.611,-148.557,0.0,0.0
64049,-0.914,1.424,0.269,-26.565,33.031,-40.183,0.0,0.0
64109,-0.526,1.136,0.268,7.420,16.252,57.634,0.0,0.0
64155,-0.615,1.210,0.032,-73.321,31.443,123.656,50.0,112.0
64210,-0.693,1.227,-0.035,-26.702,35.145,213.145,0.0,115.0
64261,-0.712,1.557,-0.288,12.466,71.267,250.130,138.0,100.0
64317,-0.597,1.345,-0.211,-61.198,89.237,250.130,130.0,0.0
64370,-0.409,0.784,-0.024,-118.092,62.855,250.130,123.0,0.0
64425,-0.023,0.484,0.121,-80.282,29.908,238.328,118.0,0.0
64483,0.245,0.585,0.125,-58.763,20.595,124.092,144.0,0.0
64539,0.387,0.398,0.139,-30.221,23.824,32.725,128.0,0.0
64594,0.491,0.311,0.188,12.267,26.534,-62.015,129.0,0.0
64650,0.200,0.354,0.236,49.954,39.481,-185.382,118.0,0.0
64705,-0.191,0.488,0.124,79.710,39.221,-250.137,119.0,0.0
64759,-0.484,0.890,0.112,86.443,25.817,-250.137,37.0,0.0
64815,-0.843,1.333,-0.058,54.130,14.053,-250.137,134.0,124.0
64862,-0.906,1.234,0.019,23.176,13.611,-250.137,57.0,118.0
64909,-0.845,1.457,0.087,69.550,-5.092,-158.229,45.0,115.0
64955,-0.655,1.362,0.172,27.588,-15.878,-71.504,47.0,114.0
65001,-0.503,1.180,0.174,13.534,-20.695,14.550,49.0,114.0
65047,-0.700,1.045,0.107,-0.053,-36.580,86.511,47.0,115.0
65094,-0.810,1.196,0.019,31.977,-42.496,190.977,45.0,117.0
65146,-0.802,1.261,-0.021,24.298,-33.947,250.130,137.0,122.0
65195,-0.478,1.042,0.045,-7.405,-15.206,250.130,58.0,131.0
65248,-0.377,0.743,0.045,-62.519,2.290,250.130,124.0,114.0
65304,-0.057,0.641,0.186,-61.824,10.595,227.115,120.0,0.0
65359,0.183,0.561,0.206,-47.954,10.244,140.977,118.0,0.0
65415,0.314,0.708,0.199,-24.191,6.275,71.550,117.0,0.0
65470,0.395,0.753,0.237,-13.740,-0.504,12.359,116.0,0.0
65525,0.411,0.806,0.270,-16.099,-6.725,-36.000,116.0,0.0
65582,0.386,0.874,0.270,18.595,-2.947,-65.924,118.0,0.0
65637,0.323,0.795,0.212,-7.939,3.244,-102.282,119.0,0.0
65692,0.086,0.579,0.215,20.756,5.977,-175.580,120.0,0.0
65746,-0.121,0.570,0.115,79.244,-6.420,-243.870,44.0,0.0
65802,-0.426,0.809,-0.023,64.878,-17.290,-250.137,49.0,0.0
65899,-0.919,0.823,-0.054,76.962,-5.771,-250.137,173.0,116.0
65951,-1.125,0.538,-0.069,80.954,-20.031,-250.137,58.0,0.0
66012,-1.455,0.312,-0.151,109.305,-42.733,-244.000,0.0,0.0
66072,-1.306,0.193,-0.168,155.580,-18.412,-184.832,0.0,0.0
66132,-1.100,0.554,-0.248,13.053,23.580,-127.305,0.0,197.0
66192,-0.973,0.164,-0.000,-66.191,27.252,-108.137,0.0,193.0
66255,-1.022,0.194,0.119,27.023,30.015,-42.542,0.0,191.0
66315,-0.990,0.359,0.157,44.710,-3.038,29.176,0.0,190.0
66374,-0.977,0.424,0.094,64.313,-17.794,86.969,0.0,192.0
66435,-1.129,0.486,0.037,18.939,-19.985,159.725,0.0,196.0
66495,-1.294,0.493,-0.013,-2.840,-19.198,223.771,0.0,0.0
66555,-1.448,0.549,-0.054,33.069,-37.237,250.130,0.0,0.0
66611,-1.163,0.846,-0.136,28.611,-29.481,250.130,0.0,108.0
66663,-0.798,0.792,-0.078,12.733,-28.260,250.130,138.0,115.0
66719,-0.403,0.764,-0.145,-15.145,-10.557,240.947,132.0,0.0
66787,-0.134,0.620,-0.080,-38.382,-6.336,141.031,126.0,0.0
66841,-0.042,0.472,-0.023,-6.527,-3.893,61.969,48.0,0.0
66895,0.043,0.625,-0.105,19.649,-0.076,2.420,47.0,0.0
66950,0.074,0.598,-0.091,-9.092,-4.153,-76.931,48.0,0.0
67008,-0.002,0.522,-0.027,-4.901,0.145,-160.779,127.0,0.0
67062,-0.304,0.727,-0.025,24.695,17.847,-208.427,132.0,118.0
67117,-0.569,0.975,-0.174,18.137,28.626,-247.260,139.0,112.0
67173,-0.788,1.023,-0.117,-38.084,36.450,-220.489,173.0,107.0
67238,-0.851,0.763,0.019,-17.061,45.321,-226.076,0.0,0.0
67302,-1.048,0.783,-0.045,-50.519,41.282,-210.748,0.0,0.0
67364,-1.119,0.454,0.045,-72.275,29.229,-173.542,0.0,0.0
67428,-1.133,0.288,0.125,-18.290,23.489,-86.611,0.0,199.0
67490,-1.048,0.333,0.091,12.885,4.672,-0.015,0.0,200.0
67553,-0.963,0.403,0.036,14.473,-4.237,39.076,0.0,0.0
67616,-0.982,0.437,0.039,-15.962,-12.107,54.344,0.0,0.0
67679,-1.119,0.529,0.017,-80.038,-34.023,77.763,0.0,0.0
67742,-1.140,0.360,0.117,-91.252,-60.076,113.557,0.0,0.0
67808,-1.031,0.503,0.192,-108.496,-81.595,122.656,0.0,0.0
67866,-0.941,0.706,0.202,-179.840,-103.748,108.534,0.0,116.0
67923,-0.757,0.399,0.304,-173.687,-116.076,82.985,0.0,105.0
67982,-0.608,0.426,0.510,-191.053,-108.924,50.305,0.0,109.0
68039,-0.488,0.190,0.683,-162.603,-103.916,31.053,0.0,116.0
68098,-0.518,0.112,0.758,-98.817,-88.214,35.824,0.0,116.0
68161,-0.271,0.168,0.779,-85.023,-67.481,37.046,0.0,0.0
68224,-0.198,0.081,0.804,-68.977,-42.351,27.168,0.0,0.0
68287,-0.125,-0.083,0.863,-32.573,-13.832,17.237,0.0,0.0
68353,-0.201,0.065,0.879,-37.443,2.473,7.916,0.0,0.0
68416,-0.198,0.028,0.964,-12.687,1.992,-3.985,0.0,0.0
68478,-0.215,0.000,0.965,-15.237,-4.550,-1.336,0.0,0.0
68542,-0.208,0.006,0.972,-4.885,-1.038,-0.359,0.0,0.0
68604,-0.159,-0.031,0.981,-2.443,-2.992,1.519,0.0,0.0
68667,-0.176,0.012,0.969,-3.198,-0.115,-2.954,0.0,0.0
68730,-0.175,0.001,0.965,7.198,0.756,-1.466,0.0,0.0
68793,-0.206,-0.026,0.997,10.969,0.794,-4.076,0.0,0.0
68856,-0.162,0.030,0.977,-7.496,-0.626,-4.145,0.0,0.0
