Timestamp(ms),AccelX(g),AccelY(g),AccelZ(g),GyroX(deg/s),GyroY(deg/s),GyroZ(deg/s),DistanceLeft(cm),DistanceRight(cm)
153168,-0.075,0.302,0.961,-1.244,-0.176,-0.053,0.0,90.0
153255,-0.063,0.298,0.961,0.916,0.481,-0.420,0.0,90.0
153341,-0.063,0.312,0.954,-0.771,3.191,-0.313,0.0,90.0
153428,-0.066,0.348,0.947,6.489,4.076,-0.878,0.0,90.0
153515,-0.090,0.268,0.970,29.802,4.718,-1.527,0.0,91.0
153602,-0.111,0.303,0.984,28.168,6.939,2.771,0.0,91.0
153688,-0.115,0.521,0.822,156.382,14.076,29.588,0.0,92.0
153775,-0.043,0.760,0.597,180.298,12.313,48.939,165.0,118.0
153861,-0.022,0.846,0.371,182.443,20.206,49.611,125.0,114.0
153945,0.128,1.031,0.084,139.481,33.756,33.519,125.0,111.0
154024,0.091,1.031,-0.000,83.412,57.534,7.420,51.0,110.0
154103,0.064,1.075,-0.071,54.649,72.618,2.618,48.0,109.0
154187,-0.020,1.136,-0.075,-2.489,67.725,2.046,128.0,109.0
154270,-0.019,0.956,0.006,13.298,48.695,0.420,128.0,78.0
154349,-0.073,0.998,-0.141,39.542,61.664,-11.954,51.0,108.0
154429,-0.073,0.905,-0.147,-7.481,80.954,-38.763,47.0,107.0
154511,-0.081,0.962,-0.150,21.183,94.687,-39.427,47.0,106.0
154591,-0.120,1.073,-0.077,-17.557,85.458,-24.252,51.0,105.0
154670,-0.194,1.204,0.027,-4.588,46.992,13.061,49.0,104.0
154748,-0.180,1.160,0.037,-31.290,-4.099,41.534,50.0,105.0
154828,-0.145,1.028,-0.012,-30.840,-31.786,47.870,49.0,106.0
154907,-0.159,0.932,-0.063,-42.611,-48.824,20.794,41.0,107.0
154990,-0.191,0.817,-0.036,-7.237,-66.824,-27.031,128.0,77.0
155070,-0.263,0.715,0.013,15.901,-98.214,-90.015,51.0,106.0
155152,-0.472,0.780,-0.002,51.641,-145.130,-147.687,54.0,102.0
155237,-0.753,0.927,-0.160,139.099,-152.466,-152.832,142.0,97.0
155324,-0.810,0.975,-0.327,101.931,-130.939,-96.565,160.0,121.0
155412,-0.743,0.559,-0.202,54.336,-106.725,-102.191,198.0,116.0
155503,-0.863,0.438,-0.251,118.092,-96.275,-97.031,143.0,0.0
155592,-0.888,0.536,-0.330,101.908,-65.969,-74.198,129.0,0.0
155682,-0.850,0.472,-0.215,47.992,-16.794,-55.023,131.0,0.0
155771,-0.896,0.381,-0.087,37.824,11.061,-30.847,135.0,0.0
155862,-0.907,0.382,-0.045,61.954,9.366,-9.084,137.0,0.0
155954,-0.991,0.374,-0.045,18.947,10.427,-11.122,118.0,0.0
156043,-1.020,0.281,-0.032,20.985,5.573,-4.008,117.0,0.0
156131,-0.961,0.312,-0.083,-14.168,2.573,-5.656,116.0,0.0
156220,-0.970,0.291,-0.100,-22.985,1.962,-2.473,115.0,0.0
156310,-0.949,0.390,-0.128,-25.435,5.939,15.519,135.0,0.0
156399,-0.916,0.454,-0.150,-59.046,12.130,28.733,131.0,0.0
156488,-0.868,0.596,-0.282,-91.389,21.527,38.145,126.0,0.0
156579,-0.955,0.584,-0.379,-138.145,47.504,61.382,144.0,0.0
156669,-0.898,0.496,-0.409,-131.634,88.527,77.534,143.0,140.0
156754,-0.808,0.538,-0.442,-143.443,103.092,90.687,134.0,111.0
156841,-0.721,0.623,-0.397,-115.863,108.687,85.328,177.0,117.0
156928,-0.645,0.750,-0.348,-100.573,113.603,83.710,157.0,98.0
157011,-0.531,0.826,-0.302,-76.046,121.344,81.809,141.0,99.0
157096,-0.401,0.806,-0.205,-38.557,118.527,66.023,138.0,101.0
157176,-0.364,0.856,-0.161,-34.046,107.061,48.389,53.0,102.0
157256,-0.314,0.932,-0.050,-45.206,72.725,40.458,58.0,102.0
157342,-0.235,0.996,0.038,-29.359,47.511,33.466,133.0,73.0
157425,-0.308,0.940,0.094,-21.954,27.519,26.992,132.0,74.0
157504,-0.227,0.855,0.060,1.122,5.550,15.611,44.0,104.0
157584,-0.176,0.832,0.054,10.611,-13.687,-18.618,44.0,103.0
157663,-0.295,1.170,-0.012,4.702,-24.840,-24.473,49.0,101.0
157743,-0.268,1.071,0.039,7.427,-36.847,4.374,46.0,101.0
157826,-0.298,0.961,0.033,7.435,-56.290,0.672,136.0,71.0
157905,-0.335,0.990,-0.042,26.664,-87.244,-13.000,58.0,100.0
157985,-0.345,0.894,-0.083,41.015,-113.046,-29.321,58.0,100.0
158072,-0.359,0.846,-0.147,72.931,-134.412,-48.656,138.0,99.0
158157,-0.495,0.704,-0.169,119.824,-157.802,-81.466,143.0,96.0
158242,-0.729,0.948,-0.271,105.565,-186.473,-71.969,148.0,95.0
158336,-0.762,0.986,-0.369,89.130,-160.198,-12.718,173.0,0.0
158423,-0.653,0.637,-0.242,70.611,-146.908,-6.412,189.0,98.0
158510,-0.543,0.746,-0.351,75.382,-119.336,-19.252,186.0,99.0
158602,-0.588,0.569,-0.287,44.947,-81.313,-49.275,169.0,0.0
158696,-0.736,0.536,-0.272,50.771,-44.076,-67.282,199.0,0.0
158793,-0.826,0.508,-0.182,31.710,-17.000,-84.763,0.0,0.0
158882,-0.961,0.448,-0.082,31.000,-1.458,-93.221,114.0,0.0
158971,-1.022,0.433,-0.005,23.802,2.015,-63.824,116.0,0.0
159060,-0.965,0.492,0.017,4.298,3.901,-30.153,118.0,0.0
159150,-1.007,0.417,0.000,-8.420,-1.221,-3.321,117.0,0.0
159239,-0.948,0.440,-0.080,-44.809,6.038,23.809,114.0,0.0
159327,-0.860,0.398,-0.152,-61.344,11.244,36.351,112.0,0.0
159417,-0.813,0.479,-0.292,-90.000,24.443,25.992,129.0,0.0
159506,-1.003,0.497,-0.368,-128.855,39.137,51.305,123.0,0.0
159600,-1.043,0.575,-0.418,-131.191,78.214,93.565,146.0,0.0
159687,-0.948,0.539,-0.415,-143.840,104.267,113.542,135.0,146.0
159775,-0.803,0.618,-0.383,-122.328,120.748,121.076,193.0,95.0
159860,-0.613,0.681,-0.292,-110.336,123.763,98.321,144.0,97.0
159945,-0.460,0.812,-0.241,-58.672,129.336,76.901,139.0,100.0
160029,-0.382,0.851,-0.167,-45.832,119.382,60.656,137.0,77.0
160113,-0.395,0.929,-0.091,-32.931,95.252,55.931,134.0,103.0
160196,-0.244,0.916,-0.009,6.802,63.176,50.534,133.0,72.0
160283,-0.215,0.917,-0.041,7.656,53.313,27.359,132.0,83.0
160364,-0.189,0.876,-0.006,4.099,36.725,5.305,58.0,104.0
160448,-0.142,0.871,0.112,5.282,23.588,-28.908,133.0,103.0
160528,-0.342,1.290,-0.049,-24.611,-2.534,-5.977,48.0,102.0
160608,-0.170,0.999,0.003,-2.137,-27.832,15.427,46.0,102.0
160691,-0.208,0.967,-0.054,-0.969,-45.244,10.611,134.0,78.0
160776,-0.246,1.012,-0.095,7.695,-50.145,5.832,134.0,103.0
160859,-0.267,0.868,-0.068,2.382,-47.183,-11.420,134.0,73.0
160939,-0.344,0.869,-0.097,25.145,-69.092,-37.206,50.0,102.0
161022,-0.412,0.892,-0.128,53.725,-101.351,-39.076,51.0,101.0
161107,-0.478,0.899,-0.165,74.618,-133.412,-53.435,140.0,98.0
161195,-0.624,0.960,-0.234,99.145,-158.160,-77.061,180.0,97.0
161281,-0.714,0.927,-0.221,33.656,-145.336,-84.252,167.0,97.0
161373,-0.812,0.774,-0.157,31.366,-144.160,-84.718,193.0,154.0
161460,-0.772,0.757,-0.190,85.664,-124.771,-49.275,139.0,148.0
161548,-0.682,0.581,-0.122,45.786,-101.252,-52.160,146.0,144.0
161640,-0.687,0.538,-0.112,58.008,-66.855,-61.817,153.0,0.0
161735,-0.795,0.570,-0.180,86.527,-24.389,-36.008,159.0,0.0
161825,-0.770,0.498,-0.053,31.092,12.809,-28.763,126.0,0.0
161915,-0.854,0.431,0.070,42.076,17.748,-42.641,127.0,0.0
162007,-1.021,0.505,0.098,42.107,6.336,-38.443,130.0,0.0
162096,-0.950,0.570,0.048,32.130,0.328,-10.344,107.0,0.0
162185,-0.938,0.506,-0.001,-0.061,4.252,6.214,106.0,0.0
162275,-0.896,0.436,-0.066,-42.412,11.725,8.328,130.0,0.0
162365,-0.867,0.402,-0.103,-43.710,18.779,8.374,127.0,0.0
162459,-0.862,0.491,-0.167,-69.443,33.924,13.137,123.0,0.0
162553,-0.776,0.471,-0.219,-61.977,41.046,12.160,0.0,0.0
162646,-0.805,0.453,-0.295,-110.137,52.336,8.748,152.0,0.0
162744,-0.842,0.551,-0.450,-141.061,82.275,22.473,141.0,0.0
162828,-0.973,0.530,-0.495,-141.069,109.634,63.237,130.0,110.0
162916,-1.012,0.549,-0.493,-116.298,123.779,104.824,194.0,117.0
163002,-0.791,0.659,-0.401,-88.099,122.420,112.000,166.0,94.0
163086,-0.642,0.835,-0.344,-65.107,108.450,97.198,145.0,96.0
163170,-0.470,0.912,-0.275,-51.802,96.519,92.626,139.0,97.0
163256,-0.306,0.818,-0.171,-17.305,70.603,74.008,135.0,75.0
163340,-0.162,0.853,-0.166,-1.656,54.198,47.084,132.0,105.0
163424,-0.103,0.797,-0.131,16.496,31.603,10.656,132.0,105.0
163506,-0.127,0.912,-0.161,28.099,14.183,-28.924,133.0,73.0
163591,-0.079,1.076,-0.148,10.840,6.679,-15.695,134.0,103.0
163673,-0.104,1.086,-0.107,-13.305,-15.214,4.206,135.0,71.0
163756,-0.153,1.049,-0.155,-3.435,-42.740,23.237,134.0,71.0
163837,-0.196,0.957,-0.207,-7.298,-60.702,18.344,134.0,78.0
163923,-0.194,0.937,-0.260,1.076,-70.427,6.420,134.0,73.0
164006,-0.201,0.893,-0.274,9.221,-77.122,-13.450,134.0,81.0
164090,-0.255,0.961,-0.312,16.595,-80.618,-32.893,135.0,101.0
164173,-0.342,0.959,-0.193,14.214,-92.916,-42.656,137.0,69.0
164252,-0.402,1.032,-0.177,29.145,-122.267,-29.885,51.0,100.0
164337,-0.493,1.003,-0.150,16.603,-145.626,-30.763,139.0,99.0
164422,-0.503,0.926,-0.120,19.634,-148.107,-39.710,151.0,101.0
164507,-0.499,0.854,-0.117,1.397,-139.748,-44.863,147.0,103.0
164595,-0.542,0.726,-0.115,21.305,-120.916,-55.038,148.0,105.0
164682,-0.538,0.719,-0.153,69.985,-93.618,-62.985,178.0,104.0
164775,-0.598,0.700,-0.141,46.573,-61.221,-83.313,184.0,0.0
164868,-0.705,0.640,-0.143,67.084,-44.863,-78.366,174.0,0.0
164960,-0.780,0.626,-0.146,60.473,-8.947,-70.115,181.0,0.0
165050,-0.902,0.543,0.003,40.519,14.588,-46.084,127.0,0.0
165139,-0.899,0.615,0.089,40.603,1.954,-19.664,128.0,0.0
165227,-0.909,0.650,0.016,8.092,-0.725,-13.969,106.0,0.0
165315,-0.891,0.500,-0.017,-24.168,4.733,-3.344,105.0,0.0
165408,-0.850,0.431,-0.081,-46.580,14.672,-3.130,125.0,0.0
165497,-0.867,0.400,-0.130,-71.076,27.145,-8.336,123.0,0.0
165591,-0.805,0.471,-0.171,-79.489,44.603,-10.023,0.0,0.0
165681,-0.712,0.421,-0.247,-97.695,51.168,-13.206,143.0,0.0
165766,-0.888,0.351,-0.297,-90.405,54.702,0.702,137.0,103.0
165851,-0.874,0.488,-0.450,-167.611,90.618,5.206,139.0,108.0
165936,-1.076,0.482,-0.495,-199.389,105.527,45.107,131.0,109.0
166024,-1.033,0.555,-0.445,-130.313,100.275,109.153,198.0,114.0
166114,-0.807,0.716,-0.381,-95.382,88.275,140.412,184.0,93.0
166199,-0.665,0.851,-0.348,-75.092,73.641,137.221,145.0,95.0
166284,-0.438,0.747,-0.200,-33.374,51.313,123.962,138.0,100.0
166367,-0.221,0.795,-0.118,-15.565,22.504,87.931,134.0,75.0
166446,-0.057,0.886,-0.084,15.519,9.832,54.382,43.0,105.0
166525,0.017,0.721,-0.017,13.588,3.924,8.107,41.0,106.0
166604,-0.105,0.790,-0.123,21.115,-20.969,-50.511,45.0,104.0
166685,-0.229,1.239,-0.288,29.061,-23.527,-20.084,58.0,102.0
166772,-0.097,1.087,-0.207,10.885,-25.672,8.282,135.0,101.0
166855,-0.174,0.953,-0.188,4.771,-46.885,14.130,135.0,72.0
166935,-0.214,0.945,-0.254,29.290,-71.504,12.878,58.0,101.0
167019,-0.190,0.932,-0.327,18.290,-83.473,1.985,136.0,73.0
167099,-0.209,0.910,-0.345,13.206,-84.130,-14.779,58.0,100.0
167183,-0.223,0.926,-0.394,35.008,-73.908,-15.107,139.0,99.0
167268,-0.296,1.003,-0.313,27.695,-80.886,-22.069,140.0,99.0
167353,-0.429,1.125,-0.104,-10.542,-100.664,7.344,140.0,99.0
167438,-0.318,1.186,-0.117,-24.153,-123.832,48.725,139.0,101.0
167525,-0.306,1.114,-0.189,-36.122,-118.771,71.565,134.0,103.0
167609,-0.181,1.010,-0.183,-53.237,-103.252,81.496,129.0,77.0
167692,-0.075,0.852,-0.136,-52.000,-78.473,76.672,124.0,82.0
167776,0.047,0.827,-0.097,-32.893,-49.084,59.733,121.0,107.0
167857,0.132,0.786,0.022,-18.382,-34.649,33.481,51.0,118.0
167941,0.252,0.875,0.035,18.947,-16.565,9.771,119.0,109.0
168024,0.218,0.923,0.053,1.176,3.099,-17.252,120.0,88.0
168105,0.191,1.030,0.090,2.420,12.595,-25.046,121.0,85.0
168192,0.196,1.123,0.114,-0.840,24.076,-11.580,122.0,85.0
168273,0.180,1.103,0.140,-12.992,28.313,8.626,58.0,115.0
168356,0.195,1.065,0.097,-8.229,38.473,18.679,122.0,91.0
168439,0.185,0.953,0.020,-11.443,54.336,14.679,121.0,92.0
168524,0.234,0.866,-0.106,14.176,95.954,-3.496,121.0,116.0
168607,0.150,0.740,-0.159,6.947,144.649,-48.901,123.0,84.0
168688,-0.097,0.758,-0.215,40.985,179.519,-107.664,58.0,110.0
168771,-0.414,0.886,-0.228,-11.840,179.137,-126.443,133.0,74.0
168856,-0.613,1.031,-0.253,-3.221,155.145,-82.504,140.0,99.0
168945,-0.669,1.098,-0.280,-20.771,118.489,-22.626,151.0,97.0
169030,-0.600,1.138,-0.376,-35.672,108.756,39.267,144.0,97.0
169115,-0.631,0.987,-0.264,-54.542,92.504,73.115,140.0,98.0
169198,-0.496,0.949,-0.201,-13.817,56.458,85.374,137.0,71.0
169281,-0.322,0.810,-0.146,-16.122,29.046,62.313,133.0,73.0
169364,-0.200,0.815,-0.156,-1.557,5.977,33.137,131.0,75.0
169444,-0.124,0.841,-0.168,15.779,-18.427,1.588,50.0,105.0
169525,-0.117,0.983,-0.218,-2.046,-30.702,-7.565,58.0,104.0
169611,-0.078,1.061,-0.217,4.328,-35.718,2.939,133.0,73.0
169695,-0.111,0.988,-0.182,3.321,-44.000,5.374,133.0,73.0
169779,-0.152,1.024,-0.209,-4.145,-49.351,7.282,133.0,103.0
169864,-0.187,0.988,-0.187,-3.580,-55.466,3.061,133.0,104.0
169949,-0.264,0.995,-0.115,-12.221,-64.595,-6.122,133.0,103.0
170034,-0.280,1.146,0.058,-37.656,-86.954,-10.198,134.0,102.0
170117,-0.283,1.349,0.156,-81.511,-105.611,-10.206,132.0,74.0
170202,-0.218,1.252,0.235,-114.137,-118.618,-24.115,129.0,110.0
170291,-0.135,1.161,0.211,-121.550,-123.718,-31.405,124.0,116.0
170373,-0.129,0.898,0.298,-65.916,-119.992,-36.405,119.0,57.0
170458,-0.163,0.842,0.335,-60.916,-103.824,-41.092,114.0,129.0
170544,-0.158,0.662,0.416,13.847,-82.573,-35.695,116.0,135.0
170630,-0.092,0.646,0.435,-9.458,-73.298,-23.947,110.0,142.0
170716,-0.033,0.807,0.374,40.641,-29.802,-11.550,104.0,146.0
170802,0.048,0.803,0.510,-55.511,0.038,-14.832,116.0,141.0
170889,0.009,0.783,0.660,-48.160,13.321,-31.206,117.0,148.0
170976,-0.014,0.825,0.819,-53.603,3.656,-29.267,131.0,150.0
171070,-0.133,0.894,0.912,-118.924,-4.695,-52.489,134.0,0.0
171158,-0.355,0.470,0.862,-125.244,-29.168,-33.786,0.0,81.0
171245,-0.172,0.170,0.888,-14.588,-42.626,-9.885,0.0,82.0
171333,-0.065,0.275,0.863,-30.260,-28.313,-18.565,0.0,83.0
171421,-0.042,0.135,0.851,-38.840,-18.611,-31.137,0.0,84.0
171508,0.003,0.072,0.926,-21.504,-11.550,-23.031,0.0,85.0
171598,-0.018,0.100,1.006,-2.924,-5.382,-12.122,118.0,0.0
171687,-0.010,0.148,1.025,1.145,-6.748,10.168,118.0,0.0
171782,0.028,0.118,1.047,-7.802,-7.931,2.824,125.0,0.0
171866,0.044,0.204,0.980,5.260,-7.687,4.786,141.0,88.0
171950,0.035,0.129,0.992,-9.191,-3.321,5.634,128.0,89.0
172034,0.045,0.143,0.981,6.450,-3.252,1.824,124.0,89.0
172123,0.025,0.145,0.981,-2.321,0.725,2.641,121.0,0.0
172207,0.047,0.178,0.993,-9.519,4.931,6.076,120.0,89.0
172290,0.059,0.193,1.023,-6.084,5.748,13.305,119.0,88.0
172374,0.055,0.261,0.987,-15.786,7.450,35.908,119.0,88.0
172462,0.038,0.336,0.958,5.084,10.824,80.794,0.0,88.0
172553,-0.034,0.335,0.944,19.756,19.916,141.427,0.0,89.0
172640,-0.140,0.373,0.934,15.687,31.435,194.557,0.0,74.0
172728,-0.287,0.306,0.970,-40.748,18.618,214.000,0.0,80.0
172817,-0.325,-0.067,1.093,-51.817,-14.679,207.504,0.0,111.0
172896,-0.214,-0.116,1.081,6.206,-19.252,185.015,37.0,94.0
172975,-0.167,-0.080,1.018,28.687,-14.725,146.679,25.0,96.0
173053,-0.135,-0.044,0.949,0.504,-7.947,99.389,23.0,99.0
173131,-0.057,-0.076,0.934,8.832,-16.725,52.305,21.0,87.0
173210,0.160,0.074,0.894,21.855,-10.748,15.840,22.0,105.0
173293,0.281,0.067,0.910,13.908,-9.130,-14.183,18.0,107.0
173382,0.292,0.101,0.907,2.183,-10.221,-30.985,0.0,110.0
173471,0.386,0.094,1.021,4.939,-22.366,-31.626,0.0,109.0
173557,0.478,0.139,1.130,8.779,-16.603,-13.878,23.0,108.0
173635,0.441,0.105,1.069,2.687,-8.282,-10.260,21.0,109.0
173713,0.342,0.121,1.011,-1.214,0.885,-11.252,23.0,95.0
173791,0.320,0.190,0.968,-1.145,0.832,-10.733,22.0,108.0
173869,0.279,0.201,0.960,6.160,-0.366,-0.588,22.0,108.0
173946,0.274,0.208,0.948,-5.947,-4.351,-0.076,23.0,108.0
174026,0.339,0.203,0.971,6.122,-8.611,0.267,22.0,95.0
174114,0.327,0.192,1.072,-10.267,-6.489,-8.992,0.0,108.0
174193,0.327,0.092,1.233,-40.351,-10.099,-38.115,24.0,108.0
174271,0.349,0.075,1.287,-26.718,-23.290,-70.901,25.0,113.0
174360,0.365,0.132,1.206,-54.779,-35.420,-100.855,0.0,113.0
174436,0.279,0.233,1.016,-43.618,-56.183,-114.931,29.0,56.0
174512,0.239,0.121,0.803,-37.099,-82.855,-121.336,30.0,60.0
174588,0.328,0.117,0.675,5.740,-90.611,-128.099,32.0,71.0
174668,0.356,0.221,0.561,-12.298,-71.748,-148.244,38.0,83.0
174749,0.426,0.403,0.589,-23.985,-29.374,-160.290,87.0,82.0
174829,0.344,0.413,0.648,-65.099,-3.756,-162.634,81.0,82.0
174913,0.288,0.337,0.847,-55.504,-11.122,-147.107,147.0,84.0
175002,0.255,0.462,0.857,-16.779,-11.267,-133.496,115.0,0.0
175091,0.279,0.614,0.814,-10.565,-13.458,-104.053,124.0,188.0
175177,0.216,0.473,0.833,-30.305,-9.122,-68.504,103.0,174.0
175265,0.169,0.541,0.803,12.725,-5.473,-42.267,126.0,169.0
175350,0.141,0.574,0.872,-8.298,0.588,-44.771,104.0,147.0
175439,0.108,0.571,0.891,1.649,-2.763,-35.115,131.0,144.0
175526,0.097,0.644,0.874,-8.130,0.756,-25.649,142.0,141.0
175614,0.071,0.605,0.932,-8.656,-3.031,-16.137,144.0,141.0
175702,0.087,0.613,0.898,2.229,-6.321,-5.840,144.0,140.0
175789,0.125,0.634,0.842,6.160,-1.763,7.985,146.0,140.0
175874,0.164,0.686,0.767,-9.802,4.565,14.183,109.0,142.0
175960,0.160,0.585,0.707,-24.863,18.863,34.588,127.0,144.0
176047,0.094,0.562,0.597,-38.214,42.672,60.031,137.0,150.0
176138,-0.025,0.387,0.524,-50.427,84.466,97.618,131.0,169.0
176227,-0.210,0.291,0.437,-36.229,121.046,85.847,125.0,186.0
176314,-0.535,0.182,0.428,31.489,142.229,30.244,121.0,169.0
176403,-0.905,0.087,0.582,56.458,129.527,-19.061,130.0,175.0
176488,-1.161,0.399,0.388,135.099,140.893,-75.435,116.0,138.0
176569,-1.344,0.666,0.373,-25.076,144.649,-104.527,118.0,57.0
176651,-1.319,0.218,0.549,-56.656,124.069,-48.809,121.0,57.0
176736,-1.205,0.280,0.500,19.282,68.336,-23.252,125.0,118.0
176820,-1.005,0.495,0.128,60.672,35.664,-38.405,128.0,114.0
176908,-0.985,0.393,0.004,-22.695,20.321,-17.122,129.0,113.0
176993,-1.038,0.351,-0.036,-23.626,11.122,22.557,128.0,115.0
177078,-1.046,0.282,-0.069,-16.084,-6.099,53.206,127.0,117.0
177164,-0.946,0.299,-0.084,4.557,-5.221,76.260,124.0,130.0
177250,-0.931,0.353,-0.100,6.084,-9.481,54.099,122.0,151.0
177334,-0.829,0.326,-0.039,6.053,-8.244,25.664,122.0,97.0
177417,-0.877,0.349,-0.051,17.176,-10.534,-11.168,122.0,96.0
177504,-0.868,0.380,-0.060,26.817,-10.366,-42.206,124.0,151.0
177597,-0.921,0.424,-0.076,27.466,-5.618,-50.336,126.0,0.0
177682,-0.972,0.369,-0.055,12.656,-4.443,-37.107,128.0,114.0
177772,-0.930,0.393,-0.054,8.420,-0.473,-14.458,130.0,0.0
177862,-0.939,0.366,-0.049,0.817,-0.603,0.038,131.0,0.0
177951,-0.942,0.364,-0.067,5.626,-2.153,13.015,131.0,0.0
178041,-0.937,0.333,-0.050,-0.458,-1.466,28.710,130.0,0.0
178128,-0.926,0.350,-0.070,-7.733,-0.053,28.412,129.0,146.0
178219,-0.908,0.338,-0.064,-5.069,-0.298,17.656,128.0,0.0
178306,-0.887,0.344,-0.067,1.305,-2.092,2.573,128.0,147.0
178398,-0.900,0.356,-0.063,-1.107,-2.290,-9.893,128.0,0.0
178488,-0.929,0.367,-0.057,-1.985,-1.779,-13.366,128.0,0.0
178578,-0.939,0.366,-0.061,1.015,-0.832,-8.542,129.0,0.0
178668,-0.920,0.355,-0.046,-1.107,-0.626,-1.412,129.0,0.0
178755,-0.918,0.359,-0.051,-0.924,-1.786,0.740,130.0,145.0
178844,-0.921,0.357,-0.055,-3.031,-1.565,1.412,130.0,0.0
178934,-0.922,0.349,-0.049,-2.878,-0.939,2.855,129.0,0.0
179024,-0.922,0.349,-0.063,-2.305,-0.435,5.840,129.0,0.0
179118,-0.917,0.342,-0.058,-2.244,-0.336,5.389,129.0,0.0
179208,-0.915,0.344,-0.063,-1.595,0.038,1.397,129.0,0.0
179298,-0.922,0.352,-0.054,0.244,-0.183,-0.405,129.0,0.0
179388,-0.922,0.357,-0.054,-0.008,0.000,-0.939,129.0,0.0
179475,-0.911,0.353,-0.060,0.076,-0.695,-1.748,129.0,147.0
179565,-0.914,0.351,-0.051,0.450,-0.649,-1.008,130.0,0.0
179655,-0.933,0.369,-0.043,-2.458,-0.298,3.359,130.0,0.0
179745,-0.943,0.421,-0.005,-27.298,-1.664,17.519,129.0,0.0
179832,-0.995,0.594,-0.007,-17.885,-11.832,57.107,129.0,148.0
179919,-1.019,0.549,0.217,-19.664,-47.504,109.962,127.0,94.0
180007,-0.784,0.783,0.144,100.748,-59.374,161.206,179.0,120.0
180093,-0.668,0.969,0.012,-81.344,-43.649,156.382,155.0,99.0
180177,-0.444,0.909,0.128,-25.863,-22.183,157.748,134.0,95.0
180262,-0.146,0.903,0.063,-60.397,14.076,140.992,127.0,111.0
180340,-0.044,0.708,0.258,-56.344,30.298,114.183,44.0,63.0
180417,0.069,0.767,0.299,-17.275,37.344,90.145,44.0,57.0
180494,0.128,0.876,0.249,-6.618,35.687,83.771,40.0,57.0
180570,0.231,0.645,0.378,18.107,14.405,65.252,36.0,40.0
180648,0.369,0.713,0.379,31.687,-3.229,26.031,40.0,38.0
180728,0.418,0.750,0.358,67.122,-22.771,-10.122,119.0,37.0
180806,0.410,0.952,0.266,66.618,-17.191,-28.855,40.0,57.0
180883,0.448,1.029,0.155,14.580,-5.947,-20.893,40.0,60.0
180960,0.417,1.047,0.142,-1.015,-1.954,-19.893,39.0,57.0
181037,0.402,0.738,0.518,49.992,-9.099,8.847,42.0,56.0
181113,0.355,1.151,-0.007,-14.382,18.740,-4.031,40.0,61.0
181191,0.263,0.865,0.184,-34.176,12.160,-2.168,37.0,62.0
181271,0.263,0.975,0.129,1.939,-4.237,2.634,39.0,57.0
181348,0.263,0.936,0.138,1.397,-12.160,-1.290,40.0,61.0
181426,0.311,1.040,0.167,-21.786,-11.107,-1.198,43.0,61.0
181502,0.299,1.116,0.261,-84.817,-17.725,-2.603,46.0,54.0
181579,0.282,0.960,0.387,-101.053,-36.115,-7.763,37.0,57.0
181656,0.334,0.979,0.375,-141.725,-33.802,-22.183,37.0,60.0
181734,0.388,0.691,0.479,-172.061,-35.076,-64.588,32.0,73.0
181813,0.340,0.717,0.564,-197.427,-21.053,-93.824,31.0,94.0
181901,0.209,0.361,0.839,-91.137,-8.641,-86.374,0.0,93.0
181984,0.139,0.371,0.828,-129.420,7.328,-87.359,38.0,93.0
182063,-0.017,0.323,0.923,-79.427,15.939,-76.954,37.0,94.0
182141,-0.133,0.067,1.022,-54.672,8.634,-58.489,43.0,95.0
182221,-0.080,0.162,0.972,-23.122,-7.260,-45.099,37.0,96.0
182308,0.005,0.176,0.960,-4.649,-13.901,-36.344,183.0,99.0
182388,0.084,0.100,0.991,-11.634,-8.229,-29.237,38.0,101.0
182468,0.087,0.080,1.001,-11.626,-4.618,-22.870,39.0,104.0
182548,0.109,0.066,1.058,-2.351,-5.298,-14.641,37.0,107.0
182633,0.096,0.058,1.047,-1.824,-9.733,-11.992,37.0,0.0
182729,0.086,0.126,0.988,-0.160,-9.359,-10.611,0.0,180.0
182823,0.109,0.120,0.980,1.779,-7.191,-6.542,0.0,189.0
182917,0.104,0.115,1.003,-0.573,-3.756,-0.908,0.0,187.0
183011,0.105,0.098,1.017,1.061,-2.595,0.107,0.0,187.0
183104,0.115,0.096,1.016,2.885,-0.924,0.389,0.0,186.0
183197,0.110,0.102,1.016,2.435,2.740,6.664,0.0,187.0
183282,0.091,0.066,1.036,15.137,1.244,16.901,39.0,188.0
183362,0.138,0.038,1.066,68.359,-4.725,38.603,37.0,108.0
183450,0.195,0.195,1.032,66.046,-7.260,62.504,185.0,106.0
183533,0.304,0.509,0.801,194.901,2.336,107.496,33.0,103.0
183612,0.392,0.714,0.618,163.328,31.000,118.931,32.0,105.0
183694,0.396,0.691,0.445,187.740,78.641,120.076,36.0,129.0
183772,0.379,0.962,0.206,168.405,110.695,85.015,36.0,64.0
183852,0.299,0.961,0.199,81.069,114.473,45.718,115.0,43.0
183933,0.305,0.939,0.136,86.076,113.962,31.290,38.0,123.0
184015,0.310,1.016,0.095,94.824,110.939,9.542,117.0,68.0
184100,0.230,0.918,0.104,53.595,88.924,4.282,118.0,121.0
184185,0.218,1.026,0.066,42.206,59.672,15.931,43.0,119.0
184278,0.081,1.086,-0.116,83.863,39.855,35.733,120.0,117.0
184361,0.230,0.830,0.068,-8.603,18.046,-0.939,121.0,117.0
184443,0.322,0.985,0.015,67.763,21.863,-21.427,123.0,85.0
184526,0.270,1.110,0.036,23.450,14.405,-27.237,124.0,82.0
184608,0.348,1.055,-0.025,5.076,11.687,-12.840,126.0,80.0
184691,0.310,1.042,-0.108,3.603,14.290,-2.260,125.0,81.0
184773,0.271,0.944,-0.085,-7.313,8.893,4.290,125.0,81.0
184856,0.241,0.971,-0.100,-0.450,-4.405,10.397,125.0,81.0
184941,0.229,0.993,-0.104,-0.427,-20.725,7.580,125.0,81.0
185023,0.190,1.088,-0.049,-27.267,-43.481,2.893,126.0,80.0
185106,0.227,1.129,-0.020,-30.756,-80.031,7.595,125.0,81.0
185186,0.225,1.094,-0.026,-79.214,-93.939,13.649,45.0,114.0
185270,0.261,0.995,0.001,-74.489,-112.542,13.366,122.0,116.0
185354,0.298,0.917,-0.035,-65.771,-132.870,12.679,120.0,119.0
185435,0.365,0.893,-0.074,-58.137,-130.924,4.282,46.0,120.0
185516,0.400,0.906,-0.035,-64.763,-112.191,-7.939,118.0,62.0
185601,0.372,0.909,0.071,-72.992,-103.084,-19.366,118.0,123.0
185688,0.391,0.817,0.237,-59.313,-96.275,-36.641,117.0,122.0
185767,0.408,0.718,0.362,-92.221,-93.397,-92.618,47.0,121.0
185848,0.208,0.982,0.175,-12.115,-93.809,-109.664,45.0,119.0
185928,0.122,0.967,0.119,-32.359,-89.076,-82.809,51.0,116.0
186013,-0.083,0.942,-0.486,29.107,-96.275,-78.198,123.0,114.0
186096,0.083,1.383,-0.164,32.092,-62.511,-40.878,125.0,82.0
186180,0.080,0.938,0.298,-32.916,-13.649,-37.298,127.0,104.0
186264,0.037,1.147,0.226,11.191,-10.504,-25.626,129.0,107.0
186351,0.019,1.100,0.206,-1.931,-11.534,-7.267,130.0,107.0
186436,0.021,1.081,0.193,6.573,-1.076,4.084,129.0,108.0
186520,0.025,1.013,0.197,-14.053,10.817,12.282,129.0,103.0
186603,0.030,1.060,0.175,-15.153,20.565,30.221,128.0,87.0
186687,0.115,1.034,0.173,-11.321,40.023,41.519,126.0,105.0
186771,0.160,1.000,0.183,-9.542,61.496,49.931,124.0,106.0
186855,0.205,0.967,0.150,-18.855,84.115,54.573,122.0,107.0
186936,0.207,0.950,0.129,-14.015,115.969,61.733,56.0,117.0
187019,0.174,1.041,0.089,-5.305,131.656,71.802,45.0,119.0
187100,0.203,0.934,0.152,29.748,141.611,78.481,44.0,120.0
187176,0.226,0.936,0.085,50.634,161.794,69.053,43.0,59.0
187252,0.202,0.970,0.031,29.802,166.382,64.344,44.0,57.0
187330,0.181,0.946,0.064,52.481,163.298,62.237,44.0,60.0
187410,0.239,0.976,0.065,67.198,151.176,57.275,43.0,118.0
187490,0.197,0.911,0.072,66.947,142.725,44.481,44.0,120.0
187575,0.181,1.029,0.064,52.679,124.611,43.282,119.0,119.0
187655,0.216,1.043,0.103,55.137,102.458,40.855,40.0,118.0
187743,0.236,1.016,0.127,46.153,90.954,33.962,121.0,117.0
187827,0.690,0.539,0.624,114.672,56.305,24.924,121.0,117.0
187912,0.171,1.127,0.021,-25.931,55.160,-21.786,122.0,116.0
187997,0.248,0.946,0.235,23.916,27.137,-6.779,122.0,115.0
188077,0.250,0.977,0.173,-24.550,0.198,-1.588,44.0,115.0
188161,0.256,0.970,0.135,3.176,-28.740,9.351,123.0,115.0
188240,0.275,0.958,0.137,-16.313,-45.595,2.580,37.0,115.0
188325,0.263,1.059,0.123,-27.756,-56.809,-2.229,123.0,115.0
188405,0.294,0.984,0.219,-39.840,-65.504,-19.679,46.0,116.0
188489,0.284,1.121,0.209,-78.481,-78.527,-28.221,43.0,118.0
188569,0.269,0.988,0.315,-76.740,-95.229,-33.969,42.0,119.0
188647,0.231,1.011,0.350,-91.954,-106.710,-52.069,39.0,72.0
188724,0.248,1.063,0.379,-116.344,-103.252,-76.542,37.0,72.0
188800,0.280,0.924,0.563,-115.511,-84.389,-106.458,41.0,37.0
188876,0.198,0.853,0.722,-119.496,-73.137,-128.443,38.0,65.0
188954,0.079,0.943,0.775,-155.023,-57.420,-137.527,39.0,70.0
189033,0.095,0.753,0.805,-164.550,-59.069,-127.565,40.0,99.0
189116,0.089,0.235,0.830,-109.038,-76.756,-137.886,58.0,97.0
189204,0.077,0.207,0.702,-73.733,-55.412,-145.115,0.0,96.0
189292,0.072,0.130,0.693,-83.969,-14.290,-143.435,0.0,96.0
189381,-0.052,-0.008,0.765,-73.779,-8.336,-116.931,0.0,99.0
189471,0.146,-0.127,0.937,40.298,-18.718,-46.649,129.0,0.0
189560,0.208,0.175,0.932,8.122,-2.664,-41.244,118.0,0.0
189649,0.174,0.065,1.037,3.603,1.244,-36.756,118.0,0.0
189739,0.169,0.107,1.034,23.565,0.198,-23.771,119.0,0.0
189829,0.166,0.170,1.010,-7.580,2.313,-13.061,119.0,0.0
189921,0.132,0.129,1.009,-3.420,-0.305,-0.595,119.0,0.0
190010,0.136,0.145,0.984,-9.901,0.656,12.015,119.0,0.0
190099,0.137,0.127,1.008,-10.282,1.214,30.840,119.0,0.0
190189,0.134,0.153,0.949,-27.855,2.695,78.015,119.0,0.0
190277,0.082,0.102,0.918,-77.244,13.672,109.481,0.0,97.0
190357,0.081,-0.228,1.045,-0.908,-21.618,146.573,62.0,96.0
190437,0.029,-0.145,0.941,29.275,-31.115,172.740,59.0,97.0
190518,-0.029,-0.160,0.842,60.092,-21.885,201.977,62.0,99.0
190597,-0.022,-0.115,0.871,45.504,7.420,210.611,38.0,101.0
190673,-0.007,-0.157,1.001,47.885,4.580,177.985,29.0,100.0
190752,0.046,-0.029,1.095,72.366,-14.374,130.771,26.0,107.0
190831,0.104,0.201,1.082,54.313,-36.557,88.786,23.0,106.0
190910,0.212,0.306,0.970,26.977,-37.420,54.229,24.0,114.0
190990,0.369,0.281,0.921,-1.763,-25.969,28.244,27.0,112.0
191069,0.411,0.107,0.945,5.786,-20.511,19.519,25.0,112.0
191158,0.374,0.234,0.871,25.267,-13.267,22.634,0.0,111.0
191237,0.429,0.191,0.944,6.130,-5.038,8.008,25.0,111.0
191319,0.482,0.188,1.044,7.786,1.328,-2.695,20.0,109.0
191397,0.452,0.268,1.006,4.313,0.046,-9.397,20.0,98.0
191475,0.402,0.320,0.930,2.160,3.420,-3.000,21.0,108.0
191554,0.363,0.264,0.907,-2.267,4.550,-0.359,22.0,107.0
191633,0.372,0.298,0.922,-1.015,1.145,1.031,22.0,107.0
191712,0.384,0.266,0.954,-0.710,-1.641,-3.321,23.0,109.0
191801,0.398,0.258,0.990,-7.038,-2.695,-17.885,0.0,107.0
191880,0.403,0.133,1.035,-27.359,-0.053,-62.069,24.0,108.0
191969,0.372,0.098,1.035,-9.290,7.969,-113.282,0.0,105.0
192050,0.189,0.218,0.971,-12.107,16.015,-155.229,30.0,87.0
192129,0.018,0.213,0.939,-24.473,17.443,-170.863,33.0,84.0
192208,-0.096,0.463,0.802,-62.435,10.817,-168.954,88.0,63.0
192289,-0.102,0.291,0.843,-80.939,22.847,-152.168,86.0,79.0
192370,-0.219,0.218,0.919,-74.099,37.595,-122.649,86.0,78.0
192458,-0.301,-0.003,0.963,-124.679,21.427,-98.137,0.0,80.0
192545,-0.312,-0.467,1.072,-44.565,-30.000,-53.527,0.0,83.0
192633,-0.127,-0.342,0.990,-27.130,-59.336,-27.771,0.0,86.0
192721,0.010,-0.428,0.912,-32.427,-64.641,1.115,0.0,89.0
192814,0.182,-0.372,0.792,-34.359,-44.130,12.221,0.0,92.0
192902,0.213,-0.546,0.769,-39.351,-31.855,14.733,0.0,96.0
192990,0.278,-0.587,0.724,-23.221,-15.847,12.328,0.0,99.0
193079,0.263,-0.583,0.760,-4.832,-0.351,2.626,0.0,100.0
193168,0.228,-0.551,0.797,-0.107,-1.397,-2.366,0.0,100.0
193255,0.233,-0.541,0.797,3.916,-1.588,-4.076,182.0,102.0
193343,0.226,-0.547,0.804,2.977,-0.939,-2.748,181.0,101.0
193431,0.240,-0.583,0.842,5.214,-2.595,-0.122,182.0,101.0
193523,0.244,-0.579,0.829,7.053,-4.458,0.939,0.0,102.0
193611,0.239,-0.554,0.802,4.031,0.092,-0.832,0.0,101.0
193700,0.283,-0.674,0.793,18.542,8.885,-8.626,0.0,100.0
193788,0.343,-0.803,0.837,68.901,60.397,-49.771,0.0,97.0
193876,-0.025,-0.181,0.685,137.779,66.137,-97.710,0.0,91.0
193967,-0.036,-0.121,0.855,100.771,74.733,-116.153,116.0,0.0
194057,-0.235,0.018,0.959,18.626,69.863,-119.267,117.0,0.0
194146,-0.267,0.104,1.027,66.137,42.244,-75.374,118.0,0.0
194236,-0.270,0.166,1.040,-15.122,16.496,-32.565,119.0,0.0
194328,-0.201,0.236,1.014,0.710,1.702,7.802,119.0,175.0
194416,-0.170,0.148,1.047,-11.336,-3.588,18.168,119.0,174.0
194506,-0.169,0.133,1.073,10.649,-16.580,38.275,120.0,0.0
194595,-0.164,0.199,1.021,65.290,-32.695,86.282,121.0,175.0
194684,-0.070,0.374,0.863,55.214,-23.794,128.840,122.0,186.0
194772,0.047,0.328,0.836,-21.817,0.107,156.824,0.0,83.0
194861,0.048,0.257,0.873,67.847,51.229,184.389,0.0,84.0
194956,0.110,0.454,0.751,75.962,90.313,183.924,0.0,88.0
195034,0.051,0.488,0.837,64.328,117.931,157.947,35.0,93.0
195113,-0.042,0.604,0.934,15.282,119.008,135.863,31.0,99.0
195192,-0.120,0.551,0.964,14.916,105.664,123.901,30.0,104.0
195269,-0.100,0.622,0.884,12.733,86.908,107.076,31.0,71.0
195345,-0.103,0.591,0.839,12.939,65.893,101.229,27.0,71.0
195422,-0.011,0.649,0.744,-6.489,40.427,83.137,28.0,83.0
195499,0.029,0.648,0.769,-1.573,29.832,58.344,25.0,83.0
195586,0.024,0.702,0.809,11.015,28.183,44.939,0.0,82.0
195662,-0.047,0.722,0.809,-13.466,20.183,20.183,25.0,81.0
195739,-0.081,0.720,0.803,-4.153,15.328,7.748,25.0,81.0
195813,-0.100,0.690,0.773,-10.985,4.626,-3.954,24.0,82.0
195890,-0.067,0.673,0.765,-15.817,-11.565,-16.679,23.0,81.0
195966,-0.051,0.618,0.791,-5.710,-22.557,-28.252,25.0,84.0
196043,-0.010,0.641,0.793,-7.427,-22.366,-40.023,26.0,82.0
196121,-0.015,0.600,0.847,-10.145,-26.229,-51.542,30.0,84.0
196199,-0.151,0.608,0.813,-25.656,-37.282,-79.947,26.0,99.0
196278,-0.088,0.458,0.913,-50.443,-43.435,-111.099,26.0,113.0
196357,-0.175,0.385,0.932,-22.649,-44.763,-157.962,28.0,102.0
196438,-0.258,0.315,0.915,-35.901,-35.695,-214.786,30.0,97.0
196515,-0.431,0.210,0.903,-10.237,-20.603,-250.137,35.0,90.0
196593,-0.604,0.251,0.928,36.282,-20.328,-250.137,42.0,84.0
196674,-0.648,0.238,0.882,34.099,-30.153,-250.137,89.0,81.0
196761,-0.611,0.173,0.894,45.573,-27.870,-233.198,92.0,0.0
196849,-0.506,0.211,0.869,66.145,-36.374,-189.786,146.0,153.0
196936,-0.319,0.347,0.790,74.771,-35.076,-136.076,155.0,127.0
197023,-0.167,0.257,0.831,27.214,-20.985,-110.878,163.0,121.0
197118,-0.162,0.191,0.871,10.908,-5.573,-105.893,170.0,0.0
197211,-0.172,0.278,0.902,36.466,3.397,-82.916,176.0,0.0
197302,-0.205,0.279,0.989,18.321,5.260,-68.038,147.0,0.0
197393,-0.264,0.208,1.051,20.321,1.244,-56.550,151.0,0.0
197483,-0.252,0.355,0.968,20.061,-1.221,-39.397,154.0,0.0
197575,-0.268,0.353,0.951,6.107,-4.092,-14.305,157.0,0.0
197666,-0.233,0.305,0.903,-1.092,-2.115,3.710,158.0,0.0
197757,-0.267,0.154,0.951,-8.038,4.740,1.458,158.0,0.0
197849,-0.305,0.259,0.929,-1.817,7.000,6.275,158.0,0.0
197943,-0.309,0.186,1.005,-10.046,7.832,6.244,157.0,0.0
198034,-0.286,0.255,0.968,-2.603,5.405,1.450,156.0,0.0
198125,-0.288,0.323,0.986,-12.023,4.290,4.908,154.0,0.0
198216,-0.278,0.346,0.941,5.061,-0.344,22.405,152.0,0.0
198306,-0.262,0.453,0.796,26.450,10.336,38.450,146.0,0.0
198396,-0.330,0.341,0.862,-37.168,22.397,54.496,139.0,0.0
198487,-0.359,0.347,0.853,-21.412,23.542,73.000,130.0,0.0
198572,-0.483,0.285,0.810,-43.450,27.298,82.595,120.0,114.0
198656,-0.545,0.312,0.744,-62.847,32.000,94.015,112.0,120.0
198746,-0.480,0.302,0.713,-72.305,48.359,129.229,148.0,129.0
198833,-0.574,0.390,0.338,-159.893,105.237,142.229,138.0,152.0
198922,-1.011,-0.190,0.508,-167.786,63.771,175.756,128.0,179.0
199009,-0.753,0.057,0.438,5.191,93.366,181.977,195.0,75.0
199096,-0.906,0.281,0.282,-55.221,125.458,121.901,0.0,81.0
199183,-0.930,0.195,0.390,-51.435,113.672,58.160,0.0,88.0
199271,-1.046,0.251,0.289,50.725,81.886,1.313,0.0,94.0
199359,-1.112,0.399,0.223,83.000,70.420,-9.817,0.0,100.0
199459,-1.274,0.562,0.163,-58.802,63.885,64.115,0.0,107.0
199552,-1.177,0.423,0.219,-7.321,22.542,126.527,0.0,134.0
199642,-0.806,0.678,0.046,91.351,-10.260,150.550,0.0,90.0
199730,-0.568,0.835,-0.087,10.412,-1.344,112.756,150.0,92.0
199817,-0.448,0.785,-0.055,14.038,-18.672,78.473,146.0,94.0
199904,-0.346,0.782,-0.072,31.863,-36.954,40.542,143.0,94.0
199991,-0.355,0.803,-0.083,28.534,-48.580,8.313,143.0,95.0
200078,-0.487,0.896,-0.131,18.649,-49.168,-14.748,144.0,94.0
200166,-0.562,0.935,-0.175,10.534,-56.595,-22.000,145.0,94.0
200256,-0.591,0.896,-0.137,31.626,-81.351,-10.588,146.0,93.0
200343,-0.554,0.952,-0.148,10.908,-93.756,-11.603,146.0,94.0
200431,-0.503,0.968,-0.047,28.595,-89.344,-8.832,144.0,96.0
200519,-0.481,1.051,-0.054,5.130,-77.557,10.916,158.0,98.0
200606,-0.308,0.973,0.004,0.626,-63.511,11.641,138.0,102.0
200689,-0.233,0.845,0.127,-19.885,-37.366,2.183,58.0,104.0
200772,-0.208,0.840,0.176,-6.153,-19.244,-0.260,51.0,107.0
200854,-0.224,0.941,0.190,-13.130,0.389,0.573,50.0,107.0
200940,-0.261,0.956,0.174,-23.008,24.046,10.282,51.0,108.0
201028,-0.264,0.976,0.136,-30.473,47.260,21.916,131.0,108.0
201110,-0.238,0.896,0.116,-42.595,62.214,29.702,48.0,109.0
201198,-0.110,0.793,0.080,-20.168,71.137,28.145,130.0,109.0
201281,-0.170,1.068,-0.036,-11.076,88.435,34.397,56.0,107.0
201363,-0.201,1.099,-0.093,-24.771,109.748,52.672,45.0,106.0
201446,-0.273,1.150,-0.085,-24.870,113.443,63.237,52.0,106.0
201529,-0.272,1.065,-0.058,-15.687,93.740,67.168,38.0,106.0
201611,-0.269,1.085,-0.046,-18.046,71.779,61.061,43.0,107.0
201696,-0.227,0.964,0.041,-23.336,37.618,49.840,40.0,109.0
201779,-0.136,0.939,0.140,-13.992,-0.031,30.099,44.0,110.0
201862,-0.040,0.987,0.223,-16.618,-25.466,9.893,43.0,110.0
201944,0.002,1.111,0.324,-54.145,-49.053,0.076,35.0,111.0
202031,0.075,1.176,0.348,-152.130,-73.481,-13.198,125.0,113.0
202110,0.041,0.640,0.565,-239.267,-83.886,-69.435,36.0,71.0
202202,0.015,0.481,0.733,-155.115,-63.718,-84.496,173.0,129.0
202294,0.015,0.535,0.826,-80.824,-40.939,-66.977,0.0,116.0
202389,0.060,0.363,0.920,-54.985,-20.298,-55.954,0.0,116.0
202481,0.057,0.305,0.942,-24.496,-11.321,-46.305,0.0,124.0
202573,0.068,0.313,0.946,-11.656,-8.084,-43.412,0.0,122.0
202656,0.071,0.287,0.974,-3.840,-6.664,-36.290,51.0,120.0
202740,0.087,0.269,0.976,-7.962,-6.847,-26.939,51.0,117.0
202823,0.077,0.282,0.985,-8.802,-7.687,-20.634,51.0,115.0
202907,0.088,0.278,0.966,-7.313,-4.198,-14.763,51.0,114.0
202990,0.073,0.266,0.965,-5.031,-1.282,-9.618,51.0,112.0
203073,0.048,0.295,0.937,-3.947,0.794,-7.450,50.0,110.0
203159,0.047,0.277,0.947,-2.443,5.908,-3.718,48.0,108.0
203242,-0.002,0.264,0.913,13.710,9.634,-5.855,51.0,107.0
203333,-0.095,0.068,0.900,59.863,15.931,-32.611,0.0,105.0
203424,-0.158,0.362,0.836,89.489,36.145,-73.229,0.0,102.0
203515,-0.237,0.723,0.729,106.092,44.336,-65.893,0.0,102.0
203599,-0.235,0.875,0.594,104.870,58.466,-43.977,45.0,126.0
203689,-0.272,0.973,0.491,64.519,73.733,-26.466,176.0,110.0
203779,-0.252,1.020,0.387,23.076,102.336,12.450,158.0,106.0
203872,-0.352,1.005,0.345,-34.947,102.336,52.695,174.0,105.0
203960,-0.424,0.959,0.262,-34.282,89.641,78.893,138.0,104.0
204048,-0.495,0.981,0.198,-32.794,75.878,86.840,136.0,104.0
204135,-0.499,0.873,0.170,-27.489,53.351,75.641,136.0,105.0
204224,-0.443,0.838,0.192,-18.985,37.046,50.427,145.0,106.0
