Timestamp(ms),AccelX(g),AccelY(g),AccelZ(g),GyroX(deg/s),GyroY(deg/s),GyroZ(deg/s),DistanceLeft(cm),DistanceRight(cm)
270472,-0.820,0.529,0.246,1.191,10.473,2.336,142.0,103.0
270557,-0.834,0.331,0.343,38.115,19.817,-4.260,141.0,103.0
270642,-0.844,0.362,0.243,83.053,24.008,-5.756,142.0,103.0
270728,-0.834,0.454,0.141,58.763,15.817,-11.672,142.0,103.0
270815,-0.896,0.522,0.006,86.740,14.634,-15.008,143.0,136.0
270901,-0.882,0.486,-0.062,58.153,8.733,-25.229,58.0,0.0
270987,-0.933,0.456,-0.116,31.985,5.611,-45.931,58.0,0.0
271082,-0.968,0.426,-0.131,-39.611,-3.725,-53.695,57.0,0.0
271166,-0.959,0.399,-0.080,-68.542,-0.351,-35.443,55.0,0.0
271245,-0.892,0.392,-0.031,-67.053,-3.595,-14.550,54.0,101.0
271324,-0.879,0.430,-0.054,-89.595,-5.809,-11.229,51.0,104.0
271409,-0.966,0.417,-0.105,-111.267,-5.527,8.802,135.0,109.0
271496,-1.033,0.396,-0.156,-116.336,4.534,60.145,128.0,161.0
271583,-0.999,0.528,-0.172,-106.183,26.092,126.344,122.0,175.0
271671,-0.894,0.500,-0.084,-117.244,46.153,144.466,186.0,111.0
271762,-0.845,0.545,-0.032,-118.656,58.611,129.321,181.0,135.0
271847,-0.746,0.598,0.059,-75.168,54.740,115.550,143.0,104.0
271931,-0.650,0.660,0.054,-41.985,58.939,100.336,136.0,106.0
272015,-0.509,0.712,0.106,-1.015,67.389,77.473,133.0,106.0
272099,-0.557,0.790,0.243,-1.298,28.802,50.580,132.0,106.0
272182,-0.555,0.844,0.373,31.313,-42.924,34.412,131.0,80.0
272265,-0.560,0.838,0.290,53.008,-109.725,9.130,131.0,77.0
272349,-0.671,0.832,0.127,72.397,-157.595,-15.443,132.0,105.0
272431,-0.633,0.917,-0.122,62.573,-175.580,-43.534,133.0,73.0
272518,-0.529,0.964,-0.251,26.107,-165.069,-61.588,134.0,104.0
272603,-0.521,0.792,-0.276,77.137,-146.214,-73.168,136.0,103.0
272688,-0.506,0.734,-0.397,131.481,-133.733,-73.779,142.0,102.0
272775,-0.507,0.800,-0.417,79.351,-106.588,-84.611,199.0,100.0
272868,-0.629,0.737,-0.337,78.595,-64.588,-96.954,183.0,0.0
272961,-0.702,0.662,-0.212,50.779,-44.420,-110.008,194.0,0.0
273050,-0.927,0.607,-0.115,34.038,-35.389,-123.107,131.0,0.0
273140,-1.035,0.507,-0.020,3.962,-12.924,-87.557,134.0,0.0
273233,-1.023,0.430,0.031,-18.985,-0.885,-20.496,136.0,0.0
273323,-0.973,0.421,0.026,-27.405,-1.618,18.756,135.0,0.0
273413,-0.943,0.419,-0.044,-45.206,1.855,35.847,132.0,0.0
273502,-0.873,0.481,-0.129,-76.275,19.137,57.710,128.0,0.0
273593,-0.886,0.639,-0.314,-132.809,42.573,60.771,152.0,0.0
273683,-0.939,0.635,-0.391,-154.183,77.267,97.023,142.0,0.0
273768,-0.914,0.722,-0.430,-154.229,105.908,134.718,131.0,113.0
273854,-0.798,0.646,-0.330,-126.763,107.237,143.824,172.0,99.0
273942,-0.700,0.720,-0.302,-79.756,106.725,122.969,142.0,100.0
274026,-0.554,0.721,-0.229,-43.069,110.786,93.267,137.0,103.0
274109,-0.491,0.733,-0.154,-29.939,117.672,64.275,134.0,73.0
274192,-0.519,0.851,-0.035,-32.000,97.244,27.718,132.0,74.0
274274,-0.515,0.762,0.195,-17.687,60.183,-4.183,133.0,74.0
274357,-0.579,1.016,0.076,4.160,37.947,-19.710,134.0,73.0
274441,-0.490,0.742,0.158,-60.939,-11.321,-60.679,136.0,102.0
274526,-0.661,0.399,0.226,60.420,-51.366,-113.145,139.0,100.0
274611,-0.887,0.708,-0.121,200.038,-86.771,-97.427,154.0,96.0
274703,-0.835,0.799,-0.286,115.336,-99.550,-93.779,182.0,135.0
274790,-0.931,0.524,-0.224,80.191,-89.382,-101.664,133.0,146.0
274878,-1.010,0.458,-0.228,82.023,-80.305,-90.641,140.0,160.0
274967,-0.946,0.395,-0.187,72.954,-53.359,-50.168,121.0,196.0
275052,-0.893,0.456,-0.094,37.221,-25.672,-25.550,127.0,115.0
275137,-0.899,0.510,-0.012,32.550,-11.031,-16.298,131.0,111.0
275222,-0.829,0.530,-0.015,7.550,-0.237,-2.260,133.0,109.0
275306,-0.844,0.476,-0.036,-31.924,17.221,11.328,133.0,109.0
275394,-0.874,0.444,-0.105,-49.153,33.985,8.466,131.0,113.0
275479,-0.955,0.429,-0.185,-68.679,50.893,-6.290,128.0,116.0
275564,-0.938,0.381,-0.229,-101.031,55.733,-6.969,125.0,121.0
275651,-0.947,0.343,-0.255,-116.504,42.748,-10.435,123.0,156.0
275741,-0.964,0.334,-0.255,-116.794,17.397,-23.603,0.0,133.0
275830,-1.018,0.283,-0.237,-91.107,-4.366,-8.298,0.0,114.0
275919,-0.951,0.296,-0.185,-75.244,-9.046,22.038,0.0,119.0
276009,-0.845,0.301,-0.113,-66.893,8.901,36.534,0.0,125.0
276103,-0.865,0.398,-0.138,-127.046,32.618,17.160,0.0,133.0
276193,-0.966,0.339,-0.090,-141.130,43.244,-10.817,0.0,139.0
276279,-0.902,0.299,-0.055,-155.718,46.359,6.550,0.0,64.0
276365,-0.875,0.296,-0.060,-132.397,41.099,5.878,0.0,71.0
276451,-0.836,0.337,-0.110,-127.954,39.672,-9.855,0.0,59.0
276540,-0.864,0.285,-0.161,-136.863,42.924,-3.321,0.0,114.0
276629,-1.025,0.284,-0.235,-107.366,37.450,-6.321,0.0,109.0
276717,-1.016,0.176,-0.205,-101.038,22.412,22.015,0.0,101.0
276808,-0.867,0.288,-0.156,0.115,14.786,24.008,0.0,102.0
276897,-0.970,0.420,-0.155,-44.336,19.076,-6.000,0.0,108.0
276985,-0.962,0.285,-0.063,-54.427,21.244,-0.023,0.0,112.0
277074,-0.853,0.376,-0.080,-39.115,25.389,-5.359,0.0,112.0
277165,-0.884,0.346,-0.063,-63.611,15.725,-28.046,0.0,120.0
277254,-1.081,0.278,-0.039,-27.153,-3.351,-19.725,0.0,119.0
277343,-0.934,0.328,-0.013,-5.237,4.557,20.427,0.0,119.0
277433,-0.978,0.322,0.003,-47.595,12.244,26.939,0.0,128.0
277522,-0.922,0.276,0.079,-45.641,5.718,18.939,0.0,126.0
277615,-0.905,0.240,0.120,-13.107,0.771,11.626,0.0,129.0
277705,-0.883,0.349,0.070,-8.977,12.420,-11.756,0.0,134.0
277795,-0.881,0.301,0.086,-39.519,22.794,-20.763,0.0,134.0
277886,-0.987,0.277,0.041,-24.176,17.878,-10.344,0.0,143.0
277977,-1.013,0.293,0.036,7.397,2.840,5.656,0.0,133.0
278067,-0.994,0.333,-0.087,-3.153,1.237,10.603,0.0,142.0
278158,-0.855,0.289,-0.117,-36.069,16.901,9.504,0.0,133.0
278248,-0.899,0.246,-0.117,-7.863,6.931,-3.313,0.0,131.0
278338,-1.025,0.291,-0.131,27.794,-7.893,-5.397,0.0,131.0
278431,-0.962,0.321,-0.126,10.221,-1.168,-1.901,0.0,129.0
278520,-1.054,0.323,-0.115,3.702,8.405,1.328,0.0,127.0
278610,-1.077,0.289,-0.097,20.237,-1.031,13.641,0.0,127.0
278701,-0.907,0.416,-0.147,4.977,1.634,9.916,0.0,124.0
278790,-0.822,0.489,-0.141,-25.198,16.115,6.687,0.0,121.0
278880,-0.808,0.547,-0.146,9.443,2.733,28.908,0.0,120.0
278969,-1.006,0.103,0.043,39.847,11.779,20.763,0.0,121.0
279058,-0.824,0.501,-0.235,31.336,-2.382,9.115,0.0,119.0
279148,-0.600,0.381,-0.218,-10.824,-7.901,-19.008,0.0,118.0
279240,-0.938,0.579,-0.243,39.191,-3.542,32.611,0.0,118.0
279330,-0.825,0.692,-0.377,65.305,-0.038,61.725,0.0,119.0
279420,-0.929,0.335,-0.158,-5.466,0.916,42.725,0.0,121.0
279511,-0.732,0.472,-0.251,112.076,-35.107,55.344,0.0,123.0
279601,-0.602,0.500,-0.330,29.832,1.664,15.099,0.0,129.0
279691,-0.692,0.623,-0.353,4.061,-10.901,11.275,0.0,122.0
279781,-0.530,0.993,-0.617,-70.969,11.557,0.634,0.0,131.0
279871,-0.558,0.405,-0.365,-103.893,47.534,-30.313,0.0,123.0
279965,-1.236,0.413,-0.106,-25.733,25.160,-13.740,0.0,124.0
280054,-0.753,0.655,-0.315,-43.771,12.466,-5.382,0.0,105.0
280144,-0.566,0.635,-0.314,-43.847,11.771,-20.878,0.0,125.0
280235,-0.792,0.505,-0.295,-9.336,1.794,-18.397,0.0,125.0
280324,-0.853,0.649,-0.294,5.267,-6.328,-2.374,0.0,105.0
280414,-0.766,0.530,-0.280,-0.885,-7.802,3.458,0.0,126.0
280504,-0.714,0.688,-0.256,-8.084,2.656,-3.885,0.0,130.0
280594,-0.729,0.600,-0.262,-24.969,13.313,-18.611,0.0,122.0
280683,-0.794,0.547,-0.215,-47.099,22.519,-32.473,0.0,105.0
280777,-0.849,0.578,-0.346,-41.015,19.588,-34.092,0.0,126.0
280867,-0.840,0.620,-0.255,-1.450,4.489,-32.893,0.0,124.0
280957,-0.858,0.410,-0.276,8.496,-6.115,-14.947,0.0,124.0
281048,-1.041,0.485,-0.326,-18.107,-0.031,-14.214,0.0,124.0
281139,-1.013,0.302,-0.266,-12.534,3.023,21.847,0.0,125.0
281229,-0.730,0.473,-0.229,12.939,-6.626,40.664,0.0,128.0
281319,-0.594,0.536,-0.265,-2.664,-15.786,0.664,0.0,129.0
281410,-0.896,0.513,-0.176,-19.924,1.130,-13.702,0.0,131.0
281504,-0.896,0.447,-0.156,-5.092,-1.092,-6.863,0.0,127.0
281594,-0.837,0.488,-0.224,-13.473,-0.046,-3.901,0.0,127.0
281686,-0.862,0.419,-0.213,-0.641,-5.649,3.137,0.0,127.0
281776,-0.860,0.476,-0.213,14.168,-10.687,9.168,0.0,127.0
281866,-0.840,0.488,-0.192,13.985,-10.664,8.893,0.0,127.0
281957,-0.856,0.485,-0.170,6.107,-6.649,4.099,0.0,127.0
282047,-0.855,0.502,-0.196,4.176,-4.031,2.031,0.0,129.0
282138,-0.839,0.484,-0.190,5.763,-4.137,1.947,0.0,127.0
282228,-0.863,0.495,-0.178,4.153,-6.076,1.702,0.0,126.0
282328,-0.852,0.521,-0.177,1.977,-4.611,1.649,0.0,125.0
282417,-0.845,0.510,-0.185,1.969,-2.740,-0.328,0.0,127.0
282506,-0.829,0.488,-0.181,-2.206,-1.924,-4.145,0.0,127.0
282595,-0.847,0.499,-0.180,-4.649,-1.611,-5.443,0.0,126.0
282685,-0.848,0.458,-0.166,-5.061,-3.214,-2.092,0.0,127.0
282774,-0.831,0.447,-0.158,4.076,-5.031,0.420,0.0,128.0
282863,-0.891,0.471,-0.218,8.626,-7.985,-1.504,0.0,128.0
282952,-0.909,0.422,-0.150,-1.580,-4.015,3.481,0.0,125.0
283042,-0.839,0.476,-0.171,13.908,-8.458,5.840,0.0,124.0
283134,-0.864,0.461,-0.150,8.107,-6.740,6.145,0.0,124.0
283224,-0.856,0.485,-0.165,5.931,-5.214,4.519,0.0,125.0
283313,-0.848,0.478,-0.147,4.542,-3.122,3.794,0.0,126.0
283403,-0.875,0.506,-0.169,2.824,-2.443,3.389,0.0,131.0
283492,-0.884,0.476,-0.144,1.420,-2.992,3.313,0.0,127.0
283581,-0.859,0.504,-0.150,-6.191,-0.618,1.405,0.0,125.0
283671,-0.881,0.504,-0.125,-13.870,1.450,2.695,0.0,134.0
283760,-0.874,0.449,-0.084,-5.527,-1.626,6.504,0.0,126.0
283850,-0.887,0.505,-0.139,-0.916,-17.412,20.756,0.0,132.0
283941,-0.781,0.500,-0.142,5.550,-26.229,16.466,0.0,108.0
284030,-0.830,0.600,-0.126,-19.550,-20.824,24.817,0.0,125.0
284120,-0.730,0.600,0.052,-55.786,-28.748,48.130,0.0,118.0
284206,-0.411,0.893,0.022,87.145,1.382,127.221,161.0,103.0
284292,-0.214,1.177,-0.327,22.153,64.687,165.313,145.0,103.0
284374,-0.130,1.093,-0.312,-10.710,137.679,200.298,132.0,75.0
284459,0.116,1.170,-0.408,7.992,195.832,206.389,125.0,112.0
284544,0.321,1.073,-0.324,3.771,219.244,187.015,117.0,122.0
284635,0.580,0.961,-0.224,25.145,213.313,160.603,113.0,187.0
284724,0.709,0.667,-0.032,37.496,193.565,118.489,129.0,189.0
284814,0.479,0.561,0.073,21.565,175.695,80.099,0.0,134.0
284903,0.396,0.612,0.313,40.282,119.794,59.672,0.0,131.0
284993,0.387,0.577,0.480,49.221,32.145,20.969,0.0,131.0
285078,0.640,0.543,0.565,57.069,24.275,2.366,113.0,131.0
285158,0.560,0.582,0.563,49.466,23.924,16.344,17.0,132.0
285241,0.467,0.695,0.500,-8.947,-3.550,1.855,16.0,0.0
285324,0.674,0.661,0.611,-4.275,-5.229,-5.252,16.0,0.0
285416,0.647,0.472,0.607,-1.595,4.863,2.580,117.0,0.0
285505,0.623,0.643,0.589,-4.092,8.122,3.595,118.0,0.0
285592,0.530,0.511,0.560,-3.962,9.977,-1.176,152.0,132.0
285686,0.561,0.788,0.551,-8.084,-9.595,-4.389,0.0,0.0
285765,0.678,0.625,0.626,-4.229,-7.176,-0.809,11.0,132.0
285844,0.637,0.516,0.600,-6.863,1.557,10.908,11.0,132.0
285934,0.387,0.558,0.564,0.107,-4.130,12.763,0.0,132.0
286021,0.694,0.572,0.649,-11.969,-6.939,2.023,153.0,132.0
286115,0.422,0.276,0.662,69.740,11.901,5.298,0.0,0.0
286201,0.676,0.495,0.631,-11.252,-8.298,0.565,16.0,0.0
286281,0.672,0.502,0.592,-8.366,5.115,-2.214,17.0,132.0
286361,0.508,0.613,0.568,-23.252,-10.901,-0.092,17.0,132.0
286451,0.711,0.437,0.609,-5.221,-5.405,-0.046,0.0,131.0
286541,0.607,1.011,0.533,-20.557,-7.305,-12.733,0.0,132.0
286628,0.699,0.429,0.604,5.481,2.588,3.740,157.0,132.0
286708,0.555,0.556,0.535,-11.450,-0.466,2.183,12.0,132.0
286798,0.558,0.539,0.554,11.252,-5.389,1.756,0.0,132.0
286888,0.660,0.628,0.635,-17.214,-18.244,-4.198,0.0,132.0
286971,0.477,0.583,0.551,18.580,-10.870,-10.405,16.0,132.0
287057,0.536,0.610,0.509,-55.496,-38.344,-17.450,142.0,133.0
287143,0.479,0.640,0.477,-57.504,-86.504,-40.038,114.0,133.0
287229,0.552,0.682,0.462,-40.107,-119.359,-69.183,119.0,135.0
287320,0.641,0.808,0.304,-74.069,-135.412,-70.985,135.0,193.0
287409,0.885,0.977,0.237,-132.344,-131.527,-29.496,123.0,197.0
287496,1.092,0.720,0.149,-216.802,-92.840,18.893,130.0,139.0
287585,1.219,0.660,0.102,-183.397,4.183,83.878,165.0,147.0
287680,1.081,-0.050,0.279,-190.137,79.939,120.427,155.0,0.0
287767,0.831,-0.397,0.322,-175.366,137.611,136.321,149.0,139.0
287852,0.446,-0.651,0.427,-80.611,138.198,143.489,145.0,95.0
287938,0.116,-0.683,0.495,-6.802,98.832,100.176,166.0,83.0
288024,-0.025,-0.603,0.584,27.427,69.695,64.489,164.0,84.0
288109,-0.264,-0.582,0.836,22.359,40.756,33.947,166.0,83.0
288195,-0.090,-0.503,0.774,-1.771,17.366,22.443,167.0,92.0
288282,-0.152,-0.517,0.844,-2.878,10.840,18.733,172.0,87.0
288369,-0.334,-0.663,0.899,34.008,21.351,17.473,172.0,98.0
288458,-0.399,-0.504,0.961,30.565,4.534,5.939,172.0,96.0
288545,-0.276,-0.319,0.769,-49.405,-30.450,-4.450,172.0,97.0
288632,0.042,-0.759,0.696,-0.328,-6.840,-4.252,172.0,94.0
288718,-0.143,-0.567,0.828,49.809,9.443,12.695,173.0,88.0
288806,-0.465,-0.647,1.055,73.534,25.939,6.382,0.0,95.0
288894,-0.231,-0.310,0.804,-112.779,-26.481,-13.115,0.0,89.0
288983,-0.052,-0.795,0.774,-30.771,-10.443,-2.672,0.0,86.0
289069,-0.151,-0.720,0.827,36.344,13.641,-0.626,173.0,87.0
289159,-0.435,-0.638,1.055,47.015,26.397,5.183,173.0,89.0
289245,-0.187,-0.363,0.654,-88.389,-24.611,2.313,172.0,86.0
289331,-0.046,-0.814,0.613,-18.359,-2.275,0.908,172.0,84.0
289417,-0.189,-0.523,0.836,23.496,8.244,-8.061,171.0,86.0
289504,-0.535,-0.688,1.149,52.351,-8.366,-10.580,172.0,99.0
289591,-0.084,-0.699,0.869,-77.328,-20.626,13.427,171.0,85.0
289677,-0.073,-0.893,0.741,25.450,6.244,-0.038,171.0,86.0
289763,-0.067,-0.591,0.679,5.466,24.740,2.611,171.0,83.0
289849,-0.240,-0.206,0.796,-2.893,-27.229,-18.053,171.0,85.0
289938,-0.139,-0.745,0.694,-82.977,-18.443,-2.809,166.0,80.0
290023,-0.133,-0.733,0.745,30.855,-1.115,-12.229,165.0,80.0
290110,-0.210,-0.672,0.770,19.519,5.489,1.809,166.0,87.0
290195,-0.089,-0.598,0.739,-38.779,-36.420,-15.427,165.0,81.0
290281,0.059,-0.835,0.645,-39.168,-4.351,7.145,165.0,77.0
290367,-0.013,-0.627,0.758,32.412,-7.214,-3.939,170.0,88.0
290454,-0.220,-0.890,0.914,34.893,-5.153,3.878,171.0,87.0
290540,0.039,-0.366,0.614,-32.031,-27.260,6.382,170.0,84.0
290631,0.039,-1.010,0.764,31.779,-5.664,13.466,0.0,81.0
290717,0.078,-0.640,0.728,4.802,19.840,10.489,171.0,84.0
290803,-0.142,-0.461,0.723,31.031,-28.779,-4.405,170.0,84.0
290889,0.069,-0.923,0.494,-41.847,1.595,11.786,170.0,82.0
290975,-0.031,-0.451,0.571,34.542,3.542,-22.458,169.0,84.0
291061,-0.172,-0.509,0.735,16.504,-29.412,-10.214,165.0,86.0
291147,-0.040,-0.628,0.538,-46.527,-41.366,-45.450,162.0,78.0
291232,0.140,-0.760,0.525,2.840,-56.931,-133.267,161.0,79.0
291318,0.473,-0.531,0.487,29.137,-43.351,-190.061,162.0,93.0
291414,0.646,-0.619,0.498,88.321,-25.450,-250.137,147.0,0.0
291506,0.742,0.066,0.489,146.435,-23.183,-250.137,151.0,0.0
291598,0.570,0.625,0.476,107.206,-25.313,-250.137,163.0,0.0
291680,0.016,1.246,0.123,184.664,-27.740,-250.137,58.0,120.0
291762,-0.324,1.320,-0.005,60.443,10.969,-250.137,60.0,108.0
291848,-0.567,0.904,0.099,20.244,54.702,-234.092,140.0,100.0
291939,-1.006,0.825,0.031,39.450,19.992,-186.855,0.0,137.0
292029,-1.072,0.553,0.022,136.244,-21.618,-164.649,0.0,128.0
292123,-1.072,0.655,-0.099,21.130,-21.214,-93.267,0.0,123.0
292213,-0.966,0.433,-0.051,-51.580,17.947,15.740,0.0,121.0
292303,-0.928,0.368,-0.049,-31.397,10.107,58.939,0.0,122.0
292393,-0.952,0.344,-0.093,17.931,-5.298,77.977,0.0,124.0
292484,-0.898,0.415,-0.149,21.000,0.672,68.313,0.0,127.0
292574,-0.827,0.417,-0.139,-6.099,3.931,22.321,0.0,120.0
292665,-0.828,0.407,-0.105,-5.481,3.519,-20.344,0.0,126.0
292755,-0.851,0.430,-0.120,-5.031,-0.573,-51.137,0.0,126.0
292845,-0.962,0.385,-0.094,0.366,-5.611,-48.298,0.0,122.0
292939,-0.951,0.438,-0.058,68.748,-11.260,4.855,0.0,121.0
293029,-0.888,0.558,-0.156,-2.260,-4.206,14.160,0.0,121.0
293120,-0.894,0.358,-0.103,-17.809,-1.344,17.779,0.0,121.0
293210,-0.892,0.370,-0.122,18.817,-6.511,21.092,0.0,121.0
293300,-0.875,0.412,-0.141,15.115,-3.611,13.336,0.0,127.0
293391,-0.873,0.407,-0.130,5.756,-1.885,-3.443,0.0,124.0
293487,-0.881,0.444,-0.110,18.435,-5.527,-8.626,0.0,123.0
293576,-0.883,0.496,-0.130,11.634,-5.290,-7.641,0.0,123.0
293665,-0.870,0.496,-0.142,-12.290,-2.015,-7.130,0.0,121.0
293757,-0.845,0.577,-0.076,-48.176,12.863,-3.855,0.0,121.0
293847,-0.985,0.928,0.152,-163.137,24.901,-0.084,0.0,123.0
293936,-1.257,0.813,0.597,-114.145,-70.504,51.496,0.0,126.0
294026,-1.356,0.948,0.367,-76.969,-141.176,116.611,0.0,138.0
294120,-1.060,0.780,0.200,-77.824,-161.679,110.626,0.0,0.0
294210,-0.594,0.330,0.247,5.252,-156.000,101.023,139.0,0.0
294298,-0.196,0.489,0.185,43.076,-95.557,84.359,107.0,0.0
294386,0.052,0.473,0.342,-18.076,-33.786,21.244,105.0,0.0
294477,0.048,0.455,0.610,-6.092,-18.924,-10.168,100.0,0.0
294564,0.089,0.679,0.628,23.214,-11.099,-1.985,94.0,0.0
294652,0.106,0.699,0.639,-10.878,1.260,6.000,96.0,0.0
294740,0.081,0.628,0.568,3.076,9.656,15.595,97.0,0.0
294829,0.066,0.532,0.512,13.321,24.450,29.573,105.0,0.0
294917,0.010,0.440,0.337,67.290,30.557,32.321,104.0,0.0
295003,-0.212,0.699,0.131,66.496,62.618,-14.641,105.0,158.0
295091,-0.299,0.890,0.202,83.168,101.771,-96.084,116.0,0.0
295176,-0.469,1.156,0.246,124.198,114.473,-126.015,128.0,109.0
295264,-0.578,1.334,0.238,49.695,86.389,-105.435,140.0,100.0
295350,-0.642,1.116,0.231,68.305,38.023,-28.084,164.0,96.0
295436,-0.531,1.317,-0.077,38.611,42.450,5.305,169.0,95.0
295521,-0.457,1.006,-0.095,18.802,50.290,41.382,154.0,95.0
295609,-0.430,1.123,-0.169,-42.374,52.252,63.962,0.0,97.0
295693,-0.159,1.222,-0.317,-20.092,66.290,98.053,139.0,100.0
295778,0.000,1.053,-0.328,-22.855,103.916,127.092,133.0,104.0
295863,0.066,1.100,-0.458,-56.641,134.954,136.405,126.0,111.0
295950,0.182,0.817,-0.237,-37.290,128.427,117.198,119.0,120.0
296035,0.213,0.846,-0.092,-10.756,109.237,93.221,114.0,126.0
296120,0.293,0.676,0.199,0.855,46.603,48.565,111.0,130.0
296205,0.366,0.469,0.329,33.695,-18.992,-34.618,111.0,130.0
296290,0.295,0.818,0.016,10.763,-57.092,-116.252,113.0,125.0
296374,0.201,1.260,-0.360,-3.328,8.015,9.664,114.0,123.0
296459,0.448,0.794,0.112,-15.221,9.519,2.237,114.0,123.0
296542,0.305,1.048,0.010,3.794,-9.382,-6.328,115.0,92.0
296625,0.269,0.989,0.009,-6.397,-16.206,-0.588,115.0,90.0
296712,0.183,0.927,0.061,-7.237,-33.870,-11.924,116.0,121.0
296797,0.246,1.103,-0.012,-18.176,-45.420,-6.656,116.0,121.0
296882,0.292,1.156,-0.036,-13.046,-32.374,31.885,116.0,121.0
296967,0.437,1.039,0.032,-18.053,-39.305,83.855,115.0,124.0
297053,0.532,0.929,-0.043,-64.427,-41.725,112.244,118.0,150.0
297139,0.685,0.615,0.065,-85.565,-38.374,97.656,123.0,132.0
297228,0.798,0.479,0.057,-62.489,-34.275,68.550,167.0,137.0
297314,0.768,0.259,0.176,-52.634,-52.969,10.252,130.0,141.0
297405,0.687,0.244,0.159,7.214,-102.817,-57.870,143.0,143.0
297492,0.707,0.407,-0.057,-23.565,-119.130,-121.580,137.0,145.0
297577,0.459,1.059,-0.580,22.229,-69.015,-132.496,116.0,124.0
297662,0.395,1.086,-0.488,3.076,-27.550,-60.504,119.0,119.0
297747,0.480,0.946,-0.348,11.725,-5.076,-28.321,121.0,117.0
297832,0.445,1.045,-0.408,-33.153,92.290,-106.252,122.0,115.0
297915,0.075,1.068,-0.276,-81.252,165.206,-126.443,122.0,83.0
297998,-0.122,1.261,-0.116,-21.076,135.603,-38.779,122.0,84.0
298084,-0.064,1.319,-0.029,-52.580,72.992,81.000,118.0,87.0
298167,0.070,0.935,0.155,-87.313,2.298,162.458,113.0,93.0
298252,0.270,0.595,0.191,-110.718,-69.969,164.840,109.0,133.0
298342,0.556,0.324,0.197,-59.092,-114.214,96.603,125.0,0.0
298431,0.675,0.408,0.092,7.595,-114.237,-12.740,114.0,0.0
298521,0.635,0.553,0.000,38.000,-96.863,-114.969,128.0,0.0
298606,0.463,1.049,-0.274,44.328,-82.863,-149.305,116.0,123.0
298691,0.184,1.229,-0.529,7.160,-57.511,-125.374,121.0,116.0
298776,0.096,1.258,-0.575,2.855,12.412,-73.046,124.0,112.0
298864,0.148,1.134,-0.335,-31.641,95.015,-56.275,125.0,111.0
298947,0.037,1.100,-0.217,-41.176,139.321,-39.916,124.0,81.0
299032,-0.126,1.030,0.025,-55.214,110.466,25.573,123.0,114.0
299115,0.014,1.304,-0.110,-22.771,69.252,128.076,119.0,91.0
299201,0.190,0.891,0.105,-84.710,33.702,168.084,113.0,125.0
299288,0.356,0.633,0.186,-82.168,-13.206,142.122,112.0,176.0
299375,0.563,0.482,0.226,-29.702,-61.313,83.038,117.0,149.0
299462,0.645,0.443,0.188,-19.763,-85.351,5.191,131.0,150.0
299555,0.720,0.671,-0.025,26.702,-86.473,-50.542,123.0,0.0
299645,0.614,0.759,-0.156,50.351,-71.130,-71.206,115.0,0.0
299735,0.574,0.954,-0.325,25.679,-47.878,-34.053,116.0,0.0
299825,0.584,0.907,-0.260,-1.069,-23.321,-1.550,117.0,0.0
299914,0.526,0.868,-0.240,-9.756,-17.756,0.687,119.0,0.0
299999,0.430,0.792,-0.185,-15.061,-30.443,-10.962,118.0,123.0
300084,0.355,0.855,-0.205,-17.550,-52.344,-17.031,119.0,121.0
300170,0.313,0.917,-0.216,-0.832,-80.641,-8.443,120.0,119.0
300255,0.315,0.901,-0.278,-7.504,-97.069,-1.779,122.0,117.0
300343,0.292,0.927,-0.404,-41.786,-98.496,2.359,124.0,115.0
300428,0.272,0.869,-0.412,-6.580,-109.214,-1.427,126.0,113.0
300514,0.230,0.823,-0.436,3.015,-109.389,-11.840,128.0,110.0
300599,0.137,0.904,-0.570,-6.275,-96.382,-22.206,131.0,107.0
300684,-0.001,0.919,-0.688,49.977,-60.000,-26.496,134.0,104.0
300769,0.004,0.699,-0.503,1.145,-38.153,-26.588,136.0,102.0
300854,-0.051,0.914,-0.598,17.992,-35.802,-17.221,139.0,100.0
300940,-0.072,0.980,-0.628,11.374,-17.221,-8.588,141.0,98.0
301028,-0.083,0.935,-0.628,3.847,2.687,0.908,141.0,98.0
301113,0.015,0.918,-0.708,-16.031,24.962,11.450,140.0,99.0
301199,0.023,0.940,-0.890,0.656,86.427,34.015,138.0,101.0
301284,0.179,0.847,-0.871,1.718,141.076,69.305,134.0,106.0
301369,0.287,0.820,-0.785,13.504,172.069,66.221,129.0,115.0
301460,0.326,0.775,-0.707,13.595,182.374,52.878,133.0,0.0
301550,0.420,0.557,-0.513,69.313,173.992,32.313,126.0,0.0
301638,0.508,0.583,-0.423,51.267,160.603,5.901,130.0,149.0
301724,0.563,0.565,-0.260,71.412,131.504,-15.183,119.0,140.0
301808,0.537,0.663,-0.224,74.061,104.634,-47.664,117.0,133.0
301897,0.445,0.656,-0.113,70.405,83.718,-78.679,111.0,0.0
301983,0.293,0.808,-0.132,51.504,75.679,-112.992,109.0,130.0
302068,0.070,0.877,-0.075,36.794,62.115,-116.672,112.0,125.0
302151,-0.073,1.080,-0.064,23.229,41.458,-86.000,116.0,89.0
302235,-0.073,1.251,-0.076,29.870,21.947,-43.305,120.0,90.0
302319,-0.078,1.196,-0.030,13.565,1.031,-11.198,122.0,84.0
302402,-0.075,1.116,-0.088,4.954,-18.344,20.802,122.0,84.0
302489,-0.069,1.124,-0.147,-10.260,-27.420,49.015,121.0,85.0
302573,-0.017,1.083,-0.124,-35.107,-47.038,76.527,120.0,86.0
302658,0.109,1.057,-0.182,-19.137,-68.115,104.992,117.0,120.0
302744,0.285,0.876,-0.115,-58.405,-89.489,89.924,115.0,124.0
302831,0.386,0.927,-0.203,-69.992,-106.435,68.809,115.0,148.0
302918,0.474,0.646,-0.205,-62.634,-117.015,46.282,132.0,130.0
303008,0.558,0.762,-0.321,-94.504,-125.687,6.794,133.0,0.0
303094,0.499,0.546,-0.269,-5.397,-126.626,-58.611,118.0,124.0
303183,0.476,0.912,-0.546,-24.794,-106.527,-86.924,121.0,117.0
303268,0.468,0.995,-0.522,5.137,-52.275,-58.397,124.0,113.0
303354,0.472,1.185,-0.614,22.389,-3.878,-16.939,127.0,111.0
303439,0.503,1.027,-0.556,-18.672,44.740,31.878,126.0,112.0
303525,0.528,1.026,-0.542,-18.061,108.420,76.771,123.0,115.0
303610,0.509,0.773,-0.352,-14.901,165.695,74.473,118.0,121.0
303696,0.477,0.599,-0.125,12.992,166.198,44.313,116.0,126.0
303782,0.422,0.707,-0.039,34.374,163.282,-5.015,119.0,129.0
303867,0.251,0.695,0.094,80.992,117.366,-68.832,43.0,124.0
303948,0.058,0.877,0.005,37.550,87.053,-117.412,43.0,119.0
304029,-0.171,1.028,-0.030,54.321,53.779,-120.618,47.0,114.0
304111,-0.307,1.658,0.011,18.908,18.802,-34.344,50.0,109.0
304192,-0.120,1.329,0.289,8.534,-32.794,37.550,51.0,110.0
304273,-0.106,1.232,0.123,-37.870,-69.664,81.931,51.0,112.0
304354,-0.040,0.877,-0.002,-31.260,-114.771,97.534,44.0,117.0
304442,0.206,0.801,-0.099,-38.603,-125.985,66.389,46.0,120.0
304527,0.458,0.755,-0.132,-36.740,-120.878,16.962,118.0,121.0
304614,0.415,0.674,-0.125,-43.588,-110.672,-45.435,118.0,119.0
304698,0.321,0.935,-0.252,22.275,-92.611,-102.244,121.0,115.0
304783,0.331,0.997,-0.127,-48.489,-44.695,-89.183,124.0,111.0
304865,0.231,1.007,-0.031,-10.840,-61.550,-72.878,127.0,78.0
304948,0.155,0.857,-0.042,5.748,-40.664,-96.611,130.0,76.0
305031,-0.216,0.747,-0.095,-12.626,2.611,-175.221,135.0,75.0
305116,-0.579,0.780,-0.165,-7.473,33.443,-214.924,144.0,97.0
305205,-1.092,0.857,-0.216,-93.466,39.137,-225.221,0.0,118.0
305297,-1.150,0.205,0.153,42.924,-1.237,-128.427,0.0,122.0
305386,-1.015,0.605,-0.108,93.137,2.557,-11.328,0.0,119.0
305475,-0.906,0.522,-0.038,-18.069,18.702,10.725,0.0,124.0
305564,-0.892,0.398,0.040,-21.290,1.038,3.794,0.0,121.0
305653,-0.993,0.396,-0.055,-12.794,-3.756,22.466,0.0,121.0
305742,-0.950,0.369,-0.076,-4.252,-2.786,46.275,0.0,123.0
305832,-0.864,0.384,-0.089,1.802,-0.160,43.267,0.0,125.0
305922,-0.854,0.395,-0.100,-15.244,5.626,19.153,0.0,128.0
306012,-0.885,0.377,-0.085,-8.702,6.687,-3.611,0.0,128.0
306104,-0.896,0.417,-0.076,-2.580,7.252,-16.466,0.0,127.0
306194,-0.893,0.433,-0.056,-13.725,7.832,-25.939,0.0,126.0
306283,-0.906,0.396,-0.040,-7.840,1.565,-23.099,0.0,125.0
306373,-0.926,0.419,-0.070,6.443,-4.191,-11.908,0.0,124.0
306462,-0.927,0.414,-0.082,4.069,-3.145,2.183,0.0,124.0
306551,-0.909,0.385,-0.083,4.748,-3.160,11.496,0.0,124.0
306640,-0.884,0.391,-0.088,5.931,-2.542,14.053,0.0,124.0
306731,-0.889,0.392,-0.100,2.412,-2.053,8.595,0.0,124.0
306823,-0.894,0.405,-0.098,3.634,-0.908,2.015,0.0,125.0
306912,-0.904,0.396,-0.086,2.656,0.107,-1.504,0.0,125.0
307002,-0.903,0.410,-0.083,3.496,0.061,-2.443,0.0,125.0
307091,-0.909,0.406,-0.071,1.641,-1.130,-2.351,0.0,125.0
307180,-0.898,0.425,-0.099,0.901,-2.282,-1.229,0.0,124.0
307270,-0.897,0.413,-0.102,-0.595,-2.000,0.191,0.0,124.0
307359,-0.900,0.401,-0.107,-0.908,0.382,3.046,0.0,124.0
307448,-0.901,0.398,-0.094,-2.634,1.763,2.977,0.0,127.0
307538,-0.896,0.400,-0.094,-1.053,0.557,2.168,0.0,125.0
307631,-0.905,0.408,-0.095,-0.725,-0.252,1.649,0.0,124.0
307721,-0.898,0.402,-0.100,-1.626,-0.412,0.656,0.0,123.0
307810,-0.899,0.407,-0.099,-1.901,-0.176,0.878,0.0,124.0
307899,-0.914,0.401,-0.102,0.183,-1.198,1.496,0.0,123.0
307989,-0.898,0.394,-0.093,-0.641,-0.733,1.481,0.0,123.0
308078,-0.902,0.405,-0.094,1.397,-1.649,-0.275,0.0,124.0
308168,-0.903,0.406,-0.095,-0.779,-1.137,1.000,0.0,123.0
308257,-0.905,0.407,-0.104,-2.099,-0.618,1.458,0.0,123.0
308346,-0.898,0.402,-0.106,-2.374,-0.290,1.366,0.0,123.0
308440,-0.903,0.403,-0.103,-2.679,-0.046,1.115,0.0,123.0
308529,-0.904,0.411,-0.105,-3.672,0.649,0.359,0.0,123.0
308619,-0.896,0.404,-0.090,-3.023,0.252,1.084,0.0,123.0
308708,-0.905,0.398,-0.093,-2.145,0.290,-0.137,0.0,123.0
308798,-0.901,0.412,-0.107,-5.588,1.573,-0.725,0.0,123.0
308887,-0.889,0.409,-0.096,-7.107,1.969,-2.176,0.0,123.0
308977,-0.904,0.402,-0.096,-9.519,1.344,-4.557,0.0,124.0
309066,-0.898,0.409,-0.105,-13.443,2.710,-1.756,0.0,124.0
309156,-0.897,0.411,-0.101,-17.061,4.679,-3.206,0.0,125.0
309250,-0.930,0.424,-0.101,-19.656,5.061,2.786,0.0,126.0
309339,-0.886,0.518,-0.132,-11.824,7.878,24.779,0.0,126.0
309429,-0.849,0.534,-0.139,-41.267,15.641,31.802,0.0,132.0
309518,-0.803,0.595,-0.154,-38.191,26.695,41.824,0.0,114.0
309610,-0.802,0.722,-0.208,-71.763,49.885,54.611,0.0,155.0
309702,-0.795,0.796,-0.219,-80.198,61.015,74.931,0.0,164.0
309790,-0.590,0.867,-0.242,-58.924,70.122,98.649,0.0,95.0
309875,-0.482,0.929,-0.227,-67.206,83.595,90.595,147.0,97.0
309960,-0.399,0.969,-0.218,-47.168,86.176,109.847,138.0,99.0
310048,-0.242,0.938,-0.202,-23.710,87.023,110.695,133.0,103.0
310133,-0.157,0.939,-0.194,-23.885,102.450,94.786,130.0,107.0
310218,-0.101,0.914,-0.121,-11.611,107.015,89.702,126.0,110.0
310303,0.058,0.751,0.116,-26.527,77.977,48.511,124.0,113.0
310384,0.174,0.804,0.200,-9.443,34.099,-48.160,45.0,112.0
310464,-0.086,1.146,0.010,31.611,24.672,-19.901,43.0,111.0
310544,0.149,1.032,0.056,-25.130,24.748,0.779,43.0,110.0
310624,0.088,0.966,0.070,10.221,22.695,3.557,41.0,111.0
310708,0.122,0.953,0.083,10.473,24.305,-4.534,51.0,111.0
310789,0.091,1.039,0.051,9.809,22.504,-14.153,51.0,110.0
310870,0.024,1.044,0.033,0.779,19.511,-14.145,52.0,110.0
310949,-0.014,1.033,0.004,-3.145,7.863,-7.687,44.0,110.0
311029,-0.052,1.015,0.005,-0.779,0.153,-1.641,44.0,110.0
311110,-0.058,0.965,0.021,3.382,-11.023,-7.992,48.0,110.0
311190,-0.142,1.004,-0.022,5.824,-28.893,-12.969,49.0,110.0
311271,-0.169,0.973,-0.009,24.397,-52.435,-3.519,51.0,109.0
311354,-0.160,0.992,-0.078,11.977,-77.397,-5.985,127.0,79.0
311438,-0.215,0.991,-0.127,38.947,-101.649,-6.389,47.0,108.0
311519,-0.236,1.129,-0.229,30.420,-117.282,-1.679,58.0,107.0
311600,-0.202,0.911,-0.190,5.366,-141.527,-2.519,53.0,107.0
311681,-0.214,0.963,-0.312,38.198,-172.107,-9.519,58.0,106.0
311761,-0.151,1.015,-0.366,27.725,-185.550,1.260,57.0,105.0
311842,-0.126,1.017,-0.325,15.954,-180.618,5.962,58.0,105.0
311923,-0.155,1.021,-0.290,5.763,-180.786,20.092,58.0,105.0
312008,-0.118,1.065,-0.233,7.275,-182.328,38.763,131.0,105.0
312103,-0.049,1.013,-0.157,-22.221,-162.153,47.023,129.0,77.0
312184,-0.006,1.073,-0.140,-18.870,-123.649,47.092,58.0,109.0
312264,0.106,1.002,-0.042,-45.901,-90.511,33.740,58.0,111.0
312345,0.150,0.928,0.013,-44.817,-65.740,6.115,58.0,112.0
312425,0.140,0.927,0.027,-28.008,-44.252,-13.221,58.0,113.0
312508,0.087,1.000,0.085,-22.969,-29.603,-12.779,123.0,83.0
312589,0.163,0.804,0.261,-20.191,-25.130,-33.557,54.0,113.0
312671,-0.029,0.770,0.288,9.122,-31.748,-99.244,126.0,83.0
312756,-0.281,1.441,-0.074,10.672,-17.962,-9.099,128.0,109.0
312839,-0.000,0.905,0.227,-6.473,-5.908,10.046,58.0,109.0
312924,-0.019,0.998,0.181,-1.084,3.557,0.794,127.0,109.0
313008,-0.080,1.004,0.141,2.878,11.427,2.137,128.0,109.0
313092,-0.049,0.990,0.121,-2.038,24.924,-1.969,128.0,109.0
313177,-0.056,0.900,0.110,6.504,38.412,-14.160,128.0,108.0
313261,-0.077,0.939,0.002,12.511,58.038,-19.191,130.0,107.0
313344,-0.077,0.842,-0.149,27.794,97.550,-36.718,132.0,74.0
313427,-0.196,0.905,-0.349,32.145,158.473,-80.489,136.0,101.0
313516,-0.422,0.975,-0.511,-65.466,202.664,-107.878,142.0,97.0
313602,-0.749,1.098,-0.512,-110.198,231.458,-54.015,171.0,95.0
313687,-0.759,0.899,-0.191,-130.115,170.252,41.786,144.0,95.0
313771,-0.682,1.043,-0.155,-36.397,111.076,106.344,141.0,97.0
313853,-0.498,1.025,-0.171,-37.412,71.969,125.099,135.0,71.0
313933,-0.233,0.994,-0.070,-37.160,54.092,127.221,51.0,106.0
314014,-0.045,0.955,-0.002,-35.733,32.832,122.038,50.0,111.0
314094,0.135,0.859,0.063,-43.260,16.366,96.176,38.0,115.0
314181,0.261,0.832,0.087,-22.405,4.092,65.321,120.0,119.0
314261,0.408,0.768,0.146,-11.137,-4.321,32.611,36.0,121.0
314342,0.526,0.637,0.225,0.802,-17.679,-25.443,44.0,121.0
314422,0.260,1.121,-0.022,49.603,-22.725,-31.313,39.0,118.0
314502,0.430,1.054,-0.008,-16.229,-11.863,5.137,40.0,118.0
314582,0.335,0.933,0.114,-17.710,-10.260,-8.237,37.0,118.0
314661,0.288,0.963,0.102,-11.885,-22.046,-15.641,37.0,117.0
314742,0.256,0.955,0.078,-17.992,-36.008,-25.771,41.0,117.0
314822,0.241,0.971,0.077,-13.260,-47.015,-34.618,47.0,116.0
314905,0.209,0.928,0.066,-11.534,-62.412,-45.954,40.0,115.0
314986,0.155,1.041,0.037,-5.099,-73.840,-55.595,50.0,112.0
315069,0.188,1.110,0.038,-5.206,-81.603,-48.198,125.0,80.0
315152,0.143,1.135,0.040,-31.954,-86.313,-31.977,126.0,88.0
315232,0.154,1.095,0.041,-36.061,-93.695,-10.412,51.0,111.0
315313,0.192,1.105,0.009,-49.809,-93.817,16.588,49.0,113.0
315393,0.218,1.051,0.023,-54.771,-80.260,32.504,51.0,116.0
315476,0.284,0.914,0.061,-62.519,-63.992,35.115,119.0,92.0
315560,0.320,0.837,0.107,-23.382,-41.328,30.771,50.0,121.0
315641,0.366,0.881,0.131,-33.221,-24.374,21.626,50.0,122.0
315725,0.395,0.833,0.219,-36.847,-16.260,8.489,117.0,124.0
315810,0.430,0.601,0.352,-12.183,-24.649,-31.092,116.0,123.0
315893,0.225,1.119,0.082,63.290,-10.824,-47.038,117.0,90.0
315976,0.313,1.100,0.117,-1.748,5.389,0.901,118.0,88.0
316058,0.338,0.969,0.247,19.427,5.733,4.298,57.0,118.0
316142,0.304,0.964,0.186,7.397,9.969,3.176,119.0,118.0
316227,0.269,0.931,0.091,17.618,20.206,-2.084,120.0,117.0
316315,0.247,0.871,0.005,30.176,33.046,-13.672,120.0,117.0
316396,0.235,0.802,-0.088,71.405,53.153,-27.809,58.0,114.0
316477,0.168,1.091,-0.186,89.687,79.466,-39.893,57.0,111.0
316560,0.141,1.051,-0.105,56.702,79.427,-32.840,127.0,79.0
316645,0.095,1.134,-0.203,63.679,103.527,-28.466,129.0,107.0
316730,0.018,1.120,-0.223,15.573,109.099,-21.718,130.0,106.0
316815,0.057,1.023,-0.123,4.069,83.611,8.763,130.0,106.0
316899,0.139,1.071,-0.130,-3.000,62.511,33.847,130.0,106.0
316987,0.168,1.092,-0.148,-17.412,53.702,49.725,129.0,108.0
317072,0.328,0.993,-0.150,-10.389,40.237,56.672,127.0,110.0
317157,0.351,0.942,-0.118,-4.405,43.145,70.931,125.0,113.0
317242,0.284,0.961,-0.124,-1.351,38.473,58.771,124.0,116.0
317327,0.319,0.779,-0.045,1.412,20.527,24.450,123.0,119.0
317412,0.461,0.672,-0.017,33.374,8.084,-29.221,123.0,117.0
317497,0.382,1.076,-0.193,13.298,3.244,-29.786,124.0,115.0
317582,0.498,0.962,-0.059,8.038,3.282,-1.046,125.0,115.0
317667,0.480,0.919,-0.063,1.893,1.481,-2.634,125.0,114.0
317764,0.417,0.906,-0.104,0.244,2.282,-12.076,125.0,114.0
317851,0.379,0.921,-0.149,7.573,-2.107,-20.420,125.0,114.0
317939,0.350,0.938,-0.168,15.939,2.740,-32.397,126.0,113.0
318026,0.337,0.992,-0.181,13.008,21.611,-52.458,126.0,112.0
318113,0.263,0.973,-0.145,-2.008,39.290,-58.366,126.0,111.0
318199,0.190,0.971,-0.115,-6.084,37.496,-59.160,127.0,79.0
318286,0.150,0.963,-0.101,7.366,24.878,-42.183,127.0,109.0
318374,0.113,0.994,-0.166,6.344,21.122,-31.992,128.0,108.0
318461,0.064,0.945,-0.164,3.511,34.565,-27.878,128.0,108.0
318553,0.006,0.957,-0.221,15.885,69.420,-46.328,130.0,106.0
318638,-0.078,0.883,-0.152,-9.466,73.641,-58.824,131.0,76.0
318724,-0.070,0.644,0.005,10.176,25.656,-109.824,135.0,72.0
318812,-0.669,1.470,-0.540,29.374,8.710,-46.321,141.0,98.0
318894,-0.404,0.907,-0.177,-24.794,-7.473,32.939,50.0,99.0
318976,-0.383,0.919,-0.206,8.168,-44.351,38.244,47.0,99.0
319064,-0.373,0.918,-0.224,6.153,-71.366,39.718,137.0,100.0
319145,-0.350,0.921,-0.249,9.840,-92.786,29.137,44.0,101.0
319232,-0.367,0.897,-0.258,7.351,-114.733,17.817,50.0,101.0
319314,-0.390,0.877,-0.244,18.863,-143.351,12.679,46.0,101.0
319396,-0.433,0.982,-0.201,15.321,-187.450,13.641,50.0,101.0
319479,-0.413,1.091,-0.153,14.130,-224.947,30.237,51.0,102.0
319562,-0.249,1.164,-0.197,23.427,-231.038,58.557,53.0,104.0
319646,-0.068,1.315,-0.362,-66.450,-186.405,97.748,57.0,108.0
319730,0.115,0.891,-0.238,-88.084,-141.519,96.069,51.0,114.0
319813,0.290,0.821,-0.174,-56.397,-94.763,88.710,49.0,118.0
319900,0.452,0.667,0.012,-30.130,-54.412,57.397,47.0,123.0
319988,0.561,0.689,0.151,-6.206,-18.924,14.275,118.0,124.0
320076,0.650,0.549,0.383,5.374,-12.710,-41.031,119.0,121.0
320163,0.292,1.276,0.149,83.756,-14.328,-46.931,120.0,117.0
320251,0.472,1.021,0.119,-32.069,-1.305,20.924,121.0,117.0
320338,0.461,0.779,0.167,4.595,4.466,8.481,120.0,118.0
320427,0.438,0.875,0.055,12.374,20.267,-12.832,120.0,117.0
320510,0.398,0.847,0.031,24.359,39.008,-26.382,58.0,116.0
320594,0.342,0.856,0.058,21.824,56.038,-52.389,58.0,114.0
320683,0.263,0.843,-0.006,31.740,83.076,-67.542,125.0,81.0
320766,0.000,0.899,-0.090,46.466,103.817,-90.473,51.0,106.0
320854,-0.162,1.140,-0.278,31.298,128.458,-92.641,134.0,102.0
320940,-0.247,1.157,-0.300,5.267,164.733,-50.031,138.0,68.0
321022,-0.263,1.122,-0.205,1.954,162.374,2.359,51.0,98.0
321105,-0.248,1.176,-0.211,-10.557,141.122,34.221,50.0,98.0
321188,-0.200,1.125,-0.122,-10.176,95.908,73.969,58.0,101.0
321271,-0.130,1.090,-0.118,-26.710,50.916,105.588,58.0,104.0
321362,0.042,0.981,-0.154,-18.397,20.779,113.397,128.0,109.0
321446,0.223,0.849,-0.142,-38.000,11.435,85.443,43.0,114.0
321533,0.322,0.646,-0.033,-14.870,-8.000,26.122,124.0,116.0
321622,0.395,0.625,0.059,-15.244,-30.237,-79.435,125.0,113.0
321704,0.412,1.291,-0.146,-4.672,-8.069,4.687,38.0,111.0
321793,0.378,0.823,0.065,-2.328,-5.863,-3.466,127.0,111.0
321881,0.326,1.016,-0.040,2.534,-15.870,-12.321,127.0,110.0
321968,0.285,0.989,-0.062,8.427,-12.405,-9.313,128.0,110.0
322051,0.220,0.900,-0.072,5.244,-12.275,-32.275,40.0,109.0
322138,0.127,0.965,-0.110,32.206,-13.130,-60.359,52.0,108.0
322221,0.027,1.113,-0.138,20.076,-25.275,-62.908,45.0,106.0
322304,0.025,1.185,-0.065,-0.130,-41.695,-37.931,45.0,105.0
322386,0.033,1.166,0.008,-35.733,-58.916,-14.840,51.0,106.0
322468,0.047,1.135,0.000,-55.977,-64.282,7.832,46.0,72.0
322554,0.049,1.083,-0.013,-78.634,-63.298,30.260,126.0,80.0
