Timestamp(ms),AccelX(g),AccelY(g),AccelZ(g),GyroX(deg/s),GyroY(deg/s),GyroZ(deg/s),DistanceLeft(cm),DistanceRight(cm)
210509,-0.331,0.229,0.745,83.672,45.015,-29.977,0.0,102.0
210597,-0.461,0.313,0.653,175.206,76.191,-45.527,0.0,106.0
210688,-0.642,0.428,0.649,142.275,79.389,-55.985,0.0,126.0
210776,-0.753,0.575,0.336,189.855,53.229,-64.313,192.0,99.0
210863,-0.829,0.742,-0.013,213.145,33.557,-33.550,131.0,151.0
210950,-0.775,0.860,-0.050,77.244,-12.504,-52.450,133.0,148.0
211041,-0.837,0.655,-0.046,-2.786,-3.473,-63.321,134.0,0.0
211134,-0.929,0.521,-0.062,4.443,3.924,-42.260,135.0,0.0
211224,-0.949,0.460,-0.039,-12.847,5.588,-18.443,135.0,0.0
211315,-0.906,0.346,-0.038,9.550,7.344,3.122,135.0,0.0
211405,-0.902,0.432,-0.104,-0.046,0.573,1.237,135.0,0.0
211495,-0.897,0.332,-0.059,-13.412,2.542,-2.565,134.0,0.0
211587,-0.909,0.391,-0.057,-13.252,1.565,-1.053,134.0,0.0
211677,-0.926,0.384,-0.064,-5.809,1.115,0.695,134.0,0.0
211767,-0.908,0.351,-0.046,2.420,-2.450,-2.122,134.0,0.0
211864,-0.920,0.368,-0.059,-4.344,-2.374,-3.366,135.0,0.0
211956,-0.910,0.383,-0.056,-7.107,-2.389,-1.687,134.0,0.0
212045,-0.914,0.365,-0.052,-2.962,-2.954,-3.725,135.0,0.0
212135,-0.917,0.373,-0.058,-2.412,-1.374,-0.580,135.0,0.0
212225,-0.928,0.344,-0.042,-1.015,-1.405,2.382,135.0,0.0
212315,-0.907,0.370,-0.042,-3.977,-1.298,2.542,135.0,0.0
212404,-0.921,0.363,-0.029,-12.931,-1.099,-1.458,135.0,0.0
212493,-0.924,0.378,-0.029,-6.275,-0.794,-1.641,135.0,0.0
212583,-0.925,0.346,-0.026,-11.221,-0.695,-0.252,135.0,0.0
212675,-0.914,0.367,-0.041,-1.824,-1.267,1.756,135.0,0.0
212765,-0.920,0.333,-0.019,0.168,-0.573,3.084,134.0,0.0
212854,-0.929,0.371,-0.037,2.076,-1.802,2.992,135.0,0.0
212943,-0.914,0.353,-0.029,-4.924,-0.534,-0.344,135.0,0.0
213033,-0.918,0.359,-0.024,1.656,-0.893,1.687,134.0,0.0
213123,-0.921,0.332,-0.018,15.328,0.099,1.824,135.0,0.0
213213,-0.927,0.376,-0.047,0.397,-1.244,-0.366,135.0,0.0
213302,-0.926,0.362,-0.039,-4.863,-0.763,1.061,135.0,0.0
213392,-0.926,0.354,-0.032,-0.511,-0.053,0.847,135.0,0.0
213484,-0.926,0.366,-0.043,-0.695,-1.664,2.534,135.0,0.0
213573,-0.913,0.346,-0.030,2.053,-1.359,1.496,135.0,0.0
213663,-0.922,0.351,-0.032,-2.229,-1.473,-1.000,135.0,0.0
213753,-0.921,0.371,-0.044,-0.252,-0.679,0.557,135.0,0.0
213842,-0.922,0.347,-0.031,0.374,-0.534,0.702,135.0,0.0
213933,-0.918,0.372,-0.050,-1.397,-1.229,0.763,135.0,0.0
214022,-0.927,0.341,-0.025,1.397,-0.443,1.183,135.0,0.0
214112,-0.913,0.359,-0.042,-6.443,-0.771,-0.878,135.0,0.0
214201,-0.920,0.375,-0.047,-0.786,-1.107,2.344,135.0,0.0
214294,-0.923,0.336,-0.027,-2.710,-0.802,2.420,135.0,0.0
214383,-0.924,0.341,-0.025,5.786,-0.519,2.031,135.0,0.0
214473,-0.923,0.368,-0.031,-6.267,-0.863,-0.565,135.0,0.0
214563,-0.918,0.377,-0.045,1.794,-1.115,1.031,135.0,0.0
214652,-0.930,0.349,-0.027,-0.962,-0.931,0.267,135.0,0.0
214743,-0.922,0.347,-0.041,-0.687,-1.023,1.908,135.0,0.0
214832,-0.916,0.362,-0.043,-2.366,-0.855,1.786,135.0,0.0
214922,-0.918,0.353,-0.042,1.573,-1.000,1.672,135.0,0.0
215012,-0.919,0.348,-0.033,0.336,-0.733,0.924,135.0,0.0
215104,-0.918,0.366,-0.046,-2.389,-1.145,0.229,135.0,0.0
215194,-0.916,0.361,-0.039,-1.061,-1.122,0.153,136.0,0.0
215284,-0.925,0.349,-0.032,0.817,-0.710,0.878,136.0,0.0
215374,-0.910,0.359,-0.040,-4.557,-0.321,1.489,136.0,0.0
215463,-0.919,0.363,-0.033,0.969,-0.939,1.267,135.0,0.0
215554,-0.930,0.343,-0.030,-0.954,-0.573,2.458,136.0,0.0
215644,-0.916,0.380,-0.037,-4.099,-0.107,1.450,136.0,0.0
215734,-0.923,0.346,-0.024,0.962,-0.893,0.466,136.0,0.0
215823,-0.924,0.350,-0.036,-2.779,-0.870,-0.092,136.0,0.0
215916,-0.925,0.370,-0.046,-1.565,-0.450,1.107,136.0,0.0
216006,-0.929,0.358,-0.035,-0.679,-0.679,0.718,136.0,0.0
216096,-0.919,0.350,-0.034,-3.366,-0.282,0.481,136.0,0.0
216181,-0.927,0.361,-0.042,-1.000,-1.153,1.313,51.0,0.0
216266,-0.935,0.354,-0.043,0.382,-1.580,0.763,51.0,0.0
216356,-0.921,0.361,-0.034,-2.809,-1.489,0.153,136.0,0.0
216446,-0.924,0.367,-0.052,-1.695,-1.802,0.366,136.0,0.0
216536,-0.923,0.350,-0.039,-5.893,-0.397,0.794,136.0,0.0
216626,-0.920,0.352,-0.026,-2.282,-0.435,1.809,136.0,0.0
216719,-0.919,0.364,-0.021,-2.466,-1.153,0.809,136.0,0.0
216809,-0.920,0.351,-0.029,0.046,-1.267,0.977,136.0,0.0
216899,-0.920,0.360,-0.034,-1.328,-1.298,-0.260,136.0,0.0
216989,-0.928,0.352,-0.031,-2.924,-1.191,0.725,136.0,0.0
217079,-0.920,0.358,-0.029,-1.969,-0.595,2.527,136.0,0.0
217169,-0.926,0.341,-0.024,-1.794,-1.206,1.336,136.0,0.0
217260,-0.927,0.347,-0.027,-1.328,-1.351,0.450,136.0,0.0
217349,-0.920,0.355,-0.029,-1.603,-0.427,-0.718,136.0,0.0
217439,-0.921,0.349,-0.031,-0.031,-0.740,0.168,136.0,0.0
217532,-0.928,0.359,-0.028,-1.046,-0.328,0.618,136.0,0.0
217622,-0.916,0.350,-0.029,0.267,-1.221,0.687,136.0,0.0
217712,-0.919,0.357,-0.030,-1.939,0.420,2.137,136.0,0.0
217802,-0.922,0.347,-0.025,1.511,-0.962,0.328,136.0,0.0
217892,-0.929,0.338,-0.026,-1.527,-0.878,0.115,136.0,0.0
217982,-0.919,0.356,-0.036,-1.321,-1.542,-0.588,136.0,0.0
218073,-0.934,0.351,-0.028,-0.550,-1.008,0.366,136.0,0.0
218163,-0.937,0.348,-0.029,-1.901,-0.824,1.412,136.0,0.0
218256,-0.926,0.352,-0.031,-2.580,-0.710,2.405,135.0,0.0
218346,-0.919,0.353,-0.031,-2.267,-0.649,2.305,135.0,0.0
218436,-0.923,0.348,-0.027,-0.137,-0.870,1.626,135.0,0.0
218526,-0.925,0.352,-0.020,-1.802,-0.771,2.412,135.0,0.0
218617,-0.922,0.357,-0.026,-1.779,-0.198,2.740,135.0,0.0
218707,-0.925,0.336,-0.021,-1.374,-1.008,1.214,135.0,0.0
218798,-0.921,0.350,-0.024,-3.015,-0.504,0.069,135.0,0.0
218888,-0.930,0.352,-0.029,-1.321,-0.328,0.321,135.0,0.0
218978,-0.931,0.354,-0.031,-0.481,-0.985,-0.809,135.0,0.0
219071,-0.929,0.361,-0.033,-1.954,-1.336,0.282,135.0,0.0
219161,-0.932,0.347,-0.024,-2.573,-1.718,-0.183,135.0,0.0
219251,-0.921,0.352,-0.023,-0.046,-2.008,0.664,134.0,0.0
219341,-0.930,0.347,-0.021,0.145,-1.321,0.878,134.0,0.0
219431,-0.932,0.342,-0.017,-1.893,-1.176,0.924,134.0,0.0
219522,-0.922,0.346,-0.027,-0.206,-0.847,2.015,134.0,0.0
219613,-0.929,0.324,-0.028,0.244,-1.260,-0.244,134.0,0.0
219703,-0.932,0.348,-0.021,-3.809,-0.427,-1.160,134.0,0.0
219803,-0.930,0.356,-0.021,-1.328,-0.733,-0.351,134.0,0.0
219891,-0.929,0.347,-0.022,-0.405,-0.924,0.580,134.0,129.0
219981,-0.922,0.343,-0.020,-2.061,-0.756,2.031,134.0,0.0
220071,-0.935,0.338,-0.028,-0.687,-0.733,2.313,134.0,0.0
220161,-0.922,0.338,-0.021,-1.771,-0.168,2.229,134.0,0.0
220251,-0.926,0.344,-0.024,0.031,-0.588,1.885,134.0,0.0
220341,-0.932,0.336,-0.019,-0.252,-0.924,1.282,134.0,0.0
220430,-0.926,0.342,-0.033,-0.855,-1.053,0.832,135.0,0.0
220516,-0.932,0.341,-0.031,-0.229,-0.954,0.656,134.0,129.0
220602,-0.917,0.353,-0.027,-0.504,-0.275,0.099,135.0,129.0
220690,-0.928,0.342,-0.032,0.412,-0.038,0.076,135.0,128.0
220776,-0.929,0.349,-0.028,-1.237,-0.229,0.908,135.0,128.0
220865,-0.932,0.351,-0.026,1.275,-1.336,0.107,135.0,0.0
220955,-0.919,0.342,-0.026,-1.626,-0.901,1.061,135.0,0.0
221045,-0.924,0.355,-0.041,-2.130,-0.305,0.924,135.0,0.0
221134,-0.926,0.346,-0.037,0.053,-0.634,1.237,135.0,0.0
221224,-0.928,0.351,-0.029,-1.305,-0.641,0.878,135.0,0.0
221315,-0.928,0.351,-0.035,-1.397,-0.634,2.634,135.0,0.0
221405,-0.932,0.346,-0.030,-0.893,-0.847,1.931,135.0,0.0
221497,-0.923,0.341,-0.027,-2.679,-0.527,0.756,135.0,0.0
221583,-0.926,0.355,-0.036,-1.038,-0.458,1.008,135.0,128.0
221673,-0.922,0.347,-0.034,-0.763,-0.710,1.427,135.0,0.0
221763,-0.917,0.354,-0.020,-2.420,-1.061,2.076,135.0,0.0
221852,-0.922,0.350,-0.043,-1.802,-1.328,1.924,135.0,0.0
221942,-0.917,0.346,-0.040,-0.420,-1.061,1.557,135.0,0.0
222032,-0.922,0.344,-0.031,-2.153,-0.557,1.244,135.0,0.0
222123,-0.929,0.354,-0.034,-1.634,-0.527,0.916,135.0,0.0
222216,-0.924,0.346,-0.034,-0.214,-0.527,0.519,135.0,0.0
222301,-0.929,0.349,-0.031,-0.931,-0.725,0.679,135.0,129.0
222391,-0.924,0.344,-0.029,-1.420,-0.557,0.847,135.0,0.0
222477,-0.925,0.346,-0.039,-0.198,-0.527,0.435,135.0,128.0
222567,-0.928,0.340,-0.023,-1.847,-0.206,-0.939,135.0,0.0
222653,-0.932,0.353,-0.024,-0.641,-0.359,0.649,135.0,128.0
222743,-0.935,0.343,-0.026,0.107,-1.046,0.405,135.0,0.0
222833,-0.921,0.339,-0.036,-1.153,-1.130,1.336,135.0,0.0
222923,-0.931,0.342,-0.036,-0.763,-0.947,1.977,135.0,0.0
223016,-0.921,0.344,-0.027,-0.511,-1.168,1.863,135.0,0.0
223107,-0.927,0.340,-0.032,-0.832,-0.939,1.046,135.0,0.0
223197,-0.917,0.349,-0.027,-1.588,-0.420,0.611,135.0,0.0
223287,-0.921,0.354,-0.041,0.107,-0.840,0.985,135.0,0.0
223377,-0.931,0.342,-0.031,-1.076,-1.092,-0.427,135.0,0.0
223467,-0.923,0.354,-0.032,-2.840,-0.641,0.176,135.0,0.0
223557,-0.930,0.351,-0.033,-0.214,-0.863,0.962,135.0,0.0
223647,-0.927,0.342,-0.026,-0.870,-1.176,1.275,136.0,0.0
223737,-0.926,0.337,-0.035,-2.244,-1.061,1.649,135.0,0.0
223831,-0.933,0.342,-0.035,-1.458,-0.893,-0.099,135.0,0.0
223921,-0.924,0.335,-0.029,-1.061,-0.679,1.160,135.0,0.0
224011,-0.926,0.342,-0.036,-1.893,-0.557,0.145,135.0,0.0
224101,-0.924,0.346,-0.028,-2.282,-0.824,0.450,135.0,0.0
224191,-0.928,0.355,-0.034,-2.206,-0.695,1.290,135.0,0.0
224281,-0.930,0.343,-0.031,-1.038,-0.885,1.916,135.0,0.0
224371,-0.934,0.327,-0.028,-2.031,-0.649,1.122,135.0,0.0
224461,-0.929,0.341,-0.039,-2.405,-0.534,-0.267,135.0,0.0
224551,-0.923,0.343,-0.027,-2.046,-0.634,1.160,135.0,0.0
224645,-0.926,0.345,-0.037,-1.450,-1.206,1.786,135.0,0.0
224735,-0.927,0.333,-0.029,-1.321,-0.931,1.359,135.0,0.0
224826,-0.928,0.356,-0.036,-1.954,-0.557,1.840,135.0,0.0
224916,-0.925,0.349,-0.029,-0.542,-1.031,3.557,135.0,0.0
225006,-0.931,0.338,-0.031,-2.679,-0.679,2.939,134.0,0.0
225096,-0.926,0.344,-0.033,-0.969,-1.244,1.053,135.0,0.0
225186,-0.934,0.351,-0.030,-0.687,-1.702,0.145,134.0,0.0
225276,-0.933,0.354,-0.022,-2.282,-1.115,-0.084,134.0,0.0
225367,-0.921,0.360,-0.033,-1.382,-0.855,0.756,135.0,0.0
225460,-0.925,0.358,-0.030,-0.214,-0.519,2.672,134.0,0.0
225551,-0.933,0.344,-0.028,-2.191,-0.260,2.466,135.0,0.0
225641,-0.930,0.343,-0.031,-1.847,-1.229,0.450,134.0,0.0
225731,-0.927,0.351,-0.032,-1.420,-1.679,0.023,134.0,0.0
225821,-0.924,0.359,-0.041,0.313,-0.847,1.695,135.0,0.0
225911,-0.931,0.341,-0.035,1.092,-0.718,1.412,135.0,0.0
226001,-0.927,0.344,-0.030,-2.534,0.122,0.221,135.0,0.0
226093,-0.919,0.360,-0.035,-0.481,-0.626,1.328,135.0,0.0
226186,-0.935,0.349,-0.031,0.565,-0.985,0.870,135.0,0.0
226276,-0.922,0.353,-0.039,-1.466,-0.779,-0.679,135.0,0.0
226366,-0.925,0.363,-0.038,-0.779,-0.244,0.840,135.0,0.0
226457,-0.935,0.349,-0.025,-0.687,-0.183,2.412,135.0,0.0
226547,-0.929,0.338,-0.034,-0.214,-1.168,1.779,135.0,0.0
226637,-0.923,0.335,-0.019,-1.374,-1.649,1.130,135.0,0.0
226727,-0.932,0.347,-0.034,-2.122,-1.374,0.725,135.0,0.0
226819,-0.931,0.338,-0.030,-1.038,-1.359,0.260,135.0,0.0
226909,-0.932,0.345,-0.023,-1.298,-0.634,0.519,135.0,0.0
227002,-0.927,0.343,-0.023,-0.282,-1.000,0.496,135.0,0.0
227093,-0.924,0.346,-0.030,-3.260,-0.664,0.244,135.0,0.0
227183,-0.920,0.351,-0.037,0.985,-0.710,0.122,135.0,0.0
227269,-0.927,0.344,-0.020,-1.084,-0.176,0.550,135.0,128.0
227360,-0.928,0.349,-0.032,-1.863,-0.321,1.031,135.0,0.0
227446,-0.925,0.345,-0.021,-0.870,-0.931,1.802,135.0,129.0
227533,-0.923,0.347,-0.030,-1.595,-0.878,2.588,135.0,128.0
227623,-0.928,0.342,-0.036,-1.824,0.214,1.916,135.0,0.0
227715,-0.920,0.348,-0.031,-1.092,-0.427,1.748,135.0,0.0
227808,-0.923,0.347,-0.023,-1.649,-0.565,0.924,135.0,0.0
227898,-0.924,0.348,-0.025,-1.557,-0.878,1.878,135.0,0.0
227989,-0.929,0.345,-0.037,-2.221,-0.397,1.618,135.0,0.0
228079,-0.927,0.346,-0.034,-2.542,-0.115,0.893,134.0,0.0
228170,-0.928,0.357,-0.026,-1.847,-0.260,1.458,135.0,0.0
228260,-0.934,0.347,-0.032,0.160,-1.237,1.221,135.0,0.0
228352,-0.926,0.339,-0.025,0.160,-1.916,1.168,135.0,0.0
228442,-0.922,0.344,-0.036,-2.473,-1.198,0.427,135.0,0.0
228533,-0.927,0.342,-0.044,0.947,-1.130,-0.092,135.0,0.0
228626,-0.922,0.343,-0.025,-0.046,-0.473,0.595,135.0,0.0
228717,-0.931,0.352,-0.020,-0.870,-0.916,0.534,135.0,0.0
228808,-0.923,0.350,-0.028,0.115,-1.718,1.695,135.0,0.0
228898,-0.931,0.341,-0.034,-0.313,-1.176,1.420,135.0,0.0
228989,-0.929,0.338,-0.038,-0.962,-0.985,-0.282,135.0,0.0
229080,-0.929,0.354,-0.036,-2.198,-0.275,-0.244,135.0,0.0
229171,-0.926,0.353,-0.023,-0.710,-0.427,0.198,135.0,0.0
229258,-0.920,0.350,-0.030,-0.145,-0.649,1.794,135.0,128.0
229344,-0.935,0.347,-0.037,-1.557,-0.588,2.176,135.0,128.0
229438,-0.924,0.344,-0.030,0.153,-0.847,1.893,135.0,0.0
229529,-0.926,0.339,-0.033,-2.733,0.023,2.092,135.0,0.0
229620,-0.926,0.346,-0.031,-1.061,-0.702,0.176,135.0,0.0
229710,-0.932,0.336,-0.024,-1.702,-0.969,0.847,135.0,0.0
229801,-0.927,0.357,-0.032,-1.504,-1.626,0.305,135.0,0.0
229888,-0.921,0.343,-0.033,0.702,-1.427,1.061,135.0,128.0
229975,-0.931,0.338,-0.033,0.000,-1.122,0.061,135.0,128.0
230066,-0.920,0.345,-0.037,-1.183,-0.626,0.458,135.0,0.0
230160,-0.930,0.350,-0.032,-1.351,-0.084,1.450,135.0,0.0
230250,-0.927,0.347,-0.023,-1.756,-0.374,1.198,135.0,0.0
230337,-0.921,0.349,-0.040,-0.763,-0.939,1.870,135.0,128.0
230428,-0.927,0.349,-0.038,-1.687,-0.344,0.832,135.0,0.0
230519,-0.921,0.361,-0.033,-1.901,0.229,1.611,135.0,0.0
230609,-0.925,0.357,-0.032,-2.382,-0.160,2.481,135.0,0.0
230701,-0.927,0.348,-0.032,-1.496,-0.969,1.809,135.0,0.0
230792,-0.922,0.351,-0.045,-1.824,-0.824,1.908,135.0,0.0
230883,-0.925,0.348,-0.029,-1.634,-1.542,1.496,135.0,0.0
230977,-0.934,0.346,-0.032,-1.626,-1.504,0.656,135.0,0.0
231068,-0.918,0.346,-0.039,-2.771,-1.214,-0.344,135.0,0.0
231158,-0.928,0.351,-0.034,-0.626,-0.611,0.748,134.0,0.0
231256,-0.927,0.340,-0.024,0.779,-1.145,-0.336,135.0,0.0
231346,-0.927,0.346,-0.038,-1.565,-0.809,0.221,135.0,0.0
231436,-0.927,0.348,-0.035,0.580,-1.313,-0.130,135.0,0.0
231525,-0.933,0.341,-0.027,0.458,-1.397,1.412,135.0,0.0
231615,-0.927,0.337,-0.030,-0.527,-1.885,-0.115,135.0,0.0
231705,-0.922,0.347,-0.034,-0.977,-1.511,0.618,135.0,0.0
231797,-0.923,0.340,-0.025,-0.550,-0.878,1.282,135.0,0.0
231887,-0.921,0.339,-0.035,-2.183,-0.893,1.053,135.0,0.0
231977,-0.917,0.347,-0.029,-1.206,-0.672,0.870,135.0,0.0
232067,-0.923,0.338,-0.024,0.198,-0.305,1.542,135.0,0.0
232157,-0.921,0.327,-0.030,0.573,-0.832,1.695,135.0,0.0
232247,-0.930,0.344,-0.021,-1.885,-0.069,0.985,135.0,0.0
232337,-0.930,0.346,-0.028,-0.672,-0.351,1.145,135.0,0.0
232422,-0.933,0.339,-0.033,-0.565,-0.359,2.092,135.0,128.0
232512,-0.923,0.351,-0.029,-0.672,-0.725,1.183,135.0,0.0
232605,-0.926,0.348,-0.028,0.130,-0.840,0.618,135.0,0.0
232695,-0.932,0.359,-0.024,-1.687,-0.183,0.901,136.0,0.0
232784,-0.926,0.356,-0.035,-1.542,-1.145,1.931,135.0,0.0
232875,-0.928,0.342,-0.035,-1.939,-1.557,2.374,135.0,0.0
232965,-0.920,0.354,-0.048,-2.092,-0.740,0.885,135.0,0.0
233055,-0.928,0.341,-0.033,0.947,-0.382,1.023,135.0,0.0
233145,-0.925,0.342,-0.038,-1.489,0.176,0.511,136.0,0.0
233234,-0.926,0.345,-0.032,-2.122,0.282,0.863,135.0,0.0
233324,-0.934,0.347,-0.031,-0.916,-0.794,0.832,135.0,0.0
233417,-0.923,0.342,-0.033,-0.733,-1.458,0.725,136.0,0.0
233507,-0.927,0.345,-0.032,-3.053,-1.344,0.489,135.0,0.0
233597,-0.922,0.348,-0.046,-1.412,-1.366,1.038,135.0,0.0
233688,-0.923,0.344,-0.043,-1.649,-0.618,1.756,135.0,0.0
233778,-0.932,0.350,-0.036,-2.053,-0.313,2.122,135.0,0.0
233868,-0.930,0.337,-0.030,-3.038,0.191,1.740,135.0,0.0
233958,-0.924,0.352,-0.026,-1.290,-0.786,1.420,135.0,0.0
234048,-0.930,0.336,-0.039,0.832,-1.359,0.740,135.0,0.0
234137,-0.922,0.338,-0.041,-1.519,-0.313,0.649,135.0,0.0
234230,-0.925,0.343,-0.039,0.244,0.145,1.038,135.0,0.0
234320,-0.931,0.342,-0.027,1.687,-0.718,-0.237,135.0,0.0
234411,-0.923,0.343,-0.032,-0.908,-0.779,0.664,135.0,0.0
234501,-0.921,0.340,-0.038,0.084,-1.496,0.580,135.0,0.0
234591,-0.930,0.341,-0.030,-0.412,-1.740,-0.298,135.0,0.0
234681,-0.927,0.337,-0.036,-0.985,-1.214,1.130,135.0,0.0
234771,-0.923,0.341,-0.036,-2.145,-1.122,0.863,135.0,0.0
234861,-0.925,0.344,-0.033,-2.153,-0.481,1.176,135.0,0.0
234951,-0.930,0.344,-0.028,0.099,-0.557,1.565,135.0,0.0
235044,-0.921,0.326,-0.026,-0.267,-1.183,1.069,135.0,0.0
235134,-0.924,0.347,-0.025,-1.695,-0.802,1.595,135.0,0.0
235225,-0.924,0.334,-0.033,-0.824,-1.374,0.992,135.0,0.0
235315,-0.925,0.334,-0.032,-1.985,-0.740,1.626,135.0,0.0
235405,-0.925,0.343,-0.033,-0.397,-0.924,0.351,135.0,0.0
235495,-0.922,0.335,-0.029,-1.473,-1.023,0.985,135.0,0.0
235585,-0.930,0.354,-0.042,-1.809,-1.076,0.779,135.0,0.0
235675,-0.919,0.332,-0.034,-0.939,-0.443,1.939,135.0,0.0
235768,-0.930,0.328,-0.034,-1.084,-0.359,0.649,135.0,0.0
235859,-0.930,0.336,-0.024,-1.740,-0.260,-0.611,135.0,0.0
235950,-0.930,0.334,-0.034,-1.191,-1.023,1.847,135.0,0.0
236040,-0.934,0.346,-0.044,-0.176,-1.550,0.847,135.0,0.0
236130,-0.928,0.334,-0.026,0.099,-1.191,2.015,135.0,0.0
236220,-0.930,0.343,-0.037,-1.107,-0.695,1.115,135.0,0.0
236310,-0.923,0.340,-0.039,-0.099,-0.504,1.725,135.0,0.0
236400,-0.935,0.333,-0.032,-0.817,-0.870,0.672,135.0,0.0
236491,-0.925,0.340,-0.032,-1.107,-1.053,0.595,135.0,0.0
236584,-0.938,0.339,-0.031,-1.710,-1.160,1.015,135.0,0.0
236675,-0.930,0.354,-0.040,-1.985,-0.855,-0.015,135.0,0.0
236765,-0.918,0.348,-0.035,-0.618,-0.145,2.084,135.0,0.0
236856,-0.934,0.336,-0.033,-1.702,-0.427,2.076,135.0,0.0
236946,-0.920,0.334,-0.035,-1.924,-1.053,1.550,135.0,0.0
237036,-0.927,0.340,-0.034,-0.992,-1.267,1.405,135.0,0.0
237126,-0.914,0.350,-0.036,-1.466,-0.992,1.000,135.0,0.0
237216,-0.925,0.349,-0.037,-1.634,-0.008,2.855,135.0,0.0
237307,-0.924,0.343,-0.044,-1.328,-0.557,1.595,134.0,0.0
237401,-0.924,0.338,-0.035,-0.412,-0.702,0.962,134.0,0.0
237491,-0.930,0.333,-0.020,-1.489,-0.756,0.656,134.0,0.0
237582,-0.935,0.340,-0.025,-1.260,-1.519,-0.542,134.0,0.0
237672,-0.928,0.346,-0.031,-0.214,-0.992,-0.168,134.0,0.0
237762,-0.930,0.337,-0.033,-0.176,-1.099,-0.206,134.0,0.0
237853,-0.922,0.332,-0.024,-0.634,-1.145,0.595,134.0,0.0
237943,-0.930,0.344,-0.040,-0.321,-1.328,-0.282,135.0,0.0
238033,-0.927,0.334,-0.033,0.092,-1.023,0.550,134.0,0.0
238125,-0.931,0.334,-0.038,-1.725,-0.412,1.405,134.0,0.0
238218,-0.933,0.341,-0.028,-0.076,-1.008,0.634,135.0,0.0
238308,-0.930,0.329,-0.029,-1.206,-1.160,0.947,134.0,0.0
238399,-0.928,0.343,-0.037,-1.015,-0.794,1.191,134.0,0.0
238489,-0.927,0.332,-0.028,-0.672,-1.015,1.786,134.0,0.0
238579,-0.938,0.329,-0.034,0.015,-1.359,-0.588,134.0,0.0
238670,-0.929,0.328,-0.023,-1.618,-0.908,0.130,134.0,0.0
238760,-0.933,0.349,-0.037,-2.473,-0.397,1.267,134.0,0.0
238851,-0.928,0.333,-0.034,-0.382,-1.092,1.061,134.0,0.0
238942,-0.933,0.330,-0.030,-2.282,-0.611,2.481,134.0,0.0
239035,-0.929,0.333,-0.035,-1.321,-0.496,0.679,134.0,0.0
239126,-0.927,0.324,-0.029,0.000,-0.809,0.763,134.0,0.0
239216,-0.929,0.330,-0.034,-1.275,-0.481,0.038,134.0,0.0
239306,-0.924,0.336,-0.029,-1.031,-0.214,0.031,134.0,0.0
239397,-0.934,0.346,-0.034,-1.656,-0.176,2.000,134.0,0.0
239488,-0.934,0.336,-0.042,-2.053,-0.656,1.282,134.0,0.0
239579,-0.931,0.340,-0.029,-0.489,-1.237,1.527,134.0,0.0
239669,-0.928,0.324,-0.025,-1.145,-1.366,0.542,135.0,0.0
239763,-0.926,0.332,-0.035,-1.733,-1.168,1.863,134.0,0.0
239853,-0.936,0.336,-0.038,-1.885,-0.954,2.000,134.0,0.0
239944,-0.930,0.327,-0.033,-0.916,-0.748,1.702,134.0,0.0
240034,-0.925,0.335,-0.034,-1.947,0.130,1.664,135.0,0.0
240125,-0.926,0.337,-0.026,0.382,-1.176,0.313,134.0,0.0
240216,-0.924,0.348,-0.030,-0.145,-1.221,1.969,134.0,0.0
240307,-0.934,0.342,-0.031,-0.328,-1.092,2.939,134.0,0.0
240397,-0.919,0.346,-0.030,-1.481,-0.061,2.336,134.0,0.0
240488,-0.921,0.336,-0.035,1.084,-0.489,1.702,134.0,0.0
240582,-0.933,0.335,-0.032,-0.412,-0.237,-0.420,134.0,0.0
240672,-0.925,0.329,-0.030,-0.359,-0.832,0.198,134.0,0.0
240763,-0.933,0.343,-0.038,-0.374,-1.435,-0.550,135.0,0.0
240854,-0.912,0.341,-0.037,-0.015,-1.344,1.122,135.0,0.0
240945,-0.926,0.347,-0.042,-1.374,-0.603,2.290,135.0,0.0
241036,-0.919,0.345,-0.023,-1.641,-0.076,2.183,135.0,0.0
241126,-0.933,0.347,-0.031,-0.863,-0.344,2.092,135.0,0.0
241217,-0.926,0.345,-0.033,-0.718,-1.053,1.137,135.0,0.0
241308,-0.920,0.349,-0.039,-1.519,-0.534,1.313,134.0,0.0
241401,-0.931,0.339,-0.043,-1.168,-0.634,-0.107,135.0,0.0
241492,-0.926,0.337,-0.031,-1.206,-0.511,0.466,135.0,0.0
241584,-0.939,0.346,-0.038,-2.000,-0.275,1.298,135.0,0.0
241674,-0.926,0.350,-0.039,0.618,-1.153,1.000,135.0,0.0
241765,-0.927,0.343,-0.027,-0.504,-1.244,1.725,135.0,0.0
241856,-0.930,0.354,-0.046,-1.084,-0.802,0.969,135.0,0.0
241947,-0.920,0.348,-0.037,-0.679,-0.847,1.595,135.0,0.0
242037,-0.926,0.346,-0.035,-1.237,-0.794,0.954,135.0,0.0
242128,-0.929,0.341,-0.032,-1.504,-1.099,1.847,135.0,0.0
242223,-0.928,0.343,-0.041,-1.534,-0.550,0.878,135.0,0.0
242314,-0.922,0.342,-0.035,-1.725,-0.023,0.786,135.0,0.0
242405,-0.925,0.348,-0.040,-0.748,-0.061,0.115,135.0,0.0
242495,-0.929,0.344,-0.047,-0.443,0.015,0.473,135.0,0.0
242586,-0.925,0.348,-0.034,-2.840,-0.191,1.656,135.0,0.0
242677,-0.930,0.355,-0.036,-2.351,-0.855,1.191,135.0,0.0
242776,-0.922,0.348,-0.037,-2.137,-0.504,1.634,135.0,0.0
242865,-0.930,0.340,-0.029,-2.267,0.260,1.466,135.0,0.0
242955,-0.925,0.349,-0.038,-1.115,-0.626,1.649,135.0,0.0
243047,-0.929,0.346,-0.037,-0.695,-0.565,0.695,135.0,0.0
243137,-0.926,0.340,-0.028,-0.908,-1.336,1.092,135.0,0.0
243227,-0.922,0.342,-0.037,-1.252,-1.534,1.511,135.0,0.0
243316,-0.919,0.341,-0.044,2.221,-1.985,-0.084,135.0,0.0
243406,-0.929,0.331,-0.031,1.076,-1.427,0.008,135.0,0.0
243496,-0.923,0.355,-0.038,-2.031,-0.771,0.992,135.0,0.0
243587,-0.928,0.360,-0.031,0.176,-1.427,0.672,135.0,0.0
243676,-0.922,0.337,-0.036,-0.504,-1.282,1.412,135.0,0.0
243766,-0.928,0.340,-0.043,-1.939,-1.244,1.031,135.0,0.0
243859,-0.924,0.344,-0.040,-0.611,-0.832,1.282,135.0,0.0
243948,-0.927,0.343,-0.044,-0.290,-0.649,0.641,136.0,0.0
244038,-0.926,0.345,-0.037,-0.702,-0.702,2.130,136.0,0.0
244128,-0.922,0.348,-0.032,-1.115,-0.908,1.725,135.0,0.0
244218,-0.927,0.340,-0.041,0.939,-1.863,0.084,135.0,0.0
244307,-0.919,0.343,-0.030,-2.687,-0.527,0.176,135.0,0.0
244398,-0.930,0.357,-0.039,-2.160,-0.611,1.176,135.0,0.0
244488,-0.925,0.356,-0.041,-1.412,-0.840,1.252,135.0,0.0
244578,-0.920,0.344,-0.041,-1.252,-0.427,1.458,136.0,0.0
244671,-0.921,0.347,-0.037,-0.198,-0.412,0.557,136.0,0.0
244760,-0.927,0.345,-0.034,-0.031,-0.450,0.847,136.0,0.0
244850,-0.927,0.346,-0.042,-1.038,-0.374,0.420,135.0,0.0
244940,-0.929,0.351,-0.045,-0.695,-0.466,0.389,135.0,0.0
245030,-0.928,0.348,-0.042,0.748,-0.832,0.267,135.0,0.0
245121,-0.934,0.337,-0.034,0.313,-1.473,-0.145,135.0,0.0
245211,-0.930,0.339,-0.027,-3.076,-1.015,-0.076,135.0,0.0
245301,-0.927,0.353,-0.047,-2.603,-0.893,0.344,135.0,0.0
245394,-0.931,0.344,-0.041,-1.122,-0.534,0.282,135.0,0.0
245484,-0.922,0.332,-0.028,-1.229,-0.534,0.664,135.0,0.0
245574,-0.929,0.342,-0.042,-2.351,-1.000,0.634,135.0,0.0
245663,-0.928,0.338,-0.037,-1.710,-0.947,1.496,135.0,0.0
245753,-0.929,0.328,-0.028,-1.359,-1.954,1.206,135.0,0.0
245843,-0.926,0.344,-0.030,-1.534,-1.878,0.634,135.0,0.0
245934,-0.926,0.343,-0.037,-0.626,-1.511,1.977,135.0,0.0
246024,-0.926,0.331,-0.035,-2.084,-1.321,2.092,135.0,0.0
246114,-0.918,0.345,-0.041,-3.695,-0.168,1.916,135.0,0.0
246207,-0.930,0.350,-0.043,-1.473,-0.153,2.305,134.0,0.0
246297,-0.932,0.328,-0.037,-1.084,-0.687,1.053,134.0,0.0
246387,-0.931,0.340,-0.039,-2.275,-0.305,0.802,134.0,0.0
246477,-0.929,0.352,-0.045,-1.008,-0.756,0.069,134.0,0.0
246567,-0.927,0.336,-0.024,0.656,-1.237,1.145,134.0,0.0
246658,-0.933,0.333,-0.033,-1.740,-1.115,0.733,135.0,0.0
246748,-0.925,0.343,-0.034,-0.702,-1.336,0.901,135.0,0.0
246838,-0.926,0.341,-0.038,-0.511,-0.931,1.076,135.0,0.0
246928,-0.923,0.338,-0.030,-0.275,-0.595,0.351,135.0,0.0
247022,-0.932,0.341,-0.027,0.145,-0.244,0.595,135.0,0.0
247112,-0.926,0.342,-0.024,-1.489,-0.153,1.107,135.0,0.0
247202,-0.928,0.345,-0.036,-0.756,-0.725,0.885,135.0,0.0
247292,-0.924,0.335,-0.037,0.740,-1.076,1.290,135.0,0.0
247383,-0.928,0.334,-0.047,-2.504,-0.069,1.618,135.0,0.0
247473,-0.932,0.329,-0.029,0.038,-0.870,1.405,135.0,0.0
247563,-0.931,0.316,-0.025,3.107,-2.702,2.115,135.0,0.0
247653,-0.945,0.325,-0.032,12.076,-6.809,5.031,135.0,0.0
247743,-0.936,0.350,-0.039,8.656,-9.916,10.229,136.0,0.0
247837,-0.925,0.372,-0.024,1.588,-12.748,17.137,136.0,0.0
247927,-0.892,0.328,0.020,11.840,-16.504,25.237,137.0,0.0
248017,-0.875,0.411,-0.003,13.458,-13.511,18.924,137.0,0.0
248108,-0.858,0.465,0.028,-1.550,-12.427,13.656,138.0,0.0
248195,-0.870,0.477,0.070,-34.481,-10.466,9.962,138.0,140.0
248283,-0.844,0.544,0.085,-30.618,-15.130,6.779,139.0,141.0
248370,-0.805,0.560,0.105,-44.252,-9.031,1.672,139.0,140.0
248457,-0.879,0.518,0.151,-65.893,-14.679,-4.649,138.0,141.0
248545,-0.899,0.406,0.217,-13.130,-14.008,-2.695,138.0,107.0
248636,-0.878,0.465,0.225,-13.168,-18.557,-8.153,139.0,0.0
248721,-0.884,0.453,0.247,-15.298,-16.908,-1.092,140.0,104.0
248807,-0.791,0.381,0.307,-22.107,-13.618,5.916,140.0,103.0
248892,-0.952,0.507,0.355,-12.366,-21.229,4.824,141.0,103.0
248977,-0.754,0.386,0.339,-4.382,-10.786,7.992,141.0,103.0
249064,-0.784,0.392,0.349,-0.977,4.435,6.450,141.0,139.0
249150,-0.825,0.471,0.339,-0.779,10.771,7.191,141.0,102.0
249235,-0.863,0.470,0.364,-1.527,1.817,8.191,141.0,102.0
249323,-0.842,0.486,0.329,-4.321,0.962,6.580,142.0,102.0
249408,-0.784,0.458,0.316,0.573,4.847,1.947,142.0,102.0
249496,-0.802,0.484,0.329,2.336,-0.496,1.618,142.0,138.0
249581,-0.794,0.457,0.334,1.168,0.336,2.718,142.0,103.0
249666,-0.836,0.462,0.325,0.977,0.618,-0.336,142.0,103.0
249757,-0.818,0.493,0.301,-3.427,2.763,-0.611,142.0,0.0
249848,-0.800,0.491,0.309,-1.420,3.588,-0.885,142.0,0.0
249933,-0.804,0.488,0.291,-7.008,5.061,0.916,141.0,102.0
250018,-0.814,0.446,0.319,-7.511,8.786,0.473,141.0,102.0
250107,-0.866,0.477,0.315,-6.580,8.321,-4.763,140.0,106.0
250192,-0.832,0.469,0.284,-4.725,2.832,-2.359,140.0,104.0
250278,-0.812,0.446,0.272,3.611,9.191,-3.061,140.0,104.0
250363,-0.868,0.562,0.168,18.473,11.168,-1.229,140.0,105.0
250450,-0.846,0.405,0.250,4.634,8.962,1.443,139.0,139.0
250536,-0.825,0.468,0.226,3.069,6.748,-2.672,139.0,117.0
250628,-0.864,0.439,0.221,2.427,6.115,2.931,139.0,0.0
250719,-0.875,0.438,0.223,10.038,3.130,0.580,139.0,0.0
250806,-0.862,0.453,0.205,-6.832,0.420,3.267,138.0,140.0
250900,-0.825,0.445,0.202,0.519,1.221,1.221,138.0,0.0
250985,-0.889,0.442,0.216,5.550,1.634,-0.954,138.0,106.0
251070,-0.871,0.417,0.210,-5.679,-1.855,-0.282,138.0,105.0
251156,-0.880,0.462,0.178,3.534,-2.748,-2.328,138.0,105.0
251241,-0.853,0.414,0.189,1.763,2.763,-0.885,138.0,105.0
251327,-0.868,0.422,0.182,-1.557,4.076,-4.443,139.0,105.0
251412,-0.881,0.418,0.185,6.992,0.435,-2.443,139.0,105.0
251498,-0.892,0.436,0.188,2.763,-1.252,-1.443,139.0,104.0
251583,-0.865,0.428,0.188,-2.389,-0.015,1.565,139.0,105.0
251666,-0.867,0.413,0.196,-5.023,2.023,1.740,139.0,105.0
251752,-0.890,0.425,0.189,1.802,0.649,0.649,139.0,104.0
251837,-0.880,0.407,0.183,3.977,-0.573,2.344,139.0,104.0
251923,-0.887,0.397,0.190,-0.069,-2.458,0.656,139.0,104.0
252008,-0.879,0.407,0.182,0.931,0.252,-0.237,139.0,104.0
252094,-0.881,0.428,0.166,3.023,0.511,-1.718,139.0,103.0
252179,-0.882,0.404,0.170,0.969,-0.160,0.550,139.0,103.0
252265,-0.891,0.406,0.168,-2.183,0.122,0.687,140.0,103.0
252353,-0.884,0.412,0.167,-1.321,0.466,-0.481,139.0,103.0
252439,-0.887,0.409,0.158,-1.221,-0.458,0.153,139.0,104.0
252525,-0.896,0.409,0.162,0.916,-0.336,0.214,139.0,104.0
252610,-0.883,0.396,0.163,2.267,-1.229,0.099,139.0,104.0
252696,-0.883,0.416,0.141,-1.336,-0.870,0.260,139.0,105.0
252781,-0.913,0.423,0.143,-0.511,0.443,0.290,139.0,104.0
252867,-0.879,0.386,0.163,3.412,0.733,0.481,140.0,104.0
252952,-0.885,0.396,0.166,0.435,0.695,0.221,140.0,104.0
253038,-0.894,0.410,0.170,-1.809,0.015,2.061,140.0,103.0
253127,-0.892,0.421,0.146,4.710,-1.626,3.328,140.0,103.0
253212,-0.881,0.393,0.159,-0.260,-0.664,3.145,140.0,104.0
253298,-0.904,0.427,0.142,0.931,-2.313,2.328,140.0,105.0
253386,-0.882,0.415,0.145,2.031,-0.855,2.511,140.0,137.0
253477,-0.883,0.410,0.144,6.977,-0.863,1.634,140.0,0.0
253569,-0.893,0.409,0.148,-2.366,-0.237,0.015,140.0,0.0
253660,-0.880,0.443,0.134,-1.183,-1.893,0.214,140.0,0.0
253751,-0.893,0.428,0.137,1.740,0.099,0.847,140.0,0.0
253836,-0.890,0.422,0.141,-2.023,0.069,2.267,139.0,104.0
253925,-0.871,0.394,0.151,4.611,0.809,1.565,139.0,104.0
254017,-0.896,0.409,0.153,-9.481,0.450,-0.450,140.0,103.0
254102,-0.879,0.446,0.118,-1.244,-0.412,1.489,139.0,104.0
254192,-0.888,0.404,0.148,-1.672,0.206,1.534,139.0,0.0
254281,-0.887,0.426,0.127,4.389,0.275,1.611,139.0,0.0
254366,-0.887,0.396,0.154,-0.435,1.137,0.725,139.0,106.0
254451,-0.903,0.409,0.138,-4.832,-0.260,1.282,139.0,105.0
254535,-0.893,0.412,0.131,-1.748,0.046,0.893,139.0,104.0
254620,-0.881,0.445,0.118,3.328,1.076,0.580,138.0,104.0
254707,-0.899,0.410,0.140,2.809,0.634,2.382,139.0,104.0
254792,-0.890,0.399,0.137,-4.802,-1.015,2.107,139.0,104.0
254876,-0.895,0.430,0.120,-2.519,-0.847,1.382,138.0,105.0
254963,-0.903,0.444,0.109,0.412,0.443,2.168,138.0,139.0
255048,-0.892,0.394,0.135,0.847,-1.595,0.847,138.0,107.0
255132,-0.896,0.416,0.117,-2.656,-1.527,-0.435,138.0,105.0
255217,-0.882,0.434,0.111,-1.718,-0.794,1.237,138.0,105.0
255302,-0.883,0.417,0.110,-0.878,-0.183,1.542,139.0,105.0
255386,-0.892,0.413,0.123,-0.069,0.916,-0.153,139.0,105.0
255476,-0.906,0.417,0.127,-1.023,0.397,1.145,139.0,139.0
255566,-0.897,0.413,0.131,-0.489,-0.176,1.008,139.0,0.0
255651,-0.878,0.423,0.125,-0.145,-0.802,0.656,139.0,107.0
255741,-0.879,0.419,0.119,-1.908,-1.053,1.992,139.0,0.0
255832,-0.886,0.420,0.113,-1.191,-2.000,2.168,139.0,0.0
255922,-0.892,0.413,0.119,-0.824,-0.840,0.130,139.0,0.0
256007,-0.892,0.432,0.119,0.611,-2.557,1.061,139.0,105.0
256092,-0.886,0.423,0.119,0.260,-2.130,1.351,139.0,104.0
256176,-0.879,0.414,0.119,1.145,-1.626,0.855,139.0,104.0
256264,-0.894,0.418,0.121,0.527,-0.916,0.718,139.0,104.0
256349,-0.880,0.422,0.128,-1.466,0.115,1.740,139.0,104.0
256434,-0.885,0.428,0.131,-1.580,-1.573,2.008,139.0,104.0
256519,-0.876,0.425,0.121,-0.626,-0.908,1.397,140.0,105.0
256603,-0.893,0.425,0.124,-1.786,-1.252,2.771,139.0,104.0
256688,-0.886,0.420,0.134,-0.893,-1.244,1.611,139.0,104.0
256773,-0.884,0.427,0.118,-2.710,-0.519,1.679,139.0,104.0
256858,-0.882,0.433,0.116,-0.053,0.115,1.664,139.0,104.0
256946,-0.887,0.431,0.124,-1.008,-0.481,1.763,139.0,104.0
257031,-0.889,0.425,0.128,0.282,-0.893,1.466,139.0,104.0
257115,-0.885,0.425,0.128,-1.580,-0.527,1.916,139.0,103.0
257200,-0.890,0.434,0.121,-2.176,-0.183,0.634,139.0,103.0
257285,-0.888,0.428,0.107,-0.771,-1.878,0.687,139.0,104.0
257370,-0.894,0.438,0.118,-0.489,-0.153,0.191,140.0,104.0
257455,-0.878,0.429,0.118,-0.931,-0.427,0.817,139.0,103.0
257540,-0.883,0.420,0.121,-2.198,0.359,0.405,139.0,104.0
257625,-0.877,0.416,0.127,-0.183,-0.947,-0.321,139.0,104.0
257713,-0.895,0.425,0.123,-2.740,-0.267,0.504,140.0,104.0
257798,-0.888,0.417,0.121,-0.748,-0.931,1.359,140.0,104.0
257889,-0.896,0.411,0.114,-1.718,-0.450,0.611,139.0,0.0
257979,-0.885,0.416,0.122,-2.000,-0.099,0.786,140.0,0.0
258064,-0.895,0.420,0.118,1.588,-0.710,1.084,139.0,105.0
258149,-0.890,0.412,0.120,-0.489,-0.153,1.290,139.0,105.0
258239,-0.886,0.424,0.117,-1.504,-0.878,1.084,139.0,0.0
258330,-0.897,0.422,0.108,-3.481,-0.962,1.611,140.0,0.0
258415,-0.884,0.425,0.116,-1.504,-0.985,1.092,139.0,104.0
258503,-0.880,0.436,0.111,-0.336,0.038,0.916,139.0,104.0
258588,-0.879,0.443,0.115,1.595,-0.824,1.191,140.0,104.0
258673,-0.898,0.442,0.120,-0.870,-1.168,1.573,140.0,104.0
258763,-0.877,0.410,0.119,-0.679,-1.160,1.794,140.0,0.0
258854,-0.895,0.442,0.107,-0.344,-1.244,1.069,140.0,0.0
258941,-0.889,0.410,0.120,1.282,-0.145,0.298,139.0,138.0
259026,-0.894,0.410,0.117,-4.672,-1.763,-0.198,139.0,105.0
259111,-0.895,0.426,0.110,1.053,-0.992,0.244,139.0,104.0
259196,-0.885,0.410,0.114,-2.153,-1.046,0.359,139.0,104.0
259284,-0.890,0.421,0.108,-3.397,-0.244,0.641,139.0,104.0
259369,-0.888,0.436,0.105,-10.053,-0.450,0.122,139.0,105.0
259461,-0.896,0.472,0.103,-21.115,-0.237,0.298,139.0,0.0
259548,-0.889,0.484,0.088,-10.046,-1.695,2.718,139.0,138.0
259634,-0.887,0.382,0.147,-6.534,-0.351,1.496,139.0,125.0
259720,-0.891,0.368,0.161,-5.176,0.298,0.595,139.0,106.0
259805,-0.898,0.383,0.154,-1.466,-0.275,0.634,139.0,105.0
259890,-0.898,0.377,0.162,-5.053,0.015,1.023,139.0,105.0
259978,-0.895,0.404,0.145,-8.634,-0.695,1.122,139.0,105.0
260064,-0.897,0.452,0.124,-12.221,-1.137,0.435,139.0,105.0
260149,-0.893,0.461,0.109,2.336,-0.870,1.718,138.0,105.0
260234,-0.906,0.405,0.149,7.832,-0.267,2.901,139.0,106.0
260320,-0.899,0.373,0.161,-0.725,-1.099,2.275,139.0,106.0
260405,-0.880,0.386,0.157,-1.885,-0.450,0.542,139.0,105.0
260490,-0.896,0.396,0.159,0.115,-0.573,0.374,139.0,105.0
260576,-0.891,0.398,0.159,-0.366,-0.489,2.069,139.0,106.0
260663,-0.889,0.394,0.158,-2.420,-0.603,1.809,139.0,138.0
260766,-0.891,0.408,0.150,0.855,-0.313,0.756,138.0,0.0
260858,-0.892,0.406,0.145,-0.443,0.550,0.885,139.0,0.0
260952,-0.904,0.442,0.119,0.412,-0.763,0.359,139.0,0.0
261045,-0.896,0.418,0.139,1.382,-0.802,1.382,138.0,0.0
261138,-0.887,0.434,0.119,-3.466,-0.565,1.328,138.0,0.0
261231,-0.888,0.439,0.125,1.626,-0.405,1.649,139.0,0.0
261324,-0.889,0.405,0.138,2.321,-0.695,2.366,138.0,0.0
261417,-0.893,0.399,0.150,3.397,-0.443,2.206,139.0,0.0
261511,-0.887,0.390,0.146,2.176,-0.115,2.176,139.0,0.0
261603,-0.892,0.407,0.140,1.733,-0.794,0.992,139.0,125.0
261691,-0.906,0.396,0.148,-3.794,-1.282,1.649,139.0,124.0
261784,-0.881,0.418,0.137,-6.885,-1.534,0.206,139.0,0.0
261872,-0.870,0.432,0.126,3.756,0.244,0.435,140.0,107.0
261965,-0.887,0.415,0.141,1.977,-0.687,0.656,139.0,0.0
262053,-0.890,0.400,0.135,-0.473,-1.489,0.840,139.0,107.0
262141,-0.895,0.423,0.128,-2.672,-0.275,0.023,139.0,105.0
262230,-0.879,0.412,0.149,-0.237,0.176,0.160,139.0,104.0
262317,-0.886,0.432,0.135,-1.260,0.435,0.969,139.0,105.0
262409,-0.892,0.413,0.131,0.626,-1.046,3.275,139.0,124.0
262497,-0.888,0.404,0.132,-1.359,-1.672,2.649,139.0,107.0
262585,-0.888,0.407,0.132,2.191,-0.794,0.710,139.0,107.0
262673,-0.891,0.420,0.149,-0.618,-0.344,1.122,140.0,106.0
262761,-0.887,0.417,0.127,0.053,-1.405,1.481,139.0,106.0
262849,-0.887,0.415,0.133,0.145,-0.786,0.687,139.0,105.0
262937,-0.883,0.417,0.134,-0.969,-1.099,1.061,139.0,105.0
263025,-0.882,0.416,0.124,-2.336,0.069,0.275,140.0,107.0
263113,-0.877,0.421,0.129,3.023,0.664,0.573,139.0,105.0
263204,-0.893,0.410,0.130,-1.664,-0.389,2.656,139.0,104.0
263292,-0.897,0.408,0.119,-1.954,-0.573,1.122,139.0,104.0
263380,-0.898,0.415,0.125,-1.282,-0.794,-0.412,139.0,105.0
263469,-0.898,0.424,0.112,0.817,-1.038,-0.748,139.0,105.0
263558,-0.887,0.416,0.132,0.626,-0.260,0.794,139.0,108.0
263647,-0.884,0.406,0.136,0.069,0.359,1.015,140.0,124.0
263740,-0.903,0.396,0.138,-3.328,-1.107,1.901,140.0,0.0
263829,-0.891,0.410,0.135,-3.198,-1.023,0.794,140.0,126.0
263918,-0.893,0.431,0.115,-1.221,-1.168,1.473,140.0,124.0
264010,-0.901,0.434,0.115,-0.954,-0.718,1.084,140.0,124.0
264100,-0.888,0.417,0.125,0.656,-1.252,1.282,140.0,125.0
264189,-0.881,0.414,0.132,0.740,-1.031,1.260,140.0,125.0
