Timestamp(ms),AccelX(g),AccelY(g),AccelZ(g),GyroX(deg/s),GyroY(deg/s),GyroZ(deg/s),DistanceLeft(cm),DistanceRight(cm)
38843,-0.104,0.135,0.997,-0.763,-1.267,1.374,0.0,105.0
38930,-0.123,0.128,1.003,-2.901,-0.931,0.908,0.0,104.0
39017,-0.112,0.152,0.992,-5.389,-2.282,1.779,0.0,103.0
39104,-0.120,0.177,0.980,-0.634,-2.878,1.763,0.0,103.0
39190,-0.100,0.157,0.995,3.267,-4.427,1.206,0.0,103.0
39277,-0.110,0.157,0.993,2.382,-5.427,0.771,0.0,102.0
39364,-0.106,0.152,0.999,4.137,-4.099,0.412,0.0,102.0
39451,-0.090,0.150,0.993,1.481,-3.489,-0.405,0.0,103.0
39541,-0.093,0.175,0.990,0.771,-3.931,-2.168,0.0,103.0
39627,-0.087,0.160,0.990,3.687,-3.611,-3.397,0.0,103.0
39714,-0.090,0.153,0.991,5.069,-1.496,-4.382,0.0,104.0
39802,-0.083,0.138,1.001,2.313,0.305,-2.939,0.0,104.0
39889,-0.076,0.152,1.011,-1.328,0.504,-3.267,0.0,105.0
39976,-0.073,0.169,0.995,2.511,-0.198,-3.084,0.0,105.0
40065,-0.081,0.177,0.997,3.710,-0.053,-1.985,0.0,105.0
40152,-0.079,0.165,0.995,7.298,-1.336,-2.267,0.0,105.0
40239,-0.078,0.187,0.991,4.649,-1.359,-1.473,0.0,106.0
40330,-0.077,0.227,0.980,4.542,-0.412,0.405,0.0,106.0
40417,-0.105,0.206,0.984,3.374,-0.336,0.863,0.0,106.0
40504,-0.091,0.208,0.988,4.328,-1.573,0.015,0.0,106.0
40592,-0.085,0.226,0.982,5.076,-0.779,-0.939,0.0,106.0
40679,-0.097,0.222,0.983,0.282,-0.435,0.145,0.0,106.0
40767,-0.092,0.226,0.985,0.985,-0.649,0.618,0.0,105.0
40854,-0.090,0.233,0.990,-0.977,-0.466,0.542,0.0,106.0
40942,-0.100,0.229,0.987,-1.550,-0.420,0.344,0.0,105.0
41029,-0.093,0.235,0.980,-2.260,0.664,0.954,0.0,105.0
41119,-0.098,0.223,0.983,-0.336,-0.397,-1.214,0.0,105.0
41207,-0.100,0.229,0.977,-3.298,1.924,-1.328,0.0,104.0
41294,-0.093,0.223,0.981,-0.534,-0.519,-1.824,0.0,104.0
41382,-0.113,0.243,0.972,-0.695,-0.069,-1.336,0.0,104.0
41469,-0.100,0.227,0.963,0.191,-0.137,-1.191,0.0,104.0
41558,-0.117,0.239,0.968,4.153,1.000,-2.710,0.0,103.0
41645,-0.115,0.210,0.971,7.489,4.015,-4.885,0.0,103.0
41732,-0.131,0.130,0.977,45.176,8.924,-9.023,0.0,102.0
41820,-0.187,0.236,0.836,86.817,21.183,-17.565,0.0,101.0
41910,-0.243,0.306,0.726,112.282,46.519,-47.527,0.0,101.0
41997,-0.334,0.412,0.538,183.588,58.710,-74.786,164.0,132.0
42084,-0.640,0.568,0.218,210.359,65.527,-83.763,186.0,106.0
42171,-0.754,1.022,-0.118,226.481,25.603,-102.779,195.0,99.0
42256,-0.748,1.058,-0.189,30.397,14.565,-124.817,136.0,110.0
42343,-0.874,0.611,-0.055,-2.252,26.977,-102.305,138.0,144.0
42427,-0.949,0.551,-0.126,74.328,-3.053,-60.015,140.0,104.0
42517,-0.967,0.586,-0.171,33.076,-3.405,-22.229,142.0,0.0
42607,-0.934,0.329,-0.095,12.229,-2.504,15.969,141.0,0.0
42699,-0.905,0.442,-0.210,-16.802,9.397,7.275,140.0,0.0
42784,-0.982,0.218,-0.211,-30.771,14.771,-9.885,51.0,0.0
42869,-0.933,0.191,-0.156,-4.695,10.122,-10.504,51.0,0.0
42958,-0.927,0.187,-0.118,-30.374,-1.275,-28.183,138.0,0.0
43044,-0.885,0.263,-0.076,11.977,-2.664,-20.000,58.0,0.0
43129,-0.955,0.278,-0.139,8.870,13.840,-13.015,58.0,0.0
43214,-0.993,0.255,-0.159,47.191,7.244,3.252,58.0,0.0
43299,-0.965,0.319,-0.112,18.351,-13.504,9.939,57.0,0.0
43387,-0.951,0.264,-0.116,1.802,-4.710,6.771,58.0,0.0
43472,-0.952,0.278,-0.165,-17.107,0.389,0.992,57.0,0.0
43557,-0.938,0.330,-0.195,-10.153,0.687,3.511,58.0,0.0
43642,-0.919,0.183,-0.114,-27.412,1.023,6.885,57.0,0.0
43732,-0.889,0.341,-0.205,-29.748,1.534,1.366,141.0,0.0
43817,-0.940,0.276,-0.173,0.252,-0.489,3.611,58.0,0.0
43908,-0.937,0.276,-0.147,-20.008,-0.244,-0.176,141.0,0.0
43994,-0.916,0.306,-0.171,2.542,-1.137,-1.275,58.0,0.0
44079,-0.921,0.269,-0.118,4.321,-7.947,-4.527,58.0,0.0
44164,-0.923,0.290,-0.125,1.481,-3.076,-4.740,56.0,0.0
44257,-0.964,0.244,-0.166,-2.573,-2.809,4.534,140.0,0.0
44342,-0.949,0.309,-0.146,-0.031,0.282,4.870,58.0,0.0
44427,-0.949,0.316,-0.118,16.634,-5.099,4.947,58.0,0.0
44512,-0.966,0.369,-0.046,35.351,-21.618,40.252,58.0,0.0
44602,-1.026,0.542,-0.047,67.366,-38.214,79.992,139.0,0.0
44696,-0.914,0.752,-0.078,73.756,-33.427,146.534,0.0,0.0
44788,-0.719,1.033,-0.152,5.733,-4.313,181.489,181.0,0.0
44872,-0.545,1.162,-0.215,-61.901,21.023,178.802,139.0,101.0
44958,-0.333,1.072,-0.210,-50.527,38.260,173.198,130.0,78.0
45041,-0.079,0.982,-0.088,-52.618,40.153,157.893,121.0,86.0
45121,0.124,1.012,-0.023,-34.756,38.878,131.328,113.0,63.0
45201,0.262,1.038,0.077,-58.282,29.344,127.710,107.0,48.0
45281,0.556,0.905,0.201,6.023,12.718,129.260,101.0,53.0
45363,0.698,0.781,0.226,-21.290,-3.634,89.069,104.0,99.0
45446,0.564,0.900,0.098,-72.534,-8.290,56.878,94.0,113.0
45529,0.587,0.328,0.319,-31.282,-25.145,19.557,101.0,117.0
45611,0.631,0.634,0.111,-17.595,-29.130,11.191,86.0,125.0
45698,0.684,0.458,0.135,-69.802,-9.916,-34.443,75.0,139.0
45780,0.654,0.386,0.281,-76.275,3.359,-43.985,78.0,138.0
45860,0.641,0.549,0.352,-71.115,-0.023,-20.282,72.0,98.0
45941,0.656,0.629,0.438,-62.344,0.924,-16.313,69.0,95.0
46021,0.673,0.552,0.701,-97.244,-13.282,-11.214,72.0,95.0
46101,0.653,0.542,0.695,-43.275,-44.672,11.740,72.0,96.0
46182,0.694,0.336,0.618,-33.344,-63.939,-0.931,69.0,96.0
46262,0.743,0.308,0.499,-10.565,-75.687,5.176,68.0,97.0
46342,0.750,0.283,0.396,7.344,-79.840,-12.473,65.0,98.0
46426,0.781,0.358,0.245,-36.344,-77.924,-13.374,66.0,97.0
46505,0.787,0.161,0.161,-60.992,-80.672,-25.969,65.0,97.0
46584,0.785,0.369,-0.030,21.504,-70.916,-48.466,54.0,96.0
46664,0.827,0.766,-0.118,-41.244,-56.015,-51.351,60.0,95.0
46744,0.747,0.678,-0.135,-11.321,-56.092,-47.580,59.0,95.0
46824,0.738,0.856,-0.270,-47.939,-32.496,-47.405,58.0,96.0
46910,0.623,0.736,-0.154,-50.779,-21.687,-36.542,58.0,0.0
46995,0.602,1.014,0.013,-3.145,-17.557,-24.206,59.0,0.0
47081,0.559,0.878,-0.063,-0.557,-22.389,-2.939,60.0,0.0
47169,0.638,0.901,-0.039,-24.611,-27.038,-0.145,61.0,191.0
47254,0.511,0.834,-0.051,-6.473,-24.916,-1.771,62.0,181.0
47340,0.559,0.856,-0.088,-21.626,-39.115,-4.901,63.0,191.0
47425,0.627,0.610,-0.156,20.573,-45.198,6.534,63.0,192.0
47511,0.547,0.783,-0.304,26.435,-20.206,-2.160,65.0,188.0
47597,0.598,0.858,-0.242,-13.267,0.328,-9.611,67.0,186.0
47682,0.479,0.921,-0.188,-13.763,-10.962,-14.183,69.0,185.0
47768,0.515,0.870,-0.170,-26.130,-3.611,-21.214,70.0,184.0
47857,0.547,0.950,-0.161,31.763,7.160,-5.305,70.0,183.0
47943,0.514,0.942,-0.168,-4.695,8.885,6.672,70.0,180.0
48029,0.527,0.918,-0.133,8.527,5.786,6.977,70.0,181.0
48114,0.559,0.891,-0.154,-4.573,1.061,4.969,70.0,181.0
48200,0.597,0.906,-0.220,-44.389,19.046,3.985,70.0,183.0
48285,0.646,0.852,-0.254,-49.427,34.878,8.840,69.0,182.0
48371,0.553,0.777,-0.226,-103.046,61.947,15.031,66.0,178.0
48455,0.538,0.501,-0.058,-79.664,76.733,7.038,68.0,154.0
48539,0.283,0.525,0.082,-58.405,123.076,16.481,69.0,165.0
48627,0.113,0.356,0.206,-67.511,167.527,9.298,81.0,156.0
48715,-0.244,0.531,0.467,-80.473,205.053,-10.420,96.0,195.0
48803,-0.698,0.803,0.574,-26.221,177.443,-33.267,139.0,146.0
48890,-0.974,0.669,0.705,-30.878,170.366,-40.000,135.0,132.0
48972,-0.977,0.824,0.608,-17.069,149.527,-47.038,132.0,57.0
49054,-0.963,0.779,0.620,-9.351,144.176,-47.252,130.0,51.0
49136,-1.012,0.414,0.545,-39.817,124.374,-36.702,130.0,50.0
49226,-0.996,0.203,0.422,29.420,83.832,-28.947,131.0,0.0
49317,-1.078,0.476,0.288,77.427,49.656,-29.305,135.0,109.0
49405,-1.033,0.538,0.242,70.473,26.924,-29.336,138.0,125.0
49486,-0.959,0.439,0.096,49.168,-0.634,-26.275,58.0,123.0
49571,-0.970,0.503,-0.044,36.519,-2.969,-20.595,55.0,0.0
49651,-0.940,0.451,-0.095,-36.198,10.389,-4.359,57.0,120.0
49732,-0.991,0.350,-0.115,-51.046,11.985,5.313,58.0,121.0
49813,-0.934,0.283,-0.095,-28.298,5.962,23.794,58.0,123.0
49898,-0.889,0.302,-0.109,-8.275,4.489,35.992,138.0,124.0
49988,-0.883,0.345,-0.114,-6.985,8.809,25.695,136.0,0.0
50080,-0.906,0.323,-0.079,-11.672,10.115,13.130,135.0,0.0
50166,-0.905,0.345,-0.051,-0.649,5.710,3.901,135.0,144.0
50252,-0.917,0.375,0.018,29.176,-12.748,4.771,135.0,143.0
50341,-0.879,0.471,-0.092,-11.992,-9.397,-6.786,135.0,0.0
50428,-0.896,0.386,-0.067,-8.534,-7.427,-15.427,135.0,143.0
50518,-0.914,0.416,-0.078,7.542,-5.435,-12.458,135.0,0.0
50607,-0.926,0.397,-0.071,-7.649,-0.412,-1.496,135.0,0.0
50697,-0.914,0.382,-0.060,-10.756,1.443,11.191,134.0,0.0
50786,-0.921,0.379,-0.068,-6.672,3.176,15.931,133.0,0.0
50875,-0.921,0.371,-0.048,-1.275,2.351,15.626,133.0,145.0
50961,-0.906,0.366,-0.054,2.298,-0.122,10.779,132.0,145.0
51047,-0.906,0.384,-0.050,6.191,-2.954,0.840,132.0,145.0
51134,-0.884,0.402,-0.065,6.847,-3.519,-13.779,133.0,145.0
51223,-0.910,0.399,-0.070,2.359,-2.908,-21.832,134.0,0.0
51313,-0.921,0.390,-0.066,1.198,-3.275,-18.412,135.0,0.0
51402,-0.920,0.385,-0.068,3.580,-3.718,-7.786,135.0,0.0
51491,-0.925,0.396,-0.076,-4.267,-1.099,0.076,136.0,0.0
51581,-0.928,0.366,-0.055,-1.763,-1.008,12.237,135.0,0.0
51674,-0.914,0.370,-0.066,-3.282,-0.504,18.450,135.0,0.0
51764,-0.902,0.369,-0.059,-2.649,-0.015,15.969,134.0,0.0
51850,-0.906,0.366,-0.056,0.237,-0.641,8.397,134.0,145.0
51936,-0.897,0.375,-0.057,0.466,-1.397,-0.847,134.0,144.0
52026,-0.906,0.390,-0.061,1.977,-1.511,-7.695,134.0,0.0
52115,-0.907,0.387,-0.046,1.679,-1.725,-11.733,135.0,0.0
52205,-0.914,0.389,-0.050,-1.366,-1.183,-11.427,135.0,0.0
52294,-0.918,0.394,-0.055,-5.641,0.061,-6.458,135.0,0.0
52384,-0.913,0.380,-0.055,-9.855,0.809,1.015,135.0,0.0
52476,-0.927,0.385,-0.059,-11.115,1.588,9.290,134.0,0.0
52563,-0.940,0.406,-0.060,-30.092,4.763,15.275,133.0,145.0
52649,-0.936,0.494,-0.062,-28.412,7.092,39.351,132.0,144.0
52736,-0.928,0.583,-0.030,-30.252,8.870,79.855,131.0,147.0
52820,-0.768,0.851,-0.090,-38.137,24.626,115.511,129.0,115.0
52909,-0.637,0.839,-0.077,-64.023,43.786,132.901,181.0,121.0
52993,-0.414,0.956,-0.126,-33.107,82.656,157.664,140.0,99.0
53075,-0.275,0.907,-0.173,-87.420,113.084,128.496,134.0,73.0
53163,-0.134,0.885,-0.127,-90.931,131.878,95.038,130.0,107.0
53245,-0.038,0.836,-0.021,-46.481,149.641,73.267,127.0,80.0
53328,-0.040,0.842,-0.015,31.626,151.634,60.794,125.0,80.0
53410,0.018,1.069,-0.068,3.137,152.000,32.901,125.0,80.0
53493,-0.053,0.932,0.082,20.107,137.710,23.573,125.0,81.0
53575,-0.104,1.055,0.071,-8.137,118.183,3.435,126.0,80.0
53659,-0.160,0.904,0.174,8.901,86.198,-14.916,127.0,110.0
53742,-0.124,1.134,0.105,17.740,40.267,-0.550,127.0,78.0
53824,-0.089,1.165,0.043,-48.763,36.168,10.015,126.0,79.0
53907,-0.078,0.893,0.122,-18.962,17.038,24.344,51.0,111.0
53987,-0.051,0.710,0.196,30.427,-13.542,4.397,42.0,111.0
54066,-0.181,1.135,-0.021,52.336,-41.573,-17.298,42.0,110.0
54146,-0.157,1.019,-0.022,12.908,-60.878,-5.221,43.0,109.0
54225,-0.111,0.984,-0.042,23.397,-77.718,-4.656,44.0,108.0
54305,-0.122,0.963,-0.062,25.382,-93.740,-17.084,52.0,107.0
54387,-0.123,1.003,-0.132,48.466,-107.557,-23.084,130.0,76.0
54467,-0.136,1.158,-0.258,31.748,-118.038,-24.992,46.0,105.0
54553,-0.151,1.087,-0.265,14.122,-118.893,-6.664,132.0,73.0
54633,-0.151,0.927,-0.223,-8.321,-129.542,0.153,51.0,105.0
54717,-0.156,0.940,-0.217,17.809,-136.748,-0.450,131.0,105.0
54798,-0.121,0.942,-0.184,28.122,-134.405,-2.901,58.0,105.0
54878,-0.087,1.010,-0.119,26.244,-121.382,-12.267,51.0,105.0
54958,-0.094,1.004,-0.058,-18.313,-114.145,-26.305,54.0,105.0
55037,-0.056,0.827,0.056,13.389,-92.985,-54.160,56.0,104.0
55122,-0.156,0.701,0.064,12.221,-59.221,-115.443,137.0,102.0
55207,-0.525,0.772,0.004,45.069,-37.183,-170.252,159.0,99.0
55298,-0.975,0.702,-0.137,81.191,-26.863,-180.886,132.0,147.0
55384,-1.179,0.508,-0.135,34.718,-23.740,-153.252,134.0,128.0
55465,-1.067,0.332,-0.037,31.420,1.382,-32.656,58.0,125.0
55552,-0.951,0.377,-0.052,25.145,7.374,14.725,139.0,123.0
55638,-0.915,0.372,-0.016,15.214,7.397,7.832,140.0,123.0
55724,-0.951,0.367,0.007,-18.893,1.779,7.321,140.0,123.0
55814,-0.973,0.303,-0.027,-10.420,-1.840,19.695,139.0,0.0
55904,-0.958,0.347,-0.015,29.015,-15.847,37.695,139.0,0.0
55997,-0.891,0.474,0.015,91.237,-23.061,108.496,138.0,0.0
56091,-0.861,0.834,-0.172,51.962,-11.893,166.855,0.0,0.0
56178,-0.600,0.962,-0.287,87.328,15.023,219.710,187.0,96.0
56261,-0.212,1.178,-0.336,72.855,59.618,235.763,137.0,72.0
56346,0.102,1.018,-0.399,44.344,94.305,223.863,129.0,110.0
56432,0.284,0.917,-0.435,4.031,113.634,193.634,123.0,125.0
56516,0.527,0.622,-0.316,-19.496,106.115,152.870,138.0,103.0
56601,0.716,0.375,-0.148,9.115,75.053,99.718,138.0,93.0
56690,0.759,0.500,-0.208,-1.649,72.763,65.870,0.0,115.0
56782,0.815,0.315,0.076,-54.344,62.954,48.557,0.0,115.0
56871,0.873,0.274,0.192,18.038,29.947,38.908,0.0,115.0
56961,0.913,0.266,0.209,-16.214,2.969,5.183,0.0,114.0
57050,1.003,0.382,0.153,-43.069,4.740,-11.076,0.0,113.0
57138,0.980,0.251,0.234,-32.176,16.641,5.924,0.0,112.0
57227,0.948,0.276,0.272,-22.863,16.954,6.229,0.0,112.0
57316,0.936,0.210,0.281,-0.740,14.679,9.221,0.0,111.0
57404,0.938,0.269,0.258,14.870,16.321,16.122,0.0,111.0
57493,0.948,0.191,0.309,-1.878,17.756,21.832,0.0,111.0
57585,0.949,0.113,0.336,19.382,14.580,29.183,0.0,111.0
57674,0.919,0.079,0.335,38.969,7.901,25.435,0.0,110.0
57762,0.914,0.080,0.325,60.351,-0.298,19.031,0.0,110.0
57851,0.936,0.166,0.298,61.374,-3.656,10.084,0.0,109.0
57940,0.936,0.206,0.278,78.397,-4.756,15.359,0.0,110.0
58030,0.935,0.208,0.257,83.603,-12.473,12.840,0.0,116.0
58120,0.959,0.206,0.207,49.710,-18.366,10.481,0.0,124.0
58209,1.002,0.204,0.187,42.031,-21.046,13.794,0.0,124.0
58299,1.007,0.166,0.188,40.412,-12.542,12.427,0.0,124.0
58392,1.006,0.220,0.142,32.221,-3.397,8.252,0.0,124.0
58481,1.003,0.203,0.135,37.458,3.969,8.458,0.0,124.0
58575,0.990,0.238,0.098,41.290,4.130,13.580,0.0,0.0
58670,1.011,0.118,0.148,-21.641,6.878,5.130,0.0,0.0
58760,1.045,0.113,0.146,-40.885,13.244,6.885,0.0,125.0
58849,1.039,0.248,0.118,-49.809,25.656,23.107,0.0,123.0
58939,0.981,0.070,0.238,-95.214,42.466,30.298,0.0,123.0
59028,0.886,-0.118,0.372,-68.000,43.649,33.382,0.0,125.0
59118,0.872,-0.148,0.415,19.947,14.450,20.000,0.0,125.0
59211,0.918,-0.038,0.357,0.908,-3.679,4.191,0.0,125.0
59301,0.953,-0.097,0.364,2.466,-3.412,4.115,0.0,125.0
59392,0.939,-0.078,0.391,-5.214,2.282,1.221,0.0,125.0
59481,0.904,-0.080,0.379,-8.901,-1.206,-1.313,0.0,125.0
59571,0.935,-0.099,0.367,-10.267,-4.748,-3.069,0.0,125.0
59661,0.934,-0.086,0.363,-13.275,-3.847,-5.504,0.0,125.0
59751,0.917,-0.030,0.399,-22.313,-5.695,-24.244,0.0,125.0
59840,0.922,0.019,0.409,-59.321,-10.542,-64.198,0.0,120.0
59930,0.958,0.044,0.413,-64.298,-6.870,-87.763,0.0,117.0
60022,0.980,0.160,0.435,-57.260,7.939,-106.550,0.0,106.0
60111,0.911,0.305,0.425,-69.282,25.977,-139.458,0.0,104.0
60190,0.720,0.165,0.611,-102.771,51.809,-197.763,34.0,104.0
60270,0.355,0.604,0.611,-37.603,39.588,-202.290,38.0,98.0
60353,0.228,0.755,0.663,-95.733,34.389,-213.977,35.0,71.0
60431,0.009,0.689,0.737,-74.802,37.534,-191.053,45.0,96.0
60515,-0.081,0.486,0.781,-117.168,48.176,-203.886,145.0,88.0
60602,-0.263,0.401,0.823,-135.344,62.847,-227.328,0.0,82.0
60687,-0.575,-0.100,0.900,-81.725,53.038,-207.527,189.0,78.0
60779,-0.627,0.087,0.834,-2.099,36.748,-123.221,131.0,0.0
60868,-0.597,0.008,0.834,7.908,33.824,-85.031,121.0,0.0
60957,-0.612,-0.010,0.814,16.931,15.321,-46.115,125.0,0.0
61046,-0.609,-0.079,0.786,7.145,7.664,-13.328,127.0,0.0
61134,-0.583,-0.140,0.823,13.649,0.634,-0.794,127.0,0.0
61223,-0.585,-0.154,0.834,20.168,-3.290,15.695,127.0,0.0
61310,-0.616,-0.060,0.888,-0.092,-17.244,45.282,127.0,169.0
61399,-0.683,-0.250,0.949,205.443,-70.511,152.244,126.0,170.0
61490,-0.281,0.663,0.173,250.130,-42.450,239.595,172.0,146.0
61575,0.072,1.165,0.171,164.679,37.557,178.840,114.0,127.0
61658,0.159,0.846,0.232,123.542,70.679,158.947,111.0,109.0
61737,0.492,0.883,-0.063,212.290,59.282,143.130,112.0,63.0
61817,0.574,1.031,-0.183,107.489,62.328,55.275,114.0,40.0
61899,0.414,1.053,-0.309,99.305,68.710,10.336,115.0,96.0
61984,0.462,1.055,-0.124,45.924,62.908,-13.802,117.0,125.0
62068,0.401,0.833,0.077,35.702,38.649,-12.359,118.0,123.0
62152,0.536,1.020,0.033,7.061,12.229,-6.565,119.0,122.0
62239,0.479,1.201,-0.245,-13.153,26.656,-0.992,118.0,122.0
62323,0.388,0.740,-0.083,-10.160,16.809,-9.336,118.0,122.0
62408,0.458,1.007,-0.076,-18.473,6.626,-8.656,119.0,122.0
62492,0.424,0.863,0.007,-18.931,7.061,-10.885,119.0,123.0
62577,0.468,0.917,-0.031,-59.565,6.542,-4.214,119.0,128.0
62661,0.420,0.794,0.075,21.580,-5.275,4.015,118.0,123.0
62745,0.450,0.963,-0.050,5.458,-17.298,-2.046,118.0,121.0
62829,0.489,0.841,0.002,2.305,-10.420,2.550,118.0,122.0
62913,0.478,0.921,-0.090,0.405,-19.122,-1.023,117.0,122.0
63001,0.257,1.257,-0.433,-5.725,-23.244,-7.069,118.0,123.0
63085,0.308,0.884,-0.183,0.679,-46.366,-18.901,118.0,122.0
63169,-0.364,1.745,-0.551,-199.672,-25.115,-17.473,119.0,121.0
63249,0.283,0.890,0.030,-51.252,-26.237,-48.031,39.0,120.0
63332,0.331,1.169,0.116,-17.824,-21.672,-4.328,119.0,87.0
63414,0.398,1.136,-0.144,8.198,-16.527,0.954,119.0,87.0
63498,0.429,0.724,0.052,82.603,-10.244,12.611,119.0,119.0
63583,0.321,0.821,-0.117,80.122,0.527,7.260,120.0,117.0
63670,0.386,0.939,-0.165,30.618,7.534,14.076,120.0,119.0
63754,0.361,0.784,-0.168,21.282,5.573,3.061,121.0,117.0
63839,0.418,1.030,-0.343,17.855,0.557,-0.718,122.0,118.0
63923,0.359,0.941,-0.378,32.771,9.595,-0.015,122.0,118.0
64007,0.395,0.903,-0.372,47.832,3.298,5.153,123.0,119.0
64092,0.398,0.835,-0.384,29.336,5.435,1.473,123.0,121.0
64177,0.415,0.906,-0.369,10.794,17.221,-7.397,123.0,119.0
64261,0.400,0.937,-0.438,-17.198,21.115,-2.298,123.0,119.0
64346,0.402,0.816,-0.433,-41.275,13.542,-27.374,122.0,119.0
64433,0.407,0.812,-0.285,-54.740,19.863,-34.000,123.0,117.0
64518,0.373,0.896,-0.146,-78.473,18.351,-11.344,122.0,116.0
64602,0.340,1.086,-0.198,-34.817,14.450,-2.046,123.0,116.0
64687,0.294,0.882,0.043,-52.473,13.206,-19.756,122.0,115.0
64771,0.307,1.168,-0.080,-119.412,14.702,-41.634,123.0,115.0
64847,0.186,0.775,0.183,-90.351,19.099,-55.122,37.0,64.0
64928,0.120,0.829,0.267,-39.374,16.229,-50.542,123.0,65.0
65010,0.111,0.914,0.351,-7.840,7.053,-12.664,125.0,62.0
65087,0.209,1.235,0.284,-82.298,8.870,-11.855,40.0,62.0
65167,0.085,0.815,0.430,22.244,5.176,5.450,39.0,63.0
65243,0.048,1.000,0.265,-17.435,-0.420,-14.496,40.0,62.0
65323,0.045,0.862,0.344,-3.366,7.221,-18.924,42.0,113.0
65399,0.036,0.814,0.376,-75.053,24.107,-58.031,42.0,58.0
65479,-0.021,0.884,0.315,-61.863,37.351,-113.878,46.0,111.0
65565,-0.333,0.421,0.519,-96.527,81.351,-158.809,159.0,109.0
65654,-0.686,0.274,0.563,-92.870,97.374,-135.336,0.0,109.0
65742,-0.866,0.359,0.481,103.878,58.435,-108.260,0.0,109.0
65835,-1.027,0.237,0.159,250.130,17.450,-110.603,0.0,164.0
65922,-1.086,0.454,-0.164,250.130,-5.992,-90.015,125.0,0.0
66008,-1.003,0.519,-0.098,59.435,5.168,-74.260,131.0,130.0
66093,-1.001,0.230,0.034,52.573,15.260,-46.885,135.0,127.0
66174,-1.012,0.267,0.012,79.718,4.756,-27.573,53.0,124.0
66259,-1.042,0.349,0.002,62.802,7.481,-13.031,56.0,0.0
66345,-1.004,0.177,0.016,0.786,5.924,2.473,57.0,0.0
66430,-0.969,0.186,-0.034,38.611,-0.183,3.099,58.0,0.0
66516,-0.968,0.212,-0.069,-2.466,4.099,-1.771,58.0,0.0
66605,-0.965,0.104,-0.030,15.092,2.237,8.206,59.0,0.0
66691,-0.965,0.163,-0.065,2.718,3.153,17.603,59.0,0.0
66777,-0.992,0.235,-0.104,-6.176,2.733,20.458,58.0,0.0
66862,-0.957,0.272,-0.096,-4.237,3.901,27.710,58.0,0.0
66948,-0.923,0.310,-0.055,-0.282,-2.809,34.702,57.0,0.0
67033,-0.950,0.423,-0.080,-11.664,-4.992,35.611,55.0,0.0
67124,-0.977,0.355,-0.070,15.008,-5.313,53.573,140.0,0.0
67212,-0.959,0.396,-0.147,24.008,1.573,72.031,0.0,110.0
67306,-0.858,0.427,-0.206,39.687,12.771,80.611,0.0,0.0
67402,-0.824,0.410,-0.247,101.115,2.282,94.466,189.0,0.0
67494,-0.649,0.708,-0.368,50.008,9.733,56.656,176.0,0.0
67588,-0.718,0.594,-0.315,-67.817,39.000,7.153,175.0,0.0
67674,-0.677,0.631,-0.230,-41.412,23.206,4.885,173.0,96.0
67761,-0.578,0.647,-0.191,-51.160,19.107,-33.771,180.0,98.0
67855,-0.636,0.872,-0.310,-94.000,59.282,-80.519,195.0,0.0
67948,-0.913,0.636,-0.216,-162.840,105.145,-76.160,197.0,0.0
68032,-0.891,0.289,0.028,-35.137,55.267,-28.137,131.0,97.0
68118,-0.775,0.512,-0.124,59.740,-17.672,-29.672,133.0,126.0
68209,-0.785,0.514,-0.264,82.740,-50.779,-32.069,135.0,146.0
68299,-0.785,0.591,-0.312,52.405,-36.321,-33.328,138.0,0.0
68390,-0.889,0.398,-0.207,25.504,-10.573,-32.122,140.0,0.0
68481,-0.958,0.464,-0.214,-9.023,13.832,-13.779,141.0,0.0
68572,-0.957,0.444,-0.162,8.092,-2.084,12.985,141.0,0.0
68662,-0.839,0.419,-0.157,-48.443,5.450,-0.977,141.0,0.0
68753,-0.865,0.419,-0.205,-19.763,-4.664,13.626,140.0,0.0
68843,-0.866,0.274,-0.206,4.679,-17.656,31.542,139.0,0.0
68934,-0.773,0.385,-0.209,2.206,-13.198,14.389,139.0,0.0
69027,-0.826,0.509,-0.180,21.191,-9.924,6.527,138.0,0.0
69117,-0.818,0.652,-0.163,12.847,-19.595,40.977,136.0,0.0
69206,-0.823,0.866,-0.336,-6.947,25.443,91.298,133.0,148.0
69295,-0.791,0.822,-0.390,-72.252,78.069,106.069,194.0,118.0
69381,-0.671,0.801,-0.339,-93.473,105.099,112.855,156.0,97.0
69466,-0.527,0.692,-0.191,-120.641,111.977,99.863,140.0,101.0
69551,-0.400,0.940,-0.180,-71.397,103.267,72.244,135.0,103.0
69634,-0.265,0.781,0.021,-44.427,83.374,49.366,132.0,75.0
69721,-0.202,0.853,0.037,-4.710,58.412,23.389,130.0,76.0
69800,-0.244,0.897,0.020,-8.634,46.183,4.344,51.0,107.0
69880,-0.294,0.866,0.056,-5.947,22.412,-16.885,43.0,106.0
69960,-0.167,1.115,0.071,-7.618,-7.374,-15.313,45.0,105.0
70040,-0.119,1.124,0.016,6.771,21.802,-3.626,44.0,105.0
70120,-0.197,0.913,0.040,-46.733,12.947,-7.267,43.0,105.0
70200,-0.237,1.017,0.040,14.046,-11.405,6.969,44.0,105.0
70280,-0.169,0.977,0.095,0.763,-6.580,3.191,44.0,105.0
70360,-0.159,0.974,0.105,12.412,-6.229,-0.069,44.0,105.0
70443,-0.167,1.014,0.057,7.389,-12.466,-4.092,46.0,104.0
70522,-0.185,1.008,0.030,-3.092,-13.779,-7.405,45.0,104.0
70602,-0.166,1.058,0.013,13.344,-8.779,0.649,46.0,104.0
70682,-0.146,0.952,0.053,3.115,-5.519,0.870,46.0,104.0
70762,-0.167,0.995,0.033,-1.580,-4.969,-3.344,44.0,104.0
70842,-0.200,1.018,0.022,8.695,-3.695,0.076,46.0,104.0
70922,-0.192,0.963,0.033,3.260,-3.305,-1.221,45.0,104.0
71002,-0.183,0.995,0.014,6.870,-4.618,-1.153,44.0,104.0
71081,-0.187,1.002,-0.004,9.626,-4.740,-0.626,44.0,103.0
71170,-0.199,0.998,-0.010,-0.389,-1.618,-1.328,45.0,103.0
71248,-0.208,0.984,-0.005,2.641,-3.832,0.763,45.0,103.0
71327,-0.186,1.015,-0.019,-1.618,-2.794,2.191,44.0,103.0
71406,-0.183,0.998,-0.007,2.145,-1.244,1.374,44.0,103.0
71485,-0.198,0.980,-0.009,-3.641,-0.153,0.023,44.0,103.0
71563,-0.196,1.023,-0.030,-0.550,-1.382,1.466,44.0,103.0
71642,-0.197,0.972,-0.010,-0.580,-0.756,1.588,45.0,103.0
71720,-0.187,0.990,-0.014,-2.649,-0.260,0.611,45.0,103.0
71799,-0.194,0.984,-0.012,1.466,-1.084,0.481,45.0,103.0
71881,-0.200,0.984,-0.002,-1.992,-1.336,0.656,45.0,103.0
71960,-0.207,0.978,-0.018,6.550,-3.191,0.710,44.0,103.0
72039,-0.191,1.002,-0.028,3.542,-2.611,1.420,54.0,103.0
72118,-0.196,0.991,-0.028,-0.023,-1.985,1.008,45.0,103.0
72197,-0.194,0.991,-0.016,-0.595,-1.565,1.069,45.0,103.0
72275,-0.193,0.991,-0.027,2.023,-1.412,0.840,44.0,103.0
72354,-0.197,0.990,-0.038,3.672,-1.855,1.519,46.0,103.0
72433,-0.200,0.984,-0.045,-0.153,-1.473,0.527,45.0,103.0
72512,-0.199,1.009,-0.050,0.122,-1.756,2.191,47.0,103.0
72594,-0.194,0.971,-0.030,-0.076,-1.145,1.885,54.0,103.0
72674,-0.187,0.997,-0.039,1.748,-1.176,1.496,54.0,103.0
72753,-0.196,0.987,-0.033,2.221,-1.626,0.786,54.0,103.0
72833,-0.191,0.995,-0.046,-0.145,-1.832,0.443,54.0,103.0
72911,-0.197,0.990,-0.051,7.122,-3.443,-0.061,53.0,103.0
72991,-0.202,0.986,-0.052,-2.412,-2.260,-0.481,52.0,103.0
73070,-0.204,1.003,-0.058,1.557,-2.878,0.969,46.0,103.0
73149,-0.194,0.985,-0.056,1.336,-2.450,0.809,46.0,102.0
73228,-0.199,0.997,-0.068,3.038,-2.198,0.740,46.0,103.0
73310,-0.198,0.981,-0.061,0.183,-2.504,1.244,46.0,102.0
73389,-0.194,0.987,-0.060,-1.427,-1.802,1.702,46.0,102.0
73467,-0.209,0.984,-0.066,-0.832,-1.626,1.366,45.0,103.0
73546,-0.194,0.978,-0.064,3.084,-2.397,0.969,45.0,102.0
73625,-0.200,0.995,-0.064,0.290,-1.511,1.198,45.0,103.0
73704,-0.198,0.990,-0.076,0.511,-0.420,1.450,45.0,102.0
73783,-0.204,0.987,-0.075,-0.985,-0.534,1.931,45.0,102.0
73863,-0.204,0.971,-0.079,1.595,-0.847,1.038,47.0,102.0
73942,-0.200,0.990,-0.083,1.863,-0.847,0.664,46.0,102.0
74023,-0.201,0.988,-0.078,-0.023,-0.840,1.275,45.0,102.0
74102,-0.208,0.987,-0.085,-0.641,-1.435,1.878,45.0,102.0
74181,-0.204,0.982,-0.086,4.107,-3.305,1.313,45.0,102.0
74260,-0.184,1.020,-0.095,1.855,-3.969,2.153,47.0,102.0
74340,-0.181,1.001,-0.107,5.718,-4.473,3.183,54.0,102.0
74419,-0.181,0.988,-0.083,-14.870,0.244,0.267,47.0,102.0
74498,-0.228,0.965,-0.065,-0.519,-0.397,0.924,45.0,102.0
74576,-0.191,0.995,-0.094,6.084,-1.542,1.069,47.0,102.0
74658,-0.187,0.989,-0.079,-0.328,-1.244,1.198,46.0,102.0
74738,-0.190,1.001,-0.098,-2.023,-0.847,1.389,46.0,102.0
74822,-0.186,0.978,-0.086,-0.786,-0.855,1.176,135.0,102.0
74902,-0.192,1.000,-0.100,-1.214,-1.641,1.664,55.0,102.0
74982,-0.197,0.985,-0.085,0.511,-2.053,0.771,55.0,102.0
75061,-0.184,1.000,-0.090,-1.382,-1.954,1.580,54.0,102.0
75141,-0.190,0.999,-0.100,2.305,-2.206,2.000,47.0,102.0
75219,-0.191,0.982,-0.090,-1.229,-1.977,2.183,47.0,102.0
75298,-0.183,1.000,-0.086,-0.092,-1.969,1.618,47.0,102.0
75381,-0.198,0.993,-0.095,0.588,-1.931,1.931,47.0,102.0
75460,-0.182,0.986,-0.107,-0.336,-1.359,1.053,47.0,102.0
75540,-0.195,0.989,-0.092,-0.534,-1.252,1.695,48.0,102.0
75619,-0.181,0.987,-0.098,-1.038,-0.779,1.122,45.0,102.0
75699,-0.184,0.985,-0.105,0.183,-0.611,1.206,58.0,102.0
75778,-0.190,0.984,-0.102,-0.550,-0.595,0.885,46.0,102.0
75857,-0.185,0.995,-0.101,0.099,-0.672,1.107,46.0,102.0
75936,-0.182,0.990,-0.093,0.771,-0.901,1.046,46.0,102.0
76015,-0.184,0.992,-0.116,-0.115,-1.107,1.908,47.0,102.0
76098,-0.195,0.981,-0.102,-0.221,-1.000,0.908,47.0,102.0
76177,-0.189,0.986,-0.103,-1.626,-1.321,0.443,47.0,102.0
76257,-0.184,0.999,-0.114,0.641,-1.427,1.061,47.0,102.0
76336,-0.189,0.976,-0.107,-1.069,-0.863,-0.015,48.0,102.0
76416,-0.191,0.996,-0.116,1.084,-0.725,0.420,51.0,102.0
76495,-0.189,0.984,-0.112,-0.160,-0.901,0.656,51.0,102.0
76574,-0.188,0.986,-0.098,-0.023,-0.634,1.176,51.0,102.0
76654,-0.182,0.990,-0.115,-1.557,0.237,1.183,51.0,102.0
76734,-0.190,0.975,-0.110,-1.000,-0.084,1.282,48.0,102.0
76817,-0.187,0.990,-0.124,0.504,-1.023,1.076,48.0,102.0
76896,-0.195,0.992,-0.116,-1.176,-0.496,0.267,48.0,102.0
76981,-0.191,0.991,-0.123,-2.344,-0.649,1.435,136.0,102.0
77061,-0.193,0.964,-0.107,-0.580,-0.733,1.099,54.0,102.0
77139,-0.196,0.993,-0.122,0.107,-0.328,2.191,53.0,102.0
77219,-0.188,0.980,-0.129,0.840,-0.282,2.046,52.0,102.0
77304,-0.181,0.982,-0.127,2.267,0.168,2.573,136.0,101.0
77388,-0.163,0.988,-0.134,4.321,1.733,0.443,136.0,102.0
77473,-0.176,0.981,-0.130,2.779,3.382,2.947,137.0,102.0
77561,-0.191,0.975,-0.142,5.282,3.031,2.740,138.0,101.0
77646,-0.176,0.978,-0.153,4.618,2.641,3.122,139.0,101.0
77730,-0.175,0.989,-0.165,3.603,2.992,2.603,139.0,101.0
77815,-0.163,1.005,-0.178,2.366,1.802,2.076,139.0,101.0
77900,-0.181,0.974,-0.163,-1.847,1.092,1.702,139.0,101.0
77985,-0.163,0.981,-0.178,-0.115,0.198,1.000,139.0,101.0
78064,-0.158,0.984,-0.171,1.550,-0.435,1.718,52.0,101.0
78149,-0.161,0.985,-0.181,2.191,-0.855,1.977,140.0,101.0
78234,-0.163,0.981,-0.177,-1.214,-0.023,0.481,140.0,101.0
78322,-0.174,0.986,-0.183,0.427,-0.214,0.420,141.0,101.0
78407,-0.159,0.978,-0.188,1.076,-0.008,0.366,141.0,101.0
78492,-0.167,0.997,-0.193,0.664,-0.397,0.771,141.0,100.0
78572,-0.169,0.978,-0.181,-1.473,0.344,0.206,51.0,100.0
78652,-0.173,0.961,-0.189,0.870,-0.550,-1.160,51.0,100.0
78732,-0.168,0.994,-0.204,-0.267,-0.336,0.298,51.0,100.0
78811,-0.179,0.981,-0.186,-2.351,-0.878,-0.260,49.0,100.0
78891,-0.182,0.977,-0.187,-0.275,-1.305,0.130,51.0,100.0
78970,-0.178,0.993,-0.193,-1.412,-1.863,-0.099,51.0,100.0
79057,-0.174,0.987,-0.184,-2.649,-2.427,1.076,142.0,71.0
79140,-0.219,1.014,-0.128,-13.359,-10.924,-1.260,140.0,73.0
79224,-0.244,0.946,-0.082,-26.931,-36.756,-21.771,139.0,75.0
79309,-0.375,0.847,-0.018,19.779,-61.046,-29.954,139.0,100.0
79389,-0.393,0.911,-0.108,3.580,-93.824,-62.885,58.0,99.0
79474,-0.528,0.649,-0.065,53.588,-105.893,-98.344,143.0,96.0
79560,-0.730,0.753,-0.235,76.611,-101.275,-107.679,163.0,94.0
79647,-0.807,0.697,-0.273,70.198,-74.908,-103.290,127.0,152.0
79736,-0.887,0.644,-0.285,43.214,-39.176,-78.855,130.0,115.0
79821,-0.834,0.542,-0.189,9.824,-19.366,-59.931,134.0,110.0
79906,-0.846,0.433,-0.114,32.099,-9.527,-57.244,137.0,106.0
79987,-0.923,0.472,-0.105,25.901,-3.206,-50.573,52.0,104.0
80068,-0.973,0.385,-0.058,6.496,8.092,-22.840,54.0,121.0
80154,-0.966,0.314,-0.001,-2.916,1.069,-4.664,54.0,0.0
80240,-0.939,0.277,0.001,13.038,-10.496,-2.481,55.0,0.0
80326,-0.974,0.265,-0.048,-5.939,-10.824,2.664,54.0,0.0
80407,-0.948,0.193,-0.031,-10.817,-5.191,9.000,54.0,121.0
80492,-0.937,0.264,-0.042,-8.305,-5.634,7.893,54.0,121.0
80574,-0.963,0.261,-0.027,-7.901,-3.153,14.641,54.0,122.0
80655,-0.968,0.345,0.052,-15.595,-1.947,28.176,52.0,123.0
80736,-1.008,0.438,0.221,-25.031,-19.588,39.206,51.0,104.0
80821,-1.040,0.603,0.328,-32.023,-48.313,47.863,138.0,106.0
80907,-1.106,0.594,0.462,-33.061,-89.878,58.763,135.0,112.0
80994,-1.064,0.701,0.445,-10.779,-122.832,72.947,133.0,141.0
81076,-0.944,0.687,0.480,-16.176,-135.168,77.008,131.0,52.0
81162,-0.762,0.540,0.431,-6.344,-131.611,75.359,131.0,59.0
81249,-0.453,0.610,0.413,15.191,-99.824,75.748,138.0,136.0
81336,-0.223,0.611,0.548,-23.870,-74.443,57.901,115.0,153.0
81422,-0.082,0.712,0.564,4.481,-59.527,62.382,104.0,153.0
81515,0.032,0.624,0.682,20.237,-60.939,47.595,100.0,184.0
81600,0.159,0.656,0.613,24.565,-59.061,55.710,95.0,165.0
81685,0.255,0.653,0.601,-18.420,-46.733,47.863,81.0,172.0
81771,0.348,0.590,0.594,7.389,-47.840,41.542,77.0,190.0
81857,0.442,0.643,0.535,3.420,-49.786,29.908,75.0,0.0
81939,0.500,0.672,0.440,8.649,-44.893,32.321,69.0,80.0
82018,0.597,0.602,0.370,26.084,-37.962,36.374,74.0,81.0
82097,0.690,0.550,0.403,13.809,-30.985,29.260,72.0,82.0
82176,0.699,0.490,0.422,-4.389,-33.565,14.359,62.0,84.0
82254,0.689,0.568,0.370,-22.336,-38.939,9.053,63.0,85.0
82333,0.726,0.493,0.340,-24.702,-50.084,9.389,63.0,86.0
82412,0.718,0.501,0.218,-7.023,-53.794,-4.298,62.0,88.0
82491,0.851,0.598,0.106,-32.664,-49.160,-27.191,60.0,90.0
82570,0.768,0.573,0.075,3.878,-45.634,-42.588,61.0,92.0
82658,0.773,0.720,-0.030,19.855,-31.328,-29.878,60.0,0.0
82743,0.783,0.657,0.002,3.519,-14.435,-15.137,60.0,0.0
82829,0.774,0.749,0.009,-29.840,-0.794,-16.321,60.0,0.0
82914,0.693,0.812,0.089,-17.824,-0.382,-30.229,65.0,0.0
82999,0.609,0.727,0.146,-4.153,-8.496,-50.305,61.0,0.0
83085,0.692,0.834,0.062,21.046,-5.366,-65.420,60.0,0.0
83169,0.644,0.892,0.042,-58.916,3.038,-29.557,60.0,181.0
83254,0.497,0.876,0.109,-16.786,17.962,-18.382,60.0,190.0
83338,0.486,0.987,0.278,-31.962,16.626,-9.908,61.0,190.0
83426,0.422,1.068,0.270,2.893,16.366,20.504,61.0,191.0
83511,0.596,0.859,0.170,-22.511,17.786,38.992,59.0,0.0
83596,0.647,0.786,0.028,15.557,28.969,58.634,58.0,191.0
83681,0.547,0.472,0.013,-3.817,50.427,58.527,60.0,194.0
83767,0.555,0.422,0.174,-5.412,78.183,0.649,62.0,0.0
83852,0.500,0.698,0.210,10.626,81.397,-4.176,65.0,0.0
83937,0.352,0.459,0.257,-27.313,112.313,13.031,71.0,181.0
84023,0.114,0.362,0.293,-41.649,136.725,-8.366,82.0,198.0
84111,-0.214,0.505,0.316,19.137,183.405,-44.595,117.0,173.0
84199,-0.421,0.665,0.599,75.366,185.061,-96.809,114.0,142.0
84285,-0.666,0.716,0.656,102.214,150.580,-124.611,126.0,140.0
84373,-1.070,0.984,0.668,-58.198,150.550,-138.405,181.0,127.0
84458,-1.215,0.785,0.675,-13.679,128.061,-89.672,124.0,121.0
84539,-1.007,0.347,0.609,13.779,82.809,-55.847,127.0,50.0
84623,-1.153,0.371,0.350,-48.779,46.519,-44.779,131.0,113.0
84708,-1.010,0.320,0.207,82.183,26.893,-19.496,134.0,110.0
84793,-0.915,0.493,0.051,16.748,24.954,-29.985,136.0,107.0
84880,-0.980,0.353,0.078,-33.649,23.832,-25.672,138.0,106.0
84965,-1.053,0.244,0.086,-10.840,5.534,5.382,137.0,106.0
85049,-1.023,0.316,0.015,3.282,-7.305,33.397,136.0,107.0
85135,-0.967,0.250,0.007,-10.160,-11.893,46.794,135.0,128.0
85220,-0.889,0.233,0.003,9.267,-13.550,39.023,134.0,110.0
85310,-0.905,0.204,-0.011,25.817,-11.832,2.908,134.0,0.0
85395,-0.939,0.279,-0.015,43.687,-5.893,-22.824,136.0,127.0
85481,-0.950,0.266,-0.007,43.573,-5.580,-38.076,138.0,124.0
85562,-0.965,0.292,-0.008,56.351,-4.359,-39.008,61.0,103.0
85644,-0.980,0.332,-0.023,45.061,-5.168,-25.344,57.0,99.0
85725,-0.973,0.366,-0.023,24.046,-3.962,-8.160,58.0,116.0
85805,-0.978,0.399,0.055,20.374,-11.977,31.145,57.0,98.0
85884,-0.943,0.576,0.044,23.595,-14.038,89.137,58.0,100.0
85971,-0.931,0.776,-0.059,27.687,-5.573,141.275,141.0,141.0
86062,-0.800,0.931,-0.197,-10.962,29.069,175.382,136.0,0.0
86147,-0.615,0.903,-0.253,-39.130,69.489,187.527,153.0,98.0
86230,-0.407,0.945,-0.343,-57.763,110.061,172.695,136.0,71.0
86325,-0.122,0.811,-0.281,-41.366,136.847,142.565,128.0,79.0
86410,0.113,0.812,-0.247,13.489,161.832,100.664,123.0,83.0
86495,0.141,0.770,-0.179,44.267,163.000,72.107,121.0,86.0
86580,0.215,0.858,-0.194,73.229,151.763,37.473,120.0,86.0
86667,0.044,0.916,-0.040,48.168,112.985,2.351,120.0,118.0
86749,0.006,1.101,-0.055,91.092,44.695,-1.038,32.0,117.0
86836,0.206,1.098,-0.156,56.947,8.137,2.107,122.0,116.0
86918,0.289,0.939,-0.188,11.649,-2.481,-5.802,37.0,116.0
87005,0.343,1.013,-0.307,13.046,2.359,-13.107,125.0,115.0
87095,0.298,1.033,-0.220,8.466,-11.893,-2.252,125.0,115.0
87182,0.341,0.864,-0.237,8.168,-7.160,-7.252,125.0,114.0
87264,0.316,1.056,-0.261,-14.405,-5.344,-8.115,39.0,114.0
87346,0.271,0.857,-0.168,-7.435,-1.908,-9.321,39.0,114.0
87428,0.263,0.933,-0.205,-21.634,4.939,-10.985,38.0,114.0
87510,0.231,1.022,-0.210,-28.046,13.672,-4.519,38.0,115.0
87597,0.235,0.996,-0.194,-12.794,10.412,-1.076,123.0,115.0
87684,0.247,0.932,-0.148,-2.305,2.481,-0.107,122.0,115.0
87771,0.232,0.946,-0.154,0.672,-4.244,1.412,122.0,115.0
87861,0.250,0.970,-0.148,-12.977,-5.260,1.481,122.0,115.0
87944,0.266,1.025,-0.149,-14.214,-4.466,4.176,42.0,116.0
88026,0.263,1.010,-0.135,-13.855,-5.069,5.244,40.0,116.0
88108,0.250,0.932,-0.086,-14.359,-10.641,0.076,38.0,116.0
88190,0.231,0.924,-0.091,-15.282,-17.450,-5.504,40.0,116.0
88272,0.268,1.011,-0.101,-7.855,-17.679,-2.695,38.0,116.0
88354,0.268,0.984,-0.097,4.840,-19.763,3.496,36.0,116.0
88436,0.257,0.937,-0.075,0.557,-21.771,3.321,36.0,116.0
88523,0.224,0.953,-0.106,1.611,-24.321,2.000,121.0,116.0
88609,0.170,0.998,-0.109,0.145,-27.947,9.481,39.0,116.0
88691,0.186,1.044,-0.138,-0.427,-44.282,14.733,40.0,116.0
88779,0.210,1.016,-0.115,-40.176,-58.931,11.130,122.0,116.0
88864,0.212,0.978,-0.040,-25.664,-81.145,12.832,122.0,86.0
88951,0.198,0.985,-0.047,-56.901,-81.511,6.397,121.0,116.0
89038,0.219,1.030,-0.098,-36.252,-81.809,-1.740,121.0,117.0
89124,0.267,0.963,-0.089,-36.435,-87.511,-8.626,120.0,86.0
89211,0.269,0.905,-0.115,-14.855,-83.053,-6.786,120.0,116.0
89302,0.318,0.950,-0.144,-9.969,-77.351,-7.260,121.0,116.0
89388,0.268,0.990,-0.095,-10.260,-55.275,-19.008,121.0,86.0
89473,0.216,0.998,-0.029,-7.481,-30.145,-25.130,122.0,85.0
89555,0.146,1.098,-0.072,-14.885,-9.252,-22.206,51.0,114.0
89638,0.137,0.989,-0.040,-18.580,4.626,-13.344,50.0,114.0
89725,0.148,0.938,0.023,-6.298,10.771,-13.374,123.0,112.0
