Timestamp(ms),AccelX(g),AccelY(g),AccelZ(g),GyroX(deg/s),GyroY(deg/s),GyroZ(deg/s),DistanceLeft(cm),DistanceRight(cm)
91608,-0.191,-0.317,0.952,1.992,-7.244,4.679,3.0,6.0
91644,-0.140,-0.313,0.958,-0.206,-6.321,4.275,3.0,6.0
91682,-0.194,-0.319,0.932,1.382,-6.954,0.168,4.0,7.0
91720,-0.169,-0.330,0.942,-5.802,-4.977,3.244,3.0,6.0
91757,-0.174,-0.327,0.960,-0.840,-6.099,0.298,3.0,5.0
91795,-0.149,-0.240,0.953,3.099,-5.008,-0.405,3.0,4.0
91833,-0.145,-0.218,0.929,-7.130,-3.405,-1.229,3.0,5.0
91870,-0.180,-0.308,0.955,-7.695,-2.969,0.336,3.0,5.0
91911,-0.147,-0.270,0.957,-2.489,-3.260,0.947,4.0,4.0
91948,-0.152,-0.221,0.921,-11.137,-3.145,-0.298,4.0,5.0
91985,-0.146,-0.323,0.953,-19.344,-5.099,0.786,3.0,4.0
92023,-0.145,-0.332,0.956,-2.336,-2.725,-0.580,3.0,5.0
92061,-0.163,-0.299,0.932,2.695,-2.336,-1.420,4.0,4.0
92098,-0.138,-0.247,0.928,-2.389,-1.595,-6.573,3.0,4.0
92136,-0.181,-0.310,0.969,-13.550,-0.794,-5.298,3.0,3.0
92174,-0.144,-0.403,1.007,9.992,-3.237,1.855,2.0,5.0
92211,-0.137,-0.332,0.966,28.947,-0.565,4.481,3.0,5.0
92252,-0.152,-0.221,0.900,-7.733,-4.740,-7.786,2.0,3.0
92290,-0.146,-0.319,1.000,-3.916,-4.427,-8.672,3.0,3.0
92326,-0.162,-0.293,0.987,6.893,-3.450,-5.305,2.0,4.0
92364,-0.134,-0.293,0.985,17.229,-6.076,-3.763,2.0,3.0
92402,-0.141,-0.196,0.947,13.305,-2.115,-6.458,3.0,4.0
92439,-0.153,-0.248,0.968,6.916,-4.092,-6.275,3.0,4.0
92477,-0.103,-0.221,0.989,3.901,-1.634,-10.267,3.0,3.0
92515,-0.143,-0.226,0.979,0.977,-2.397,-9.389,3.0,3.0
92553,-0.136,-0.210,0.976,5.397,-5.282,-9.298,3.0,4.0
92593,-0.118,-0.248,0.986,12.244,-5.252,-9.924,3.0,3.0
92631,-0.057,-0.120,0.965,16.389,-2.557,-9.794,2.0,3.0
92668,-0.114,-0.137,0.925,3.924,-2.847,-11.427,2.0,2.0
92705,-0.062,-0.160,0.969,-12.405,0.321,-14.794,2.0,3.0
92743,-0.176,-0.300,1.006,-5.443,0.802,-9.626,3.0,3.0
92781,-0.122,-0.267,1.046,24.489,0.794,-0.336,3.0,2.0
92819,-0.128,-0.192,1.021,36.069,2.237,3.183,3.0,3.0
92856,-0.142,-0.143,1.010,38.038,0.466,3.359,3.0,2.0
92894,-0.136,-0.089,0.997,33.847,0.267,4.832,3.0,3.0
92935,-0.094,0.010,0.980,16.748,0.763,3.153,3.0,3.0
92973,-0.129,-0.051,0.967,-5.710,0.160,2.519,3.0,3.0
93009,-0.089,-0.035,1.039,-10.130,1.496,1.947,4.0,3.0
93047,-0.113,-0.113,1.045,-3.504,0.847,1.542,4.0,4.0
93085,-0.169,-0.119,0.987,6.473,0.977,4.977,4.0,3.0
93123,-0.141,-0.065,1.003,6.244,-1.435,2.687,4.0,4.0
93161,-0.117,-0.044,0.978,0.595,-2.099,-0.771,4.0,4.0
93199,-0.135,-0.019,0.979,-12.031,-3.321,-5.183,4.0,3.0
93237,-0.126,-0.086,1.029,-9.580,-3.817,-4.885,4.0,3.0
93275,-0.127,-0.059,0.999,-2.374,-3.351,-2.870,4.0,3.0
93316,-0.128,-0.043,0.993,-6.221,-2.840,-6.198,4.0,2.0
93353,-0.125,-0.079,0.995,-6.847,-2.176,-2.977,4.0,2.0
93391,-0.127,-0.021,0.977,-17.298,-1.679,-4.947,4.0,2.0
93429,-0.135,-0.120,1.016,-21.802,-1.405,-3.328,3.0,2.0
93467,-0.114,-0.132,1.029,-9.985,-1.870,-1.817,4.0,2.0
93548,-0.113,-0.136,1.003,-18.580,-5.473,-3.107,4.0,2.0
93586,-0.120,-0.178,1.025,-1.405,-3.809,-2.679,3.0,2.0
93624,-0.132,-0.111,0.986,5.947,-4.947,-2.076,4.0,2.0
93662,-0.098,-0.103,1.001,-2.557,-5.374,-5.908,4.0,2.0
93703,-0.123,-0.080,1.002,-5.298,-5.176,-7.504,4.0,3.0
93741,-0.106,-0.117,1.010,-4.107,-3.687,-2.366,4.0,3.0
93778,-0.105,-0.095,1.000,1.382,0.191,0.832,4.0,3.0
93816,-0.115,-0.069,0.991,-0.130,3.115,5.634,4.0,3.0
93854,-0.132,-0.070,0.983,-0.107,4.168,6.969,4.0,3.0
93892,-0.112,-0.081,0.974,-5.916,5.160,6.878,4.0,2.0
93941,-0.091,-0.110,1.006,1.359,8.504,6.321,0.0,3.0
93979,-0.127,-0.079,0.964,3.679,8.061,4.779,6.0,3.0
94017,-0.100,-0.119,0.992,1.053,7.763,1.962,6.0,3.0
94058,-0.126,-0.160,1.040,19.443,7.221,-2.962,5.0,3.0
94096,-0.169,-0.136,1.047,34.969,0.634,-3.107,4.0,2.0
94145,-0.150,0.043,0.996,35.916,-6.397,-11.336,0.0,3.0
94184,-0.141,0.067,0.968,-1.031,-13.954,-22.481,8.0,4.0
94233,-0.129,0.062,0.938,-41.565,-16.557,-35.328,0.0,7.0
94272,-0.099,-0.163,1.071,-22.008,-11.374,-36.145,4.0,7.0
94310,-0.126,-0.100,1.004,26.053,-8.160,-27.847,6.0,6.0
94349,-0.099,0.022,0.959,23.412,-4.664,-23.046,5.0,10.0
94387,-0.055,0.003,0.986,11.153,-0.366,-26.176,5.0,6.0
94430,-0.108,0.002,1.004,9.954,5.244,-26.046,17.0,6.0
94479,-0.110,-0.005,1.011,-0.679,6.168,-25.985,0.0,9.0
94518,-0.124,-0.045,1.025,13.008,6.740,-29.702,5.0,22.0
94557,-0.167,0.039,0.999,10.611,3.786,-28.733,6.0,9.0
94596,-0.129,0.024,1.022,8.191,0.588,-29.771,6.0,15.0
94635,-0.141,0.024,1.028,12.687,-2.076,-30.763,9.0,16.0
94681,-0.158,0.054,1.018,10.359,-5.244,-28.092,9.0,140.0
94728,-0.129,0.041,1.029,7.328,-8.053,-26.824,11.0,139.0
94774,-0.123,0.051,0.995,12.496,-7.672,-26.206,11.0,138.0
94824,-0.131,0.056,0.968,9.389,-5.084,-29.573,17.0,137.0
94870,-0.135,0.059,0.950,12.221,-3.130,-38.573,16.0,137.0
94927,-0.169,0.037,0.913,21.237,3.053,-46.771,0.0,137.0
94985,-0.153,-0.003,0.836,58.237,20.198,-69.092,0.0,139.0
95033,-0.242,-0.036,0.739,117.916,52.153,-104.534,32.0,140.0
95092,-0.508,-0.124,0.739,232.252,67.542,-119.527,0.0,177.0
95150,-0.687,0.443,0.402,250.130,28.344,-121.359,0.0,132.0
95211,-0.617,0.851,0.475,191.069,13.252,-155.969,0.0,0.0
95271,-0.629,0.659,0.397,134.519,25.374,-167.611,0.0,0.0
95331,-0.809,0.604,0.316,107.527,44.809,-170.244,193.0,116.0
95391,-0.898,0.445,0.236,136.580,43.405,-168.603,193.0,0.0
95453,-1.043,0.383,0.039,170.924,40.397,-161.771,198.0,0.0
95513,-1.201,0.476,-0.135,153.786,36.427,-148.206,0.0,0.0
95575,-1.255,0.366,-0.077,106.420,16.985,-107.634,0.0,0.0
95632,-1.144,0.300,0.014,78.901,2.916,-35.847,141.0,0.0
95690,-1.007,0.160,0.093,91.550,-12.626,5.809,142.0,0.0
95748,-0.964,0.276,0.049,100.924,-22.573,39.046,143.0,0.0
95806,-0.922,0.349,0.017,59.053,-14.511,49.397,143.0,0.0
95866,-0.994,0.289,0.066,-28.672,-9.794,48.275,142.0,0.0
95968,-0.923,0.195,0.079,44.130,-8.435,39.466,142.0,0.0
96025,-0.887,0.272,0.019,57.679,1.344,36.137,141.0,0.0
96082,-0.929,0.349,-0.149,64.000,9.702,36.099,141.0,0.0
96141,-0.917,0.251,-0.119,50.924,16.130,5.053,141.0,0.0
96198,-0.914,0.448,-0.071,-4.221,6.840,6.504,141.0,0.0
96256,-0.937,0.268,-0.050,40.916,6.947,-4.626,140.0,0.0
96315,-0.866,0.451,-0.127,52.992,-3.290,21.656,173.0,0.0
96373,-0.940,0.376,-0.097,-54.969,5.427,-19.550,141.0,0.0
96434,-0.921,0.291,-0.041,1.908,-5.344,-9.901,140.0,0.0
96492,-0.950,0.285,-0.062,33.336,-6.092,-3.656,140.0,0.0
96549,-0.912,0.356,-0.119,7.634,-10.313,-18.405,141.0,0.0
96608,-0.964,0.242,-0.095,-20.214,-3.344,-25.023,140.0,0.0
96665,-0.928,0.322,-0.180,-9.565,5.153,-29.000,140.0,0.0
96722,-1.000,0.126,-0.111,-46.855,8.168,-34.573,140.0,0.0
96781,-0.926,0.232,-0.106,-13.183,8.275,-47.763,140.0,0.0
96838,-0.982,0.120,-0.089,-18.458,0.458,-33.542,141.0,0.0
96900,-1.028,0.118,-0.080,-30.000,-0.885,-40.618,141.0,0.0
96958,-0.980,0.184,-0.077,-7.916,-0.542,-25.290,142.0,0.0
97016,-1.025,0.062,-0.026,-21.878,0.130,-14.611,143.0,0.0
97074,-1.012,0.167,-0.088,29.649,-10.847,-6.832,143.0,0.0
97132,-0.948,0.198,-0.081,-36.481,-7.305,-15.573,144.0,0.0
97190,-0.994,-0.043,-0.050,23.832,-6.740,4.664,143.0,0.0
97248,-1.015,0.090,-0.098,12.435,-5.985,5.580,144.0,0.0
97306,-0.952,0.193,-0.128,49.069,-5.153,10.924,144.0,0.0
97364,-0.965,0.135,-0.086,-10.939,1.435,2.992,143.0,0.0
97431,-0.962,0.123,-0.071,3.855,-6.252,5.687,143.0,0.0
97487,-0.941,0.113,-0.050,-13.924,-0.053,5.756,143.0,0.0
97545,-1.036,0.070,-0.299,49.145,6.221,11.061,143.0,0.0
97601,-0.972,0.162,-0.115,-50.412,0.656,-6.573,142.0,0.0
97658,-1.005,-0.020,-0.036,-11.992,4.351,-0.137,141.0,0.0
97715,-0.961,0.202,-0.134,-13.046,1.740,3.763,141.0,0.0
97771,-0.983,0.062,-0.036,-20.496,1.244,0.725,140.0,0.0
97828,-0.948,0.245,-0.110,-15.969,2.687,7.809,140.0,0.0
97885,-1.006,0.043,-0.050,-28.443,2.076,0.985,140.0,0.0
97944,-0.907,0.187,-0.092,-12.748,2.168,3.458,139.0,0.0
98001,-1.016,0.060,-0.083,-25.710,0.962,0.290,139.0,0.0
98058,-0.937,0.148,-0.120,-5.931,2.038,-0.282,139.0,0.0
98114,-0.993,0.083,-0.091,-1.878,-0.847,-2.939,139.0,0.0
98171,-0.974,0.172,-0.080,9.466,-2.779,-4.786,139.0,0.0
98228,-0.967,0.191,-0.084,-12.679,-2.908,-5.550,139.0,0.0
98284,-0.969,0.160,-0.049,-14.595,-4.374,-5.916,139.0,0.0
98341,-0.978,0.203,0.003,-4.282,-10.420,5.275,139.0,0.0
98398,-1.033,0.462,-0.104,-16.794,-9.870,15.908,139.0,0.0
98458,-0.986,0.502,-0.034,-22.595,-5.687,58.435,137.0,0.0
98514,-0.932,0.747,-0.144,-23.885,4.374,84.321,135.0,0.0
98571,-1.067,0.830,-0.151,-79.092,5.092,108.450,131.0,0.0
98631,-1.036,0.800,-0.031,-46.481,3.389,142.504,0.0,0.0
98692,-1.066,1.000,-0.074,-93.221,4.771,167.672,0.0,0.0
98749,-1.034,0.932,0.008,-73.954,-5.076,166.618,156.0,0.0
98805,-0.917,1.023,0.015,-77.542,-21.504,159.092,133.0,0.0
98904,-0.698,0.818,0.082,-94.603,-32.733,124.886,117.0,0.0
98959,-0.497,0.806,0.147,-82.817,-30.634,112.718,109.0,0.0
99017,-0.386,0.695,0.214,-84.779,-33.206,93.176,101.0,0.0
99072,-0.191,0.609,0.368,-87.305,-38.412,78.466,95.0,0.0
99126,-0.092,0.528,0.415,-62.466,-34.260,62.672,94.0,0.0
99180,0.015,0.551,0.484,-57.901,-37.099,45.985,86.0,0.0
99234,0.097,0.557,0.469,-51.374,-31.748,30.427,90.0,0.0
99288,0.160,0.474,0.527,-43.145,-30.893,16.076,86.0,0.0
99340,0.237,0.565,0.513,-13.847,-24.122,15.901,87.0,162.0
99393,0.306,0.610,0.569,-12.626,-14.794,9.618,80.0,0.0
99446,0.298,0.657,0.593,-31.931,-7.931,-0.710,86.0,0.0
99504,0.341,0.642,0.766,-10.794,-13.214,2.863,81.0,0.0
99557,0.300,0.764,0.816,-13.405,-17.870,6.244,87.0,0.0
99611,0.353,0.927,0.962,-24.153,-30.420,4.382,87.0,0.0
99665,0.240,0.861,1.020,-62.450,-53.191,4.221,84.0,0.0
99719,0.251,0.686,0.958,-32.351,-83.443,12.573,81.0,0.0
99770,0.313,0.655,0.774,-28.924,-105.244,15.466,84.0,165.0
99822,0.436,0.573,0.623,-14.847,-107.473,10.779,81.0,167.0
99873,0.479,0.614,0.497,-22.458,-108.802,4.901,66.0,167.0
99927,0.572,0.533,0.427,-39.229,-101.496,7.137,67.0,168.0
99978,0.557,0.501,0.362,-43.595,-94.298,7.939,62.0,178.0
100029,0.642,0.490,0.306,-61.038,-85.031,-0.183,60.0,176.0
100080,0.679,0.389,0.343,-54.137,-83.420,-5.481,64.0,175.0
100131,0.712,0.405,0.267,-25.702,-79.092,-12.649,67.0,174.0
100183,0.752,0.451,0.245,-18.679,-77.382,-17.374,58.0,172.0
100233,0.736,0.496,0.188,-10.366,-72.740,-22.412,57.0,170.0
100284,0.765,0.537,0.161,-18.763,-69.366,-23.832,59.0,170.0
100334,0.792,0.529,0.090,-26.511,-62.489,-24.519,57.0,169.0
100388,0.800,0.536,0.083,-6.756,-55.847,-19.702,58.0,168.0
100439,0.813,0.578,0.037,-4.321,-47.450,-18.901,57.0,170.0
100490,0.794,0.586,0.022,-10.389,-43.885,-16.084,59.0,179.0
100541,0.804,0.589,0.016,-7.931,-36.031,-11.649,58.0,173.0
100592,0.808,0.582,0.010,-13.496,-35.511,-13.298,59.0,172.0
100642,0.794,0.579,-0.016,-5.863,-33.107,-14.260,57.0,171.0
100694,0.773,0.632,-0.038,-2.985,-34.008,-16.267,58.0,168.0
100744,0.769,0.620,-0.036,-3.405,-30.962,-12.992,58.0,169.0
100798,0.765,0.673,-0.055,-15.794,-29.702,-13.504,58.0,169.0
100848,0.789,0.635,-0.042,-23.328,-28.145,-16.252,58.0,168.0
100901,0.733,0.634,-0.075,-24.176,-33.580,-19.901,66.0,0.0
100958,0.746,0.693,-0.141,-36.183,-30.725,-18.725,62.0,0.0
101009,0.741,0.550,-0.193,-31.641,-27.099,-22.824,63.0,165.0
101059,0.790,0.603,-0.238,-23.817,-12.473,-26.618,60.0,165.0
101110,0.699,0.561,-0.224,-46.534,6.534,-45.107,63.0,163.0
101160,0.591,0.480,-0.146,-65.779,21.870,-52.092,62.0,160.0
101211,0.573,0.399,0.069,-47.557,38.641,-68.107,64.0,142.0
101263,0.303,0.474,0.065,-16.328,25.916,-90.977,68.0,137.0
101312,0.277,0.666,0.173,-31.061,34.771,-126.382,72.0,130.0
101362,0.040,0.714,0.107,-71.458,26.802,-141.420,78.0,125.0
101415,-0.084,0.675,0.228,-109.840,52.786,-156.863,84.0,0.0
101471,-0.357,0.569,0.337,-149.809,61.366,-166.008,93.0,0.0
101570,-0.929,0.559,0.688,-38.664,72.939,-184.603,112.0,0.0
101628,-1.055,0.893,0.658,-12.992,51.359,-219.023,154.0,0.0
101689,-1.091,0.618,0.729,31.527,27.580,-196.603,0.0,0.0
101753,-1.382,0.863,0.409,23.359,8.519,-187.969,0.0,0.0
101814,-1.314,0.617,0.359,79.588,2.405,-138.214,193.0,0.0
101872,-1.161,0.406,0.298,71.702,-16.992,-112.840,0.0,165.0
101927,-1.176,0.619,0.186,107.137,-22.534,-120.046,0.0,93.0
101982,-1.137,0.668,0.174,38.435,-30.763,-115.511,0.0,87.0
102036,-1.003,0.447,0.249,16.687,-21.511,-94.954,0.0,82.0
102090,-1.022,0.257,0.273,53.092,-34.634,-64.786,0.0,77.0
102144,-0.990,0.428,0.181,69.008,-27.725,-43.870,0.0,73.0
102197,-0.924,0.427,0.276,32.160,-17.702,-34.191,0.0,71.0
102254,-0.961,0.331,0.418,15.015,-17.756,-12.107,0.0,79.0
102308,-0.924,0.422,0.461,7.198,-20.489,4.718,0.0,79.0
102363,-0.906,0.493,0.485,-12.298,-26.924,12.168,0.0,81.0
102417,-0.899,0.492,0.517,-40.794,-30.893,29.733,0.0,84.0
102471,-0.904,0.469,0.515,-64.443,-37.489,44.519,0.0,87.0
102526,-0.902,0.415,0.454,-56.053,-42.794,69.916,0.0,93.0
102582,-0.818,0.518,0.325,-67.481,-38.107,89.595,0.0,100.0
102637,-0.922,0.481,0.253,-104.359,-20.328,101.252,0.0,108.0
102694,-0.910,0.406,0.289,-98.756,-11.847,119.527,0.0,117.0
102758,-1.016,0.469,0.206,-99.176,-1.137,133.840,198.0,0.0
102818,-0.994,0.465,0.171,-133.382,13.084,138.366,188.0,0.0
102880,-1.058,0.432,0.187,-122.481,20.015,149.336,0.0,0.0
102941,-1.102,0.434,0.110,-132.389,22.626,154.824,0.0,0.0
103002,-1.146,0.443,0.103,-135.641,37.053,160.351,0.0,0.0
103063,-1.241,0.488,0.098,-150.611,50.397,164.427,0.0,0.0
103122,-1.274,0.364,0.142,-153.718,53.740,182.763,163.0,0.0
103183,-1.310,0.339,0.155,-141.939,52.237,187.290,199.0,0.0
103245,-1.250,0.340,0.127,-120.221,54.878,189.740,189.0,172.0
103305,-1.229,0.306,0.093,-106.389,69.450,185.389,0.0,165.0
103365,-1.229,0.401,0.101,-106.832,83.489,178.924,195.0,185.0
103425,-1.183,0.419,0.156,-112.824,97.878,171.115,180.0,196.0
103482,-1.226,0.392,0.201,-141.214,99.176,161.634,166.0,167.0
103538,-1.282,0.398,0.246,-138.557,98.740,157.992,154.0,147.0
103598,-1.266,0.341,0.280,-120.626,93.427,169.763,0.0,177.0
103655,-1.217,0.344,0.262,-99.542,92.565,170.992,0.0,128.0
103716,-1.158,0.398,0.281,-90.069,95.267,160.519,0.0,136.0
103786,-1.117,0.405,0.287,-96.824,103.809,145.153,0.0,182.0
103845,-0.877,0.261,0.491,-61.977,106.038,135.282,0.0,189.0
103905,-1.050,0.096,0.598,-91.695,85.038,103.534,0.0,196.0
103963,-0.940,0.198,0.713,-28.015,70.603,77.527,0.0,153.0
104015,-0.821,0.105,0.830,-18.718,46.000,45.321,0.0,70.0
104072,-0.823,0.048,0.846,-32.901,22.046,18.878,0.0,72.0
104125,-0.795,-0.047,0.852,-0.603,-5.588,-6.466,0.0,71.0
104181,-0.790,-0.073,0.782,45.832,-31.267,-35.267,0.0,69.0
104237,-0.894,0.023,0.613,66.603,-50.649,-80.649,0.0,65.0
104299,-0.993,0.013,0.490,96.115,-71.855,-107.405,0.0,192.0
104358,-1.128,0.198,0.311,108.015,-85.817,-132.863,0.0,183.0
104418,-1.357,0.204,0.160,138.389,-98.641,-145.443,0.0,172.0
104518,-1.285,0.487,-0.123,68.496,-90.595,-132.061,0.0,160.0
104578,-1.155,0.528,-0.074,151.824,-88.832,-139.443,0.0,170.0
104631,-1.108,0.498,-0.172,189.695,-97.725,-148.702,152.0,136.0
104685,-1.074,0.664,-0.223,169.275,-78.160,-143.641,162.0,124.0
104748,-1.074,0.505,-0.145,164.099,-72.458,-126.573,174.0,0.0
104807,-1.010,0.623,-0.189,134.305,-52.466,-113.794,186.0,0.0
104867,-1.038,0.485,-0.160,119.908,-36.191,-80.305,196.0,0.0
104928,-0.937,0.720,-0.217,92.351,-7.267,-33.351,0.0,0.0
104987,-0.910,0.571,-0.192,60.099,24.137,-49.916,0.0,0.0
105048,-0.731,0.688,-0.197,97.870,44.069,-76.084,0.0,0.0
105105,-0.875,0.642,-0.057,85.038,47.550,-105.160,153.0,0.0
105162,-0.967,0.446,0.047,129.565,41.397,-94.481,144.0,0.0
105221,-1.153,0.657,0.024,134.710,34.550,-86.870,150.0,0.0
105281,-1.070,0.547,0.139,91.122,19.985,-61.397,155.0,0.0
105338,-1.071,0.482,0.132,54.641,13.786,-17.885,157.0,0.0
105397,-0.993,0.465,0.126,45.802,11.053,18.603,158.0,0.0
105455,-1.043,0.542,0.071,-5.359,5.481,43.076,158.0,0.0
105512,-1.026,0.457,0.015,-64.435,3.679,58.214,156.0,0.0
105570,-1.020,0.345,-0.019,-85.328,2.824,67.305,154.0,0.0
105628,-0.945,0.346,-0.016,-74.031,2.282,73.275,151.0,0.0
105686,-1.017,0.460,-0.073,-80.076,4.580,81.618,149.0,0.0
105749,-0.849,0.418,-0.033,-56.725,14.023,100.763,0.0,0.0
105809,-0.603,0.545,-0.033,-46.412,28.221,74.595,0.0,0.0
105870,-0.590,0.553,-0.083,-75.183,45.374,23.779,0.0,0.0
105930,-0.702,0.611,-0.132,-109.260,58.046,-24.031,0.0,0.0
105991,-0.846,0.609,-0.138,-140.855,65.931,-41.298,0.0,0.0
106051,-0.979,0.455,-0.077,-128.221,56.168,-39.359,0.0,0.0
106112,-1.031,0.316,0.022,-74.679,21.443,-18.908,198.0,0.0
106172,-0.989,0.302,0.183,-4.214,0.115,23.817,195.0,0.0
106232,-1.063,0.485,0.462,48.412,-20.695,62.305,0.0,0.0
106296,-1.262,0.618,0.897,64.527,-77.511,72.412,0.0,0.0
106356,-1.416,0.894,0.940,105.183,-166.847,65.969,0.0,0.0
106417,-1.540,1.196,0.477,127.908,-223.107,116.641,192.0,0.0
106473,-1.229,1.379,0.078,102.580,-207.702,174.359,126.0,0.0
106528,-1.068,1.459,-0.271,-14.489,-150.305,222.260,111.0,0.0
106582,-0.761,1.087,-0.262,-55.702,-107.786,235.779,96.0,170.0
106634,-0.518,1.088,-0.370,-113.931,-62.084,248.901,82.0,181.0
106685,-0.423,0.736,-0.358,-194.359,-21.870,247.687,72.0,154.0
106741,-0.141,0.339,-0.156,-182.160,-12.145,250.130,84.0,181.0
106801,0.212,-0.033,0.077,-129.924,-4.893,244.878,0.0,186.0
106861,0.333,-0.004,0.190,-113.466,24.290,203.237,0.0,195.0
106914,0.087,-0.088,0.319,-170.427,19.779,218.947,0.0,65.0
106967,0.148,-0.641,0.416,-157.588,-2.076,215.550,194.0,59.0
107017,0.419,-1.266,0.615,-85.962,-23.832,138.191,166.0,54.0
107067,0.285,-1.503,0.608,-54.153,-19.053,40.115,162.0,57.0
107117,0.222,-1.600,0.737,-18.939,-21.374,-56.580,162.0,55.0
107169,0.102,-1.290,0.599,42.481,-20.084,-137.137,189.0,57.0
107225,0.184,-0.901,0.509,38.344,-27.817,-205.099,196.0,57.0
107276,0.220,-0.497,0.408,34.901,-25.588,-237.794,187.0,59.0
107335,0.292,-0.271,0.390,35.427,-32.992,-250.137,194.0,189.0
107430,0.360,0.384,0.246,21.748,-45.000,-250.137,64.0,173.0
107481,0.329,0.634,0.207,10.687,-36.817,-250.137,57.0,164.0
107531,0.174,0.786,0.204,19.427,-34.000,-250.137,58.0,155.0
107580,0.064,1.113,0.198,47.382,-23.069,-213.534,61.0,140.0
107629,0.122,1.932,0.063,20.458,-2.534,-135.061,66.0,133.0
107681,0.028,2.000,0.110,-13.382,17.618,-31.229,70.0,131.0
107730,-0.000,2.000,0.305,-14.565,21.565,34.840,70.0,132.0
107780,0.020,1.924,0.210,-30.191,14.595,104.664,67.0,135.0
107831,0.071,1.324,0.320,-41.779,24.107,173.763,63.0,161.0
107881,0.137,1.251,0.138,0.985,43.725,250.130,59.0,168.0
107933,0.146,1.043,0.153,-126.481,62.695,250.130,70.0,171.0
107984,0.118,0.390,0.372,-143.702,42.580,250.130,67.0,178.0
108043,0.168,0.036,0.442,-93.832,27.611,250.130,196.0,153.0
108095,-0.014,-0.194,0.498,-34.863,6.695,250.130,187.0,59.0
108150,0.007,-0.511,0.529,-4.252,10.015,250.130,193.0,59.0
108200,-0.105,-1.067,0.584,-43.618,5.076,250.130,162.0,56.0
108251,-0.011,-1.698,0.760,-55.382,-11.626,138.878,157.0,51.0
108303,-0.157,-2.000,0.936,-6.420,-30.557,-7.084,0.0,50.0
108352,-0.214,-1.196,0.733,69.824,-41.756,-91.496,158.0,50.0
108405,0.051,-0.952,0.662,25.153,-46.008,-160.382,0.0,56.0
108456,0.150,-0.800,0.610,8.504,-34.885,-217.504,191.0,58.0
108510,0.223,-0.536,0.535,14.580,-34.542,-233.183,0.0,57.0
108566,0.261,-0.187,0.475,21.084,-45.328,-220.000,189.0,76.0
108625,0.592,0.052,0.469,42.061,-50.160,-207.931,196.0,189.0
108679,0.604,0.327,0.361,33.359,-53.137,-209.908,75.0,181.0
108730,0.551,0.477,0.204,16.992,-55.779,-218.702,60.0,174.0
108781,0.510,0.518,0.094,-8.511,-41.328,-220.886,58.0,169.0
108831,0.392,0.602,0.069,-16.053,-19.893,-202.863,61.0,160.0
108881,0.303,0.543,0.188,16.260,5.931,-140.886,60.0,149.0
108931,0.186,1.008,0.133,53.557,10.321,-108.168,66.0,136.0
108984,0.165,1.415,0.192,37.901,9.137,-111.527,72.0,128.0
109033,0.259,2.000,0.096,54.076,2.412,-102.550,75.0,123.0
109082,0.195,2.000,0.159,-1.817,11.626,-26.305,78.0,122.0
109131,0.199,2.000,0.094,-15.214,24.542,92.634,76.0,124.0
109181,0.135,1.768,0.074,-44.878,36.565,185.053,71.0,131.0
109232,0.137,1.455,0.030,-25.405,51.626,250.130,66.0,147.0
109285,0.056,1.157,-0.027,-65.962,72.664,250.130,66.0,0.0
109338,0.117,0.587,0.113,-107.382,78.863,250.130,88.0,175.0
109399,0.108,0.150,0.197,-109.397,81.855,250.130,0.0,188.0
109455,0.088,-0.489,0.345,-89.725,54.542,250.130,0.0,65.0
109507,0.130,-0.642,0.476,-52.336,62.176,250.130,192.0,57.0
109550,-0.007,-0.914,0.571,-61.053,60.855,191.748,17.0,57.0
109592,-0.355,-1.156,0.672,-66.084,40.084,134.244,17.0,51.0
109644,-0.378,-1.340,0.791,-36.321,10.252,76.420,0.0,52.0
109701,-0.296,-1.480,0.829,-11.679,-23.176,-3.351,0.0,53.0
109743,-0.038,-1.339,0.761,28.443,-30.344,-90.817,16.0,51.0
109794,0.089,-1.114,0.661,16.275,-24.519,-150.756,180.0,54.0
109849,0.061,-0.834,0.585,20.443,-13.145,-196.519,186.0,54.0
109901,0.141,-0.641,0.496,27.084,-16.870,-216.809,192.0,57.0
109956,0.221,-0.344,0.428,59.061,-20.931,-205.313,0.0,73.0
110059,0.497,0.022,0.321,66.969,-21.328,-192.679,196.0,186.0
110118,0.486,0.340,0.167,24.489,11.916,-198.809,0.0,178.0
110172,0.382,0.354,0.177,-92.656,63.534,-204.573,86.0,171.0
110227,0.174,0.200,0.333,-45.397,97.962,-175.076,127.0,166.0
110278,-0.057,0.417,0.362,62.267,106.359,-150.260,86.0,145.0
110330,-0.183,0.678,0.272,101.107,105.969,-155.107,100.0,137.0
110386,-0.353,0.793,0.302,98.336,131.664,-182.748,99.0,130.0
110441,-0.807,0.900,0.238,69.359,136.878,-210.679,111.0,0.0
110498,-0.911,1.099,0.339,30.290,148.595,-216.229,129.0,0.0
110560,-1.050,1.380,0.342,29.046,181.519,-191.405,0.0,0.0
110621,-1.356,0.806,0.663,-36.710,144.725,-158.481,0.0,0.0
110683,-1.372,0.976,0.526,-14.107,126.740,-106.679,0.0,0.0
110740,-1.247,0.618,0.399,-29.908,98.344,-46.237,132.0,0.0
110797,-1.191,0.686,0.258,-91.153,86.908,-10.725,133.0,0.0
110859,-1.079,0.361,0.321,-99.435,52.817,-0.786,135.0,0.0
110926,-1.037,0.300,0.221,-58.290,33.244,25.733,0.0,0.0
110987,-0.971,0.483,0.094,-31.267,19.855,44.481,0.0,0.0
111046,-0.891,0.514,0.060,-30.519,12.176,46.504,0.0,0.0
111107,-0.864,0.595,0.000,-34.786,10.885,58.573,0.0,0.0
111167,-0.848,0.603,0.001,-3.702,7.893,81.435,0.0,0.0
111226,-0.791,0.663,-0.040,35.679,2.099,107.008,0.0,0.0
111287,-0.717,0.756,-0.101,66.008,-1.817,129.718,0.0,0.0
111347,-0.531,0.938,-0.142,29.000,4.588,131.481,0.0,0.0
111407,-0.466,1.077,-0.067,-50.954,16.031,119.450,140.0,0.0
111463,-0.252,1.098,0.145,-71.267,12.038,94.626,137.0,0.0
111519,-0.276,1.383,0.142,-118.702,10.656,93.076,133.0,0.0
111576,-0.135,1.323,0.332,-133.763,-13.611,95.389,129.0,0.0
111627,-0.191,1.433,0.279,-146.908,-30.931,101.626,123.0,119.0
111682,0.020,1.169,0.360,-96.237,-45.473,108.962,117.0,0.0
111735,0.051,1.214,0.224,-71.038,-49.763,107.832,110.0,166.0
111789,0.126,0.844,0.259,-47.359,-43.412,83.382,103.0,158.0
111841,0.060,0.654,0.216,21.336,-56.282,41.176,97.0,170.0
111893,0.018,0.698,0.120,15.015,-54.534,-14.198,91.0,113.0
111945,-0.042,0.565,0.217,-10.725,-52.786,-48.725,87.0,170.0
111996,-0.035,0.616,0.266,16.298,-48.053,-41.473,84.0,171.0
112049,0.090,0.627,0.341,14.947,-59.992,-27.550,82.0,173.0
112101,0.183,0.734,0.325,65.634,-50.412,-22.947,80.0,174.0
112152,0.201,0.865,0.217,68.634,-52.366,-19.580,80.0,173.0
112204,0.233,0.942,0.144,29.542,-38.244,-31.267,79.0,173.0
112256,0.249,1.017,0.080,-27.397,-20.908,-30.756,79.0,174.0
112311,0.227,0.823,0.246,-39.786,-3.855,-13.038,79.0,174.0
112363,0.237,1.013,0.178,1.779,-4.038,1.939,79.0,176.0
112414,0.218,1.018,0.183,-8.435,0.282,0.160,79.0,174.0
112466,0.247,0.965,0.249,-19.977,3.229,5.756,79.0,174.0
112518,0.190,0.907,0.245,-17.679,6.023,10.130,79.0,174.0
112570,0.211,0.847,0.291,-20.405,18.458,23.252,79.0,175.0
112621,0.104,0.794,0.213,-60.061,43.290,50.473,79.0,175.0
112672,0.004,0.676,0.311,-83.260,80.473,86.855,80.0,154.0
112720,-0.249,0.612,0.252,-48.481,98.092,135.473,83.0,114.0
112773,-0.174,0.802,0.177,-92.038,93.313,122.145,87.0,114.0
112863,0.208,0.482,0.343,30.519,66.702,68.420,41.0,118.0
112909,0.374,0.785,0.396,71.374,39.321,26.832,40.0,120.0
112956,0.675,0.791,0.539,169.122,51.267,-10.466,42.0,131.0
113010,0.768,1.230,0.391,105.023,49.511,-29.679,108.0,173.0
113065,0.885,1.273,0.595,157.282,71.046,-20.649,111.0,0.0
113121,0.818,0.985,0.629,143.702,47.725,35.779,113.0,0.0
113176,0.648,1.341,0.555,74.947,51.725,76.802,113.0,0.0
113234,0.512,0.733,0.605,53.481,36.069,84.389,112.0,0.0
113291,0.475,1.010,0.349,12.244,25.267,70.336,113.0,0.0
113346,0.421,0.688,0.335,-20.420,-22.382,27.145,112.0,0.0
113401,0.602,0.768,-0.022,-20.412,-16.443,0.756,112.0,0.0
113462,0.567,0.517,0.253,47.924,-2.298,-8.496,0.0,0.0
113518,0.548,0.850,0.067,28.931,-3.779,4.237,130.0,0.0
113573,0.720,0.923,0.123,-50.206,3.779,-11.809,112.0,0.0
113630,0.659,0.679,0.205,-27.718,15.382,-15.534,111.0,0.0
113685,0.656,0.704,0.167,-10.168,20.382,-9.916,111.0,0.0
113743,0.625,0.739,0.176,-9.656,22.466,-1.985,111.0,0.0
113799,0.618,0.744,0.178,9.672,17.817,10.000,110.0,0.0
113854,0.596,0.670,0.168,20.076,10.534,6.954,111.0,0.0
113909,0.590,0.887,0.261,0.901,-3.695,-14.962,111.0,0.0
113967,0.423,1.273,0.474,-114.832,-25.771,-16.725,131.0,0.0
114022,0.254,0.885,0.810,-109.366,-73.504,-52.710,112.0,0.0
114075,0.382,1.046,0.509,-96.870,-125.893,-79.275,110.0,169.0
114129,0.430,0.975,0.335,-138.466,-136.252,-130.099,109.0,168.0
114183,0.468,0.844,0.376,-112.679,-132.924,-159.603,108.0,164.0
114237,0.252,1.063,0.313,-108.809,-135.573,-172.519,51.0,164.0
114290,0.147,1.005,0.349,-109.260,-154.931,-169.954,106.0,165.0
114339,-0.190,1.383,0.054,16.969,-188.015,-123.595,105.0,105.0
114390,-0.164,0.924,0.172,-41.542,-174.153,-105.534,103.0,105.0
114440,-0.179,0.911,0.108,28.565,-148.802,-77.595,102.0,106.0
114489,-0.078,0.840,0.191,41.344,-134.069,-65.176,101.0,106.0
114544,-0.058,0.849,0.206,37.756,-114.481,-61.328,100.0,0.0
114599,-0.017,0.768,0.231,67.595,-117.305,-47.939,100.0,0.0
114656,0.096,1.014,0.067,93.626,-97.305,-45.000,100.0,175.0
114710,0.077,0.992,0.030,35.389,-68.588,-48.672,101.0,175.0
114763,0.047,1.022,0.011,14.527,-41.756,-35.656,101.0,176.0
114818,0.052,1.019,0.015,21.053,-25.695,-14.237,102.0,175.0
114871,0.067,1.127,-0.053,37.031,-18.061,2.840,102.0,175.0
114925,0.058,1.063,-0.083,-0.634,-6.893,-0.557,102.0,174.0
114978,0.042,1.135,-0.109,0.298,-0.634,-0.145,103.0,174.0
115033,0.016,0.990,-0.073,-9.626,7.496,5.519,102.0,174.0
115086,0.035,1.044,-0.116,-4.038,12.557,5.290,102.0,173.0
115143,0.026,0.940,-0.082,-12.382,18.885,0.160,102.0,173.0
115196,0.052,1.016,-0.159,-14.328,23.038,-6.740,103.0,172.0
115250,0.033,0.919,-0.161,-26.748,38.565,-10.321,103.0,171.0
115304,0.010,0.821,-0.167,-6.824,59.069,-3.901,103.0,169.0
115357,-0.051,0.822,-0.306,-45.237,88.374,-6.565,104.0,166.0
115410,-0.064,0.957,-0.249,-19.359,138.145,21.786,106.0,162.0
115463,-0.221,0.916,-0.202,-31.107,202.183,33.298,107.0,131.0
115518,-0.319,1.050,-0.412,-112.466,250.130,20.931,110.0,0.0
115620,-0.670,0.651,-0.325,-80.397,250.130,24.092,116.0,0.0
115677,-0.576,1.381,-0.298,-51.527,250.130,55.802,120.0,0.0
115734,-0.618,0.852,-0.109,48.939,250.130,76.183,123.0,0.0
115790,-0.662,1.316,-0.590,88.863,250.130,46.069,126.0,0.0
115847,-1.236,1.476,-0.453,35.901,250.130,73.298,58.0,0.0
115904,-0.890,1.329,-0.092,50.496,250.130,102.534,126.0,0.0
115960,-0.417,1.010,0.022,66.198,192.893,103.794,124.0,0.0
116017,-0.055,1.018,-0.206,111.504,128.466,92.771,124.0,0.0
116077,0.099,1.017,-0.383,47.397,88.237,50.481,127.0,0.0
116133,0.313,0.836,-0.333,24.634,65.313,40.450,125.0,0.0
116191,0.459,0.877,-0.307,31.527,45.389,25.649,127.0,0.0
116247,0.333,0.852,-0.101,24.031,30.328,14.137,128.0,0.0
116304,0.540,0.806,-0.225,-28.931,-13.565,-5.191,124.0,0.0
116361,0.538,0.805,-0.212,23.626,2.229,-6.725,122.0,0.0
116417,0.557,0.908,-0.254,-8.076,-0.130,-12.237,121.0,0.0
116463,0.546,0.851,-0.238,-1.458,0.771,-6.763,122.0,18.0
116509,0.542,0.908,-0.248,-14.412,-0.634,-1.847,122.0,18.0
116570,0.518,0.863,-0.234,-28.435,-2.389,1.038,123.0,0.0
116626,0.503,0.910,-0.179,-28.481,-12.092,2.275,122.0,0.0
116682,0.366,1.028,-0.163,-73.107,-33.344,-1.221,121.0,0.0
116740,0.237,0.994,0.107,-121.450,-87.542,-3.405,121.0,0.0
116796,0.174,1.127,0.137,-86.389,-144.565,-6.267,119.0,0.0
116848,0.306,1.081,-0.002,-118.824,-191.511,-10.435,119.0,133.0
116901,0.260,1.014,-0.108,-98.191,-213.000,5.115,118.0,132.0
116954,0.164,0.692,-0.220,-77.473,-248.870,22.977,118.0,134.0
117007,0.191,0.582,-0.275,2.824,-250.137,15.336,119.0,136.0
117062,0.280,0.843,-0.531,66.321,-228.282,9.511,121.0,133.0
117115,0.014,0.813,-0.629,1.145,-195.977,-38.527,122.0,130.0
117168,-0.268,0.534,-0.632,53.511,-158.489,-49.420,125.0,129.0
117221,-0.183,0.931,-0.904,117.237,-92.092,-0.901,128.0,128.0
117274,0.035,0.978,-0.784,-10.855,-37.122,14.130,130.0,126.0
117326,0.022,0.815,-0.639,-17.443,-27.710,10.954,131.0,126.0
117380,-0.034,0.856,-0.625,14.580,-25.015,10.397,132.0,125.0
117433,-0.113,0.979,-0.669,-11.015,-11.069,7.511,132.0,126.0
117489,-0.195,0.934,-0.590,-50.099,5.573,3.374,132.0,127.0
117542,-0.249,0.905,-0.518,-87.634,25.527,-24.031,131.0,133.0
117595,-0.222,0.872,-0.565,-161.282,52.947,-90.450,131.0,111.0
117653,-0.177,0.855,-0.595,-250.137,75.023,-172.008,131.0,0.0
117710,-0.189,0.383,-0.294,-250.137,105.015,-246.893,134.0,0.0
117768,-0.566,0.132,0.117,-217.595,130.221,-243.084,0.0,134.0
117825,-0.911,0.113,0.367,-35.618,115.221,-245.893,0.0,120.0
117880,-1.380,0.256,0.388,157.863,57.344,-175.794,176.0,122.0
117949,-1.308,0.610,0.035,249.359,-6.427,-94.565,183.0,0.0
118009,-1.053,0.262,0.018,250.130,-51.130,-44.405,191.0,0.0
118069,-0.860,0.406,-0.290,250.130,-39.275,15.389,0.0,0.0
118126,-0.871,1.001,-0.092,166.282,-25.489,41.656,135.0,0.0
118182,-1.174,0.780,0.468,25.847,-45.237,49.282,138.0,0.0
118243,-1.738,0.442,0.771,114.084,-153.336,142.237,0.0,0.0
118303,-1.570,0.844,0.578,215.137,-213.855,192.397,0.0,0.0
118363,-1.102,1.261,0.079,223.115,-234.779,235.450,0.0,0.0
118464,-0.916,0.972,-0.363,2.763,-184.824,188.435,118.0,0.0
118519,-0.755,0.478,-0.300,66.053,-141.519,170.802,106.0,0.0
118568,-0.260,0.585,-0.219,98.725,-73.588,179.580,97.0,102.0
118618,-0.150,0.564,-0.261,70.756,-34.107,157.992,91.0,117.0
118667,0.120,0.368,-0.165,39.214,-25.008,118.023,85.0,124.0
118716,0.232,0.448,-0.213,17.351,-17.542,74.855,82.0,126.0
118765,0.337,0.381,-0.161,-23.557,-12.336,35.656,79.0,128.0
118814,0.440,0.496,-0.140,24.107,-15.771,20.786,77.0,129.0
118863,0.526,0.725,-0.244,26.260,-9.542,17.412,77.0,130.0
118916,0.555,0.761,-0.282,-3.679,1.084,9.824,77.0,130.0
118964,0.529,0.782,-0.281,0.153,3.427,4.580,77.0,130.0
119013,0.551,0.813,-0.237,-12.092,0.267,0.168,77.0,130.0
119062,0.553,0.814,-0.264,-15.824,-4.756,-4.443,77.0,130.0
119111,0.548,0.771,-0.279,-1.466,-6.206,-1.863,77.0,130.0
119160,0.558,0.834,-0.352,-20.885,6.221,-5.649,77.0,129.0
119209,0.604,0.937,-0.377,-81.092,23.405,-8.595,77.0,129.0
119259,0.634,0.938,-0.294,-165.366,62.046,-14.740,78.0,130.0
119308,0.585,0.845,-0.116,-132.145,88.130,8.740,76.0,130.0
119364,0.556,1.014,-0.114,-109.565,108.397,37.672,76.0,0.0
119413,0.495,0.920,-0.004,-85.145,141.023,91.786,76.0,129.0
119462,0.486,0.977,0.029,-30.183,176.733,128.611,76.0,131.0
119513,0.416,1.044,0.046,-82.855,203.160,141.740,88.0,136.0
119562,0.294,0.705,0.395,-93.786,213.237,175.756,46.0,154.0
119610,0.219,0.524,0.624,-29.282,201.687,209.725,41.0,145.0
119659,0.112,0.197,0.790,44.802,185.191,222.015,37.0,168.0
119709,0.120,0.648,0.746,60.679,177.450,222.252,32.0,0.0
119760,0.015,0.347,0.871,67.046,171.672,216.687,35.0,149.0
119808,-0.160,0.517,0.827,49.305,167.038,201.771,27.0,137.0
119854,-0.172,0.366,0.858,88.336,148.588,191.206,22.0,136.0
119901,-0.221,0.678,0.729,102.618,150.595,176.611,23.0,134.0
119947,-0.276,0.587,0.793,108.290,126.794,166.886,23.0,136.0
119994,-0.221,0.597,0.648,125.985,100.359,156.420,19.0,139.0
120048,-0.135,1.005,0.690,115.878,79.695,142.702,121.0,186.0
120103,-0.108,0.896,0.711,69.656,48.473,120.763,109.0,185.0
120161,0.083,1.063,0.596,37.267,37.198,85.366,101.0,0.0
120216,-0.160,1.063,0.825,70.458,5.511,55.542,102.0,0.0
120271,0.086,0.938,0.665,-11.687,-9.359,19.237,103.0,0.0
120327,0.134,0.858,0.570,26.519,0.443,22.511,121.0,0.0
120382,0.156,0.897,0.642,2.305,4.771,13.771,105.0,0.0
120437,0.230,0.753,0.598,10.504,10.229,18.855,105.0,0.0
120492,0.234,0.612,0.666,25.015,10.695,14.137,105.0,0.0
120547,0.151,0.525,0.777,14.153,-9.885,-27.405,105.0,0.0
120599,0.062,0.476,0.754,81.122,-48.809,-78.763,106.0,149.0
120653,0.139,0.719,0.469,87.664,-98.435,-99.321,38.0,0.0
120709,0.207,0.829,0.190,40.748,-106.000,-107.641,38.0,0.0
120764,0.079,0.634,0.166,133.000,-117.916,-83.771,114.0,0.0
120815,-0.158,0.937,-0.178,127.886,-128.832,-98.000,118.0,121.0
120867,-0.274,0.974,-0.239,96.550,-143.687,-93.962,123.0,116.0
120919,-0.647,0.679,-0.224,145.702,-178.679,-110.092,128.0,112.0
120971,-0.942,0.888,-0.376,147.962,-195.542,-111.107,134.0,108.0
121066,-0.931,0.822,-0.294,139.275,-121.336,-67.672,171.0,80.0
121131,-0.740,0.930,-0.384,161.802,-69.305,-26.634,189.0,68.0
121188,-0.748,0.827,-0.440,102.046,-42.412,-11.397,193.0,111.0
121250,-0.702,0.855,-0.506,53.160,-25.878,-11.206,194.0,0.0
121314,-0.677,0.744,-0.488,45.718,-26.702,-9.137,196.0,0.0
121369,-0.719,0.671,-0.488,20.481,-2.191,-1.237,197.0,64.0
121423,-0.721,0.686,-0.466,-12.763,16.374,6.084,197.0,62.0
121479,-0.734,0.633,-0.397,17.076,20.687,20.580,196.0,63.0
121534,-0.761,0.673,-0.401,7.115,29.298,28.908,195.0,63.0
121588,-0.769,0.882,-0.517,-30.710,65.198,43.412,194.0,63.0
121649,-1.066,0.425,-0.523,-54.878,140.344,86.122,192.0,112.0
121705,-0.979,0.806,-0.887,4.435,201.198,121.588,160.0,114.0
121760,-0.727,0.795,-0.866,-92.969,196.046,79.313,141.0,118.0
121816,-0.286,0.816,-0.626,-113.618,129.588,68.611,136.0,123.0
121871,-0.114,0.330,-0.320,-134.229,42.870,10.916,131.0,126.0
121925,0.215,0.518,-0.242,-60.389,-20.260,-33.481,129.0,128.0
121985,0.239,0.646,-0.242,-77.496,-79.115,-122.878,130.0,0.0
122040,0.159,0.490,-0.097,-116.084,-106.550,-204.000,58.0,0.0
122102,-0.192,1.175,-0.162,-126.313,-109.176,-218.511,137.0,0.0
122164,-0.500,0.675,0.200,19.046,-93.290,-202.282,156.0,0.0
122226,-0.564,0.960,-0.097,148.489,-62.061,-125.443,0.0,0.0
122290,-0.687,1.281,-0.265,12.252,-28.939,-93.588,0.0,0.0
122353,-0.971,0.352,0.157,15.137,-18.992,-84.237,0.0,0.0
122417,-0.899,0.508,-0.150,247.130,-49.153,-9.740,0.0,0.0
122480,-0.775,0.686,-0.406,146.313,-31.550,-7.550,0.0,0.0
122540,-0.834,0.560,-0.300,12.198,-23.145,-28.672,142.0,0.0
122603,-0.917,0.456,-0.072,17.481,-23.313,-31.183,141.0,0.0
122663,-0.845,0.527,-0.116,14.847,-14.519,-16.954,141.0,0.0
122723,-0.929,0.459,-0.140,-39.267,-8.260,-10.817,140.0,0.0
122783,-0.950,0.288,0.030,-5.069,-25.038,7.878,140.0,0.0
122843,-0.979,0.354,-0.027,133.504,-52.763,28.817,138.0,0.0
122903,-0.872,0.625,-0.223,133.893,-39.168,45.702,138.0,0.0
122967,-0.838,0.904,-0.326,-14.252,-17.962,40.198,0.0,0.0
123026,-0.871,0.996,-0.274,-98.405,8.824,42.038,147.0,0.0
123086,-0.945,0.936,-0.182,-89.145,9.908,86.901,143.0,0.0
123153,-1.010,1.359,-0.226,-168.863,22.802,115.809,0.0,0.0
123214,-1.175,0.831,-0.058,-235.557,9.504,114.992,167.0,0.0
123278,-1.043,0.808,0.135,-237.107,-14.756,108.527,188.0,0.0
123338,-1.020,0.547,0.397,-214.290,-54.817,96.534,148.0,0.0
123390,-0.737,0.525,0.535,-166.924,-71.779,78.817,55.0,146.0
123445,-0.664,0.257,0.658,-125.595,-101.427,69.542,51.0,188.0
123499,-0.530,0.276,0.562,-57.237,-117.198,72.473,51.0,0.0
123563,-0.282,0.435,0.356,-55.832,-106.763,64.153,0.0,191.0
123628,0.105,0.202,0.382,-90.412,-63.840,7.641,187.0,191.0
123689,0.352,-0.123,0.384,-112.794,-16.427,-2.046,185.0,190.0
123752,0.343,-0.163,0.349,17.260,52.893,0.824,186.0,191.0
123813,-0.023,0.243,0.392,11.832,104.977,-28.931,184.0,191.0
123876,-0.415,-0.039,0.321,23.931,107.160,-20.573,183.0,192.0
123936,-0.501,0.214,0.279,112.893,114.321,-7.924,183.0,154.0
124000,-0.365,0.412,0.272,194.107,146.687,-31.908,0.0,0.0
