Timestamp(ms),AccelX(g),AccelY(g),AccelZ(g),GyroX(deg/s),GyroY(deg/s),GyroZ(deg/s),DistanceLeft(cm),DistanceRight(cm)
96007,-0.253,1.098,0.047,-32.710,-8.374,-2.649,135.0,103.0
96088,-0.207,1.200,0.205,-42.809,-11.534,14.824,61.0,104.0
96171,-0.215,1.329,0.365,-122.359,-17.130,19.618,131.0,75.0
96254,-0.234,1.124,0.505,-144.947,-34.130,11.863,127.0,113.0
96339,-0.250,0.882,0.417,-122.573,-48.916,-16.038,123.0,120.0
96427,-0.283,0.674,0.366,-79.298,-50.809,-29.771,139.0,140.0
96514,-0.219,0.539,0.434,-43.763,-35.229,-20.748,139.0,141.0
96605,-0.161,0.567,0.568,-9.076,-17.000,-1.313,0.0,86.0
96688,-0.089,0.546,0.720,10.382,-7.809,2.168,137.0,86.0
96772,-0.094,0.657,0.771,-6.198,0.718,-7.229,135.0,86.0
96856,-0.146,0.683,0.864,-17.015,-1.069,-12.756,152.0,86.0
96942,-0.169,0.547,0.913,12.786,-26.069,-11.603,173.0,85.0
97029,-0.138,0.589,0.845,57.298,-49.695,-16.099,126.0,141.0
97114,-0.169,0.711,0.737,89.229,-69.527,-26.191,108.0,142.0
97200,-0.154,0.891,0.707,59.427,-73.832,-36.595,102.0,141.0
97285,-0.139,0.811,0.690,35.496,-85.550,-35.580,99.0,144.0
97373,-0.060,0.894,0.469,78.802,-93.847,-22.649,95.0,146.0
97458,-0.022,0.962,0.307,72.931,-92.099,-24.176,90.0,148.0
97541,0.056,0.918,0.150,58.954,-75.260,-12.489,88.0,120.0
97626,0.082,1.058,0.051,17.466,-50.977,-4.962,86.0,152.0
97710,0.081,0.971,0.116,14.870,-32.008,1.191,84.0,131.0
97793,0.090,0.999,0.113,-40.321,-23.679,-1.885,83.0,126.0
97876,0.079,0.631,0.262,12.321,-20.046,-7.748,82.0,132.0
97959,0.004,0.942,0.110,-30.450,-11.382,8.779,81.0,132.0
98046,0.035,0.872,0.201,25.908,-2.435,21.267,81.0,131.0
98137,0.123,0.969,0.242,-10.947,-1.145,13.412,80.0,131.0
98220,0.171,1.030,0.198,10.504,-2.214,16.137,80.0,129.0
98301,0.128,0.969,0.181,-0.748,-5.053,14.725,79.0,129.0
98383,0.150,0.912,0.176,-0.313,0.153,11.092,79.0,130.0
98465,0.157,0.862,0.179,5.656,5.985,6.824,79.0,135.0
98547,0.208,0.708,0.170,-11.733,11.740,-15.244,80.0,131.0
98630,0.145,0.592,0.166,-37.053,22.359,-36.779,83.0,128.0
98712,-0.021,0.591,0.157,-6.153,48.786,-61.931,88.0,125.0
98799,-0.260,0.853,0.164,-42.122,54.618,-100.557,97.0,141.0
98883,-0.497,0.781,0.304,-54.786,79.542,-113.458,109.0,131.0
98965,-0.646,0.967,0.375,-59.481,95.321,-121.382,142.0,59.0
99054,-0.631,0.645,0.568,-109.603,120.168,-89.977,130.0,0.0
99139,-0.725,0.588,0.507,-122.954,130.649,-37.725,128.0,135.0
99225,-0.928,0.458,0.548,-105.214,110.886,-19.313,129.0,135.0
99309,-1.183,0.229,0.367,-124.489,91.542,-7.122,129.0,117.0
99394,-1.099,0.272,0.290,-95.954,79.145,21.649,130.0,115.0
99481,-0.922,0.133,0.312,100.466,22.664,12.504,131.0,160.0
99568,-0.947,0.531,0.030,94.954,16.626,-7.061,132.0,0.0
99657,-0.980,0.433,0.013,-52.389,16.618,-16.687,132.0,0.0
99746,-0.989,0.284,0.035,-38.328,8.206,4.786,131.0,0.0
99835,-0.943,0.323,-0.033,-4.305,-0.008,22.718,130.0,0.0
99924,-0.919,0.331,-0.061,-9.840,0.397,24.771,130.0,0.0
100014,-0.929,0.329,-0.065,-10.565,2.458,11.580,129.0,0.0
100103,-0.915,0.291,-0.017,-3.229,0.252,-1.519,129.0,0.0
100192,-0.922,0.309,-0.001,15.221,-4.359,-11.947,130.0,0.0
100285,-0.916,0.347,-0.015,15.420,-5.519,-18.298,131.0,0.0
100374,-0.922,0.332,-0.014,14.595,-6.802,-20.641,132.0,0.0
100463,-0.925,0.378,-0.051,11.817,-6.145,-18.183,133.0,0.0
100553,-0.946,0.368,-0.058,6.298,-2.458,-5.595,133.0,0.0
100642,-0.949,0.351,-0.034,-3.221,0.809,11.939,132.0,0.0
100726,-0.942,0.309,-0.033,2.924,2.290,29.817,131.0,112.0
100816,-0.946,0.346,-0.056,-0.145,3.267,33.519,129.0,0.0
100902,-0.926,0.321,-0.052,0.847,2.595,27.389,128.0,149.0
100988,-0.927,0.317,-0.040,5.053,0.450,16.924,127.0,149.0
101081,-0.912,0.326,-0.016,12.916,-4.160,-1.183,128.0,0.0
101170,-0.905,0.354,-0.041,16.992,-8.229,-18.076,128.0,0.0
101260,-0.907,0.372,-0.062,14.595,-9.947,-33.649,130.0,0.0
101349,-0.964,0.483,-0.029,-1.015,-5.504,-30.656,131.0,0.0
101434,-0.944,0.555,-0.023,-19.092,-9.687,21.092,131.0,112.0
101523,-0.863,0.724,-0.129,-41.809,4.115,79.191,129.0,0.0
101606,-0.913,0.653,-0.115,-51.473,15.985,114.305,125.0,96.0
101693,-0.911,0.674,-0.062,-39.405,20.924,145.855,191.0,94.0
101782,-0.697,0.858,-0.072,-35.527,30.756,148.298,170.0,96.0
101866,-0.448,0.881,-0.015,-40.557,41.733,127.977,139.0,100.0
101949,-0.219,0.861,0.012,-29.969,59.702,108.076,134.0,73.0
102029,-0.126,0.952,-0.005,-18.817,66.550,97.366,58.0,107.0
102109,-0.016,1.010,-0.004,5.061,87.886,103.359,45.0,111.0
102191,0.099,0.924,0.044,-15.893,120.565,90.351,124.0,83.0
102270,0.070,0.815,0.222,-11.351,106.931,50.443,34.0,116.0
102349,0.105,0.917,0.275,23.969,46.168,31.427,31.0,117.0
102428,0.163,1.032,0.173,3.634,7.939,14.214,32.0,117.0
102511,0.212,1.059,0.084,4.924,-1.595,20.397,33.0,117.0
102590,0.283,0.832,0.145,-5.702,5.786,7.992,31.0,118.0
102670,0.286,0.915,0.131,13.076,1.382,-5.748,40.0,118.0
102754,0.218,0.936,0.210,5.611,-21.000,-15.977,121.0,117.0
102834,0.113,1.064,0.203,-9.893,-63.573,-10.832,43.0,116.0
102913,-0.010,1.044,0.186,-34.130,-112.771,-26.290,33.0,116.0
102992,-0.029,0.905,0.155,-53.412,-164.870,-63.748,41.0,115.0
103072,-0.036,0.910,0.053,-37.763,-189.008,-115.122,45.0,113.0
103152,-0.244,1.018,0.047,-13.718,-182.893,-154.313,51.0,109.0
103230,-0.244,0.914,-0.043,56.519,-159.702,-155.137,57.0,105.0
103315,-0.348,0.929,-0.072,39.443,-118.053,-150.771,138.0,102.0
103401,-0.544,0.888,-0.080,46.214,-74.092,-140.084,156.0,99.0
103489,-0.746,0.741,-0.076,80.031,-49.679,-137.969,0.0,109.0
103580,-0.844,0.699,-0.071,55.725,-32.244,-132.031,149.0,0.0
103671,-0.971,0.559,0.009,9.634,-9.260,-98.015,152.0,0.0
103760,-0.975,0.479,0.080,15.641,3.885,-38.275,119.0,0.0
103849,-0.934,0.473,0.087,14.076,5.565,4.344,121.0,0.0
103943,-0.900,0.477,0.082,-2.534,5.397,19.084,144.0,0.0
104032,-0.915,0.533,0.034,-15.885,4.794,35.885,118.0,0.0
104124,-0.948,0.669,-0.074,-37.519,16.115,85.740,167.0,0.0
104212,-0.840,0.810,-0.244,-149.656,53.298,112.122,0.0,107.0
104302,-0.820,0.884,-0.251,-158.542,99.595,156.466,136.0,0.0
104388,-0.794,1.012,-0.153,-219.924,126.740,194.588,159.0,101.0
104473,-0.498,0.800,0.180,-122.366,105.168,199.695,134.0,107.0
104555,-0.229,0.798,0.345,-116.137,77.756,151.863,130.0,57.0
104635,-0.138,0.713,0.476,-121.107,51.588,96.092,41.0,63.0
104723,-0.187,0.589,0.632,-133.336,34.405,61.718,0.0,91.0
104809,-0.143,0.699,0.693,-87.618,13.153,46.313,158.0,90.0
104897,-0.096,0.355,0.860,-32.252,5.885,37.420,0.0,95.0
104984,-0.050,0.372,0.903,-24.504,6.351,25.779,0.0,90.0
105063,0.025,0.386,0.924,-10.687,7.160,22.313,43.0,90.0
105142,-0.002,0.421,0.940,-9.153,2.702,21.191,39.0,91.0
105221,-0.012,0.410,0.941,0.649,-1.977,18.206,37.0,90.0
105299,0.025,0.375,0.973,1.847,-3.603,12.947,37.0,90.0
105380,0.014,0.378,0.969,-0.183,-6.496,6.924,38.0,91.0
105459,0.027,0.385,0.944,0.901,-5.435,3.221,37.0,91.0
105538,0.000,0.367,0.938,3.901,-1.802,-3.130,36.0,91.0
105616,-0.062,0.393,0.931,9.664,-5.901,-10.183,37.0,91.0
105704,-0.234,0.287,0.926,102.328,-28.176,-20.145,0.0,90.0
105783,-0.264,0.662,0.651,162.824,-59.450,-29.122,34.0,90.0
105860,-0.017,0.823,0.505,117.878,-71.542,-61.221,35.0,73.0
105937,0.055,0.794,0.332,108.412,-88.221,-87.321,38.0,68.0
106014,-0.009,0.851,0.080,134.740,-120.420,-115.832,37.0,63.0
106097,0.094,0.936,0.012,64.771,-117.389,-147.863,43.0,108.0
106178,-0.144,1.323,-0.257,38.710,-98.504,-128.313,54.0,103.0
106263,-0.279,0.582,0.061,114.985,-69.130,-154.542,139.0,100.0
106351,-0.579,1.024,-0.252,83.779,-57.947,-156.748,197.0,96.0
106437,-0.920,0.578,-0.103,50.733,-33.481,-166.870,140.0,107.0
106523,-1.081,0.569,-0.187,39.634,-32.008,-137.763,145.0,99.0
106603,-1.067,0.406,-0.114,26.145,-15.481,-80.344,60.0,95.0
106690,-0.994,0.351,-0.076,-5.656,3.504,-18.885,63.0,0.0
106780,-0.958,0.342,-0.050,-13.092,10.344,23.298,63.0,0.0
106868,-0.928,0.416,-0.072,-15.443,8.718,42.336,103.0,0.0
106955,-0.916,0.568,-0.130,-34.122,18.878,71.710,59.0,0.0
107046,-0.945,0.629,-0.196,-42.893,35.130,118.679,143.0,0.0
107131,-0.853,0.878,-0.328,-67.679,61.244,150.634,137.0,112.0
107218,-0.715,0.886,-0.281,-75.252,76.939,161.695,168.0,95.0
107303,-0.500,0.882,-0.234,-61.908,89.527,155.244,139.0,100.0
107387,-0.263,0.844,-0.153,-61.626,105.321,129.481,132.0,75.0
107471,-0.079,0.887,-0.099,-40.679,114.550,97.359,45.0,110.0
107552,0.025,0.882,-0.026,-33.473,124.557,80.214,46.0,114.0
107632,0.032,0.956,0.043,-29.076,116.298,70.427,38.0,116.0
107712,0.113,0.948,0.127,-8.679,109.229,69.397,32.0,119.0
107793,0.123,0.883,0.224,1.489,94.160,55.282,30.0,121.0
107878,0.142,0.897,0.367,-9.092,59.656,30.817,118.0,121.0
107958,0.226,0.861,0.424,15.099,23.099,11.718,30.0,121.0
108039,0.264,1.001,0.321,6.145,-0.664,1.527,30.0,121.0
108124,0.249,0.949,0.326,-9.725,-20.145,-6.267,120.0,121.0
108213,0.234,0.941,0.293,-9.046,-34.885,-9.023,120.0,121.0
108293,0.169,0.960,0.314,-23.504,-49.397,-23.183,31.0,121.0
108372,0.104,1.030,0.373,-49.687,-75.008,-41.099,31.0,121.0
108453,0.124,0.984,0.494,-80.405,-117.061,-60.939,38.0,121.0
108534,0.124,0.958,0.510,-78.443,-153.275,-68.542,36.0,122.0
108613,0.217,0.995,0.396,-92.130,-164.580,-68.397,38.0,72.0
108690,0.291,0.894,0.406,-81.557,-141.176,-62.969,38.0,65.0
108768,0.380,0.988,0.470,-84.290,-104.786,-52.802,37.0,63.0
108859,0.444,0.788,0.635,-93.893,-69.145,-51.420,48.0,135.0
108940,0.381,0.763,0.586,-75.153,-69.672,-72.588,40.0,149.0
109022,0.333,0.883,0.524,0.313,-44.153,-81.886,45.0,147.0
109100,0.311,0.737,0.569,-112.733,-20.802,-118.695,51.0,78.0
109187,0.093,0.497,0.658,-55.191,-11.206,-140.351,127.0,159.0
109275,-0.203,0.670,0.511,-37.588,-13.290,-150.687,149.0,153.0
109362,-0.201,0.556,0.691,-42.870,7.084,-111.664,132.0,164.0
109450,-0.236,0.358,0.893,-8.061,-5.985,-43.534,132.0,168.0
109538,-0.146,0.640,0.805,39.397,-1.550,14.023,133.0,160.0
109627,-0.137,0.685,0.763,-1.092,10.725,28.183,133.0,153.0
109714,-0.196,0.619,0.785,10.389,9.992,50.260,132.0,153.0
109803,-0.123,0.688,0.707,27.832,19.229,106.145,177.0,154.0
109891,-0.083,0.893,0.551,-0.786,62.076,157.794,137.0,153.0
109973,-0.086,0.639,0.569,6.176,81.718,183.977,126.0,77.0
110051,0.204,0.734,0.661,73.092,108.786,188.168,47.0,85.0
110133,0.165,0.825,0.779,-0.076,104.389,171.290,38.0,151.0
110211,0.168,0.713,0.839,3.481,72.794,174.427,34.0,100.0
110291,0.195,0.554,0.834,8.359,53.916,145.099,31.0,98.0
110369,0.212,0.511,0.763,109.374,53.878,118.947,30.0,96.0
110446,0.198,0.654,0.620,128.038,51.221,84.695,31.0,79.0
110526,0.177,0.802,0.635,97.168,26.725,67.420,30.0,118.0
110610,0.329,0.839,0.616,81.366,8.290,49.718,120.0,124.0
110695,0.336,0.754,0.550,108.794,9.344,24.458,129.0,122.0
110775,0.374,0.695,0.369,67.061,25.092,-45.214,37.0,121.0
110854,0.118,0.992,0.357,84.886,42.802,-126.412,37.0,115.0
110934,0.078,1.662,0.144,82.832,14.939,-16.145,39.0,111.0
111015,0.261,0.924,0.330,-62.832,-3.634,5.542,37.0,111.0
111094,0.243,0.887,0.243,10.687,-13.824,14.374,39.0,112.0
111174,0.166,1.067,0.118,-13.481,-22.435,8.382,37.0,113.0
111253,0.074,0.948,0.140,4.092,-39.656,8.794,37.0,113.0
111333,0.125,1.025,0.245,-2.397,-68.214,3.191,37.0,114.0
111413,0.196,1.148,0.303,-37.565,-94.130,5.282,38.0,115.0
111492,0.263,1.048,0.223,-61.580,-107.351,17.214,37.0,118.0
111571,0.259,0.998,0.135,-76.740,-110.450,17.511,37.0,121.0
111652,0.344,0.918,0.127,-62.221,-110.695,17.802,37.0,123.0
111737,0.449,0.886,0.163,-101.099,-104.450,-3.198,115.0,83.0
111813,0.487,0.741,0.240,-110.527,-88.328,-25.771,45.0,46.0
111890,0.487,0.695,0.253,-72.519,-79.901,-43.366,44.0,50.0
111966,0.515,0.803,0.234,-69.008,-74.679,-38.405,40.0,50.0
112047,0.537,0.704,0.260,-32.473,-66.679,-32.893,44.0,131.0
112124,0.583,0.747,0.241,-25.908,-42.641,-36.458,44.0,82.0
112206,0.472,0.713,-0.353,-5.847,-32.435,-52.092,44.0,140.0
112285,0.646,1.423,0.019,34.901,-13.336,-38.466,51.0,81.0
112369,0.430,0.785,0.348,-42.878,1.641,-20.710,49.0,125.0
112449,0.426,0.907,0.310,-4.122,1.611,-5.153,48.0,125.0
112530,0.430,0.892,0.322,-0.969,-0.840,1.916,48.0,125.0
112611,0.440,0.910,0.293,3.298,9.824,8.962,48.0,125.0
112692,0.449,0.920,0.292,-5.611,17.664,14.695,47.0,126.0
112773,0.460,0.842,0.284,5.237,31.618,26.053,48.0,126.0
112850,0.487,0.876,0.226,33.481,55.595,48.794,45.0,80.0
112928,0.506,0.825,0.211,49.504,80.115,46.977,45.0,69.0
113005,0.454,0.783,0.240,95.023,98.122,38.710,45.0,66.0
113084,0.435,0.797,0.219,84.878,93.053,24.412,40.0,46.0
113162,0.351,0.835,0.137,58.511,87.687,3.779,42.0,72.0
113247,0.329,0.937,0.082,99.053,95.069,-5.069,118.0,121.0
113331,0.214,0.987,0.057,45.099,89.267,-23.664,119.0,119.0
113416,0.218,0.990,0.073,90.718,70.366,-24.977,122.0,116.0
113501,0.174,1.091,0.078,58.275,49.878,-22.962,124.0,113.0
113581,0.176,1.049,-0.002,37.176,28.748,-14.397,45.0,111.0
113660,0.186,1.080,-0.031,15.519,16.763,-8.305,46.0,110.0
113740,0.201,1.026,-0.057,22.580,5.771,-2.924,44.0,109.0
113823,0.202,1.063,-0.141,5.481,3.504,-2.710,46.0,109.0
113903,0.184,1.002,-0.131,-5.038,2.145,-0.466,39.0,109.0
113982,0.129,1.060,-0.164,-6.954,-4.168,1.977,38.0,109.0
114062,0.129,1.044,-0.103,-5.511,-15.870,1.160,37.0,110.0
114142,0.094,1.057,-0.071,-13.725,-37.939,1.115,37.0,110.0
114221,0.088,1.045,-0.077,-22.855,-54.649,-0.634,37.0,111.0
114300,0.106,1.051,-0.026,-34.718,-74.794,1.153,38.0,112.0
114381,0.125,1.062,0.046,-57.420,-93.947,7.878,49.0,113.0
114464,0.131,1.089,0.099,-77.687,-127.580,23.489,123.0,85.0
114552,0.251,0.990,0.138,-82.725,-140.771,29.313,120.0,117.0
114634,0.291,0.792,0.187,-87.397,-140.198,14.328,119.0,60.0
114712,0.301,0.743,0.101,-50.115,-135.542,-7.046,51.0,63.0
114790,0.372,1.008,-0.145,-15.809,-88.214,-12.221,52.0,75.0
114875,0.430,0.916,-0.056,-6.336,-21.145,-16.450,116.0,123.0
114960,1.545,1.343,-0.206,146.985,-16.740,25.611,117.0,122.0
115045,0.413,0.859,0.040,-64.489,7.870,-9.359,117.0,122.0
115130,0.409,1.012,0.089,-5.870,7.817,4.473,117.0,121.0
115215,0.388,0.902,0.153,0.489,-1.702,7.573,58.0,121.0
115300,0.439,0.991,0.063,0.550,6.618,7.084,117.0,122.0
115384,0.550,1.013,0.099,-31.099,36.092,10.031,116.0,123.0
115466,0.563,0.948,0.218,-80.176,69.847,11.153,52.0,125.0
115547,0.472,0.934,0.341,-110.489,88.886,10.885,48.0,128.0
115629,0.386,0.723,0.489,-161.008,96.977,11.603,45.0,145.0
115708,0.256,0.419,0.656,-124.947,100.389,3.565,38.0,96.0
115787,0.059,0.365,0.727,-20.542,90.275,-24.221,39.0,96.0
115875,-0.045,0.936,0.448,-91.550,78.214,-35.794,0.0,97.0
115968,-0.263,0.516,0.667,-36.641,78.382,-3.305,0.0,100.0
116055,-0.325,0.323,0.817,-75.504,92.649,-3.496,0.0,85.0
116143,-0.620,0.079,0.870,-67.641,71.160,-21.405,0.0,88.0
116231,-0.751,-0.082,0.911,36.870,33.267,-24.061,0.0,91.0
116319,-0.708,0.182,0.792,48.588,16.641,-8.878,0.0,92.0
116407,-0.689,0.149,0.843,-5.076,8.496,8.092,0.0,94.0
116493,-0.690,0.139,0.861,13.679,-4.702,9.168,0.0,63.0
116580,-0.753,0.130,0.882,18.420,-20.573,13.313,0.0,63.0
116668,-0.756,0.229,0.844,44.504,-55.366,39.344,0.0,94.0
116757,-0.631,0.380,0.682,99.756,-94.618,99.305,0.0,62.0
116840,-0.309,0.524,0.596,127.626,-105.450,109.046,131.0,63.0
116922,0.043,0.718,0.461,130.504,-86.344,103.977,120.0,61.0
116999,0.217,0.789,0.318,-8.809,-71.389,52.420,39.0,63.0
117076,0.427,0.625,0.408,48.336,-73.702,27.061,37.0,63.0
117154,0.490,0.866,0.259,88.878,-51.344,-15.328,39.0,66.0
117231,0.445,0.829,0.302,-26.962,-64.733,-63.504,41.0,66.0
117317,0.412,0.712,0.224,67.237,-50.031,-78.702,119.0,119.0
117401,0.248,1.159,0.041,67.351,-63.908,-76.015,51.0,115.0
117482,0.336,1.061,0.181,22.168,-71.237,-48.267,52.0,112.0
117567,0.363,1.162,0.174,24.863,-36.092,-24.260,127.0,104.0
117648,0.281,1.124,0.117,-20.977,15.038,-12.046,58.0,110.0
117733,0.199,1.024,0.051,-17.053,39.145,0.710,126.0,105.0
117818,0.187,0.949,0.031,-14.420,53.038,14.550,125.0,104.0
117899,0.291,1.024,0.104,-15.786,69.748,34.435,51.0,112.0
117980,0.422,1.104,0.164,-0.053,76.786,73.450,51.0,114.0
118061,0.448,1.499,-0.187,-11.282,92.687,113.389,51.0,117.0
118141,0.260,0.867,0.103,-63.756,109.282,108.298,39.0,71.0
118223,0.277,0.736,0.161,-12.137,90.634,85.588,38.0,126.0
118301,0.309,0.719,0.180,47.237,73.290,42.786,34.0,76.0
118382,0.152,0.788,0.171,32.153,59.237,-6.206,37.0,127.0
118463,0.132,0.823,0.291,47.962,40.527,-30.145,37.0,125.0
118544,0.059,1.117,0.353,46.863,24.008,-21.947,37.0,121.0
118625,0.074,1.110,0.406,11.504,12.756,9.145,38.0,120.0
118705,0.134,0.992,0.463,-23.237,-0.962,6.725,38.0,120.0
118786,0.142,0.955,0.456,3.008,-24.069,1.702,39.0,119.0
118868,0.184,1.003,0.354,-13.985,-27.198,-8.542,119.0,114.0
118949,0.179,0.940,0.355,-17.954,-33.015,-20.000,40.0,120.0
119030,0.221,0.985,0.464,-27.763,-46.450,-29.550,45.0,120.0
119111,0.306,1.122,0.543,-47.580,-49.603,-20.573,41.0,121.0
119189,0.372,1.145,0.696,-96.168,-50.336,4.160,41.0,75.0
119273,0.373,1.113,0.750,-157.267,-59.542,25.679,38.0,68.0
119350,0.383,1.026,0.807,-188.328,-48.282,34.618,36.0,76.0
119429,0.424,0.739,0.815,-155.481,-56.489,21.511,34.0,103.0
119510,0.406,0.284,0.563,-165.176,-103.962,-43.626,32.0,95.0
119587,0.369,0.089,0.406,-70.267,-112.153,-92.328,45.0,88.0
119665,0.392,0.098,0.322,-47.252,-111.359,-124.756,39.0,83.0
119745,0.621,0.241,0.295,-26.733,-88.878,-154.130,89.0,78.0
119824,0.477,0.407,0.234,-35.252,-68.939,-170.992,72.0,74.0
119904,0.411,0.389,0.238,7.015,-58.023,-160.840,74.0,74.0
119989,0.393,0.793,0.189,-3.252,-44.878,-175.969,71.0,181.0
120073,0.206,1.079,0.253,99.588,-40.656,-125.214,76.0,163.0
120159,0.235,1.719,-0.045,6.656,-4.779,-30.519,80.0,127.0
120241,0.168,1.509,0.103,-9.412,19.244,35.786,79.0,130.0
120326,0.193,1.414,0.099,-41.206,37.115,98.489,75.0,164.0
120410,0.210,1.084,0.229,-37.802,55.550,162.511,68.0,176.0
120488,0.292,0.835,0.263,-22.603,64.908,200.282,66.0,78.0
120568,0.401,0.630,0.325,-25.435,74.198,210.763,65.0,84.0
120648,0.395,0.292,0.423,-45.466,70.313,207.298,75.0,95.0
120736,0.452,-0.014,0.526,-37.740,60.878,189.382,0.0,93.0
120822,0.442,-0.307,0.651,5.779,41.290,174.397,0.0,75.0
120910,0.439,-0.332,0.713,21.962,42.229,160.634,0.0,62.0
120996,0.283,-0.281,0.805,-4.496,63.229,140.389,0.0,67.0
121083,-0.042,-0.504,0.963,-19.458,46.046,121.756,0.0,68.0
121160,-0.207,-0.492,0.974,16.153,17.298,120.076,44.0,77.0
121239,-0.313,-0.689,1.034,-9.954,-1.595,90.611,44.0,80.0
121317,-0.405,-0.854,1.050,-4.702,-19.366,33.450,44.0,83.0
121395,-0.375,-0.772,0.980,13.656,-31.916,-24.191,45.0,79.0
121473,-0.321,-0.699,0.923,3.641,-33.710,-75.901,44.0,79.0
121559,-0.136,-0.730,0.918,0.786,-38.748,-123.069,0.0,67.0
121648,-0.020,-0.483,0.828,-5.115,-44.878,-153.771,0.0,67.0
121734,0.207,-0.339,0.792,-6.427,-46.244,-157.504,0.0,62.0
121820,0.393,-0.158,0.708,-11.855,-46.969,-164.794,0.0,76.0
121908,0.460,-0.049,0.643,2.008,-59.198,-170.237,0.0,99.0
121996,0.560,0.275,0.448,22.611,-63.725,-168.534,0.0,102.0
122077,0.620,0.457,0.378,0.130,-54.649,-172.802,75.0,91.0
122156,0.456,0.576,0.349,19.244,-50.427,-169.206,65.0,83.0
122241,0.355,0.632,0.245,59.366,-49.229,-139.183,68.0,184.0
122329,0.330,0.878,0.090,13.069,-29.321,-132.115,70.0,173.0
122414,0.131,0.856,0.149,-10.656,-1.305,-116.466,77.0,160.0
122498,-0.075,0.835,0.239,-2.786,13.275,-124.733,87.0,150.0
122583,-0.255,0.863,0.240,-9.015,28.809,-115.908,98.0,139.0
122667,-0.391,0.850,0.197,-2.878,28.977,-114.298,108.0,129.0
122752,-0.526,0.962,0.191,4.198,50.183,-93.626,119.0,120.0
122836,-0.604,1.067,0.269,-14.244,42.748,-95.443,135.0,114.0
122923,-0.694,1.027,0.269,3.275,35.733,-67.618,149.0,109.0
123014,-0.740,0.957,0.232,-7.641,28.160,-43.443,159.0,0.0
123109,-0.764,0.804,0.181,21.000,18.198,-32.580,171.0,0.0
123202,-0.790,0.781,0.096,-24.832,16.321,-40.267,187.0,0.0
123290,-0.836,0.683,0.158,-9.130,11.626,-22.695,101.0,0.0
123379,-0.850,0.704,0.137,-2.198,5.496,-9.420,101.0,0.0
123467,-0.848,0.618,0.149,-7.153,1.786,4.954,102.0,0.0
123555,-0.817,0.583,0.105,4.893,0.214,18.855,101.0,0.0
123643,-0.791,0.559,0.081,-0.656,0.565,16.840,101.0,0.0
123731,-0.774,0.571,0.054,11.382,0.321,9.718,101.0,0.0
123820,-0.761,0.532,0.061,12.366,2.664,-0.695,101.0,0.0
123911,-0.781,0.572,0.054,5.809,1.405,-15.450,102.0,0.0
124008,-0.806,0.586,0.049,11.870,-0.954,-16.191,101.0,0.0
124096,-0.809,0.650,0.008,9.038,-0.763,-11.878,103.0,0.0
124184,-0.844,0.563,0.058,-3.046,1.191,-5.389,103.0,0.0
124271,-0.828,0.580,0.037,-4.511,-0.328,-1.611,103.0,0.0
124359,-0.828,0.571,0.016,2.008,-1.504,1.275,103.0,0.0
124447,-0.845,0.540,0.015,3.626,-0.641,3.962,104.0,0.0
124535,-0.820,0.573,0.008,8.542,-0.908,4.183,104.0,0.0
124623,-0.824,0.531,0.019,-2.160,-1.015,1.290,103.0,0.0
124713,-0.836,0.559,0.022,-3.122,-2.534,-2.214,103.0,0.0
124802,-0.833,0.574,0.014,-4.771,-2.382,-0.634,103.0,0.0
124890,-0.830,0.567,0.018,-13.473,-0.252,-0.695,103.0,0.0
124978,-0.822,0.561,-0.017,-31.565,5.389,-6.420,102.0,0.0
125066,-0.815,0.547,-0.012,-46.389,11.832,-1.656,103.0,0.0
125159,-0.836,0.605,-0.013,-106.603,22.611,-7.817,0.0,0.0
125249,-0.863,0.509,-0.023,-173.565,40.656,-10.115,140.0,0.0
125334,-0.870,0.402,0.082,-158.878,45.611,-2.053,135.0,112.0
125421,-0.888,0.397,0.107,-131.313,50.733,-0.519,131.0,114.0
125506,-0.938,0.353,0.070,-149.519,55.916,8.511,128.0,116.0
125592,-0.910,0.217,0.200,-136.496,51.771,27.061,126.0,140.0
125682,-0.950,0.254,0.145,-99.580,47.336,31.153,174.0,161.0
125771,-0.968,0.327,0.082,-91.092,45.962,24.305,0.0,134.0
125861,-0.951,0.289,0.071,-61.733,38.832,20.420,0.0,137.0
125950,-0.965,0.318,0.043,-52.328,33.710,21.824,0.0,116.0
126040,-0.969,0.322,0.041,-42.725,28.809,33.756,0.0,121.0
126131,-0.932,0.342,0.000,-37.794,27.061,39.260,0.0,146.0
126223,-0.854,0.388,0.024,-7.344,24.962,25.840,0.0,127.0
126313,-0.963,0.355,0.078,-7.985,6.305,6.260,0.0,135.0
126402,-0.929,0.375,0.065,57.794,-9.664,8.061,0.0,131.0
126492,-0.909,0.541,-0.020,4.908,-0.405,-4.275,0.0,129.0
126581,-0.922,0.342,0.069,-9.427,-15.496,-11.221,0.0,134.0
126671,-0.991,0.442,0.025,20.237,-33.511,14.947,0.0,129.0
126761,-0.891,0.443,0.002,61.824,-46.229,32.901,0.0,132.0
126852,-0.859,0.460,-0.008,99.298,-64.198,59.137,0.0,145.0
126943,-0.781,0.662,-0.099,137.710,-73.847,81.977,188.0,107.0
127029,-0.659,0.763,-0.147,126.397,-58.763,101.977,171.0,98.0
127115,-0.528,0.952,-0.238,55.580,-44.878,114.550,154.0,99.0
127199,-0.331,0.928,-0.198,-9.679,-36.626,105.076,137.0,102.0
127284,-0.164,0.889,-0.183,-13.198,-28.939,76.252,133.0,104.0
127364,-0.075,0.786,-0.062,-31.328,-30.290,37.290,55.0,107.0
127443,-0.054,0.838,-0.048,12.977,-33.153,7.832,51.0,108.0
127523,-0.074,0.786,-0.005,17.947,-39.969,-38.015,55.0,106.0
127608,-0.242,1.296,-0.197,33.679,-32.870,-9.947,133.0,98.0
127695,-0.137,1.026,-0.105,-11.824,-9.443,-0.466,134.0,104.0
127780,-0.178,0.950,-0.077,-3.389,-1.687,-8.198,134.0,105.0
127860,-0.141,1.012,-0.085,-0.153,2.756,-5.664,58.0,104.0
127940,-0.072,1.076,-0.095,-9.550,18.557,7.786,58.0,104.0
128021,-0.009,1.076,-0.123,-21.824,44.679,26.870,54.0,105.0
128105,-0.010,1.120,-0.162,-32.901,67.656,43.374,132.0,105.0
128185,-0.028,1.093,-0.161,-30.664,87.275,59.718,52.0,107.0
128265,0.005,1.016,-0.123,-35.321,100.809,60.298,44.0,110.0
128349,0.042,1.013,-0.108,-23.252,114.458,50.412,49.0,112.0
128429,0.062,0.963,-0.047,-25.725,111.336,32.969,37.0,114.0
128507,0.099,0.875,0.065,-8.099,99.908,16.603,34.0,115.0
128587,0.022,0.953,0.037,2.618,84.924,3.748,33.0,115.0
128666,0.061,0.834,0.103,18.435,67.489,6.389,35.0,114.0
128746,-0.069,1.007,0.084,29.336,43.145,-15.298,34.0,113.0
128826,-0.079,0.929,0.077,32.023,16.695,-10.763,37.0,111.0
128905,-0.110,1.101,-0.014,44.748,-11.290,-17.221,39.0,110.0
128985,-0.076,1.055,0.037,28.977,-21.527,-12.038,47.0,108.0
129068,-0.027,1.070,0.030,17.397,-18.947,-11.260,44.0,107.0
129147,-0.056,1.088,0.000,-6.344,-19.977,-7.580,47.0,107.0
129227,-0.067,1.068,-0.036,-8.756,-29.939,2.137,48.0,107.0
129307,-0.065,1.013,-0.041,-9.412,-37.962,8.229,43.0,107.0
129387,-0.074,1.017,-0.020,-11.122,-43.504,6.794,44.0,108.0
129467,-0.047,1.054,0.063,-24.237,-44.908,3.038,39.0,108.0
129547,-0.012,1.094,0.209,-94.389,-51.305,-4.069,38.0,109.0
129627,0.090,1.206,0.263,-121.115,-59.099,2.580,38.0,111.0
129707,0.112,0.983,0.380,-128.496,-62.794,-1.550,38.0,67.0
129784,0.102,0.797,0.441,-137.344,-59.771,-30.481,45.0,67.0
129861,0.042,0.798,0.521,-136.710,-49.725,-57.550,38.0,68.0
129951,-0.004,0.610,0.693,-139.977,-43.015,-65.458,0.0,117.0
130040,0.017,0.310,0.920,-102.191,-21.702,-45.641,0.0,113.0
130129,-0.008,0.358,0.913,-48.466,-11.969,-21.397,0.0,112.0
130219,-0.034,0.282,0.940,-20.122,-9.878,-15.328,0.0,111.0
130308,0.023,0.274,0.943,-14.183,-5.008,-12.466,0.0,110.0
130397,0.027,0.265,0.993,-6.710,-5.229,-13.405,0.0,110.0
130489,0.057,0.255,0.984,-5.099,-5.397,-9.672,0.0,108.0
130577,0.030,0.253,0.975,-5.947,-2.802,-7.954,0.0,108.0
130666,0.047,0.258,0.969,3.198,-0.962,-8.710,0.0,107.0
130754,0.015,0.247,0.981,2.107,1.397,-8.496,0.0,106.0
130843,0.006,0.204,0.970,5.366,2.931,-11.679,0.0,105.0
130931,-0.010,0.215,0.997,3.115,2.176,-17.122,0.0,104.0
131020,0.002,0.297,0.992,-2.802,5.435,-13.496,0.0,102.0
131108,-0.004,0.259,0.979,2.824,4.336,-6.489,0.0,101.0
131196,-0.063,0.166,0.943,14.901,1.901,-18.618,0.0,100.0
131288,-0.160,0.107,0.805,138.634,8.969,-41.321,0.0,98.0
131375,-0.294,0.347,0.530,250.130,12.344,-61.305,148.0,121.0
131460,-0.335,0.542,0.172,250.130,11.580,-107.122,130.0,109.0
131545,-0.685,1.396,-0.369,156.130,-28.275,-159.641,139.0,101.0
131632,-0.732,0.720,-0.092,113.267,-37.359,-158.168,176.0,96.0
131726,-0.852,1.017,-0.378,80.916,-28.328,-123.198,0.0,0.0
131816,-0.874,0.584,-0.180,-5.794,-8.695,-108.519,118.0,0.0
131902,-1.006,0.450,-0.104,-4.450,-2.420,-84.908,66.0,0.0
131995,-1.019,0.417,-0.066,7.878,8.015,-24.847,123.0,0.0
132082,-0.940,0.469,-0.088,2.695,5.534,13.206,76.0,0.0
132169,-0.920,0.404,-0.086,-18.099,-0.725,19.771,74.0,0.0
132259,-0.945,0.514,-0.167,-58.359,-0.031,36.649,122.0,0.0
132345,-0.922,0.597,-0.206,-57.473,17.985,79.450,147.0,101.0
132436,-0.831,0.825,-0.354,-62.878,47.656,112.748,0.0,141.0
132530,-0.735,0.872,-0.347,-132.305,88.305,124.595,180.0,0.0
132616,-0.702,0.792,-0.234,-158.458,104.053,125.649,160.0,97.0
132701,-0.533,0.886,-0.161,-118.206,107.870,126.076,139.0,102.0
132790,-0.363,0.819,-0.056,-127.702,104.206,104.122,132.0,107.0
132868,-0.230,0.760,0.090,-65.733,103.695,80.092,51.0,61.0
132945,-0.166,0.848,0.157,-40.527,102.809,59.756,44.0,65.0
133023,-0.224,0.846,0.272,-41.924,91.069,42.321,46.0,71.0
133103,-0.261,0.821,0.376,-5.313,58.168,27.733,38.0,113.0
133184,-0.304,0.955,0.339,8.496,34.786,26.603,37.0,112.0
133264,-0.231,0.894,0.385,6.382,15.168,17.748,37.0,112.0
133344,-0.208,0.933,0.358,3.847,-4.290,8.107,37.0,111.0
133427,-0.180,0.951,0.365,6.252,-16.244,3.618,37.0,111.0
133507,-0.175,0.926,0.347,5.954,-24.969,-6.611,37.0,110.0
133586,-0.212,0.929,0.324,8.817,-33.527,-16.069,36.0,110.0
133666,-0.281,0.912,0.308,14.550,-53.511,-37.015,38.0,109.0
133747,-0.298,0.825,0.373,24.702,-84.702,-63.397,40.0,109.0
133827,-0.390,0.907,0.265,43.496,-113.763,-79.886,50.0,107.0
133913,-0.465,0.778,0.176,74.275,-129.008,-104.916,133.0,105.0
133998,-0.461,0.838,0.009,71.092,-124.084,-124.725,137.0,102.0
134089,-0.588,0.707,-0.009,87.046,-94.473,-141.511,179.0,99.0
134178,-0.697,0.657,-0.057,86.214,-64.580,-142.389,174.0,119.0
134263,-0.859,0.658,-0.150,131.046,-50.466,-120.870,132.0,112.0
134355,-0.906,0.632,-0.131,59.756,-33.664,-107.977,139.0,0.0
134441,-0.952,0.434,-0.106,99.908,-13.466,-73.969,58.0,0.0
134529,-0.942,0.461,-0.115,69.221,1.107,-39.473,61.0,0.0
134615,-0.947,0.409,-0.035,7.328,14.137,-18.496,64.0,0.0
134702,-1.013,0.341,0.024,12.664,10.626,1.756,65.0,0.0
134789,-0.979,0.417,-0.010,-34.458,8.389,18.794,64.0,0.0
134884,-0.932,0.359,-0.029,-52.679,2.656,36.305,62.0,0.0
134974,-0.923,0.594,-0.212,-46.374,12.008,65.069,148.0,0.0
135059,-0.885,0.564,-0.207,-94.405,41.527,98.023,143.0,103.0
135144,-0.955,0.718,-0.208,-87.496,61.916,137.389,136.0,112.0
135229,-0.861,0.786,-0.138,-76.183,61.061,166.252,162.0,97.0
135314,-0.549,0.801,-0.073,-14.939,41.985,169.870,141.0,99.0
135394,-0.320,0.844,-0.046,13.260,36.015,147.191,58.0,103.0
135474,-0.167,0.864,-0.051,-13.084,31.015,110.748,58.0,108.0
135559,-0.118,0.821,0.010,-1.221,15.260,76.893,126.0,79.0
135642,0.097,0.971,-0.103,33.626,3.733,59.573,125.0,82.0
135724,0.232,0.891,0.008,-62.756,-1.038,27.656,123.0,84.0
135805,0.217,0.844,0.082,0.511,0.305,8.321,123.0,85.0
135888,0.215,0.999,-0.015,14.626,-2.756,-2.573,123.0,84.0
135970,0.234,1.004,0.004,-1.000,-1.573,-3.939,124.0,83.0
136050,0.299,1.072,0.032,1.969,4.458,-3.069,47.0,113.0
136130,0.362,1.096,0.085,-75.794,27.718,-5.336,43.0,114.0
136207,0.339,1.196,0.126,-217.191,40.023,-36.802,40.0,68.0
136286,0.156,0.959,0.405,-196.450,32.321,-31.412,33.0,66.0
136372,0.019,0.452,0.718,-174.076,17.962,-24.099,147.0,125.0
136458,-0.002,0.522,0.769,-192.473,13.840,-37.328,0.0,68.0
136548,-0.060,0.418,0.917,-47.206,2.695,-15.481,0.0,125.0
136637,-0.010,0.186,0.957,-20.656,0.595,-11.672,0.0,119.0
136725,-0.004,0.347,0.935,-2.656,3.084,-9.321,0.0,116.0
136814,0.007,0.352,0.953,1.634,-1.336,-7.550,0.0,116.0
136902,0.012,0.302,0.972,-4.702,-0.565,-4.527,0.0,114.0
136991,0.014,0.261,0.984,8.420,-0.397,-2.519,0.0,113.0
137082,0.006,0.310,0.976,-8.733,-1.641,-4.481,0.0,111.0
137170,-0.002,0.340,0.962,-8.443,-0.130,0.321,0.0,111.0
137260,0.000,0.321,0.962,-4.183,-0.313,-0.305,0.0,111.0
137348,-0.007,0.318,0.959,0.008,-0.313,-1.435,0.0,110.0
137436,-0.009,0.326,0.953,-4.527,0.626,-0.992,0.0,109.0
137525,-0.017,0.345,0.948,-1.695,-1.672,-0.557,0.0,109.0
137613,-0.017,0.326,0.960,-0.313,-1.122,-0.466,0.0,109.0
137701,-0.025,0.315,0.961,-3.450,-1.359,-0.985,0.0,108.0
137790,-0.008,0.316,0.965,-3.099,-0.107,-1.397,0.0,107.0
137881,-0.006,0.307,0.961,-2.748,0.740,-0.191,0.0,107.0
137969,-0.010,0.298,0.966,-1.153,0.336,-0.038,0.0,107.0
138057,-0.010,0.319,0.967,-2.305,2.168,-1.481,0.0,107.0
138145,-0.031,0.249,0.938,17.718,4.397,-4.176,0.0,107.0
138234,-0.115,0.175,0.904,101.412,13.115,-10.351,0.0,106.0
138321,-0.133,0.461,0.679,194.076,15.092,-18.275,160.0,121.0
138406,-0.201,0.724,0.405,200.580,12.611,-40.466,132.0,115.0
138491,-0.262,0.877,0.171,164.672,2.870,-87.420,130.0,109.0
138578,-0.410,0.934,0.101,95.344,-10.702,-124.198,137.0,102.0
138664,-0.606,0.971,-0.007,76.481,-21.015,-115.534,159.0,98.0
138759,-0.657,0.929,-0.033,63.336,-13.229,-108.763,194.0,0.0
138845,-0.827,0.673,0.027,21.511,-12.008,-102.092,130.0,149.0
138935,-0.942,0.457,0.025,63.229,-28.588,-81.893,133.0,0.0
139026,-1.021,0.429,-0.075,71.534,-30.908,-49.954,136.0,0.0
139116,-0.990,0.341,-0.100,42.656,-17.473,-18.779,140.0,0.0
139202,-0.888,0.321,-0.117,26.611,-8.023,-19.634,58.0,0.0
139288,-0.934,0.284,-0.094,30.328,-0.916,-25.710,63.0,0.0
139376,-0.940,0.297,-0.088,49.779,-1.519,-17.046,63.0,0.0
139463,-0.970,0.283,-0.069,44.580,-0.374,-19.809,67.0,0.0
139549,-0.973,0.308,-0.044,26.855,2.137,-18.473,74.0,0.0
139637,-0.969,0.306,-0.005,25.160,-0.405,-4.038,85.0,0.0
139727,-0.962,0.411,-0.028,22.962,-4.412,15.427,142.0,0.0
139817,-0.955,0.374,-0.011,-30.634,-3.458,23.153,140.0,0.0
139908,-0.975,0.373,-0.007,-45.023,-7.985,37.221,138.0,0.0
139999,-0.941,0.385,0.010,-18.595,-10.550,55.573,134.0,0.0
140092,-0.903,0.580,-0.102,-33.962,6.649,71.267,149.0,0.0
140183,-0.894,0.600,-0.119,-42.443,30.069,102.794,146.0,0.0
140271,-0.717,0.701,-0.177,-47.511,57.855,112.412,200.0,96.0
140357,-0.618,0.711,-0.163,-71.901,66.389,80.420,163.0,97.0
140442,-0.575,0.680,-0.111,-53.962,72.450,54.695,144.0,98.0
140527,-0.462,0.670,-0.107,-38.160,71.542,14.702,144.0,98.0
140612,-0.628,0.808,-0.176,-14.229,71.603,-16.992,148.0,98.0
140698,-0.600,0.840,-0.160,-38.122,63.069,-7.817,155.0,98.0
140784,-0.520,0.794,-0.108,0.107,51.282,-11.664,161.0,97.0
140874,-0.506,0.896,-0.168,-10.183,47.870,-15.740,171.0,97.0
140960,-0.550,0.840,-0.142,-19.153,37.885,-13.160,174.0,97.0
141047,-0.587,0.854,-0.154,-13.924,21.748,-2.802,164.0,96.0
141133,-0.557,0.802,-0.151,-5.710,6.496,2.496,165.0,96.0
141218,-0.550,0.866,-0.177,0.153,1.550,2.939,155.0,96.0
141304,-0.516,0.852,-0.186,-7.779,3.206,2.214,165.0,96.0
141391,-0.498,0.827,-0.193,-8.908,2.290,1.321,185.0,96.0
141478,-0.509,0.829,-0.192,-5.420,-0.702,1.817,180.0,97.0
141569,-0.519,0.823,-0.191,0.389,-1.176,3.740,175.0,96.0
141655,-0.524,0.807,-0.179,4.427,-3.557,4.939,159.0,96.0
141741,-0.535,0.812,-0.184,12.611,-7.023,5.191,159.0,96.0
141827,-0.597,0.820,-0.168,15.183,-16.023,4.977,169.0,95.0
141913,-0.643,0.853,-0.147,27.458,-27.710,9.824,168.0,94.0
142000,-0.624,0.840,-0.111,23.893,-43.511,11.191,169.0,95.0
142085,-0.573,0.847,-0.128,19.603,-48.427,5.748,147.0,94.0
142171,-0.555,0.813,-0.141,21.756,-54.046,0.702,167.0,95.0
142258,-0.642,0.851,-0.126,14.496,-57.893,9.863,175.0,96.0
142355,-0.639,0.923,-0.130,47.176,-73.603,47.023,145.0,98.0
142443,-0.434,1.051,-0.227,77.427,-73.267,104.023,142.0,99.0
142530,-0.221,1.032,-0.154,-24.550,-56.939,108.679,136.0,103.0
142618,-0.119,0.931,-0.036,-40.389,-40.939,80.565,131.0,108.0
142705,-0.056,0.871,0.002,-47.229,-40.443,52.504,127.0,107.0
142791,-0.001,0.890,-0.009,-18.298,-45.496,34.130,124.0,86.0
142875,0.076,0.910,0.002,-9.237,-40.519,27.092,58.0,113.0
142961,0.123,0.885,0.020,-3.985,-27.901,15.237,123.0,92.0
143051,-0.086,0.636,0.285,73.550,-40.550,-18.031,123.0,106.0
143136,0.149,1.094,-0.112,-4.702,8.595,-12.718,124.0,81.0
143222,0.090,1.031,0.037,-18.420,20.031,-8.580,125.0,81.0
143308,0.079,1.086,0.052,2.519,18.130,2.870,125.0,82.0
143394,0.125,1.034,-0.000,-12.824,24.573,0.305,125.0,102.0
143480,0.163,0.992,-0.052,-9.511,40.809,3.435,124.0,82.0
143563,0.220,0.984,-0.063,-8.885,65.985,4.115,58.0,113.0
143649,0.252,1.067,-0.094,-9.008,96.321,14.718,124.0,83.0
143735,0.215,1.044,-0.107,-21.947,123.122,26.618,123.0,83.0
143821,0.146,0.986,-0.095,-9.847,141.489,28.053,51.0,115.0
143905,0.101,1.020,-0.123,-14.382,151.076,23.565,48.0,116.0
143988,0.049,0.971,-0.077,-3.855,148.718,20.809,39.0,116.0
144075,0.020,0.984,-0.009,-6.855,132.695,21.282,122.0,115.0
144158,-0.046,0.942,0.077,14.092,95.374,18.725,39.0,115.0
144241,-0.088,1.070,0.028,28.672,76.252,16.466,38.0,114.0
144323,-0.098,0.968,0.080,33.718,46.229,10.504,36.0,113.0
144405,-0.046,1.049,0.086,41.626,30.649,11.702,36.0,111.0
144493,-0.068,1.055,0.146,16.855,13.893,2.053,127.0,110.0
144579,-0.020,1.096,0.104,25.046,-6.084,2.183,44.0,109.0
144665,-0.026,1.087,0.039,-7.427,-17.809,-0.237,128.0,87.0
144748,-0.032,1.005,0.076,-14.328,-42.198,-6.046,40.0,109.0
144830,-0.036,1.045,0.070,-13.145,-66.099,-12.817,39.0,109.0
144913,-0.037,1.089,0.100,-58.893,-80.725,-26.985,37.0,109.0
144996,-0.010,1.144,0.157,-132.389,-86.954,-58.626,46.0,110.0
145076,-0.086,0.870,0.413,-132.313,-82.603,-78.718,38.0,66.0
145162,-0.119,0.805,0.537,-154.489,-85.191,-99.115,149.0,65.0
145255,-0.106,0.710,0.751,-152.244,-83.840,-119.924,161.0,118.0
145347,-0.160,0.251,0.939,-70.031,-44.603,-93.840,0.0,114.0
145439,-0.132,0.401,0.880,-44.473,-26.122,-61.076,0.0,110.0
145531,-0.172,0.309,0.885,-22.779,-19.374,-39.038,0.0,107.0
145623,-0.118,0.277,0.942,-15.664,-12.481,-31.290,0.0,105.0
145721,-0.127,0.258,0.968,-2.626,-7.351,-19.427,0.0,103.0
145812,-0.111,0.235,0.975,0.458,-9.000,-16.718,0.0,102.0
145902,-0.115,0.249,0.976,-1.313,-6.962,-14.863,0.0,101.0
145994,-0.107,0.248,0.981,-2.809,-1.435,-8.252,0.0,101.0
146084,-0.095,0.231,0.978,2.496,-4.931,-6.153,0.0,100.0
146174,-0.114,0.237,0.971,-0.641,-3.740,-2.206,0.0,99.0
146265,-0.098,0.223,0.987,1.634,-4.061,-1.115,0.0,99.0
146355,-0.099,0.202,0.973,-0.626,-2.298,1.290,0.0,99.0
146445,-0.106,0.182,0.987,0.763,-1.969,-1.618,0.0,98.0
146534,-0.089,0.198,0.982,-2.168,-0.031,-3.214,0.0,98.0
146624,-0.108,0.216,0.990,-0.053,0.206,-3.275,0.0,97.0
146705,-0.101,0.221,0.978,1.015,-0.008,-1.824,37.0,97.0
146797,-0.107,0.239,0.985,1.298,-1.084,-0.824,0.0,96.0
146887,-0.107,0.219,0.990,1.244,-1.382,0.595,0.0,95.0
